Model Number: SPM-001-M   
Serial Number: 10090201
Firmware Version: 004.17.6
Exposure Time: 300000.000000us
Data Taken on: 28-01-2021 10:36:10.978
Wavelength	Amplitude
733.770752	0.000000
733.808716	0.000000
733.846619	0.000000
733.884583	0.000000
733.922546	0.000000
733.960449	0.000000
733.998413	0.000000
734.036377	0.000000
734.074219	0.000000
734.112183	0.000000
734.150085	0.000000
734.188049	0.000000
734.226013	0.000000
734.263916	0.000000
734.301819	0.000000
734.339783	0.000000
734.377686	0.000000
734.415588	0.000000
734.453552	0.000000
734.491455	0.000000
734.529419	0.000000
734.567322	0.000000
734.605225	0.000000
734.643127	0.000000
734.681091	0.000000
734.718994	0.000000
734.756897	0.000000
734.794800	0.000000
734.832703	0.000000
734.870667	0.000000
734.908508	0.000000
734.946472	0.000000
734.984375	0.000000
735.022278	0.000000
735.060181	0.000000
735.098083	0.000000
735.135986	0.000000
735.173889	0.000000
735.211792	0.000000
735.249695	0.000000
735.287598	0.000000
735.325439	0.000000
735.363403	0.000000
735.401306	0.000000
735.439148	0.000000
735.477051	0.000000
735.515015	0.000000
735.552856	0.000000
735.590759	0.000000
735.628662	0.000000
735.666504	0.000000
735.704407	0.000000
735.742310	0.000000
735.780212	0.000000
735.818115	0.000000
735.856018	0.000000
735.893860	0.000000
735.931763	0.000000
735.969604	0.000000
736.007507	0.000000
736.045410	0.000000
736.083252	0.000000
736.121094	0.000000
736.158997	0.000000
736.196838	0.000000
736.234741	0.000000
736.272644	0.000000
736.310486	0.000000
736.348389	0.000000
736.386230	0.000000
736.424072	0.000000
736.461975	0.000000
736.499878	0.000000
736.537720	0.000000
736.575562	0.000000
736.613403	0.000000
736.651306	0.000000
736.689148	0.000000
736.726990	0.000000
736.764893	0.000000
736.802734	0.000000
736.840576	0.000000
736.878418	0.000000
736.916321	0.000000
736.954102	0.000000
736.992004	0.000000
737.029846	0.000000
737.067688	0.000000
737.105530	0.000000
737.143372	0.000000
737.181213	0.000000
737.219116	0.000000
737.256897	0.000000
737.294739	0.000000
737.332642	0.000000
737.370422	0.000000
737.408325	0.000000
737.446167	0.000000
737.483948	0.000000
737.521790	0.000000
737.559692	0.000000
737.597473	0.000000
737.635315	0.000000
737.673157	0.000000
737.710999	0.000000
737.748840	0.000000
737.786621	0.000000
737.824463	0.000000
737.862305	0.000000
737.900085	0.000000
737.937927	0.000000
737.975769	0.000000
738.013550	0.000000
738.051392	0.000000
738.089233	0.000000
738.127014	0.000000
738.164856	0.000000
738.202698	0.000000
738.240479	0.000000
738.278320	0.000000
738.316162	0.000000
738.353943	0.000000
738.391785	0.000000
738.429565	0.000000
738.467407	0.000000
738.505188	0.000000
738.542969	0.000000
738.580811	0.000000
738.618652	0.000000
738.656372	0.000000
738.694214	0.000000
738.732056	0.000000
738.769836	0.000000
738.807617	0.000000
738.845459	0.000000
738.883240	0.000000
738.921021	0.000000
738.958862	0.000000
738.996582	0.000000
739.034424	0.000000
739.072205	0.000000
739.109985	0.000000
739.147827	0.000000
739.185547	0.000000
739.223389	0.000000
739.261169	0.000000
739.298889	0.000000
739.336731	0.000000
739.374512	0.000000
739.412292	0.000000
739.450073	0.000000
739.487854	0.000000
739.525635	0.000000
739.563416	0.000000
739.601135	0.000000
739.638977	0.000000
739.676758	0.000000
739.714478	0.000000
739.752258	0.000000
739.790100	0.000000
739.827820	0.000000
739.865601	0.000000
739.903381	0.000000
739.941101	0.000000
739.978882	184.700000
740.016724	181.500000
740.054443	184.200000
740.092224	180.500000
740.130005	178.400000
740.167725	178.600000
740.205505	179.200000
740.243225	186.600000
740.281006	180.800000
740.318787	176.900000
740.356506	186.000000
740.394287	183.400000
740.432068	178.600000
740.469727	177.700000
740.507507	183.900000
740.545288	181.300000
740.583008	184.200000
740.620789	182.100000
740.658569	176.300000
740.696228	181.400000
740.734009	185.100000
740.771790	173.800000
740.809509	184.900000
740.847229	178.500000
740.884949	181.000000
740.922729	176.700000
740.960449	180.700000
740.998169	178.400000
741.035950	178.800000
741.073669	180.700000
741.111389	182.900000
741.149170	189.400000
741.186890	190.100000
741.224609	184.700000
741.262329	183.300000
741.300110	188.200000
741.337769	178.800000
741.375549	177.900000
741.413208	183.500000
741.450989	178.600000
741.488708	181.100000
741.526367	178.800000
741.564148	184.800000
741.601868	184.800000
741.639526	181.300000
741.677307	183.200000
741.715027	183.800000
741.752686	178.500000
741.790466	186.900000
741.828186	182.600000
741.865845	178.600000
741.903564	177.300000
741.941345	181.800000
741.979004	178.500000
742.016724	186.300000
742.054382	181.300000
742.092102	184.400000
742.129822	177.500000
742.167480	181.400000
742.205200	180.300000
742.242920	183.400000
742.280640	184.300000
742.318359	178.600000
742.356079	180.600000
742.393738	183.900000
742.431396	182.000000
742.469116	184.500000
742.506775	176.100000
742.544495	183.300000
742.582214	183.900000
742.619873	179.600000
742.657593	186.700000
742.695251	184.800000
742.732971	181.300000
742.770630	182.800000
742.808289	183.400000
742.846008	180.500000
742.883728	180.900000
742.921326	182.600000
742.959045	180.400000
742.996765	180.900000
743.034424	182.000000
743.072083	179.900000
743.109802	182.400000
743.147400	178.000000
743.185120	183.400000
743.222839	181.600000
743.260437	186.700000
743.298157	183.600000
743.335754	176.900000
743.373474	181.200000
743.411133	177.500000
743.448792	181.800000
743.486450	181.700000
743.524170	176.300000
743.561768	180.900000
743.599487	187.100000
743.637146	189.100000
743.674744	180.300000
743.712463	180.800000
743.750122	181.600000
743.787720	183.100000
743.825439	180.900000
743.863037	180.300000
743.900696	182.100000
743.938416	205.500000
743.976013	181.700000
744.013672	186.500000
744.051331	185.400000
744.088928	187.500000
744.126587	185.200000
744.164307	183.500000
744.201904	179.000000
744.239563	183.000000
744.277222	184.200000
744.314819	181.500000
744.352478	187.100000
744.390137	182.500000
744.427734	182.600000
744.465393	180.200000
744.502991	179.700000
744.540649	183.000000
744.578308	183.800000
744.615906	179.300000
744.653564	176.900000
744.691223	182.700000
744.728821	179.100000
744.766418	182.400000
744.804077	184.300000
744.841675	179.100000
744.879333	178.200000
744.916992	181.000000
744.954529	181.100000
744.992187	186.100000
745.029785	181.700000
745.067444	179.800000
745.105042	182.400000
745.142639	182.200000
745.180298	190.900000
745.217896	181.200000
745.255493	182.100000
745.293152	185.500000
745.330750	187.300000
745.368347	186.300000
745.405945	184.700000
745.443604	183.000000
745.481140	183.400000
745.518799	183.100000
745.556396	185.100000
745.593994	184.000000
745.631592	182.400000
745.669189	178.100000
745.706787	182.800000
745.744385	180.100000
745.781982	184.100000
745.819580	179.500000
745.857178	180.700000
745.894775	181.400000
745.932373	182.400000
745.969971	183.000000
746.007568	176.200000
746.045166	188.000000
746.082764	186.900000
746.120300	183.200000
746.157898	183.900000
746.195557	181.000000
746.233093	177.600000
746.270691	184.800000
746.308228	181.800000
746.345825	185.200000
746.383423	183.600000
746.420959	180.300000
746.458557	181.300000
746.496155	180.400000
746.533691	181.500000
746.571289	178.500000
746.608887	181.200000
746.646423	182.300000
746.684021	183.000000
746.721619	178.900000
746.759155	183.600000
746.796753	177.400000
746.834351	178.300000
746.871826	179.900000
746.909424	186.300000
746.946960	181.800000
746.984558	180.600000
747.022156	180.700000
747.059631	188.700000
747.097229	183.500000
747.134827	180.300000
747.172363	187.300000
747.209900	183.600000
747.247498	178.400000
747.285034	185.200000
747.322571	185.900000
747.360168	181.500000
747.397644	177.600000
747.435242	184.800000
747.472778	184.600000
747.510315	181.000000
747.547913	181.300000
747.585388	186.600000
747.622925	181.100000
747.660522	177.600000
747.697998	180.000000
747.735596	181.800000
747.773132	179.500000
747.810669	183.100000
747.848206	184.500000
747.885742	179.800000
747.923279	177.700000
747.960815	184.000000
747.998352	183.500000
748.035889	186.300000
748.073425	184.400000
748.110901	180.500000
748.148437	179.400000
748.185974	181.600000
748.223511	188.400000
748.261047	184.500000
748.298584	182.500000
748.336060	182.700000
748.373596	184.900000
748.411133	208.400000
748.448608	179.000000
748.486145	185.200000
748.523682	185.200000
748.561218	188.500000
748.598755	181.900000
748.636292	183.300000
748.673706	180.900000
748.711243	188.500000
748.748718	182.500000
748.786255	180.500000
748.823792	182.700000
748.861267	179.300000
748.898804	182.600000
748.936340	183.200000
748.973816	179.200000
749.011292	187.600000
749.048828	182.600000
749.086304	183.700000
749.123840	189.000000
749.161316	179.600000
749.198792	188.800000
749.236328	185.500000
749.273743	181.800000
749.311279	182.000000
749.348816	185.100000
749.386230	181.800000
749.423767	174.300000
749.461304	183.200000
749.498718	182.800000
749.536255	185.200000
749.573730	190.300000
749.611206	186.500000
749.648682	182.000000
749.686218	181.900000
749.723633	185.200000
749.761169	180.000000
749.798645	180.800000
749.836060	182.000000
749.873596	179.000000
749.911011	184.200000
749.948547	186.700000
749.986023	182.300000
750.023437	182.200000
750.060913	178.300000
750.098450	177.900000
750.135864	182.600000
750.173340	183.600000
750.210815	185.900000
750.248291	179.000000
750.285767	182.600000
750.323242	186.100000
750.360657	184.000000
750.398132	178.900000
750.435608	183.700000
750.473022	179.800000
750.510498	179.900000
750.547974	179.600000
750.585449	181.900000
750.622925	174.600000
750.660339	191.000000
750.697815	182.600000
750.735291	180.900000
750.772644	181.900000
750.810120	182.900000
750.847595	184.700000
750.885010	178.100000
750.922485	188.400000
750.959961	182.500000
750.997375	187.600000
751.034851	183.800000
751.072266	184.500000
751.109680	177.000000
751.147156	186.100000
751.184570	183.800000
751.221985	182.000000
751.259460	177.400000
751.296875	182.500000
751.334290	181.100000
751.371765	185.300000
751.409180	186.000000
751.446594	186.200000
751.484070	183.900000
751.521423	182.600000
751.558899	182.900000
751.596375	190.200000
751.633728	186.200000
751.671204	189.600000
751.708618	179.800000
751.746033	183.100000
751.783447	178.700000
751.820801	178.800000
751.858276	185.300000
751.895691	181.100000
751.933105	181.700000
751.970520	178.700000
752.007935	180.700000
752.045349	186.000000
752.082764	183.200000
752.120178	181.100000
752.157532	181.500000
752.195007	181.800000
752.232422	182.100000
752.269775	184.800000
752.307190	185.700000
752.344543	178.900000
752.382019	183.000000
752.419434	179.900000
752.456787	184.900000
752.494202	186.300000
752.531616	183.700000
752.568970	184.000000
752.606384	183.900000
752.643799	183.300000
752.681152	188.000000
752.718567	183.500000
752.755981	177.600000
752.793335	183.600000
752.830750	177.300000
752.868164	185.600000
752.905518	179.100000
752.942932	186.000000
752.980225	178.200000
753.017639	183.600000
753.055054	184.200000
753.092407	183.400000
753.129822	185.900000
753.167175	189.800000
753.204529	181.300000
753.241943	179.600000
753.279358	178.400000
753.316650	183.300000
753.354065	182.600000
753.391479	185.600000
753.428772	186.700000
753.466187	184.100000
753.503479	180.100000
753.540894	181.700000
753.578308	178.300000
753.615601	178.100000
753.653015	182.500000
753.690369	181.100000
753.727722	180.900000
753.765076	178.800000
753.802490	178.200000
753.839783	178.300000
753.877136	179.900000
753.914551	191.400000
753.951843	181.200000
753.989258	185.400000
754.026611	183.000000
754.063904	184.300000
754.101257	179.100000
754.138611	178.300000
754.175964	182.600000
754.213318	189.200000
754.250610	176.000000
754.288025	181.600000
754.325378	178.400000
754.362671	185.200000
754.400024	183.000000
754.437378	189.300000
754.474670	188.600000
754.512085	179.800000
754.549438	183.300000
754.586731	180.800000
754.624084	182.500000
754.661438	178.100000
754.698730	188.100000
754.736084	181.100000
754.773376	179.700000
754.810730	182.800000
754.848083	183.000000
754.885315	185.700000
754.922668	177.300000
754.960022	178.900000
754.997314	186.700000
755.034668	182.000000
755.072021	183.100000
755.109253	181.900000
755.146606	188.300000
755.183960	182.300000
755.221252	189.400000
755.258545	185.900000
755.295898	188.400000
755.333191	186.800000
755.370544	183.700000
755.407776	183.500000
755.445129	183.700000
755.482422	186.200000
755.519714	181.700000
755.557068	178.900000
755.594360	179.000000
755.631653	186.300000
755.668945	188.200000
755.706299	183.300000
755.743530	192.500000
755.780884	188.000000
755.818176	187.200000
755.855408	186.500000
755.892761	185.700000
755.930054	182.100000
755.967346	185.300000
756.004639	185.300000
756.041870	184.000000
756.079224	186.600000
756.116516	180.900000
756.153748	185.100000
756.191040	191.900000
756.228394	185.100000
756.265625	182.100000
756.302917	184.800000
756.340210	181.400000
756.377441	187.700000
756.414795	189.400000
756.452087	183.900000
756.489319	180.500000
756.526611	188.100000
756.563843	185.500000
756.601135	191.300000
756.638428	191.100000
756.675659	184.500000
756.712952	188.400000
756.750244	186.900000
756.787476	186.800000
756.824768	190.400000
756.862061	184.000000
756.899292	231.700000
756.936584	188.200000
756.973816	194.200000
757.011047	193.900000
757.048340	185.900000
757.085632	186.300000
757.122864	198.800000
757.160156	184.500000
757.197327	186.600000
757.234619	190.400000
757.271912	185.300000
757.309082	190.000000
757.346375	186.500000
757.383667	191.200000
757.420837	188.400000
757.458130	188.000000
757.495422	186.400000
757.532593	187.700000
757.569885	183.100000
757.607117	184.000000
757.644348	189.300000
757.681580	197.300000
757.718811	179.300000
757.756042	188.700000
757.793335	187.100000
757.830505	188.600000
757.867798	186.500000
757.905029	185.200000
757.942200	188.800000
757.979492	185.900000
758.016724	188.100000
758.053894	186.700000
758.091187	199.900000
758.128418	187.400000
758.165588	187.100000
758.202820	194.800000
758.240112	188.600000
758.277283	197.500000
758.314514	189.500000
758.351685	188.000000
758.388916	194.800000
758.426147	193.900000
758.463379	196.200000
758.500610	192.600000
758.537842	189.300000
758.575012	194.900000
758.612244	185.900000
758.649475	199.500000
758.686646	185.100000
758.723877	196.100000
758.761108	195.300000
758.798279	190.800000
758.835510	191.800000
758.872742	196.100000
758.909851	192.600000
758.947083	194.000000
758.984253	193.300000
759.021484	195.500000
759.058716	193.400000
759.095886	196.200000
759.133057	192.400000
759.170288	193.700000
759.207458	190.600000
759.244690	201.200000
759.281860	197.600000
759.319031	193.400000
759.356262	192.100000
759.393433	192.300000
759.430603	191.900000
759.467773	193.700000
759.505005	197.000000
759.542175	198.100000
759.579346	192.700000
759.616516	193.900000
759.653687	196.900000
759.690918	192.100000
759.728027	195.500000
759.765259	195.400000
759.802429	197.000000
759.839539	196.900000
759.876770	198.900000
759.913940	202.000000
759.951111	196.100000
759.988281	195.200000
760.025452	193.700000
760.062561	192.400000
760.099792	202.500000
760.136963	197.200000
760.174072	195.500000
760.211243	192.400000
760.248413	192.400000
760.285583	192.600000
760.322754	204.300000
760.359863	200.000000
760.397034	201.200000
760.434204	198.200000
760.471375	197.600000
760.508545	195.400000
760.545715	197.300000
760.582825	193.800000
760.619995	200.700000
760.657166	193.300000
760.694275	202.000000
760.731445	199.700000
760.768555	199.600000
760.805664	202.700000
760.842834	199.400000
760.879944	200.100000
760.917114	200.500000
760.954285	198.100000
760.991394	195.100000
761.028564	202.700000
761.065674	201.200000
761.102783	196.300000
761.139954	203.600000
761.177124	201.800000
761.214172	204.800000
761.251343	198.500000
761.288452	200.200000
761.325562	203.100000
761.362732	199.400000
761.399841	200.800000
761.436951	201.700000
761.474121	199.200000
761.511169	201.000000
761.548340	204.500000
761.585449	205.100000
761.622559	204.600000
761.659668	203.000000
761.696838	206.900000
761.733887	203.600000
761.771057	202.500000
761.808167	202.200000
761.845276	206.700000
761.882385	212.300000
761.919434	205.600000
761.956604	215.600000
761.993713	201.900000
762.030762	208.300000
762.067871	205.800000
762.105042	204.200000
762.142090	210.500000
762.179199	206.000000
762.216309	209.500000
762.253418	214.800000
762.290527	212.800000
762.327637	209.200000
762.364685	203.400000
762.401794	208.600000
762.438904	209.400000
762.475952	204.800000
762.513062	203.900000
762.550110	205.300000
762.587219	215.600000
762.624329	213.800000
762.661377	210.200000
762.698486	210.000000
762.735596	208.700000
762.772644	204.900000
762.809753	203.900000
762.846863	208.100000
762.883911	213.400000
762.921021	210.100000
762.958069	209.600000
762.995117	215.700000
763.032227	215.100000
763.069336	208.300000
763.106323	206.900000
763.143433	206.600000
763.180481	211.600000
763.217590	211.600000
763.254639	209.800000
763.291687	210.600000
763.328735	216.500000
763.365845	212.200000
763.402893	210.600000
763.439941	213.500000
763.477051	215.100000
763.514038	217.000000
763.551147	211.600000
763.588196	213.500000
763.625244	213.700000
763.662292	220.400000
763.699402	221.200000
763.736389	217.600000
763.773499	223.600000
763.810486	218.700000
763.847534	217.100000
763.884644	220.000000
763.921631	215.500000
763.958679	224.600000
763.995728	218.400000
764.032776	223.900000
764.069824	215.400000
764.106873	222.100000
764.143860	225.200000
764.180969	220.500000
764.218018	225.000000
764.255005	221.200000
764.292053	220.700000
764.329102	228.900000
764.366089	229.300000
764.403137	227.600000
764.440125	220.900000
764.477173	225.600000
764.514221	226.100000
764.551208	223.500000
764.588257	221.200000
764.625305	229.500000
764.662292	232.900000
764.699341	232.900000
764.736389	227.700000
764.773376	240.400000
764.810425	233.000000
764.847473	236.600000
764.884399	231.900000
764.921448	237.200000
764.958435	236.500000
764.995483	230.000000
765.032532	241.400000
765.069458	231.000000
765.106506	232.900000
765.143555	231.900000
765.180481	234.900000
765.217529	239.400000
765.254578	232.100000
765.291504	238.100000
765.328552	237.100000
765.365540	231.000000
765.402527	243.900000
765.439575	234.400000
765.476501	231.400000
765.513550	232.700000
765.550537	236.800000
765.587463	242.200000
765.624512	234.900000
765.661499	233.200000
765.698486	243.000000
765.735474	234.600000
765.772461	239.500000
765.809448	242.700000
765.846436	243.600000
765.883423	244.700000
765.920410	242.000000
765.957397	238.200000
765.994385	243.600000
766.031311	247.500000
766.068359	244.800000
766.105286	244.100000
766.142273	250.100000
766.179260	244.400000
766.216187	242.900000
766.253174	239.100000
766.290161	245.400000
766.327148	247.600000
766.364136	249.900000
766.401123	257.800000
766.438049	243.800000
766.475037	253.400000
766.512024	250.900000
766.548950	262.300000
766.585937	255.100000
766.622864	252.800000
766.659790	251.900000
766.696777	246.000000
766.733704	255.600000
766.770691	249.500000
766.807678	258.200000
766.844604	254.900000
766.881531	254.100000
766.918518	260.000000
766.955444	260.300000
766.992432	255.200000
767.029358	257.000000
767.066284	260.700000
767.103271	259.200000
767.140198	290.000000
767.177124	267.900000
767.214050	261.600000
767.251038	262.000000
767.287964	259.700000
767.324890	258.900000
767.361816	261.900000
767.398743	267.200000
767.435730	261.300000
767.472595	263.800000
767.509583	267.500000
767.546509	259.900000
767.583374	264.300000
767.620361	259.400000
767.657288	265.100000
767.694214	263.900000
767.731140	263.900000
767.768066	263.600000
767.804993	270.200000
767.841919	259.600000
767.878845	267.800000
767.915710	271.100000
767.952698	264.400000
767.989563	267.100000
768.026489	269.000000
768.063416	264.900000
768.100281	266.400000
768.137207	271.900000
768.174133	270.500000
768.211060	271.100000
768.247986	271.200000
768.284912	268.400000
768.321777	271.600000
768.358704	268.400000
768.395630	270.500000
768.432495	269.300000
768.469421	273.200000
768.506348	276.300000
768.543152	281.100000
768.580078	277.400000
768.616943	277.600000
768.653870	280.800000
768.690796	279.900000
768.727661	278.900000
768.764587	278.300000
768.801453	275.200000
768.838318	282.700000
768.875244	281.200000
768.912109	286.700000
768.948975	280.500000
768.985901	280.900000
769.022766	282.000000
769.059631	285.500000
769.096558	283.500000
769.133362	284.300000
769.170288	287.000000
769.207214	283.600000
769.244019	287.900000
769.280945	288.300000
769.317810	292.700000
769.354675	289.900000
769.391541	296.500000
769.428406	294.900000
769.465271	301.200000
769.502136	293.200000
769.539062	297.100000
769.575867	296.100000
769.612732	296.500000
769.649597	300.900000
769.686462	302.300000
769.723328	299.700000
769.760193	298.800000
769.797058	299.400000
769.833923	305.600000
769.870728	302.700000
769.907593	305.600000
769.944519	302.400000
769.981323	307.100000
770.018188	307.200000
770.055054	305.400000
770.091858	306.500000
770.128723	316.200000
770.165588	320.500000
770.202393	310.400000
770.239258	319.500000
770.276062	314.700000
770.312927	316.400000
770.349792	321.800000
770.386597	320.800000
770.423462	327.400000
770.460327	332.800000
770.497131	320.600000
770.533997	317.800000
770.570862	326.600000
770.607605	330.600000
770.644470	329.100000
770.681335	329.600000
770.718140	329.800000
770.754944	326.300000
770.791809	326.300000
770.828613	328.800000
770.865479	327.800000
770.902222	334.400000
770.939087	330.800000
770.975952	325.300000
771.012695	329.400000
771.049561	341.700000
771.086365	333.600000
771.123169	333.300000
771.159973	333.700000
771.196838	335.400000
771.233582	336.600000
771.270447	339.000000
771.307251	340.000000
771.344055	339.700000
771.380859	341.100000
771.417664	337.800000
771.454468	344.600000
771.491272	344.700000
771.528076	345.500000
771.564880	343.900000
771.601685	349.200000
771.638428	341.200000
771.675293	346.800000
771.712097	343.000000
771.748840	356.200000
771.785645	348.000000
771.822449	352.300000
771.859253	354.300000
771.896057	351.000000
771.932861	356.700000
771.969604	352.400000
772.006409	350.000000
772.043213	357.100000
772.079956	358.500000
772.116760	352.300000
772.153503	355.800000
772.190308	364.900000
772.227112	357.500000
772.263855	354.700000
772.300659	357.000000
772.337463	363.400000
772.374207	355.700000
772.411011	355.200000
772.447754	361.400000
772.484497	372.800000
772.521301	367.300000
772.558105	365.000000
772.594849	362.800000
772.631592	368.800000
772.668396	367.900000
772.705139	371.100000
772.741882	370.800000
772.778625	377.800000
772.815430	376.900000
772.852173	375.000000
772.888916	380.600000
772.925720	381.400000
772.962463	388.000000
772.999207	380.100000
773.035950	381.100000
773.072754	381.300000
773.109436	378.400000
773.146240	381.300000
773.182922	379.900000
773.219727	385.900000
773.256470	382.200000
773.293152	375.900000
773.329956	382.200000
773.366699	384.600000
773.403381	377.900000
773.440186	387.000000
773.476929	383.300000
773.513611	383.600000
773.550354	381.800000
773.587158	380.900000
773.623840	383.200000
773.660583	388.900000
773.697327	395.600000
773.734009	389.200000
773.770813	385.800000
773.807495	383.800000
773.844238	386.700000
773.880981	398.700000
773.917664	394.600000
773.954407	399.500000
773.991150	395.200000
774.027832	398.700000
774.064575	395.400000
774.101318	400.600000
774.138000	401.500000
774.174744	399.100000
774.211487	403.000000
774.248108	394.000000
774.284851	394.200000
774.321594	401.700000
774.358276	403.900000
774.395020	408.300000
774.431702	404.300000
774.468384	401.800000
774.505127	399.300000
774.541809	406.200000
774.578491	413.400000
774.615234	416.600000
774.651917	405.200000
774.688599	409.600000
774.725342	417.500000
774.762024	416.400000
774.798706	419.800000
774.835449	417.500000
774.872070	424.200000
774.908813	421.200000
774.945496	422.800000
774.982178	423.600000
775.018860	429.600000
775.055542	427.800000
775.092224	426.600000
775.128967	433.400000
775.165588	431.800000
775.202271	431.300000
775.239014	439.100000
775.275635	436.000000
775.312317	433.000000
775.349060	436.400000
775.385681	435.800000
775.422363	429.900000
775.459045	441.800000
775.495667	443.700000
775.532410	447.500000
775.569092	446.500000
775.605713	446.100000
775.642395	446.200000
775.679016	448.400000
775.715698	453.600000
775.752380	453.100000
775.789001	448.500000
775.825684	451.000000
775.862366	453.000000
775.898987	462.300000
775.935669	460.200000
775.972351	473.600000
776.008972	472.000000
776.045654	468.900000
776.082336	465.000000
776.118958	464.200000
776.155640	471.800000
776.192322	476.900000
776.228882	479.000000
776.265564	478.800000
776.302185	474.500000
776.338867	476.500000
776.375488	477.200000
776.412109	486.100000
776.448792	489.600000
776.485413	492.800000
776.522034	483.500000
776.558716	483.100000
776.595337	487.300000
776.631958	492.600000
776.668579	490.700000
776.705261	497.400000
776.741882	492.400000
776.778503	492.600000
776.815186	492.900000
776.851746	501.500000
776.888367	500.900000
776.924988	507.800000
776.961609	501.700000
776.998291	497.900000
777.034851	496.400000
777.071472	507.300000
777.108154	507.600000
777.144714	512.800000
777.181335	514.600000
777.218018	510.600000
777.254578	513.500000
777.291199	515.300000
777.327759	517.800000
777.364380	523.900000
777.401062	528.300000
777.437622	536.300000
777.474243	522.300000
777.510864	531.500000
777.547424	525.900000
777.584045	528.800000
777.620667	529.400000
777.657227	532.000000
777.693848	529.900000
777.730469	537.000000
777.767029	535.000000
777.803650	538.000000
777.840271	534.300000
777.876831	535.600000
777.913452	539.900000
777.950012	527.000000
777.986633	526.700000
778.023193	530.000000
778.059753	528.700000
778.096375	530.800000
778.132996	542.400000
778.169556	540.000000
778.206116	537.200000
778.242737	537.700000
778.279297	543.400000
778.315857	536.200000
778.352478	545.200000
778.389038	552.700000
778.425598	549.200000
778.462219	555.900000
778.498718	548.000000
778.535339	557.500000
778.571838	559.400000
778.608459	563.200000
778.645020	552.400000
778.681580	560.200000
778.718140	557.200000
778.754761	551.700000
778.791260	555.800000
778.827881	565.200000
778.864441	563.600000
778.900940	570.300000
778.937561	569.100000
778.974121	568.600000
779.010620	561.400000
779.047241	565.500000
779.083801	575.900000
779.120300	566.200000
779.156860	570.100000
779.193359	570.300000
779.229980	574.500000
779.266541	581.100000
779.303040	578.900000
779.339600	574.200000
779.376160	565.000000
779.412659	570.800000
779.449219	570.100000
779.485779	573.700000
779.522278	573.100000
779.558838	575.700000
779.595398	576.700000
779.631897	573.500000
779.668457	568.500000
779.705017	573.200000
779.741516	571.100000
779.778076	567.300000
779.814575	572.000000
779.851074	575.700000
779.887634	566.500000
779.924133	576.600000
779.960693	573.900000
779.997253	584.900000
780.033691	584.100000
780.070251	584.600000
780.106812	590.400000
780.143250	591.900000
780.179810	589.300000
780.216370	592.600000
780.252808	598.700000
780.289368	601.100000
780.325867	601.800000
780.362366	594.500000
780.398865	602.300000
780.435364	598.100000
780.471863	610.100000
780.508423	605.700000
780.544861	607.300000
780.581421	608.700000
780.617920	601.000000
780.654419	598.200000
780.690918	604.600000
780.727417	611.600000
780.763916	611.400000
780.800415	614.700000
780.836914	606.000000
780.873352	611.800000
780.909912	608.700000
780.946411	613.900000
780.982849	618.900000
781.019348	628.800000
781.055786	620.100000
781.092346	624.500000
781.128845	638.000000
781.165283	647.800000
781.201782	647.400000
781.238281	649.600000
781.274719	653.100000
781.311218	648.100000
781.347717	655.700000
781.384155	650.100000
781.420654	652.100000
781.457092	656.900000
781.493591	649.800000
781.530090	643.300000
781.566528	645.200000
781.602966	646.700000
781.639465	655.100000
781.675903	655.900000
781.712402	661.900000
781.748901	658.600000
781.785278	650.800000
781.821777	661.600000
781.858276	658.900000
781.894714	672.800000
781.931152	665.300000
781.967651	671.600000
782.004089	665.800000
782.040527	673.500000
782.076965	677.000000
782.113403	678.900000
782.149902	685.500000
782.186340	680.900000
782.222778	681.100000
782.259277	677.700000
782.295654	686.700000
782.332092	690.700000
782.368591	690.100000
782.404968	695.400000
782.441467	688.300000
782.477905	689.800000
782.514282	692.800000
782.550781	704.400000
782.587219	707.900000
782.623596	710.600000
782.660095	713.500000
782.696472	717.900000
782.732910	717.900000
782.769348	715.100000
782.805786	734.500000
782.842224	736.700000
782.878662	729.900000
782.915039	727.300000
782.951477	732.100000
782.987915	730.600000
783.024292	736.700000
783.060730	733.700000
783.097168	727.500000
783.133545	717.300000
783.169983	714.200000
783.206421	709.300000
783.242798	706.900000
783.279236	701.100000
783.315613	698.300000
783.352051	694.600000
783.388489	700.500000
783.424866	690.500000
783.461304	698.600000
783.497681	700.500000
783.534058	682.300000
783.570496	659.700000
783.606934	642.900000
783.643250	619.600000
783.679687	597.600000
783.716125	566.100000
783.752441	535.400000
783.788879	516.100000
783.825317	494.700000
783.861633	465.600000
783.898071	447.700000
783.934448	443.100000
783.970825	448.200000
784.007263	455.100000
784.043579	473.900000
784.080017	501.300000
784.116394	523.600000
784.152710	554.500000
784.189148	590.400000
784.225525	617.300000
784.261902	644.500000
784.298279	673.400000
784.334656	691.000000
784.371033	706.500000
784.407410	717.700000
784.443787	716.200000
784.480164	715.000000
784.516541	714.600000
784.552856	727.200000
784.589233	732.600000
784.625610	725.300000
784.661987	747.200000
784.698364	737.200000
784.734741	734.600000
784.771057	736.400000
784.807434	743.400000
784.843811	762.000000
784.880127	761.500000
784.916504	785.200000
784.952881	782.400000
784.989197	780.700000
785.025574	781.900000
785.061951	788.800000
785.098267	806.900000
785.134644	799.700000
785.170959	790.400000
785.207275	787.300000
785.243652	785.600000
785.279968	774.200000
785.316345	771.900000
785.352722	776.200000
785.388977	773.400000
785.425354	754.300000
785.461731	738.300000
785.498047	732.300000
785.534363	729.300000
785.570679	732.400000
785.606995	736.000000
785.643372	735.900000
785.679687	738.700000
785.716003	731.100000
785.752380	735.200000
785.788635	744.600000
785.825012	753.000000
785.861328	761.300000
785.897644	751.800000
785.933960	763.600000
785.970337	776.300000
786.006592	797.800000
786.042908	798.400000
786.079285	804.300000
786.115540	815.500000
786.151855	813.800000
786.188171	811.400000
786.224487	815.200000
786.260803	797.600000
786.297119	805.700000
786.333435	801.400000
786.369751	791.500000
786.406006	784.800000
786.442322	773.800000
786.478638	765.100000
786.514954	779.000000
786.551270	771.300000
786.587585	773.000000
786.623840	766.900000
786.660156	762.300000
786.696472	752.200000
786.732727	753.700000
786.769043	759.300000
786.805298	752.400000
786.841614	756.000000
786.877930	769.900000
786.914124	759.200000
786.950439	782.700000
786.986755	795.900000
787.023010	806.900000
787.059326	806.300000
787.095642	816.000000
787.131836	830.100000
787.168152	820.600000
787.204468	826.800000
787.240723	842.000000
787.276978	845.400000
787.313293	851.300000
787.349548	841.800000
787.385803	843.800000
787.422058	837.400000
787.458313	831.100000
787.494629	832.100000
787.530823	826.000000
787.567139	812.000000
787.603455	808.400000
787.639648	798.100000
787.675903	799.800000
787.712219	805.200000
787.748413	796.600000
787.784729	796.600000
787.820984	788.900000
787.857178	790.500000
787.893494	786.200000
787.929749	785.600000
787.965942	799.400000
788.002258	814.900000
788.038452	822.900000
788.074707	824.100000
788.110962	828.200000
788.147217	826.800000
788.183472	837.600000
788.219727	850.300000
788.255920	861.600000
788.292175	868.200000
788.328430	859.200000
788.364624	851.200000
788.400879	858.500000
788.437134	866.200000
788.473328	862.800000
788.509583	859.900000
788.545837	855.000000
788.582031	853.400000
788.618286	854.300000
788.654480	852.200000
788.690735	861.700000
788.726990	871.700000
788.763184	870.200000
788.799377	878.200000
788.835632	870.600000
788.871826	878.300000
788.908081	882.100000
788.944336	885.400000
788.980469	897.300000
789.016724	888.000000
789.052979	889.800000
789.089111	874.200000
789.125366	879.000000
789.161621	867.000000
789.197754	881.300000
789.234009	879.500000
789.270142	875.000000
789.306396	860.200000
789.342590	852.600000
789.378784	836.600000
789.414978	843.300000
789.451233	856.800000
789.487366	855.200000
789.523621	865.700000
789.559814	856.700000
789.595947	858.500000
789.632202	871.600000
789.668335	876.900000
789.704529	893.200000
789.740784	906.700000
789.776917	905.300000
789.813110	894.300000
789.849304	912.000000
789.885498	912.300000
789.921692	926.800000
789.957886	928.000000
789.994019	924.000000
790.030212	925.600000
790.066406	932.700000
790.102539	927.700000
790.138733	942.300000
790.174927	939.400000
790.211060	943.200000
790.247253	940.100000
790.283386	928.700000
790.319580	920.800000
790.355774	902.800000
790.391907	909.300000
790.428101	929.400000
790.464294	925.000000
790.500427	918.700000
790.536621	901.800000
790.572754	890.900000
790.608887	889.700000
790.645081	899.600000
790.681274	908.800000
790.717346	905.700000
790.753540	898.200000
790.789734	891.000000
790.825867	877.600000
790.862000	874.900000
790.898132	895.500000
790.934265	886.200000
790.970459	885.000000
791.006592	881.500000
791.042725	874.600000
791.078918	871.500000
791.114990	878.200000
791.151184	886.300000
791.187317	903.000000
791.223389	899.800000
791.259583	879.100000
791.295715	878.400000
791.331848	888.700000
791.367981	898.500000
791.404114	894.800000
791.440247	893.700000
791.476379	897.300000
791.512451	888.400000
791.548584	876.500000
791.584778	874.600000
791.620850	882.400000
791.656982	890.000000
791.693115	890.600000
791.729187	889.600000
791.765381	885.800000
791.801514	884.100000
791.837585	887.400000
791.873718	894.000000
791.909851	901.300000
791.945923	909.100000
791.982056	875.400000
792.018188	881.200000
792.054260	882.500000
792.090393	877.700000
792.126465	874.200000
792.162598	880.900000
792.198669	872.600000
792.234741	869.500000
792.270874	858.700000
792.307007	851.400000
792.343079	859.700000
792.379150	869.500000
792.415283	858.700000
792.451355	851.500000
792.487488	830.900000
792.523560	823.000000
792.559631	801.900000
792.595764	755.100000
792.631836	728.800000
792.667908	723.800000
792.703979	725.200000
792.740051	757.100000
792.776184	782.800000
792.812256	794.100000
792.848328	805.400000
792.884399	811.100000
792.920471	811.800000
792.956543	812.100000
792.992615	806.200000
793.028748	806.300000
793.064758	817.000000
793.100830	839.800000
793.136963	853.600000
793.172974	844.900000
793.209045	837.000000
793.245178	839.400000
793.281189	829.500000
793.317261	838.000000
793.353271	842.500000
793.389404	850.000000
793.425476	842.900000
793.461487	823.600000
793.497559	824.200000
793.533630	829.800000
793.569641	830.600000
793.605713	830.900000
793.641785	836.300000
793.677795	844.100000
793.713867	837.000000
793.749878	845.700000
793.785950	854.500000
793.822021	865.900000
793.858032	849.700000
793.894104	852.200000
793.930176	850.500000
793.966187	850.800000
794.002258	843.200000
794.038269	859.600000
794.074280	857.700000
794.110352	875.300000
794.146423	861.900000
794.182373	858.200000
794.218445	845.100000
794.254517	847.300000
794.290466	832.400000
794.326538	832.700000
794.362549	837.500000
794.398560	837.200000
794.434631	837.300000
794.470581	818.400000
794.506653	809.900000
794.542664	818.900000
794.578674	823.000000
794.614685	826.100000
794.650757	822.600000
794.686707	818.800000
794.722778	813.300000
794.758789	826.700000
794.794739	841.800000
794.830811	866.300000
794.866821	879.700000
794.902771	887.000000
794.938843	880.000000
794.974792	878.800000
795.010803	879.300000
795.046814	876.800000
795.082825	870.100000
795.118835	873.300000
795.154846	854.400000
795.190796	854.300000
795.226807	840.600000
795.262817	843.600000
795.298767	854.200000
795.334778	858.100000
795.370850	848.700000
795.406799	845.500000
795.442810	830.600000
795.478821	836.000000
795.514709	838.900000
795.550720	862.600000
795.586670	845.300000
795.622681	849.600000
795.658691	844.200000
795.694641	839.900000
795.730652	835.700000
795.766663	842.900000
795.802551	846.700000
795.838562	854.200000
795.874573	848.200000
795.910522	849.200000
795.946472	839.400000
795.982483	850.100000
796.018433	844.100000
796.054382	848.200000
796.090393	845.200000
796.126282	834.800000
796.162292	821.400000
796.198242	825.800000
796.234192	822.400000
796.270203	814.600000
796.306091	827.400000
796.342041	835.100000
796.378052	827.200000
796.413940	825.900000
796.449951	829.800000
796.485901	837.200000
796.521790	843.000000
796.557800	850.100000
796.593689	846.800000
796.629639	844.000000
796.665649	838.100000
796.701599	833.600000
796.737488	837.100000
796.773437	841.100000
796.809387	842.100000
796.845337	850.300000
796.881287	835.700000
796.917175	815.000000
796.953125	824.000000
796.989075	835.600000
797.024963	838.000000
797.060913	836.700000
797.096863	829.500000
797.132751	815.900000
797.168701	806.500000
797.204590	816.400000
797.240540	821.000000
797.276489	834.600000
797.312439	835.200000
797.348328	817.100000
797.384277	809.100000
797.420166	800.700000
797.456055	805.600000
797.492004	815.600000
797.527893	816.600000
797.563843	818.300000
797.599731	808.900000
797.635620	800.100000
797.671570	803.200000
797.707520	803.300000
797.743347	815.100000
797.779297	824.700000
797.815125	811.500000
797.851074	801.200000
797.887024	792.800000
797.922913	785.000000
797.958801	799.100000
797.994690	799.700000
798.030579	796.200000
798.066467	794.300000
798.102356	787.900000
798.138245	786.400000
798.174133	788.200000
798.210083	793.600000
798.245911	804.500000
798.281799	800.500000
798.317749	798.100000
798.353577	787.500000
798.389465	787.500000
798.425293	790.300000
798.461243	789.900000
798.497131	796.500000
798.532959	794.600000
798.568848	797.800000
798.604736	779.000000
798.640564	765.400000
798.676453	767.900000
798.712402	780.300000
798.748230	781.600000
798.784119	779.400000
798.820007	779.800000
798.855835	774.100000
798.891724	764.500000
798.927551	766.100000
798.963379	768.400000
798.999268	769.000000
799.035095	761.100000
799.070984	752.000000
799.106873	743.300000
799.142700	756.300000
799.178528	747.200000
799.214417	753.800000
799.250244	763.300000
799.286133	755.500000
799.321960	754.200000
799.357788	741.400000
799.393677	740.700000
799.429504	745.800000
799.465332	755.900000
799.501221	758.500000
799.537048	751.900000
799.572876	752.500000
799.608704	751.700000
799.644531	756.400000
799.680359	757.900000
799.716248	764.900000
799.752014	761.500000
799.787903	756.600000
799.823730	754.500000
799.859558	745.000000
799.895386	749.700000
799.931213	756.800000
799.967041	749.400000
800.002869	747.100000
800.038696	751.800000
800.074463	740.400000
800.110352	748.100000
800.146179	743.100000
800.181946	749.800000
800.217773	745.400000
800.253540	739.300000
800.289429	731.800000
800.325256	728.500000
800.361023	731.200000
800.396851	736.000000
800.432678	739.100000
800.468445	733.700000
800.504272	732.800000
800.540100	720.900000
800.575867	724.200000
800.611694	733.600000
800.647461	724.800000
800.683289	726.800000
800.719116	727.200000
800.754883	723.500000
800.790649	713.200000
800.826477	711.100000
800.862244	720.800000
800.898071	710.300000
800.933838	714.800000
800.969604	720.200000
801.005432	723.000000
801.041199	715.900000
801.076965	706.700000
801.112793	699.400000
801.148560	701.700000
801.184326	703.900000
801.220154	702.600000
801.255859	694.600000
801.291687	694.900000
801.327454	692.700000
801.363281	692.900000
801.398987	691.400000
801.434814	686.300000
801.470520	690.300000
801.506287	685.500000
801.542114	682.600000
801.577820	678.300000
801.613647	677.800000
801.649414	674.700000
801.685120	680.800000
801.720886	682.200000
801.756714	676.400000
801.792419	671.400000
801.828186	664.800000
801.863892	673.600000
801.899719	670.400000
801.935486	664.500000
801.971252	669.500000
802.006958	668.100000
802.042725	658.800000
802.078430	665.400000
802.114197	661.000000
802.149963	670.400000
802.185669	659.700000
802.221436	659.900000
802.257202	661.300000
802.292908	657.100000
802.328674	665.200000
802.364441	671.400000
802.400146	668.500000
802.435913	657.700000
802.471558	655.400000
802.507324	658.500000
802.543091	655.800000
802.578796	663.700000
802.614502	660.400000
802.650269	665.300000
802.685974	651.200000
802.721741	651.500000
802.757446	654.500000
802.793152	656.000000
802.828918	669.700000
802.864624	661.300000
802.900330	659.600000
802.936035	654.800000
802.971802	652.500000
803.007446	649.300000
803.043213	645.300000
803.078857	655.900000
803.114624	645.200000
803.150330	646.800000
803.185974	634.800000
803.221741	638.700000
803.257446	641.800000
803.293152	646.600000
803.328857	642.300000
803.364563	640.100000
803.400208	635.400000
803.435974	635.400000
803.471680	627.900000
803.507324	629.400000
803.543030	645.600000
803.578735	641.400000
803.614441	630.000000
803.650146	640.300000
803.685791	627.600000
803.721497	624.100000
803.757202	617.100000
803.792847	626.100000
803.828552	617.000000
803.864258	620.600000
803.899902	614.400000
803.935608	605.100000
803.971313	608.100000
804.006958	609.700000
804.042664	609.000000
804.078308	619.800000
804.113953	605.700000
804.149658	612.500000
804.185364	601.600000
804.221008	618.300000
804.256714	599.900000
804.292297	598.300000
804.328003	597.100000
804.363708	592.900000
804.399292	589.900000
804.434998	591.300000
804.470703	585.400000
804.506287	596.900000
804.541992	593.700000
804.577637	596.200000
804.613281	580.500000
804.648926	578.200000
804.684570	586.300000
804.720215	575.600000
804.755920	574.000000
804.791565	575.400000
804.827209	577.400000
804.862854	572.300000
804.898437	572.300000
804.934143	571.400000
804.969788	569.800000
805.005371	570.900000
805.041077	573.000000
805.076721	570.900000
805.112305	559.800000
805.147949	557.100000
805.183655	555.700000
805.219238	562.500000
805.254883	561.600000
805.290466	563.300000
805.326111	556.300000
805.361755	549.500000
805.397400	548.100000
805.432983	551.200000
805.468628	556.300000
805.504211	555.300000
805.539856	556.900000
805.575500	559.200000
805.611084	550.900000
805.646729	541.000000
805.682373	545.100000
805.717957	551.500000
805.753601	556.300000
805.789246	545.200000
805.824768	548.300000
805.860413	548.600000
805.895996	537.000000
805.931641	539.200000
805.967224	544.500000
806.002869	542.300000
806.038452	550.100000
806.074036	553.400000
806.109619	536.100000
806.145264	534.400000
806.180847	535.000000
806.216431	533.600000
806.252014	537.000000
806.287659	535.100000
806.323181	541.400000
806.358826	534.500000
806.394409	521.800000
806.429993	523.100000
806.465576	534.000000
806.501160	527.700000
806.536743	519.100000
806.572327	525.800000
806.607910	524.500000
806.643494	521.900000
806.679077	517.000000
806.714661	518.200000
806.750244	515.400000
806.785828	512.800000
806.821350	514.200000
806.856934	515.700000
806.892517	510.500000
806.928101	508.100000
806.963684	508.200000
806.999268	513.400000
807.034790	498.800000
807.070374	500.500000
807.105896	493.800000
807.141479	497.700000
807.177063	504.300000
807.212585	504.300000
807.248169	501.600000
807.283752	501.800000
807.319275	498.000000
807.354858	498.900000
807.390381	491.900000
807.425903	492.800000
807.461487	491.600000
807.497070	487.300000
807.532593	486.400000
807.568115	487.300000
807.603699	480.800000
807.639221	478.600000
807.674744	477.300000
807.710266	484.800000
807.745850	485.000000
807.781372	484.400000
807.816895	477.900000
807.852417	480.400000
807.888000	479.200000
807.923523	472.700000
807.959045	477.800000
807.994629	471.600000
808.030090	470.500000
808.065613	474.200000
808.101135	477.300000
808.136658	473.700000
808.172241	472.800000
808.207764	472.600000
808.243225	468.500000
808.278809	466.000000
808.314270	469.800000
808.349792	463.700000
808.385315	462.500000
808.420837	465.700000
808.456360	467.000000
808.491882	468.400000
808.527344	465.200000
808.562866	470.400000
808.598389	460.700000
808.633850	458.200000
808.669434	454.800000
808.704895	461.400000
808.740417	462.700000
808.775940	463.000000
808.811462	457.600000
808.846924	451.800000
808.882385	453.800000
808.917847	450.500000
808.953369	451.100000
808.988892	445.300000
809.024353	454.100000
809.059875	452.900000
809.095398	451.300000
809.130798	444.500000
809.166321	444.600000
809.201843	443.800000
809.237305	443.900000
809.272766	448.500000
809.308228	438.800000
809.343750	437.500000
809.379211	437.100000
809.414734	437.200000
809.450134	440.200000
809.485657	431.700000
809.521118	435.800000
809.556580	428.700000
809.592102	431.000000
809.627502	429.200000
809.663025	428.500000
809.698486	426.300000
809.733887	422.800000
809.769409	425.400000
809.804871	418.400000
809.840271	419.800000
809.875793	419.600000
809.911194	425.200000
809.946655	419.300000
809.982178	416.400000
810.017639	415.200000
810.053040	416.600000
810.088501	412.500000
810.123901	412.600000
810.159424	410.200000
810.194885	408.200000
810.230286	407.700000
810.265747	405.500000
810.301208	400.600000
810.336609	405.700000
810.372070	401.200000
810.407532	402.700000
810.442932	400.100000
810.478394	404.400000
810.513794	400.400000
810.549255	396.100000
810.584717	394.000000
810.620117	389.700000
810.655518	393.800000
810.690979	389.500000
810.726379	387.800000
810.761841	383.800000
810.797302	384.100000
810.832642	380.500000
810.868103	388.800000
810.903564	381.300000
810.938904	385.700000
810.974365	376.000000
811.009827	380.700000
811.045166	375.000000
811.080627	369.900000
811.115967	371.200000
811.151428	377.200000
811.186829	372.900000
811.222229	373.400000
811.257629	369.400000
811.293091	371.900000
811.328430	376.600000
811.363892	373.000000
811.399292	372.100000
811.434631	369.500000
811.470093	373.600000
811.505493	368.400000
811.540833	366.200000
811.576294	369.100000
811.611694	365.800000
811.647034	361.600000
811.682434	363.900000
811.717773	366.100000
811.753235	369.000000
811.788635	363.200000
811.823975	361.900000
811.859375	366.800000
811.894775	359.100000
811.930115	360.400000
811.965515	356.600000
812.000916	360.200000
812.036255	355.100000
812.071655	358.500000
812.106995	352.800000
812.142395	353.600000
812.177795	359.300000
812.213196	356.400000
812.248474	356.700000
812.283875	353.800000
812.319214	351.800000
812.354614	354.300000
812.390015	348.500000
812.425293	349.500000
812.460693	350.000000
812.496094	345.000000
812.531433	337.400000
812.566772	342.600000
812.602173	340.800000
812.637451	340.300000
812.672852	337.700000
812.708191	340.300000
812.743530	335.300000
812.778931	328.900000
812.814270	332.600000
812.849609	338.900000
812.884949	336.300000
812.920227	328.400000
812.955627	340.300000
812.990967	331.500000
813.026306	331.500000
813.061646	321.600000
813.096985	319.500000
813.132324	316.200000
813.167664	319.900000
813.203003	322.500000
813.238281	313.700000
813.273682	312.600000
813.308960	311.900000
813.344299	311.000000
813.379639	318.000000
813.414978	311.400000
813.450256	310.900000
813.485596	312.700000
813.520874	306.000000
813.556213	309.600000
813.591614	313.400000
813.626831	306.200000
813.662170	309.800000
813.697510	315.100000
813.732788	306.100000
813.768127	306.600000
813.803467	308.300000
813.838745	304.300000
813.874084	307.200000
813.909363	303.300000
813.944641	306.000000
813.979980	299.100000
814.015320	304.300000
814.050598	298.800000
814.085876	299.800000
814.121155	298.500000
814.156494	298.600000
814.191772	298.900000
814.227051	295.100000
814.262390	297.000000
814.297668	294.100000
814.332947	294.900000
814.368225	289.800000
814.403564	293.200000
814.438782	291.500000
814.474121	290.000000
814.509338	286.800000
814.544617	293.100000
814.579956	287.400000
814.615173	294.200000
814.650513	289.400000
814.685791	284.600000
814.721008	288.300000
814.756348	287.100000
814.791626	283.300000
814.826843	284.200000
814.862122	282.400000
814.897400	282.200000
814.932678	282.600000
814.967957	282.100000
815.003235	282.200000
815.038452	279.900000
815.073730	277.000000
815.108948	287.000000
815.144226	283.200000
815.179504	285.200000
815.214722	273.900000
815.250000	275.900000
815.285278	278.100000
815.320496	272.800000
815.355774	275.200000
815.391052	274.900000
815.426270	272.100000
815.461487	273.200000
815.496765	266.800000
815.531982	266.500000
815.567261	270.900000
815.602539	275.800000
815.637695	271.700000
815.672974	271.200000
815.708191	272.100000
815.743408	273.600000
815.778687	265.900000
815.813904	272.800000
815.849121	264.800000
815.884399	264.900000
815.919556	263.700000
815.954834	263.900000
815.990051	266.900000
816.025269	269.300000
816.060486	260.100000
816.095703	259.700000
816.130920	263.100000
816.166199	259.600000
816.201416	260.400000
816.236572	264.900000
816.271851	259.000000
816.307007	261.200000
816.342224	253.400000
816.377441	256.100000
816.412659	250.900000
816.447876	256.900000
816.483093	252.000000
816.518250	250.900000
816.553467	251.900000
816.588745	255.300000
816.623901	247.700000
816.659119	245.200000
816.694275	248.800000
816.729492	246.000000
816.764709	272.500000
816.799927	243.600000
816.835083	248.200000
816.870300	240.600000
816.905457	244.700000
816.940674	242.800000
816.975830	240.500000
817.010986	238.900000
817.046204	240.300000
817.081421	237.300000
817.116577	238.300000
817.151733	243.600000
817.186951	241.200000
817.222107	238.800000
817.257324	243.300000
817.292419	239.300000
817.327637	234.400000
817.362854	236.300000
817.398010	234.700000
817.433167	236.500000
817.468323	233.400000
817.503479	234.300000
817.538635	241.700000
817.573853	235.000000
817.608948	234.100000
817.644165	231.900000
817.679321	230.200000
817.714478	229.100000
817.749634	232.300000
817.784790	238.100000
817.819946	235.300000
817.855103	225.200000
817.890198	229.000000
817.925415	224.000000
817.960571	230.700000
817.995667	227.800000
818.030823	228.800000
818.066040	226.300000
818.101135	227.600000
818.136292	227.000000
818.171448	223.100000
818.206543	225.100000
818.241699	227.700000
818.276855	225.800000
818.311951	223.200000
818.347107	220.900000
818.382263	225.800000
818.417358	229.200000
818.452515	228.000000
818.487610	227.800000
818.522766	220.600000
818.557922	227.000000
818.593018	222.800000
818.628113	221.700000
818.663269	219.200000
818.698364	221.900000
818.733521	217.700000
818.768677	220.600000
818.803711	216.900000
818.838867	216.700000
818.874023	216.900000
818.909058	214.400000
818.944214	214.600000
818.979370	217.600000
819.014404	215.500000
819.049561	213.800000
819.084595	217.400000
819.119751	211.800000
819.154846	216.600000
819.189941	212.200000
819.225037	209.900000
819.260193	206.800000
819.295227	207.400000
819.330322	204.800000
819.365479	207.100000
819.400513	238.600000
819.435608	204.300000
819.470764	202.800000
819.505798	204.800000
819.540894	205.700000
819.575989	205.600000
819.611084	209.600000
819.646179	211.100000
819.681213	206.400000
819.716309	205.400000
819.751404	204.300000
819.786438	209.600000
819.821533	201.200000
819.856628	204.500000
819.891663	206.400000
819.926758	213.100000
819.961853	207.200000
819.996887	201.200000
820.031982	205.000000
820.067017	203.500000
820.102112	235.600000
820.137207	200.300000
820.172302	210.100000
820.207275	199.400000
820.242371	200.100000
820.277405	200.900000
820.312500	200.000000
820.347534	200.700000
820.382568	204.800000
820.417664	198.400000
820.452759	198.500000
820.487732	197.900000
820.522827	198.700000
820.557861	196.300000
820.592896	197.700000
820.627930	199.400000
820.662964	195.500000
820.698059	200.200000
820.733093	195.800000
820.768127	199.000000
820.803162	197.200000
820.838196	195.100000
820.873230	195.700000
820.908264	198.100000
820.943298	194.800000
820.978333	200.700000
821.013367	196.100000
821.048401	198.600000
821.083435	200.100000
821.118469	190.400000
821.153503	199.600000
821.188477	196.500000
821.223511	191.700000
821.258484	193.600000
821.293579	196.400000
821.328613	190.100000
821.363647	193.900000
821.398621	191.900000
821.433655	193.600000
821.468628	203.500000
821.503662	193.200000
821.538696	196.600000
821.573669	190.100000
821.608704	195.800000
821.643677	191.400000
821.678650	196.400000
821.713684	199.000000
821.748718	194.000000
821.783691	193.300000
821.818726	192.800000
821.853638	193.600000
821.888672	193.600000
821.923706	192.200000
821.958618	190.200000
821.993652	192.100000
822.028687	194.700000
822.063599	198.900000
822.098633	192.800000
822.133667	189.000000
822.168579	192.100000
822.203613	193.600000
822.238586	189.200000
822.273560	194.300000
822.308533	189.700000
822.343567	189.000000
822.378479	190.000000
822.413452	190.200000
822.448425	187.400000
822.483398	194.000000
822.518372	194.200000
822.553345	188.700000
822.588318	195.800000
822.623291	188.500000
822.658203	189.500000
822.693237	191.300000
822.728210	189.400000
822.763123	190.700000
822.798096	188.200000
822.833069	188.800000
822.867981	190.700000
822.902954	189.700000
822.937927	193.600000
822.972900	196.600000
823.007874	186.100000
823.042725	193.600000
823.077698	198.400000
823.112671	186.200000
823.147583	189.300000
823.182556	191.300000
823.217529	192.000000
823.252441	187.700000
823.287415	197.600000
823.322388	192.000000
823.357239	189.300000
823.392212	194.200000
823.427185	195.000000
823.462097	186.700000
823.497009	191.200000
823.531982	188.300000
823.566895	190.200000
823.601807	186.200000
823.636719	189.100000
823.671631	190.300000
823.706604	188.200000
823.741455	190.900000
823.776428	186.500000
823.811340	191.800000
823.846252	195.100000
823.881165	193.400000
823.916138	190.400000
823.950989	194.700000
823.985901	188.000000
824.020813	188.500000
824.055725	187.900000
824.090637	184.900000
824.125610	190.200000
824.160461	190.100000
824.195374	190.200000
824.230225	192.100000
824.265198	184.300000
824.300110	187.400000
824.334961	196.500000
824.369873	182.300000
824.404785	189.400000
824.439636	192.000000
824.474548	182.200000
824.509460	181.600000
824.544312	192.900000
824.579224	189.400000
824.614075	188.900000
824.648987	187.600000
824.683899	188.200000
824.718811	187.000000
824.753662	191.500000
824.788574	192.000000
824.823364	188.100000
824.858276	185.500000
824.893188	190.800000
824.928040	192.100000
824.962952	189.500000
824.997803	190.200000
825.032654	187.200000
825.067566	188.800000
825.102417	183.700000
825.137268	185.100000
825.172119	186.600000
825.206970	183.900000
825.241882	185.100000
825.276733	184.500000
825.311646	184.700000
825.346436	183.400000
825.381348	181.600000
825.416138	186.300000
825.450989	182.500000
825.485901	179.800000
825.520691	180.000000
825.555542	181.400000
825.590454	183.900000
825.625244	180.800000
825.660095	188.500000
825.695007	187.300000
825.729797	183.300000
825.764648	181.800000
825.799438	184.700000
825.834290	184.300000
825.869202	179.300000
825.903992	184.200000
825.938843	181.900000
825.973694	179.200000
826.008484	191.600000
826.043335	180.300000
826.078186	177.100000
826.112976	186.900000
826.147827	187.700000
826.182678	188.100000
826.217468	177.600000
826.252319	187.200000
826.287109	180.500000
826.321899	184.900000
826.356750	181.900000
826.391541	178.000000
826.426392	185.900000
826.461182	182.100000
826.495972	178.800000
826.530823	177.100000
826.565613	184.100000
826.600403	178.400000
826.635254	185.300000
826.670044	176.500000
826.704834	177.200000
826.739685	177.400000
826.774475	184.900000
826.809265	181.700000
826.844055	180.300000
826.878906	185.600000
826.913635	182.400000
826.948425	181.800000
826.983215	184.300000
827.018005	184.600000
827.052856	179.800000
827.087585	183.900000
827.122375	176.500000
827.157227	180.900000
827.191956	191.800000
827.226746	177.100000
827.261536	183.700000
827.296265	177.600000
827.331116	180.000000
827.365906	182.800000
827.400635	179.100000
827.435425	175.000000
827.470215	186.000000
827.504944	180.800000
827.539734	185.000000
827.574463	180.600000
827.609253	187.200000
827.644043	181.600000
827.678772	185.200000
827.713562	179.300000
827.748352	180.500000
827.783081	179.600000
827.817871	182.300000
827.852600	178.500000
827.887329	181.600000
827.922119	175.500000
827.956848	183.300000
827.991638	189.900000
828.026367	182.900000
828.061157	181.200000
828.095886	180.500000
828.130615	192.900000
828.165344	174.100000
828.200073	180.900000
828.234863	180.200000
828.269592	181.600000
828.304321	183.800000
828.339111	182.100000
828.373779	179.400000
828.408569	185.700000
828.443298	184.100000
828.477966	180.200000
828.512756	181.500000
828.547424	178.900000
828.582214	180.200000
828.616943	181.300000
828.651672	181.100000
828.686340	185.000000
828.721130	177.800000
828.755798	181.500000
828.790527	181.900000
828.825256	181.100000
828.859924	181.600000
828.894714	185.700000
828.929443	187.800000
828.964111	179.900000
828.998840	183.800000
829.033569	178.400000
829.068237	179.500000
829.102966	179.200000
829.137634	181.400000
829.172363	182.600000
829.207092	182.900000
829.241821	178.900000
829.276489	175.700000
829.311157	181.300000
829.345825	179.600000
829.380554	184.700000
829.415283	178.600000
829.449951	176.900000
829.484619	186.300000
829.519348	185.200000
829.554016	182.200000
829.588745	181.200000
829.623413	177.800000
829.658081	188.800000
829.692749	178.700000
829.727417	184.700000
829.762146	183.200000
829.796814	178.200000
829.831482	179.800000
829.866150	181.400000
829.900879	179.500000
829.935486	182.000000
829.970154	180.600000
830.004883	190.000000
830.039490	184.000000
830.074219	178.300000
830.108887	182.500000
830.143494	180.100000
830.178223	177.800000
830.212891	180.100000
830.247498	181.000000
830.282166	187.000000
830.316772	185.800000
830.351501	178.500000
830.386169	180.500000
830.420776	179.000000
830.455444	182.000000
830.490112	178.900000
830.524719	177.200000
830.559387	183.300000
830.594055	183.500000
830.628662	180.900000
830.663330	181.900000
830.697998	186.400000
830.732605	181.400000
830.767273	181.700000
830.801941	181.500000
830.836487	187.100000
830.871155	182.600000
830.905762	183.800000
830.940430	177.900000
830.975098	178.500000
831.009644	180.400000
831.044312	187.700000
831.078979	183.200000
831.113525	176.000000
831.148193	180.400000
831.182861	180.900000
831.217407	183.900000
831.252075	193.400000
831.286621	179.300000
831.321289	178.000000
831.355896	181.800000
831.390564	185.700000
831.425110	182.300000
831.459778	187.200000
831.494324	190.700000
831.528931	185.100000
831.563599	185.300000
831.598145	177.600000
831.632751	180.700000
831.667419	181.600000
831.701965	182.700000
831.736572	183.100000
831.771179	178.700000
831.805786	179.500000
831.840393	185.800000
831.874939	177.000000
831.909546	183.700000
831.944153	175.300000
831.978760	181.500000
832.013306	178.500000
832.047913	185.700000
832.082458	189.000000
832.117065	179.100000
832.151672	188.200000
832.186218	182.400000
832.220825	184.000000
832.255432	175.400000
832.289978	178.700000
832.324585	182.600000
832.359192	182.100000
832.393677	180.200000
832.428284	181.500000
832.462830	179.500000
832.497437	181.200000
832.531982	185.400000
832.566589	180.500000
832.601135	183.400000
832.635681	176.500000
832.670227	181.300000
832.704773	186.900000
832.739380	182.900000
832.773926	182.800000
832.808472	180.400000
832.843079	181.200000
832.877563	183.900000
832.912170	180.800000
832.946716	176.400000
832.981201	183.900000
833.015808	184.200000
833.050293	181.900000
833.084839	180.100000
833.119446	178.900000
833.153992	184.500000
833.188477	180.000000
833.223022	180.400000
833.257568	182.400000
833.292114	185.300000
833.326660	189.900000
833.361145	179.700000
833.395691	175.900000
833.430237	181.300000
833.464783	182.500000
833.499329	179.600000
833.533875	177.300000
833.568359	184.300000
833.602905	184.400000
833.637390	186.600000
833.671875	178.500000
833.706421	181.400000
833.740906	178.100000
833.775452	176.000000
833.809998	179.700000
833.844482	187.300000
833.879028	179.600000
833.913513	179.800000
833.947998	183.300000
833.982544	179.000000
834.017090	178.000000
834.051514	174.000000
834.086060	182.700000
834.120544	180.500000
834.155029	182.000000
834.189575	180.400000
834.223999	182.600000
834.258545	182.300000
834.293030	181.800000
834.327515	181.100000
834.362000	180.700000
834.396545	183.700000
834.430969	181.000000
834.465454	184.900000
834.500000	177.200000
834.534424	182.700000
834.568970	176.500000
834.603455	175.300000
834.637878	180.000000
834.672363	181.200000
834.706909	182.100000
834.741333	180.700000
834.775818	178.000000
834.810242	178.100000
834.844727	182.300000
834.879211	179.600000
834.913635	182.400000
834.948181	181.100000
834.982666	183.400000
835.017090	179.800000
835.051575	182.500000
835.086060	180.000000
835.120483	184.100000
835.154907	183.100000
835.189331	180.700000
835.223816	183.700000
835.258301	177.500000
835.292786	178.800000
835.327209	183.400000
835.361694	178.300000
835.396057	180.400000
835.430542	182.700000
835.465027	181.000000
835.499390	177.600000
835.533875	208.300000
835.568359	179.600000
835.602722	176.500000
835.637207	183.600000
835.671692	176.300000
835.706055	194.900000
835.740540	183.200000
835.774902	183.800000
835.809387	181.900000
835.843811	177.000000
835.878235	185.500000
835.912659	178.800000
835.947083	178.600000
835.981506	181.800000
836.015930	175.800000
836.050354	184.900000
836.084778	186.300000
836.119202	184.800000
836.153625	192.300000
836.187988	179.900000
836.222473	178.200000
836.256897	182.000000
836.291260	180.300000
836.325684	182.800000
836.360046	179.800000
836.394470	181.700000
836.428894	184.400000
836.463318	178.900000
836.497681	184.600000
836.532104	185.100000
836.566467	183.000000
836.600891	180.600000
836.635315	184.700000
836.669678	183.200000
836.704102	184.400000
836.738525	183.700000
836.772888	176.300000
836.807251	178.800000
836.841675	182.900000
836.876038	178.700000
836.910461	177.900000
836.944763	184.500000
836.979187	178.600000
837.013611	185.000000
837.047974	177.500000
837.082336	189.800000
837.116699	183.200000
837.151062	183.200000
837.185486	177.700000
837.219849	179.700000
837.254211	183.700000
837.288574	180.700000
837.322937	177.900000
837.357300	174.600000
837.391663	191.000000
837.426086	185.300000
837.460388	182.500000
837.494751	183.700000
837.529114	180.200000
837.563477	185.600000
837.597839	182.500000
837.632141	180.700000
837.666565	180.200000
837.700928	184.100000
837.735229	183.300000
837.769592	183.100000
837.803955	185.600000
837.838257	180.300000
837.872620	180.400000
837.906982	186.300000
837.941284	181.900000
837.975647	183.000000
838.010010	186.300000
838.044312	179.800000
838.078674	179.600000
838.112976	182.400000
838.147339	183.400000
838.181702	182.000000
838.216003	187.000000
838.250366	181.900000
838.284668	183.500000
838.318970	176.300000
838.353333	180.800000
838.387634	180.100000
838.421936	183.000000
838.456299	181.600000
838.490601	186.200000
838.524902	182.700000
838.559265	184.700000
838.593567	184.600000
838.627869	178.000000
838.662170	184.000000
838.696472	178.200000
838.730774	179.100000
838.765137	183.800000
838.799377	172.000000
838.833740	183.100000
838.868042	185.300000
838.902283	175.800000
838.936646	186.700000
838.970947	181.700000
839.005188	187.200000
839.039551	176.200000
839.073792	186.600000
839.108093	179.700000
839.142395	189.200000
839.176697	177.400000
839.210937	183.700000
839.245300	188.500000
839.279541	177.800000
839.313843	180.400000
839.348145	184.000000
839.382385	184.000000
839.416687	185.900000
839.450989	182.300000
839.485229	181.700000
839.519531	178.200000
839.553833	184.800000
839.588013	181.000000
839.622314	184.300000
839.656555	183.600000
839.690857	182.300000
839.725159	177.000000
839.759460	182.200000
839.793640	178.900000
839.827942	183.000000
839.862183	179.100000
839.896423	182.300000
839.930725	192.500000
839.964966	189.700000
839.999207	185.100000
840.033508	186.500000
840.067688	179.500000
840.101990	188.500000
840.136230	181.400000
840.170471	187.800000
840.204712	178.500000
840.238953	179.600000
840.273193	182.400000
840.307434	184.600000
840.341736	178.700000
840.375916	178.300000
840.410217	178.400000
840.444397	184.000000
840.478638	184.000000
840.512878	185.900000
840.547119	182.900000
840.581360	184.300000
840.615601	188.500000
840.649780	191.200000
840.684021	182.600000
840.718262	189.000000
840.752441	188.200000
840.786682	183.200000
840.820862	182.800000
840.855103	187.800000
840.889343	183.200000
840.923584	186.600000
840.957764	183.800000
840.992004	183.800000
841.026184	193.300000
841.060425	180.700000
841.094666	179.600000
841.128845	183.800000
841.163025	183.000000
841.197266	182.300000
841.231445	182.200000
841.265686	182.300000
841.299866	180.300000
841.334045	187.000000
841.368286	182.100000
841.402405	186.300000
841.436646	184.700000
841.470825	180.900000
841.505005	182.100000
841.539185	178.600000
841.573425	180.600000
841.607544	181.200000
841.641785	183.300000
841.675964	179.100000
841.710144	183.000000
841.744324	179.600000
841.778503	182.700000
841.812683	179.300000
841.846863	187.600000
841.881042	188.200000
841.915222	179.600000
841.949402	191.800000
841.983521	176.300000
842.017700	181.600000
842.051880	183.500000
842.086060	184.200000
842.120239	182.300000
842.154419	179.100000
842.188538	182.100000
842.222717	179.100000
842.256897	188.600000
842.291016	181.700000
842.325195	182.700000
842.359375	189.700000
842.393494	187.100000
842.427673	184.200000
842.461853	184.200000
842.495911	188.300000
842.530090	182.800000
842.564209	182.300000
842.598389	182.800000
842.632568	183.000000
842.666626	185.800000
842.700806	181.100000
842.734985	180.100000
842.769043	185.700000
842.803223	181.800000
842.837402	182.300000
842.871460	179.300000
842.905640	190.300000
842.939697	178.600000
842.973877	184.900000
843.007996	186.300000
843.042175	190.000000
843.076233	180.800000
843.110413	185.900000
843.144470	187.600000
843.178589	187.500000
843.212769	180.600000
843.246826	185.600000
843.280945	179.800000
843.315125	182.300000
843.349182	179.200000
843.383301	186.200000
843.417419	190.700000
843.451538	183.000000
843.485657	179.900000
843.519714	182.200000
843.553833	183.400000
843.587952	180.600000
843.622070	178.600000
843.656128	184.800000
843.690247	180.100000
843.724304	182.800000
843.758423	184.200000
843.792542	180.800000
843.826599	183.100000
843.860718	180.200000
843.894836	177.600000
843.928894	183.700000
843.963013	184.700000
843.997070	179.900000
844.031128	179.400000
844.065247	184.300000
844.099304	185.900000
844.133362	184.300000
844.167480	184.200000
844.201599	186.500000
844.235596	184.600000
844.269714	183.800000
844.303711	183.300000
844.337830	177.400000
844.371948	184.400000
844.405945	182.200000
844.440063	180.300000
844.474121	191.400000
844.508118	182.500000
844.542236	182.300000
844.576294	183.100000
844.610352	178.400000
844.644409	181.600000
844.678406	177.000000
844.712524	186.600000
844.746582	186.000000
844.780640	181.900000
844.814636	181.800000
844.848755	190.200000
844.882751	180.500000
844.916809	186.500000
844.950867	183.600000
844.984863	189.200000
845.018921	180.900000
845.052979	180.300000
845.086975	183.300000
845.121033	178.400000
845.155090	178.200000
845.189087	187.800000
845.223145	180.300000
845.257141	184.300000
845.291199	184.700000
845.325256	186.200000
845.359253	182.500000
845.393250	193.900000
845.427307	181.600000
845.461304	183.800000
845.495361	183.100000
845.529358	190.100000
845.563354	183.100000
845.597412	179.300000
845.631409	190.000000
845.665405	187.800000
845.699463	186.000000
845.733459	180.800000
845.767456	190.900000
845.801453	180.800000
845.835449	187.500000
845.869446	186.200000
845.903503	185.000000
845.937439	178.900000
845.971497	187.900000
846.005493	176.900000
846.039429	186.600000
846.073486	190.300000
846.107483	181.500000
846.141418	181.800000
846.175476	182.700000
846.209473	187.500000
846.243408	181.000000
846.277405	182.000000
846.311401	180.600000
846.345337	182.700000
846.379395	186.100000
846.413330	180.100000
846.447327	192.900000
846.481323	179.200000
846.515259	180.800000
846.549255	180.900000
846.583252	185.100000
846.617187	180.300000
846.651184	184.900000
846.685120	181.600000
846.719055	188.700000
846.753052	185.900000
846.786987	186.000000
846.820984	179.400000
846.854980	189.100000
846.888916	180.300000
846.922852	184.600000
846.956848	187.400000
846.990723	180.900000
847.024719	184.800000
847.058716	182.400000
847.092590	187.900000
847.126587	185.000000
847.160522	180.400000
847.194458	186.300000
847.228455	180.600000
847.262390	178.700000
847.296265	181.700000
847.330261	186.600000
847.364136	182.000000
847.398132	181.300000
847.432068	183.300000
847.466003	181.500000
847.499939	182.800000
847.533875	184.500000
847.567749	182.900000
847.601746	181.000000
847.635681	184.900000
847.669556	177.700000
847.703491	188.300000
847.737427	191.600000
847.771301	178.600000
847.805237	183.900000
847.839233	183.200000
847.873108	181.300000
847.907043	180.800000
847.940918	188.900000
847.974854	184.200000
848.008789	184.800000
848.042664	183.300000
848.076538	184.000000
848.110474	182.000000
848.144348	184.500000
848.178284	179.200000
848.212219	184.200000
848.246094	180.700000
848.279968	183.500000
848.313904	184.900000
848.347778	182.600000
848.381653	182.200000
848.415588	180.300000
848.449463	180.600000
848.483337	185.800000
848.517212	189.300000
848.551086	183.800000
848.585022	178.500000
848.618835	192.600000
848.652771	180.400000
848.686646	180.100000
848.720520	188.400000
848.754395	182.300000
848.788330	185.900000
848.822144	186.300000
848.856018	179.900000
848.889954	190.500000
848.923767	180.800000
848.957642	181.300000
848.991577	184.200000
849.025391	182.100000
849.059265	181.600000
849.093079	180.200000
849.126953	178.600000
849.160828	186.900000
849.194641	183.000000
849.228577	181.600000
849.262451	182.300000
849.296265	182.400000
849.330139	181.100000
849.364014	184.300000
849.397827	184.200000
849.431702	183.500000
849.465515	185.900000
849.499329	176.300000
849.533203	179.200000
849.567078	176.400000
849.600891	184.400000
849.634766	183.600000
849.668518	185.100000
849.702393	183.900000
849.736267	177.600000
849.770020	190.800000
849.803894	183.200000
849.837769	184.000000
849.871521	182.500000
849.905396	186.100000
849.939270	179.400000
849.973022	182.200000
850.006897	183.700000
850.040710	185.800000
850.074524	185.500000
850.108337	182.700000
850.142151	187.100000
850.175964	187.900000
850.209778	182.200000
850.243530	175.300000
850.277405	186.600000
850.311218	183.400000
850.344971	181.600000
850.378845	188.200000
850.412659	181.200000
850.446411	184.300000
850.480225	182.800000
850.514038	185.100000
850.547791	185.800000
850.581665	181.900000
850.615417	182.000000
850.649231	183.200000
850.683044	181.300000
850.716858	181.500000
850.750610	184.500000
850.784424	185.300000
850.818176	181.000000
850.851929	181.300000
850.885742	180.900000
850.919495	182.900000
850.953308	187.700000
850.987122	188.000000
851.020874	179.000000
851.054626	177.600000
851.088440	186.100000
851.122192	185.400000
851.156006	183.800000
851.189697	181.200000
851.223511	179.100000
851.257263	186.700000
851.291077	185.800000
851.324829	179.900000
851.358582	182.300000
851.392334	181.800000
851.426086	181.700000
851.459900	187.900000
851.493591	183.700000
851.527344	182.400000
851.561157	183.000000
851.594849	186.000000
851.628662	184.300000
851.662415	190.100000
851.696106	185.500000
851.729858	186.600000
851.763611	178.300000
851.797363	184.200000
851.831116	179.600000
851.864868	185.000000
851.898560	186.200000
851.932312	182.200000
851.966064	184.400000
851.999817	182.900000
852.033569	181.700000
852.067261	189.000000
852.101013	179.200000
852.134766	183.300000
852.168457	176.900000
852.202209	186.600000
852.235901	180.200000
852.269592	184.900000
852.303345	188.700000
852.337036	187.300000
852.370789	182.900000
852.404541	186.300000
852.438171	179.100000
852.471924	182.900000
852.505676	178.300000
852.539307	184.300000
852.573059	181.200000
852.606812	182.600000
852.640442	180.400000
852.674194	187.500000
852.707886	189.200000
852.741577	189.500000
852.775269	178.100000
852.809021	183.600000
852.842651	185.800000
852.876404	189.500000
852.910034	183.400000
852.943787	187.000000
852.977478	184.900000
853.011108	182.300000
853.044861	179.500000
853.078552	189.500000
853.112183	183.900000
853.145874	184.100000
853.179626	176.700000
853.213257	184.000000
853.246948	180.600000
853.280640	189.500000
853.314270	182.300000
853.347961	187.600000
853.381653	184.900000
853.415283	187.200000
853.448975	180.500000
853.482605	184.000000
853.516296	183.500000
853.549988	179.300000
853.583618	185.300000
853.617310	184.900000
853.651001	184.000000
853.684631	180.500000
853.718323	181.000000
853.751953	188.100000
853.785583	177.700000
853.819275	184.700000
853.852966	184.800000
853.886536	177.000000
853.920227	180.200000
853.953918	184.900000
853.987488	183.800000
854.021179	185.800000
854.054749	189.500000
854.088440	184.700000
854.122131	180.000000
854.155701	185.800000
854.189331	181.200000
854.223022	185.100000
854.256592	184.600000
854.290283	181.800000
854.323914	185.800000
854.357483	183.000000
854.391174	185.600000
854.424744	189.100000
854.458374	184.500000
854.492065	193.000000
854.525696	183.200000
854.559265	187.600000
854.592896	192.700000
854.626465	183.400000
854.660095	183.700000
854.693787	185.700000
854.727356	182.100000
854.760986	187.200000
854.794617	184.300000
854.828186	181.000000
854.861816	185.100000
854.895447	183.800000
854.929016	183.000000
854.962585	184.100000
854.996155	190.000000
855.029785	183.700000
855.063416	183.600000
855.097046	187.400000
855.130615	178.600000
855.164185	187.400000
855.197754	183.500000
855.231384	186.000000
855.264954	181.400000
855.298523	184.900000
855.332153	184.400000
855.365723	188.000000
855.399292	181.300000
855.432922	183.400000
855.466492	184.000000
855.500061	180.600000
855.533630	179.800000
855.567200	186.000000
855.600769	185.700000
855.634338	187.900000
855.667969	183.600000
855.701477	181.000000
855.735046	179.600000
855.768616	178.700000
855.802185	184.200000
855.835754	193.600000
855.869324	176.800000
855.902893	183.300000
855.936401	187.000000
855.969971	184.600000
856.003540	179.200000
856.037109	187.100000
856.070618	181.700000
856.104187	179.700000
856.137695	181.100000
856.171265	177.800000
856.204834	182.500000
856.238403	185.800000
856.271912	181.300000
856.305481	185.000000
856.338989	178.900000
856.372559	185.600000
856.406128	185.700000
856.439636	186.900000
856.473145	182.200000
856.506653	187.900000
856.540222	183.600000
856.573792	186.800000
856.607300	186.400000
856.640808	179.400000
856.674377	183.600000
856.707825	215.200000
856.741394	186.900000
856.774902	179.600000
856.808472	178.200000
856.841980	185.300000
856.875488	187.400000
856.908936	178.600000
856.942505	182.500000
856.976013	182.400000
857.009521	180.400000
857.043030	181.700000
857.076477	182.700000
857.110046	188.000000
857.143555	183.600000
857.177063	186.100000
857.210571	182.500000
857.244080	178.300000
857.277527	184.700000
857.311035	184.200000
857.344543	186.400000
857.378052	182.300000
857.411499	188.500000
857.445068	187.800000
857.478516	182.000000
857.512024	180.200000
857.545532	182.100000
857.578979	184.200000
857.612427	184.000000
857.645874	179.400000
857.679382	184.500000
857.712891	186.300000
857.746399	183.800000
857.779846	187.200000
857.813354	188.900000
857.846741	184.000000
857.880249	179.700000
857.913757	184.700000
857.947266	184.600000
857.980652	186.600000
858.014160	182.600000
858.047546	181.200000
858.081055	182.600000
858.114563	192.900000
858.147949	178.700000
858.181458	185.100000
858.214844	182.800000
858.248352	177.700000
858.281799	187.600000
858.315308	193.300000
858.348694	184.800000
858.382141	190.600000
858.415588	185.500000
858.449036	186.900000
858.482483	184.800000
858.515930	182.100000
858.549377	181.900000
858.582825	188.700000
858.616211	185.200000
858.649658	185.700000
858.683105	179.700000
858.716553	181.600000
858.750000	179.500000
858.783386	182.000000
858.816833	178.300000
858.850281	184.400000
858.883728	184.000000
858.917114	184.200000
858.950562	189.100000
858.983948	189.100000
859.017395	186.900000
859.050781	183.400000
859.084167	179.100000
859.117615	179.800000
859.151062	185.100000
859.184448	180.200000
859.217834	181.300000
859.251282	181.600000
859.284668	180.100000
859.318054	178.600000
859.351440	182.000000
859.384888	190.300000
859.418274	177.800000
859.451721	178.200000
859.485046	183.000000
859.518494	185.200000
859.551819	180.200000
859.585266	186.100000
859.618652	187.700000
859.652039	177.900000
859.685425	179.000000
859.718811	178.900000
859.752197	176.500000
859.785583	187.500000
859.819031	189.100000
859.852356	184.800000
859.885742	181.300000
859.919067	183.600000
859.952454	181.000000
859.985901	187.100000
860.019287	182.100000
860.052612	0.000000
860.085999	0.000000
860.119324	0.000000
860.152710	0.000000
860.186096	0.000000
860.219421	0.000000
860.252808	0.000000
860.286133	0.000000
860.319519	0.000000
860.352905	0.000000
860.386292	0.000000
860.419617	0.000000
860.452942	0.000000
860.486267	0.000000
860.519653	0.000000
860.553040	0.000000
860.586365	0.000000
860.619690	0.000000
860.653076	0.000000
860.686340	0.000000
860.719727	0.000000
860.753113	0.000000
860.786377	0.000000
860.819763	0.000000
860.853027	0.000000
860.886414	0.000000
860.919739	0.000000
860.953125	0.000000
860.986389	0.000000
861.019714	0.000000
861.053040	0.000000
861.086365	0.000000
861.119690	0.000000
861.153076	0.000000
861.186340	0.000000
861.219666	0.000000
861.252930	0.000000
861.286316	0.000000
861.319641	0.000000
861.352905	0.000000
861.386230	0.000000
861.419495	0.000000
861.452820	0.000000
861.486145	0.000000
861.519470	0.000000
861.552734	0.000000
861.586060	0.000000
861.619324	0.000000
861.652649	0.000000
861.685974	0.000000
861.719238	0.000000
861.752563	0.000000
861.785828	0.000000
861.819092	0.000000
861.852417	0.000000
861.885742	0.000000
861.918945	0.000000
861.952271	0.000000
861.985535	0.000000
862.018799	0.000000
862.052124	0.000000
862.085449	0.000000
862.118652	0.000000
862.151978	0.000000
862.185181	0.000000
862.218506	0.000000
862.251770	0.000000
862.285034	0.000000
862.318298	0.000000
862.351562	0.000000
862.384827	0.000000
862.418091	0.000000
862.451355	0.000000
862.484619	0.000000
862.517883	0.000000
862.551086	0.000000
862.584351	0.000000
862.617676	0.000000
862.650940	0.000000
862.684143	0.000000
862.717407	0.000000
862.750610	0.000000
862.783875	0.000000
862.817139	0.000000
862.850342	0.000000
862.883606	0.000000
862.916870	0.000000
862.950073	0.000000
862.983337	0.000000
863.016602	0.000000
863.049805	0.000000
863.083069	0.000000
863.116211	0.000000
863.149475	0.000000
863.182739	0.000000
863.216003	0.000000
863.249146	0.000000
863.282410	0.000000
863.315613	0.000000
863.348816	0.000000
863.382080	0.000000
863.415222	0.000000
863.448486	0.000000
863.481689	0.000000
863.514893	0.000000
863.548157	0.000000
863.581360	0.000000
863.614502	0.000000
863.647766	0.000000
863.680908	0.000000
863.714172	0.000000
863.747375	0.000000
863.780579	0.000000
863.813721	0.000000
863.846985	0.000000
863.880127	0.000000
863.913330	0.000000
863.946533	0.000000
863.979675	0.000000
864.012939	0.000000
