Model Number: SPM-001-M   
Serial Number: 10090201
Firmware Version: 004.17.6
Exposure Time: 300000.000000us
Data Taken on: 28-01-2021 10:41:23.875
Wavelength	Amplitude
733.770752	0.000000
733.808716	0.000000
733.846619	0.000000
733.884583	0.000000
733.922546	0.000000
733.960449	0.000000
733.998413	0.000000
734.036377	0.000000
734.074219	0.000000
734.112183	0.000000
734.150085	0.000000
734.188049	0.000000
734.226013	0.000000
734.263916	0.000000
734.301819	0.000000
734.339783	0.000000
734.377686	0.000000
734.415588	0.000000
734.453552	0.000000
734.491455	0.000000
734.529419	0.000000
734.567322	0.000000
734.605225	0.000000
734.643127	0.000000
734.681091	0.000000
734.718994	0.000000
734.756897	0.000000
734.794800	0.000000
734.832703	0.000000
734.870667	0.000000
734.908508	0.000000
734.946472	0.000000
734.984375	0.000000
735.022278	0.000000
735.060181	0.000000
735.098083	0.000000
735.135986	0.000000
735.173889	0.000000
735.211792	0.000000
735.249695	0.000000
735.287598	0.000000
735.325439	0.000000
735.363403	0.000000
735.401306	0.000000
735.439148	0.000000
735.477051	0.000000
735.515015	0.000000
735.552856	0.000000
735.590759	0.000000
735.628662	0.000000
735.666504	0.000000
735.704407	0.000000
735.742310	0.000000
735.780212	0.000000
735.818115	0.000000
735.856018	0.000000
735.893860	0.000000
735.931763	0.000000
735.969604	0.000000
736.007507	0.000000
736.045410	0.000000
736.083252	0.000000
736.121094	0.000000
736.158997	0.000000
736.196838	0.000000
736.234741	0.000000
736.272644	0.000000
736.310486	0.000000
736.348389	0.000000
736.386230	0.000000
736.424072	0.000000
736.461975	0.000000
736.499878	0.000000
736.537720	0.000000
736.575562	0.000000
736.613403	0.000000
736.651306	0.000000
736.689148	0.000000
736.726990	0.000000
736.764893	0.000000
736.802734	0.000000
736.840576	0.000000
736.878418	0.000000
736.916321	0.000000
736.954102	0.000000
736.992004	0.000000
737.029846	0.000000
737.067688	0.000000
737.105530	0.000000
737.143372	0.000000
737.181213	0.000000
737.219116	0.000000
737.256897	0.000000
737.294739	0.000000
737.332642	0.000000
737.370422	0.000000
737.408325	0.000000
737.446167	0.000000
737.483948	0.000000
737.521790	0.000000
737.559692	0.000000
737.597473	0.000000
737.635315	0.000000
737.673157	0.000000
737.710999	0.000000
737.748840	0.000000
737.786621	0.000000
737.824463	0.000000
737.862305	0.000000
737.900085	0.000000
737.937927	0.000000
737.975769	0.000000
738.013550	0.000000
738.051392	0.000000
738.089233	0.000000
738.127014	0.000000
738.164856	0.000000
738.202698	0.000000
738.240479	0.000000
738.278320	0.000000
738.316162	0.000000
738.353943	0.000000
738.391785	0.000000
738.429565	0.000000
738.467407	0.000000
738.505188	0.000000
738.542969	0.000000
738.580811	0.000000
738.618652	0.000000
738.656372	0.000000
738.694214	0.000000
738.732056	0.000000
738.769836	0.000000
738.807617	0.000000
738.845459	0.000000
738.883240	0.000000
738.921021	0.000000
738.958862	0.000000
738.996582	0.000000
739.034424	0.000000
739.072205	0.000000
739.109985	0.000000
739.147827	0.000000
739.185547	0.000000
739.223389	0.000000
739.261169	0.000000
739.298889	0.000000
739.336731	0.000000
739.374512	0.000000
739.412292	0.000000
739.450073	0.000000
739.487854	0.000000
739.525635	0.000000
739.563416	0.000000
739.601135	0.000000
739.638977	0.000000
739.676758	0.000000
739.714478	0.000000
739.752258	0.000000
739.790100	0.000000
739.827820	0.000000
739.865601	0.000000
739.903381	0.000000
739.941101	0.000000
739.978882	185.000000
740.016724	179.700000
740.054443	184.300000
740.092224	179.300000
740.130005	179.300000
740.167725	178.800000
740.205505	179.200000
740.243225	185.600000
740.281006	180.900000
740.318787	176.400000
740.356506	186.500000
740.394287	185.400000
740.432068	179.200000
740.469727	177.300000
740.507507	183.900000
740.545288	181.800000
740.583008	183.600000
740.620789	181.100000
740.658569	176.000000
740.696228	182.400000
740.734009	184.800000
740.771790	175.700000
740.809509	183.500000
740.847229	179.700000
740.884949	179.500000
740.922729	178.900000
740.960449	179.800000
740.998169	180.100000
741.035950	178.200000
741.073669	181.800000
741.111389	181.100000
741.149170	189.300000
741.186890	187.700000
741.224609	184.400000
741.262329	182.400000
741.300110	189.300000
741.337769	178.600000
741.375549	179.300000
741.413208	181.700000
741.450989	180.900000
741.488708	178.800000
741.526367	180.000000
741.564148	184.100000
741.601868	185.500000
741.639526	180.000000
741.677307	184.400000
741.715027	183.000000
741.752686	178.100000
741.790466	186.000000
741.828186	182.100000
741.865845	177.200000
741.903564	177.500000
741.941345	182.300000
741.979004	179.000000
742.016724	184.500000
742.054382	183.000000
742.092102	185.100000
742.129822	177.500000
742.167480	181.200000
742.205200	180.900000
742.242920	183.100000
742.280640	183.500000
742.318359	178.700000
742.356079	179.900000
742.393738	184.300000
742.431396	179.700000
742.469116	186.700000
742.506775	175.500000
742.544495	183.800000
742.582214	183.700000
742.619873	182.600000
742.657593	186.200000
742.695251	187.500000
742.732971	180.200000
742.770630	184.000000
742.808289	181.300000
742.846008	183.100000
742.883728	182.400000
742.921326	182.500000
742.959045	180.100000
742.996765	181.800000
743.034424	179.800000
743.072083	181.000000
743.109802	181.200000
743.147400	179.800000
743.185120	181.000000
743.222839	181.400000
743.260437	186.500000
743.298157	183.200000
743.335754	174.600000
743.373474	181.900000
743.411133	176.900000
743.448792	182.100000
743.486450	180.400000
743.524170	177.400000
743.561768	180.900000
743.599487	187.200000
743.637146	189.200000
743.674744	181.100000
743.712463	179.200000
743.750122	183.000000
743.787720	182.000000
743.825439	180.700000
743.863037	181.600000
743.900696	181.400000
743.938416	206.100000
743.976013	180.400000
744.013672	187.000000
744.051331	185.400000
744.088928	188.400000
744.126587	185.800000
744.164307	184.300000
744.201904	179.900000
744.239563	183.600000
744.277222	183.900000
744.314819	181.200000
744.352478	186.100000
744.390137	184.300000
744.427734	183.300000
744.465393	180.600000
744.502991	177.800000
744.540649	184.500000
744.578308	181.700000
744.615906	179.600000
744.653564	173.800000
744.691223	183.800000
744.728821	177.100000
744.766418	183.200000
744.804077	181.100000
744.841675	181.300000
744.879333	176.400000
744.916992	180.800000
744.954529	179.200000
744.992187	187.000000
745.029785	180.100000
745.067444	181.500000
745.105042	181.700000
745.142639	183.200000
745.180298	189.300000
745.217896	181.600000
745.255493	180.100000
745.293152	184.700000
745.330750	186.100000
745.368347	186.400000
745.405945	183.300000
745.443604	182.300000
745.481140	183.300000
745.518799	181.100000
745.556396	183.900000
745.593994	184.100000
745.631592	182.000000
745.669189	178.600000
745.706787	182.300000
745.744385	179.600000
745.781982	185.800000
745.819580	179.600000
745.857178	180.700000
745.894775	180.600000
745.932373	182.500000
745.969971	184.100000
746.007568	177.000000
746.045166	186.500000
746.082764	187.300000
746.120300	183.400000
746.157898	184.500000
746.195557	180.100000
746.233093	179.500000
746.270691	184.300000
746.308228	185.400000
746.345825	184.300000
746.383423	185.400000
746.420959	178.500000
746.458557	180.700000
746.496155	178.300000
746.533691	183.400000
746.571289	178.400000
746.608887	182.500000
746.646423	181.700000
746.684021	183.300000
746.721619	178.700000
746.759155	185.200000
746.796753	175.900000
746.834351	179.400000
746.871826	178.900000
746.909424	186.900000
746.946960	180.100000
746.984558	181.600000
747.022156	178.900000
747.059631	188.600000
747.097229	183.800000
747.134827	179.900000
747.172363	184.700000
747.209900	184.300000
747.247498	178.400000
747.285034	185.400000
747.322571	185.500000
747.360168	181.000000
747.397644	176.500000
747.435242	184.700000
747.472778	185.500000
747.510315	180.500000
747.547913	180.300000
747.585388	184.500000
747.622925	181.000000
747.660522	176.600000
747.697998	180.200000
747.735596	181.400000
747.773132	181.100000
747.810669	181.900000
747.848206	184.500000
747.885742	178.600000
747.923279	178.700000
747.960815	182.600000
747.998352	183.000000
748.035889	184.500000
748.073425	183.900000
748.110901	179.600000
748.148437	179.700000
748.185974	181.200000
748.223511	189.400000
748.261047	183.500000
748.298584	183.200000
748.336060	180.400000
748.373596	184.900000
748.411133	206.700000
748.448608	180.300000
748.486145	182.900000
748.523682	185.800000
748.561218	187.600000
748.598755	182.800000
748.636292	183.100000
748.673706	181.800000
748.711243	186.600000
748.748718	183.500000
748.786255	181.100000
748.823792	181.500000
748.861267	177.200000
748.898804	184.400000
748.936340	181.800000
748.973816	179.400000
749.011292	187.000000
749.048828	182.700000
749.086304	183.100000
749.123840	189.700000
749.161316	179.500000
749.198792	187.600000
749.236328	185.900000
749.273743	181.600000
749.311279	181.100000
749.348816	184.800000
749.386230	182.900000
749.423767	173.100000
749.461304	184.300000
749.498718	180.600000
749.536255	186.000000
749.573730	189.800000
749.611206	188.000000
749.648682	181.100000
749.686218	183.100000
749.723633	184.000000
749.761169	181.900000
749.798645	179.600000
749.836060	182.000000
749.873596	178.500000
749.911011	184.200000
749.948547	185.500000
749.986023	181.600000
750.023437	180.000000
750.060913	179.300000
750.098450	175.900000
750.135864	182.700000
750.173340	182.200000
750.210815	185.900000
750.248291	178.700000
750.285767	183.200000
750.323242	184.900000
750.360657	185.100000
750.398132	177.900000
750.435608	185.600000
750.473022	179.200000
750.510498	179.800000
750.547974	177.900000
750.585449	181.100000
750.622925	173.400000
750.660339	191.200000
750.697815	181.500000
750.735291	182.300000
750.772644	180.700000
750.810120	183.100000
750.847595	183.400000
750.885010	179.300000
750.922485	187.000000
750.959961	181.700000
750.997375	187.000000
751.034851	185.500000
751.072266	185.200000
751.109680	177.300000
751.147156	187.500000
751.184570	182.600000
751.221985	182.000000
751.259460	177.000000
751.296875	182.600000
751.334290	180.700000
751.371765	185.700000
751.409180	183.700000
751.446594	187.000000
751.484070	181.800000
751.521423	183.200000
751.558899	182.100000
751.596375	190.100000
751.633728	186.400000
751.671204	190.100000
751.708618	179.700000
751.746033	184.500000
751.783447	176.800000
751.820801	180.800000
751.858276	183.100000
751.895691	182.600000
751.933105	179.700000
751.970520	179.600000
752.007935	180.700000
752.045349	186.900000
752.082764	181.900000
752.120178	181.100000
752.157532	179.900000
752.195007	181.600000
752.232422	182.300000
752.269775	186.500000
752.307190	184.300000
752.344543	180.000000
752.382019	182.300000
752.419434	182.500000
752.456787	182.900000
752.494202	186.100000
752.531616	182.600000
752.568970	184.600000
752.606384	183.900000
752.643799	183.700000
752.681152	187.700000
752.718567	183.100000
752.755981	177.400000
752.793335	184.300000
752.830750	178.000000
752.868164	185.200000
752.905518	179.500000
752.942932	185.200000
752.980225	180.100000
753.017639	184.400000
753.055054	185.200000
753.092407	183.300000
753.129822	186.700000
753.167175	188.100000
753.204529	183.300000
753.241943	178.800000
753.279358	179.500000
753.316650	183.300000
753.354065	183.600000
753.391479	185.300000
753.428772	188.100000
753.466187	182.500000
753.503479	179.600000
753.540894	179.100000
753.578308	179.400000
753.615601	177.100000
753.653015	182.400000
753.690369	179.800000
753.727722	181.000000
753.765076	176.800000
753.802490	179.700000
753.839783	176.000000
753.877136	181.200000
753.914551	189.200000
753.951843	179.700000
753.989258	183.200000
754.026611	183.100000
754.063904	183.400000
754.101257	179.700000
754.138611	176.100000
754.175964	183.900000
754.213318	187.700000
754.250610	177.000000
754.288025	180.300000
754.325378	179.500000
754.362671	183.900000
754.400024	182.100000
754.437378	189.400000
754.474670	188.000000
754.512085	180.500000
754.549438	182.100000
754.586731	180.900000
754.624084	182.500000
754.661438	179.700000
754.698730	188.700000
754.736084	182.000000
754.773376	181.500000
754.810730	184.500000
754.848083	182.200000
754.885315	187.100000
754.922668	177.600000
754.960022	180.300000
754.997314	185.300000
755.034668	184.000000
755.072021	182.400000
755.109253	182.100000
755.146606	186.800000
755.183960	182.600000
755.221252	187.700000
755.258545	187.500000
755.295898	186.800000
755.333191	187.500000
755.370544	184.100000
755.407776	184.400000
755.445129	183.000000
755.482422	187.000000
755.519714	181.800000
755.557068	179.500000
755.594360	176.900000
755.631653	186.700000
755.668945	188.200000
755.706299	185.300000
755.743530	190.500000
755.780884	190.000000
755.818176	185.800000
755.855408	188.200000
755.892761	185.100000
755.930054	182.300000
755.967346	185.800000
756.004639	186.400000
756.041870	184.500000
756.079224	189.100000
756.116516	181.400000
756.153748	185.500000
756.191040	189.500000
756.228394	186.800000
756.265625	181.500000
756.302917	184.800000
756.340210	181.400000
756.377441	188.400000
756.414795	190.200000
756.452087	183.900000
756.489319	182.100000
756.526611	187.400000
756.563843	186.400000
756.601135	190.400000
756.638428	192.000000
756.675659	184.200000
756.712952	188.000000
756.750244	187.000000
756.787476	187.000000
756.824768	188.600000
756.862061	186.000000
756.899292	229.500000
756.936584	190.100000
756.973816	193.400000
757.011047	194.700000
757.048340	185.000000
757.085632	188.600000
757.122864	197.000000
757.160156	185.700000
757.197327	187.300000
757.234619	192.800000
757.271912	185.100000
757.309082	190.600000
757.346375	182.400000
757.383667	191.300000
757.420837	186.700000
757.458130	188.200000
757.495422	183.700000
757.532593	190.700000
757.569885	181.100000
757.607117	186.300000
757.644348	186.700000
757.681580	198.200000
757.718811	178.600000
757.756042	188.200000
757.793335	185.300000
757.830505	189.400000
757.867798	185.600000
757.905029	185.400000
757.942200	188.300000
757.979492	186.800000
758.016724	187.500000
758.053894	186.500000
758.091187	199.800000
758.128418	188.600000
758.165588	187.900000
758.202820	196.800000
758.240112	190.100000
758.277283	195.100000
758.314514	190.000000
758.351685	187.000000
758.388916	194.600000
758.426147	192.200000
758.463379	195.300000
758.500610	190.400000
758.537842	191.900000
758.575012	193.400000
758.612244	188.600000
758.649475	198.400000
758.686646	187.900000
758.723877	194.100000
758.761108	197.500000
758.798279	189.500000
758.835510	193.500000
758.872742	195.800000
758.909851	193.000000
758.947083	192.400000
758.984253	193.700000
759.021484	193.800000
759.058716	194.000000
759.095886	196.200000
759.133057	193.600000
759.170288	192.800000
759.207458	192.300000
759.244690	198.800000
759.281860	199.300000
759.319031	193.400000
759.356262	192.300000
759.393433	190.500000
759.430603	194.000000
759.467773	192.200000
759.505005	197.600000
759.542175	197.400000
759.579346	192.800000
759.616516	193.400000
759.653687	196.800000
759.690918	193.300000
759.728027	194.200000
759.765259	195.600000
759.802429	197.100000
759.839539	195.800000
759.876770	198.700000
759.913940	202.900000
759.951111	197.000000
759.988281	195.800000
760.025452	193.100000
760.062561	193.100000
760.099792	203.000000
760.136963	198.800000
760.174072	194.500000
760.211243	194.700000
760.248413	191.100000
760.285583	194.100000
760.322754	203.300000
760.359863	202.100000
760.397034	201.000000
760.434204	196.900000
760.471375	196.300000
760.508545	196.600000
760.545715	196.400000
760.582825	196.100000
760.619995	199.700000
760.657166	196.000000
760.694275	202.400000
760.731445	198.700000
760.768555	198.100000
760.805664	202.300000
760.842834	199.500000
760.879944	201.000000
760.917114	197.400000
760.954285	197.900000
760.991394	194.700000
761.028564	203.500000
761.065674	199.600000
761.102783	198.200000
761.139954	201.500000
761.177124	202.800000
761.214172	202.500000
761.251343	200.300000
761.288452	198.700000
761.325562	203.200000
761.362732	199.000000
761.399841	200.100000
761.436951	201.700000
761.474121	198.400000
761.511169	201.300000
761.548340	204.500000
761.585449	203.400000
761.622559	203.400000
761.659668	203.000000
761.696838	205.300000
761.733887	205.100000
761.771057	201.300000
761.808167	203.800000
761.845276	205.400000
761.882385	212.200000
761.919434	203.700000
761.956604	216.000000
761.993713	201.600000
762.030762	208.600000
762.067871	203.800000
762.105042	203.700000
762.142090	209.800000
762.179199	205.700000
762.216309	209.600000
762.253418	214.900000
762.290527	213.200000
762.327637	211.000000
762.364685	202.300000
762.401794	210.400000
762.438904	206.300000
762.475952	205.700000
762.513062	202.800000
762.550110	206.000000
762.587219	213.100000
762.624329	215.600000
762.661377	208.600000
762.698486	209.900000
762.735596	208.800000
762.772644	207.200000
762.809753	202.800000
762.846863	207.900000
762.883911	211.600000
762.921021	212.000000
762.958069	209.700000
762.995117	216.500000
763.032227	214.000000
763.069336	209.500000
763.106323	205.900000
763.143433	205.500000
763.180481	210.900000
763.217590	212.000000
763.254639	210.000000
763.291687	210.800000
763.328735	216.300000
763.365845	211.400000
763.402893	211.000000
763.439941	213.800000
763.477051	215.600000
763.514038	213.700000
763.551147	212.300000
763.588196	213.300000
763.625244	214.000000
763.662292	219.400000
763.699402	222.700000
763.736389	217.500000
763.773499	224.900000
763.810486	219.100000
763.847534	217.900000
763.884644	218.300000
763.921631	218.100000
763.958679	222.600000
763.995728	217.800000
764.032776	220.900000
764.069824	216.900000
764.106873	222.700000
764.143860	227.600000
764.180969	217.800000
764.218018	228.000000
764.255005	217.800000
764.292053	221.800000
764.329102	227.900000
764.366089	229.600000
764.403137	224.100000
764.440125	222.800000
764.477173	222.700000
764.514221	228.000000
764.551208	222.500000
764.588257	222.500000
764.625305	227.000000
764.662292	233.500000
764.699341	232.400000
764.736389	228.600000
764.773376	238.400000
764.810425	230.600000
764.847473	234.800000
764.884399	232.700000
764.921448	238.200000
764.958435	236.400000
764.995483	230.300000
765.032532	240.500000
765.069458	231.700000
765.106506	232.000000
765.143555	232.200000
765.180481	234.200000
765.217529	242.800000
765.254578	231.400000
765.291504	237.100000
765.328552	234.500000
765.365540	234.300000
765.402527	243.000000
765.439575	233.900000
765.476501	232.900000
765.513550	233.400000
765.550537	236.300000
765.587463	242.200000
765.624512	234.700000
765.661499	232.000000
765.698486	241.100000
765.735474	236.200000
765.772461	237.200000
765.809448	245.800000
765.846436	241.700000
765.883423	245.900000
765.920410	241.200000
765.957397	238.200000
765.994385	241.800000
766.031311	247.700000
766.068359	241.900000
766.105286	245.200000
766.142273	248.800000
766.179260	245.500000
766.216187	242.400000
766.253174	240.200000
766.290161	244.300000
766.327148	249.100000
766.364136	247.500000
766.401123	257.600000
766.438049	244.000000
766.475037	253.500000
766.512024	249.600000
766.548950	261.800000
766.585937	257.400000
766.622864	251.600000
766.659790	252.400000
766.696777	245.900000
766.733704	257.300000
766.770691	253.200000
766.807678	260.700000
766.844604	254.100000
766.881531	257.000000
766.918518	258.800000
766.955444	260.000000
766.992432	255.400000
767.029358	258.000000
767.066284	260.300000
767.103271	259.400000
767.140198	289.800000
767.177124	269.600000
767.214050	260.900000
767.251038	264.200000
767.287964	260.500000
767.324890	261.200000
767.361816	263.000000
767.398743	265.400000
767.435730	259.400000
767.472595	266.200000
767.509583	267.000000
767.546509	261.700000
767.583374	264.200000
767.620361	259.200000
767.657288	261.900000
767.694214	263.800000
767.731140	262.100000
767.768066	267.000000
767.804993	264.500000
767.841919	263.600000
767.878845	266.900000
767.915710	272.000000
767.952698	265.500000
767.989563	269.600000
768.026489	268.800000
768.063416	263.600000
768.100281	264.400000
768.137207	273.900000
768.174133	269.100000
768.211060	272.100000
768.247986	270.100000
768.284912	268.100000
768.321777	271.000000
768.358704	269.200000
768.395630	269.600000
768.432495	267.700000
768.469421	272.200000
768.506348	274.600000
768.543152	281.800000
768.580078	278.200000
768.616943	276.500000
768.653870	277.000000
768.690796	277.100000
768.727661	276.200000
768.764587	280.400000
768.801453	275.200000
768.838318	282.500000
768.875244	281.600000
768.912109	287.700000
768.948975	280.100000
768.985901	283.400000
769.022766	281.200000
769.059631	285.400000
769.096558	282.200000
769.133362	283.900000
769.170288	284.600000
769.207214	286.800000
769.244019	287.500000
769.280945	287.900000
769.317810	292.300000
769.354675	291.100000
769.391541	296.000000
769.428406	295.200000
769.465271	300.600000
769.502136	294.300000
769.539062	295.700000
769.575867	295.000000
769.612732	297.200000
769.649597	303.300000
769.686462	304.000000
769.723328	297.700000
769.760193	298.900000
769.797058	299.500000
769.833923	305.700000
769.870728	305.000000
769.907593	305.500000
769.944519	303.900000
769.981323	309.200000
770.018188	309.600000
770.055054	305.500000
770.091858	307.200000
770.128723	315.400000
770.165588	320.100000
770.202393	309.300000
770.239258	320.200000
770.276062	316.100000
770.312927	318.600000
770.349792	323.300000
770.386597	318.300000
770.423462	327.400000
770.460327	332.500000
770.497131	323.000000
770.533997	318.600000
770.570862	328.200000
770.607605	328.000000
770.644470	327.900000
770.681335	327.200000
770.718140	328.300000
770.754944	324.300000
770.791809	328.000000
770.828613	326.700000
770.865479	330.500000
770.902222	335.300000
770.939087	331.900000
770.975952	325.900000
771.012695	330.000000
771.049561	340.300000
771.086365	332.500000
771.123169	330.300000
771.159973	333.800000
771.196838	335.300000
771.233582	338.500000
771.270447	337.400000
771.307251	343.400000
771.344055	336.100000
771.380859	343.100000
771.417664	338.500000
771.454468	347.800000
771.491272	341.600000
771.528076	345.500000
771.564880	342.300000
771.601685	350.800000
771.638428	343.800000
771.675293	349.800000
771.712097	339.800000
771.748840	356.600000
771.785645	351.200000
771.822449	351.900000
771.859253	355.000000
771.896057	353.300000
771.932861	360.400000
771.969604	352.000000
772.006409	349.200000
772.043213	358.000000
772.079956	355.300000
772.116760	351.700000
772.153503	356.100000
772.190308	364.600000
772.227112	357.900000
772.263855	356.100000
772.300659	360.900000
772.337463	363.300000
772.374207	357.500000
772.411011	355.100000
772.447754	360.600000
772.484497	371.300000
772.521301	366.200000
772.558105	365.400000
772.594849	368.300000
772.631592	369.700000
772.668396	367.800000
772.705139	372.900000
772.741882	372.800000
772.778625	376.300000
772.815430	378.300000
772.852173	374.900000
772.888916	379.100000
772.925720	381.100000
772.962463	386.600000
772.999207	380.800000
773.035950	385.000000
773.072754	380.600000
773.109436	380.000000
773.146240	381.600000
773.182922	383.200000
773.219727	386.500000
773.256470	383.500000
773.293152	376.600000
773.329956	381.500000
773.366699	382.700000
773.403381	379.800000
773.440186	385.800000
773.476929	386.500000
773.513611	381.600000
773.550354	383.000000
773.587158	383.300000
773.623840	382.800000
773.660583	388.900000
773.697327	394.000000
773.734009	389.300000
773.770813	389.800000
773.807495	387.700000
773.844238	390.500000
773.880981	403.800000
773.917664	395.200000
773.954407	399.300000
773.991150	394.200000
774.027832	400.500000
774.064575	394.400000
774.101318	402.000000
774.138000	401.600000
774.174744	404.500000
774.211487	401.100000
774.248108	397.700000
774.284851	395.600000
774.321594	404.600000
774.358276	401.800000
774.395020	409.100000
774.431702	403.900000
774.468384	401.500000
774.505127	398.100000
774.541809	410.000000
774.578491	410.500000
774.615234	415.300000
774.651917	406.200000
774.688599	410.500000
774.725342	416.400000
774.762024	420.600000
774.798706	423.500000
774.835449	421.500000
774.872070	422.100000
774.908813	420.200000
774.945496	421.000000
774.982178	422.000000
775.018860	423.700000
775.055542	429.000000
775.092224	425.900000
775.128967	434.000000
775.165588	431.800000
775.202271	431.300000
775.239014	437.000000
775.275635	436.000000
775.312317	436.200000
775.349060	435.100000
775.385681	439.600000
775.422363	433.600000
775.459045	441.700000
775.495667	444.500000
775.532410	447.600000
775.569092	444.700000
775.605713	446.600000
775.642395	446.900000
775.679016	448.000000
775.715698	451.800000
775.752380	455.300000
775.789001	450.100000
775.825684	451.500000
775.862366	454.700000
775.898987	464.200000
775.935669	456.700000
775.972351	474.700000
776.008972	468.800000
776.045654	471.800000
776.082336	467.100000
776.118958	470.100000
776.155640	471.300000
776.192322	479.000000
776.228882	478.900000
776.265564	480.600000
776.302185	477.000000
776.338867	483.300000
776.375488	477.900000
776.412109	484.300000
776.448792	487.600000
776.485413	494.800000
776.522034	484.200000
776.558716	482.100000
776.595337	482.500000
776.631958	490.500000
776.668579	489.400000
776.705261	496.500000
776.741882	490.700000
776.778503	494.000000
776.815186	492.100000
776.851746	498.700000
776.888367	501.400000
776.924988	508.000000
776.961609	503.500000
776.998291	503.200000
777.034851	498.800000
777.071472	511.100000
777.108154	506.500000
777.144714	516.700000
777.181335	516.500000
777.218018	508.900000
777.254578	516.400000
777.291199	512.300000
777.327759	520.400000
777.364380	526.900000
777.401062	530.900000
777.437622	537.400000
777.474243	527.000000
777.510864	527.900000
777.547424	527.000000
777.584045	528.400000
777.620667	531.500000
777.657227	530.000000
777.693848	531.100000
777.730469	541.000000
777.767029	537.000000
777.803650	541.600000
777.840271	535.300000
777.876831	532.900000
777.913452	543.100000
777.950012	530.200000
777.986633	532.200000
778.023193	537.000000
778.059753	534.800000
778.096375	537.400000
778.132996	545.100000
778.169556	533.500000
778.206116	541.200000
778.242737	536.300000
778.279297	545.700000
778.315857	538.100000
778.352478	547.200000
778.389038	552.600000
778.425598	549.300000
778.462219	554.600000
778.498718	552.400000
778.535339	554.000000
778.571838	555.800000
778.608459	557.700000
778.645020	551.700000
778.681580	560.000000
778.718140	560.000000
778.754761	553.500000
778.791260	562.500000
778.827881	568.900000
778.864441	563.500000
778.900940	570.700000
778.937561	571.600000
778.974121	567.500000
779.010620	564.100000
779.047241	566.100000
779.083801	570.400000
779.120300	570.200000
779.156860	577.400000
779.193359	570.000000
779.229980	572.300000
779.266541	580.800000
779.303040	576.300000
779.339600	571.500000
779.376160	566.600000
779.412659	575.000000
779.449219	566.300000
779.485779	575.900000
779.522278	572.300000
779.558838	575.600000
779.595398	575.500000
779.631897	577.600000
779.668457	568.800000
779.705017	577.300000
779.741516	572.500000
779.778076	573.700000
779.814575	573.900000
779.851074	575.900000
779.887634	570.600000
779.924133	583.100000
779.960693	572.800000
779.997253	586.600000
780.033691	588.100000
780.070251	587.900000
780.106812	592.500000
780.143250	593.900000
780.179810	591.700000
780.216370	594.300000
780.252808	596.900000
780.289368	600.500000
780.325867	598.100000
780.362366	596.900000
780.398865	603.800000
780.435364	601.400000
780.471863	612.800000
780.508423	605.100000
780.544861	605.500000
780.581421	607.100000
780.617920	598.900000
780.654419	601.100000
780.690918	609.000000
780.727417	610.600000
780.763916	613.600000
780.800415	614.700000
780.836914	605.000000
780.873352	617.000000
780.909912	611.800000
780.946411	614.100000
780.982849	620.900000
781.019348	631.100000
781.055786	626.700000
781.092346	625.600000
781.128845	636.500000
781.165283	641.200000
781.201782	649.600000
781.238281	649.400000
781.274719	649.600000
781.311218	643.900000
781.347717	653.000000
781.384155	645.900000
781.420654	653.000000
781.457092	654.100000
781.493591	650.800000
781.530090	643.300000
781.566528	651.200000
781.602966	653.900000
781.639465	653.400000
781.675903	650.900000
781.712402	654.700000
781.748901	658.200000
781.785278	654.700000
781.821777	653.500000
781.858276	658.600000
781.894714	676.100000
781.931152	670.500000
781.967651	672.100000
782.004089	666.500000
782.040527	673.200000
782.076965	680.600000
782.113403	680.400000
782.149902	686.200000
782.186340	683.000000
782.222778	689.500000
782.259277	684.100000
782.295654	684.900000
782.332092	692.800000
782.368591	690.800000
782.404968	691.600000
782.441467	693.200000
782.477905	691.500000
782.514282	689.600000
782.550781	707.700000
782.587219	704.500000
782.623596	712.800000
782.660095	714.300000
782.696472	723.300000
782.732910	720.800000
782.769348	727.500000
782.805786	735.400000
782.842224	733.200000
782.878662	734.400000
782.915039	730.400000
782.951477	730.800000
782.987915	729.400000
783.024292	731.300000
783.060730	734.000000
783.097168	726.700000
783.133545	719.600000
783.169983	712.400000
783.206421	706.100000
783.242798	707.400000
783.279236	709.200000
783.315613	699.600000
783.352051	695.000000
783.388489	691.600000
783.424866	682.700000
783.461304	685.000000
783.497681	693.500000
783.534058	680.600000
783.570496	646.700000
783.606934	574.600000
783.643250	476.900000
783.679687	385.000000
783.716125	304.100000
783.752441	280.700000
783.788879	304.000000
783.825317	327.400000
783.861633	328.100000
783.898071	311.300000
783.934448	301.800000
783.970825	330.500000
784.007263	411.000000
784.043579	527.200000
784.080017	641.900000
784.116394	714.700000
784.152710	746.000000
784.189148	765.400000
784.225525	762.200000
784.261902	756.100000
784.298279	754.400000
784.334656	756.600000
784.371033	744.800000
784.407410	746.500000
784.443787	735.900000
784.480164	734.300000
784.516541	719.100000
784.552856	728.500000
784.589233	726.200000
784.625610	727.400000
784.661987	746.800000
784.698364	747.500000
784.734741	734.800000
784.771057	737.900000
784.807434	753.100000
784.843811	764.300000
784.880127	761.000000
784.916504	781.900000
784.952881	782.800000
784.989197	779.100000
785.025574	784.200000
785.061951	792.200000
785.098267	807.900000
785.134644	803.400000
785.170959	790.700000
785.207275	789.300000
785.243652	786.100000
785.279968	776.900000
785.316345	779.700000
785.352722	776.000000
785.388977	767.400000
785.425354	748.200000
785.461731	731.800000
785.498047	736.000000
785.534363	735.700000
785.570679	742.900000
785.606995	742.200000
785.643372	743.900000
785.679687	739.300000
785.716003	728.100000
785.752380	732.800000
785.788635	740.900000
785.825012	752.600000
785.861328	760.800000
785.897644	756.900000
785.933960	767.900000
785.970337	773.900000
786.006592	790.200000
786.042908	804.900000
786.079285	807.100000
786.115540	810.900000
786.151855	809.500000
786.188171	807.400000
786.224487	808.900000
786.260803	805.300000
786.297119	804.500000
786.333435	810.100000
786.369751	793.900000
786.406006	793.700000
786.442322	784.700000
786.478638	774.600000
786.514954	780.200000
786.551270	778.100000
786.587585	775.900000
786.623840	766.500000
786.660156	755.200000
786.696472	752.800000
786.732727	753.100000
786.769043	756.600000
786.805298	748.500000
786.841614	757.500000
786.877930	763.300000
786.914124	759.300000
786.950439	780.200000
786.986755	796.700000
787.023010	804.800000
787.059326	808.500000
787.095642	807.300000
787.131836	823.500000
787.168152	823.700000
787.204468	840.200000
787.240723	845.700000
787.276978	846.000000
787.313293	851.100000
787.349548	844.300000
787.385803	847.800000
787.422058	840.300000
787.458313	839.400000
787.494629	835.600000
787.530823	831.500000
787.567139	815.600000
787.603455	810.500000
787.639648	802.200000
787.675903	805.200000
787.712219	806.400000
787.748413	803.800000
787.784729	800.600000
787.820984	794.400000
787.857178	789.500000
787.893494	792.000000
787.929749	797.900000
787.965942	808.100000
788.002258	819.800000
788.038452	827.100000
788.074707	829.200000
788.110962	835.000000
788.147217	831.600000
788.183472	850.400000
788.219727	854.300000
788.255920	864.400000
788.292175	869.700000
788.328430	861.400000
788.364624	851.000000
788.400879	856.300000
788.437134	862.900000
788.473328	860.000000
788.509583	855.500000
788.545837	850.600000
788.582031	853.200000
788.618286	851.800000
788.654480	854.000000
788.690735	868.700000
788.726990	880.700000
788.763184	876.600000
788.799377	880.400000
788.835632	867.400000
788.871826	882.300000
788.908081	881.000000
788.944336	881.800000
788.980469	893.100000
789.016724	893.700000
789.052979	887.100000
789.089111	876.000000
789.125366	876.200000
789.161621	866.800000
789.197754	884.200000
789.234009	878.200000
789.270142	869.300000
789.306396	867.900000
789.342590	858.500000
789.378784	845.300000
789.414978	847.700000
789.451233	856.100000
789.487366	854.500000
789.523621	864.300000
789.559814	858.300000
789.595947	858.800000
789.632202	866.600000
789.668335	875.000000
789.704529	885.800000
789.740784	901.700000
789.776917	905.700000
789.813110	903.000000
789.849304	909.900000
789.885498	912.900000
789.921692	923.400000
789.957886	937.300000
789.994019	932.400000
790.030212	933.000000
790.066406	936.600000
790.102539	937.300000
790.138733	943.800000
790.174927	947.400000
790.211060	956.300000
790.247253	949.000000
790.283386	934.700000
790.319580	918.300000
790.355774	912.400000
790.391907	912.100000
790.428101	923.800000
790.464294	928.100000
790.500427	922.600000
790.536621	902.100000
790.572754	887.400000
790.608887	889.000000
790.645081	899.500000
790.681274	913.900000
790.717346	905.700000
790.753540	893.700000
790.789734	877.600000
790.825867	869.500000
790.862000	879.600000
790.898132	889.000000
790.934265	885.100000
790.970459	883.500000
791.006592	880.800000
791.042725	880.300000
791.078918	873.700000
791.114990	880.600000
791.151184	895.200000
791.187317	903.200000
791.223389	897.200000
791.259583	886.400000
791.295715	890.400000
791.331848	890.000000
791.367981	900.700000
791.404114	901.500000
791.440247	896.400000
791.476379	894.000000
791.512451	881.700000
791.548584	874.600000
791.584778	877.900000
791.620850	891.800000
791.656982	896.000000
791.693115	890.900000
791.729187	890.300000
791.765381	881.200000
791.801514	882.000000
791.837585	885.800000
791.873718	902.800000
791.909851	906.800000
791.945923	916.600000
791.982056	889.000000
792.018188	884.500000
792.054260	879.000000
792.090393	886.400000
792.126465	885.800000
792.162598	887.300000
792.198669	870.700000
792.234741	871.300000
792.270874	854.800000
792.307007	850.100000
792.343079	861.500000
792.379150	871.700000
792.415283	861.300000
792.451355	859.000000
792.487488	831.600000
792.523560	826.500000
792.559631	804.200000
792.595764	759.400000
792.631836	735.200000
792.667908	728.800000
792.703979	728.700000
792.740051	758.000000
792.776184	791.600000
792.812256	799.700000
792.848328	811.000000
792.884399	819.500000
792.920471	813.000000
792.956543	811.000000
792.992615	812.200000
793.028748	811.800000
793.064758	823.400000
793.100830	842.400000
793.136963	852.900000
793.172974	847.700000
793.209045	845.800000
793.245178	846.600000
793.281189	835.500000
793.317261	844.800000
793.353271	842.600000
793.389404	851.700000
793.425476	844.900000
793.461487	822.400000
793.497559	825.400000
793.533630	826.200000
793.569641	830.700000
793.605713	836.800000
793.641785	835.600000
793.677795	841.900000
793.713867	836.000000
793.749878	841.400000
793.785950	854.500000
793.822021	865.600000
793.858032	856.200000
793.894104	862.400000
793.930176	856.700000
793.966187	856.200000
794.002258	850.300000
794.038269	860.100000
794.074280	858.100000
794.110352	879.700000
794.146423	856.400000
794.182373	855.100000
794.218445	851.300000
794.254517	849.500000
794.290466	836.800000
794.326538	841.700000
794.362549	841.000000
794.398560	844.300000
794.434631	837.600000
794.470581	822.100000
794.506653	820.000000
794.542664	824.800000
794.578674	828.100000
794.614685	829.200000
794.650757	833.300000
794.686707	831.900000
794.722778	820.700000
794.758789	833.900000
794.794739	845.800000
794.830811	871.500000
794.866821	886.900000
794.902771	880.500000
794.938843	874.500000
794.974792	869.700000
795.010803	872.000000
795.046814	877.700000
795.082825	866.500000
795.118835	874.900000
795.154846	857.500000
795.190796	857.600000
795.226807	844.300000
795.262817	848.100000
795.298767	849.400000
795.334778	861.600000
795.370850	852.600000
795.406799	846.600000
795.442810	831.000000
795.478821	832.600000
795.514709	836.500000
795.550720	860.300000
795.586670	838.100000
795.622681	848.400000
795.658691	844.700000
795.694641	843.200000
795.730652	839.600000
795.766663	850.600000
795.802551	852.600000
795.838562	865.500000
795.874573	854.700000
795.910522	848.200000
795.946472	841.000000
795.982483	850.200000
796.018433	855.800000
796.054382	855.900000
796.090393	847.700000
796.126282	844.200000
796.162292	826.100000
796.198242	824.100000
796.234192	832.400000
796.270203	826.700000
796.306091	833.000000
796.342041	844.500000
796.378052	834.800000
796.413940	832.300000
796.449951	833.800000
796.485901	836.800000
796.521790	849.000000
796.557800	860.300000
796.593689	856.600000
796.629639	845.700000
796.665649	843.700000
796.701599	838.500000
796.737488	843.900000
796.773437	854.800000
796.809387	851.100000
796.845337	848.200000
796.881287	836.000000
796.917175	825.600000
796.953125	831.700000
796.989075	841.300000
797.024963	843.000000
797.060913	832.900000
797.096863	831.600000
797.132751	819.600000
797.168701	818.100000
797.204590	821.600000
797.240540	822.100000
797.276489	829.100000
797.312439	827.300000
797.348328	818.200000
797.384277	812.300000
797.420166	807.000000
797.456055	810.300000
797.492004	811.100000
797.527893	819.700000
797.563843	820.300000
797.599731	813.900000
797.635620	803.700000
797.671570	813.600000
797.707520	811.300000
797.743347	817.200000
797.779297	824.000000
797.815125	820.500000
797.851074	806.700000
797.887024	793.300000
797.922913	788.100000
797.958801	798.700000
797.994690	796.400000
798.030579	802.500000
798.066467	804.000000
798.102356	789.500000
798.138245	793.700000
798.174133	786.100000
798.210083	792.600000
798.245911	800.200000
798.281799	804.100000
798.317749	798.200000
798.353577	789.600000
798.389465	782.100000
798.425293	781.300000
798.461243	781.900000
798.497131	791.000000
798.532959	794.500000
798.568848	797.500000
798.604736	786.800000
798.640564	772.200000
798.676453	774.000000
798.712402	782.200000
798.748230	786.300000
798.784119	786.800000
798.820007	785.900000
798.855835	775.200000
798.891724	767.300000
798.927551	770.200000
798.963379	772.100000
798.999268	774.300000
799.035095	758.300000
799.070984	750.600000
799.106873	745.300000
799.142700	750.600000
799.178528	747.100000
799.214417	756.900000
799.250244	765.500000
799.286133	755.500000
799.321960	755.900000
799.357788	746.400000
799.393677	745.100000
799.429504	751.400000
799.465332	752.500000
799.501221	751.700000
799.537048	754.100000
799.572876	748.100000
799.608704	752.800000
799.644531	760.600000
799.680359	766.600000
799.716248	770.900000
799.752014	775.500000
799.787903	765.000000
799.823730	758.000000
799.859558	750.900000
799.895386	754.000000
799.931213	752.800000
799.967041	754.300000
800.002869	745.700000
800.038696	755.700000
800.074463	740.000000
800.110352	747.900000
800.146179	737.700000
800.181946	749.600000
800.217773	755.000000
800.253540	746.400000
800.289429	740.900000
800.325256	736.900000
800.361023	741.900000
800.396851	745.500000
800.432678	743.200000
800.468445	747.900000
800.504272	742.800000
800.540100	727.900000
800.575867	729.500000
800.611694	734.300000
800.647461	731.300000
800.683289	731.100000
800.719116	735.100000
800.754883	728.400000
800.790649	717.200000
800.826477	715.600000
800.862244	732.400000
800.898071	721.700000
800.933838	721.700000
800.969604	721.300000
801.005432	712.600000
801.041199	713.900000
801.076965	708.500000
801.112793	704.900000
801.148560	702.400000
801.184326	704.100000
801.220154	704.400000
801.255859	697.000000
801.291687	695.700000
801.327454	688.300000
801.363281	697.200000
801.398987	690.700000
801.434814	686.400000
801.470520	692.200000
801.506287	688.000000
801.542114	675.200000
801.577820	677.700000
801.613647	679.800000
801.649414	685.600000
801.685120	684.400000
801.720886	687.500000
801.756714	674.300000
801.792419	672.200000
801.828186	665.600000
801.863892	677.700000
801.899719	667.600000
801.935486	667.400000
801.971252	671.700000
802.006958	670.600000
802.042725	661.800000
802.078430	667.000000
802.114197	665.800000
802.149963	676.800000
802.185669	665.600000
802.221436	661.300000
802.257202	660.100000
802.292908	654.900000
802.328674	665.600000
802.364441	673.400000
802.400146	662.500000
802.435913	663.300000
802.471558	660.500000
802.507324	654.300000
802.543091	649.100000
802.578796	659.300000
802.614502	661.800000
802.650269	666.800000
802.685974	656.800000
802.721741	658.200000
802.757446	661.200000
802.793152	659.300000
802.828918	668.800000
802.864624	662.400000
802.900330	660.400000
802.936035	655.300000
802.971802	653.100000
803.007446	648.900000
803.043213	644.100000
803.078857	656.600000
803.114624	642.800000
803.150330	642.600000
803.185974	638.300000
803.221741	636.200000
803.257446	645.500000
803.293152	646.600000
803.328857	646.200000
803.364563	638.900000
803.400208	635.500000
803.435974	639.300000
803.471680	634.500000
803.507324	633.900000
803.543030	637.200000
803.578735	642.000000
803.614441	638.200000
803.650146	643.200000
803.685791	629.800000
803.721497	630.700000
803.757202	623.100000
803.792847	627.400000
803.828552	624.600000
803.864258	620.300000
803.899902	616.800000
803.935608	605.800000
803.971313	611.000000
804.006958	608.200000
804.042664	615.500000
804.078308	616.300000
804.113953	608.700000
804.149658	608.400000
804.185364	599.900000
804.221008	610.600000
804.256714	598.700000
804.292297	598.500000
804.328003	596.300000
804.363708	592.000000
804.399292	594.300000
804.434998	590.500000
804.470703	590.600000
804.506287	602.200000
804.541992	588.600000
804.577637	592.200000
804.613281	580.500000
804.648926	581.300000
804.684570	580.000000
804.720215	576.500000
804.755920	576.300000
804.791565	578.700000
804.827209	579.300000
804.862854	575.000000
804.898437	566.800000
804.934143	574.400000
804.969788	572.500000
805.005371	575.500000
805.041077	570.800000
805.076721	570.800000
805.112305	560.800000
805.147949	563.000000
805.183655	559.500000
805.219238	567.200000
805.254883	556.400000
805.290466	564.700000
805.326111	558.100000
805.361755	552.400000
805.397400	551.800000
805.432983	556.400000
805.468628	555.100000
805.504211	559.600000
805.539856	557.000000
805.575500	559.100000
805.611084	547.800000
805.646729	546.800000
805.682373	547.200000
805.717957	555.300000
805.753601	554.400000
805.789246	544.100000
805.824768	553.300000
805.860413	550.800000
805.895996	540.500000
805.931641	546.600000
805.967224	551.600000
806.002869	543.600000
806.038452	551.300000
806.074036	554.500000
806.109619	538.700000
806.145264	539.900000
806.180847	538.600000
806.216431	535.400000
806.252014	541.300000
806.287659	537.100000
806.323181	546.900000
806.358826	538.100000
806.394409	527.900000
806.429993	524.400000
806.465576	537.900000
806.501160	526.100000
806.536743	520.800000
806.572327	526.300000
806.607910	527.200000
806.643494	522.800000
806.679077	519.600000
806.714661	518.400000
806.750244	520.800000
806.785828	513.700000
806.821350	516.000000
806.856934	515.400000
806.892517	514.300000
806.928101	510.500000
806.963684	512.300000
806.999268	513.400000
807.034790	502.800000
807.070374	505.700000
807.105896	501.100000
807.141479	495.700000
807.177063	506.300000
807.212585	500.500000
807.248169	500.700000
807.283752	499.600000
807.319275	497.100000
807.354858	501.000000
807.390381	495.700000
807.425903	494.100000
807.461487	492.800000
807.497070	486.100000
807.532593	487.000000
807.568115	484.500000
807.603699	481.400000
807.639221	481.500000
807.674744	486.400000
807.710266	486.000000
807.745850	487.800000
807.781372	484.700000
807.816895	477.000000
807.852417	480.500000
807.888000	476.800000
807.923523	477.400000
807.959045	478.900000
807.994629	472.700000
808.030090	472.700000
808.065613	474.300000
808.101135	476.400000
808.136658	474.300000
808.172241	468.500000
808.207764	474.100000
808.243225	467.800000
808.278809	463.800000
808.314270	472.100000
808.349792	464.400000
808.385315	461.000000
808.420837	468.000000
808.456360	470.800000
808.491882	468.400000
808.527344	463.500000
808.562866	470.300000
808.598389	461.700000
808.633850	461.300000
808.669434	455.300000
808.704895	462.200000
808.740417	465.500000
808.775940	460.500000
808.811462	453.200000
808.846924	454.600000
808.882385	450.500000
808.917847	454.200000
808.953369	453.900000
808.988892	450.000000
809.024353	455.400000
809.059875	456.000000
809.095398	449.900000
809.130798	447.100000
809.166321	444.800000
809.201843	444.100000
809.237305	444.400000
809.272766	449.300000
809.308228	439.000000
809.343750	436.600000
809.379211	438.500000
809.414734	440.900000
809.450134	441.800000
809.485657	430.300000
809.521118	437.800000
809.556580	434.400000
809.592102	435.800000
809.627502	431.800000
809.663025	430.900000
809.698486	425.000000
809.733887	424.800000
809.769409	426.300000
809.804871	419.200000
809.840271	423.300000
809.875793	422.200000
809.911194	424.000000
809.946655	418.300000
809.982178	417.700000
810.017639	417.700000
810.053040	417.000000
810.088501	413.500000
810.123901	413.000000
810.159424	415.200000
810.194885	408.900000
810.230286	413.400000
810.265747	404.500000
810.301208	403.600000
810.336609	405.800000
810.372070	400.800000
810.407532	401.700000
810.442932	403.600000
810.478394	404.700000
810.513794	399.500000
810.549255	395.700000
810.584717	396.000000
810.620117	390.000000
810.655518	393.000000
810.690979	393.500000
810.726379	391.100000
810.761841	383.700000
810.797302	386.200000
810.832642	381.500000
810.868103	390.400000
810.903564	382.900000
810.938904	389.000000
810.974365	381.400000
811.009827	382.000000
811.045166	375.200000
811.080627	369.600000
811.115967	373.800000
811.151428	379.800000
811.186829	376.500000
811.222229	375.900000
811.257629	370.300000
811.293091	372.400000
811.328430	380.100000
811.363892	371.200000
811.399292	377.500000
811.434631	369.500000
811.470093	376.200000
811.505493	367.600000
811.540833	367.000000
811.576294	368.900000
811.611694	367.800000
811.647034	363.000000
811.682434	365.500000
811.717773	365.800000
811.753235	369.700000
811.788635	360.400000
811.823975	364.200000
811.859375	364.400000
811.894775	357.600000
811.930115	360.700000
811.965515	359.900000
812.000916	361.000000
812.036255	358.200000
812.071655	361.700000
812.106995	354.800000
812.142395	353.700000
812.177795	361.500000
812.213196	357.500000
812.248474	357.100000
812.283875	349.700000
812.319214	353.000000
812.354614	353.300000
812.390015	349.200000
812.425293	345.700000
812.460693	349.400000
812.496094	346.000000
812.531433	341.100000
812.566772	341.500000
812.602173	344.900000
812.637451	343.200000
812.672852	338.500000
812.708191	338.800000
812.743530	336.400000
812.778931	330.900000
812.814270	331.900000
812.849609	337.600000
812.884949	335.100000
812.920227	330.200000
812.955627	338.700000
812.990967	333.100000
813.026306	327.900000
813.061646	319.300000
813.096985	317.500000
813.132324	319.100000
813.167664	322.000000
813.203003	323.400000
813.238281	313.000000
813.273682	314.900000
813.308960	312.700000
813.344299	313.300000
813.379639	317.200000
813.414978	311.400000
813.450256	310.500000
813.485596	313.400000
813.520874	306.000000
813.556213	310.500000
813.591614	311.300000
813.626831	308.200000
813.662170	309.300000
813.697510	316.200000
813.732788	304.400000
813.768127	308.900000
813.803467	307.400000
813.838745	304.600000
813.874084	305.300000
813.909363	305.400000
813.944641	304.700000
813.979980	296.700000
814.015320	301.600000
814.050598	298.800000
814.085876	299.400000
814.121155	297.100000
814.156494	296.700000
814.191772	299.300000
814.227051	295.700000
814.262390	295.800000
814.297668	295.300000
814.332947	294.200000
814.368225	291.100000
814.403564	292.400000
814.438782	290.100000
814.474121	291.800000
814.509338	289.000000
814.544617	293.300000
814.579956	288.100000
814.615173	296.100000
814.650513	291.600000
814.685791	286.300000
814.721008	288.400000
814.756348	287.000000
814.791626	285.300000
814.826843	284.400000
814.862122	286.700000
814.897400	282.100000
814.932678	284.700000
814.967957	282.600000
815.003235	284.100000
815.038452	279.000000
815.073730	279.200000
815.108948	283.300000
815.144226	283.000000
815.179504	284.200000
815.214722	277.000000
815.250000	273.400000
815.285278	278.500000
815.320496	274.000000
815.355774	276.500000
815.391052	277.100000
815.426270	277.500000
815.461487	272.600000
815.496765	269.300000
815.531982	265.000000
815.567261	272.800000
815.602539	275.100000
815.637695	272.300000
815.672974	270.900000
815.708191	274.600000
815.743408	275.300000
815.778687	267.600000
815.813904	272.800000
815.849121	262.100000
815.884399	263.600000
815.919556	263.200000
815.954834	263.600000
815.990051	265.900000
816.025269	267.400000
816.060486	260.600000
816.095703	261.100000
816.130920	262.300000
816.166199	259.000000
816.201416	259.400000
816.236572	262.200000
816.271851	258.300000
816.307007	263.600000
816.342224	253.800000
816.377441	255.600000
816.412659	249.700000
816.447876	257.900000
816.483093	251.500000
816.518250	254.000000
816.553467	251.100000
816.588745	255.000000
816.623901	247.400000
816.659119	243.700000
816.694275	247.900000
816.729492	245.400000
816.764709	272.700000
816.799927	243.500000
816.835083	247.200000
816.870300	242.100000
816.905457	243.500000
816.940674	244.900000
816.975830	238.900000
817.010986	241.400000
817.046204	239.400000
817.081421	236.600000
817.116577	238.200000
817.151733	243.600000
817.186951	241.200000
817.222107	240.400000
817.257324	242.200000
817.292419	239.800000
817.327637	234.600000
817.362854	237.100000
817.398010	232.100000
817.433167	238.400000
817.468323	235.500000
817.503479	235.300000
817.538635	241.200000
817.573853	235.000000
817.608948	235.500000
817.644165	230.200000
817.679321	230.300000
817.714478	228.300000
817.749634	231.600000
817.784790	239.700000
817.819946	233.900000
817.855103	223.900000
817.890198	230.300000
817.925415	222.100000
817.960571	230.600000
817.995667	229.900000
818.030823	229.500000
818.066040	225.100000
818.101135	229.500000
818.136292	226.900000
818.171448	222.700000
818.206543	224.900000
818.241699	228.500000
818.276855	225.400000
818.311951	224.400000
818.347107	221.100000
818.382263	226.400000
818.417358	228.800000
818.452515	229.400000
818.487610	227.900000
818.522766	221.300000
818.557922	225.900000
818.593018	225.300000
818.628113	221.900000
818.663269	220.900000
818.698364	220.300000
818.733521	219.800000
818.768677	219.500000
818.803711	220.200000
818.838867	216.400000
818.874023	218.600000
818.909058	215.400000
818.944214	214.300000
818.979370	218.600000
819.014404	217.900000
819.049561	211.900000
819.084595	218.200000
819.119751	210.400000
819.154846	216.700000
819.189941	211.300000
819.225037	211.700000
819.260193	208.200000
819.295227	207.500000
819.330322	206.000000
819.365479	206.700000
819.400513	239.500000
819.435608	203.900000
819.470764	203.800000
819.505798	203.900000
819.540894	206.800000
819.575989	204.600000
819.611084	210.200000
819.646179	210.900000
819.681213	208.200000
819.716309	203.700000
819.751404	204.900000
819.786438	208.100000
819.821533	203.700000
819.856628	204.100000
819.891663	207.400000
819.926758	211.500000
819.961853	209.900000
819.996887	201.800000
820.031982	205.300000
820.067017	202.300000
820.102112	237.500000
820.137207	198.900000
820.172302	211.600000
820.207275	200.100000
820.242371	200.700000
820.277405	199.800000
820.312500	201.400000
820.347534	200.900000
820.382568	205.800000
820.417664	198.900000
820.452759	200.100000
820.487732	196.800000
820.522827	198.800000
820.557861	194.800000
820.592896	198.800000
820.627930	198.000000
820.662964	195.400000
820.698059	200.700000
820.733093	196.600000
820.768127	198.800000
820.803162	196.000000
820.838196	193.800000
820.873230	195.600000
820.908264	197.600000
820.943298	194.200000
820.978333	198.700000
821.013367	196.300000
821.048401	199.900000
821.083435	199.800000
821.118469	190.200000
821.153503	197.500000
821.188477	197.300000
821.223511	191.000000
821.258484	196.400000
821.293579	194.000000
821.328613	191.300000
821.363647	193.700000
821.398621	190.500000
821.433655	192.700000
821.468628	204.000000
821.503662	192.500000
821.538696	196.100000
821.573669	191.000000
821.608704	195.900000
821.643677	192.100000
821.678650	196.500000
821.713684	198.000000
821.748718	194.700000
821.783691	191.700000
821.818726	193.800000
821.853638	193.300000
821.888672	192.600000
821.923706	191.300000
821.958618	192.500000
821.993652	190.300000
822.028687	194.700000
822.063599	197.400000
822.098633	194.100000
822.133667	188.600000
822.168579	193.500000
822.203613	192.500000
822.238586	191.000000
822.273560	194.400000
822.308533	190.800000
822.343567	189.600000
822.378479	191.900000
822.413452	189.400000
822.448425	188.900000
822.483398	195.000000
822.518372	194.200000
822.553345	189.300000
822.588318	197.700000
822.623291	190.500000
822.658203	187.300000
822.693237	191.000000
822.728210	188.100000
822.763123	190.000000
822.798096	187.600000
822.833069	190.100000
822.867981	190.400000
822.902954	193.500000
822.937927	191.500000
822.972900	196.700000
823.007874	184.600000
823.042725	194.500000
823.077698	197.200000
823.112671	186.100000
823.147583	188.100000
823.182556	191.800000
823.217529	192.200000
823.252441	190.200000
823.287415	195.900000
823.322388	193.300000
823.357239	189.300000
823.392212	195.600000
823.427185	194.200000
823.462097	187.500000
823.497009	191.300000
823.531982	189.500000
823.566895	189.400000
823.601807	187.000000
823.636719	187.500000
823.671631	192.300000
823.706604	187.000000
823.741455	192.200000
823.776428	185.100000
823.811340	192.000000
823.846252	193.700000
823.881165	194.400000
823.916138	188.400000
823.950989	194.200000
823.985901	187.500000
824.020813	190.400000
824.055725	188.000000
824.090637	185.600000
824.125610	190.000000
824.160461	190.500000
824.195374	190.500000
824.230225	191.800000
824.265198	184.200000
824.300110	187.300000
824.334961	195.000000
824.369873	182.700000
824.404785	189.100000
824.439636	191.200000
824.474548	183.500000
824.509460	181.100000
824.544312	191.900000
824.579224	189.800000
824.614075	191.200000
824.648987	185.200000
824.683899	187.400000
824.718811	185.900000
824.753662	192.700000
824.788574	190.600000
824.823364	190.100000
824.858276	184.500000
824.893188	191.200000
824.928040	189.700000
824.962952	189.600000
824.997803	189.100000
825.032654	187.800000
825.067566	187.800000
825.102417	187.200000
825.137268	185.300000
825.172119	187.300000
825.206970	183.000000
825.241882	187.100000
825.276733	183.200000
825.311646	186.200000
825.346436	182.500000
825.381348	182.900000
825.416138	185.400000
825.450989	183.500000
825.485901	178.200000
825.520691	180.600000
825.555542	180.500000
825.590454	184.600000
825.625244	179.200000
825.660095	188.700000
825.695007	185.800000
825.729797	183.900000
825.764648	181.400000
825.799438	184.100000
825.834290	184.400000
825.869202	179.600000
825.903992	184.100000
825.938843	181.600000
825.973694	179.500000
826.008484	189.900000
826.043335	181.200000
826.078186	177.300000
826.112976	186.600000
826.147827	186.200000
826.182678	189.800000
826.217468	176.600000
826.252319	186.700000
826.287109	178.600000
826.321899	186.900000
826.356750	181.200000
826.391541	181.000000
826.426392	184.800000
826.461182	183.600000
826.495972	179.100000
826.530823	177.000000
826.565613	182.300000
826.600403	178.500000
826.635254	183.400000
826.670044	177.100000
826.704834	175.800000
826.739685	179.800000
826.774475	182.800000
826.809265	182.700000
826.844055	178.600000
826.878906	187.000000
826.913635	182.600000
826.948425	184.400000
826.983215	182.700000
827.018005	184.000000
827.052856	179.000000
827.087585	185.000000
827.122375	175.700000
827.157227	182.500000
827.191956	191.300000
827.226746	178.800000
827.261536	183.300000
827.296265	177.800000
827.331116	180.000000
827.365906	183.300000
827.400635	180.100000
827.435425	176.200000
827.470215	184.100000
827.504944	180.600000
827.539734	186.500000
827.574463	180.400000
827.609253	187.500000
827.644043	182.000000
827.678772	184.800000
827.713562	179.500000
827.748352	181.400000
827.783081	177.000000
827.817871	184.300000
827.852600	177.200000
827.887329	182.000000
827.922119	175.600000
827.956848	185.000000
827.991638	189.800000
828.026367	183.300000
828.061157	182.200000
828.095886	180.900000
828.130615	192.900000
828.165344	176.300000
828.200073	180.000000
828.234863	182.300000
828.269592	180.700000
828.304321	185.600000
828.339111	182.000000
828.373779	180.200000
828.408569	183.100000
828.443298	185.000000
828.477966	180.000000
828.512756	181.800000
828.547424	178.700000
828.582214	180.000000
828.616943	178.300000
828.651672	183.000000
828.686340	183.300000
828.721130	179.400000
828.755798	181.500000
828.790527	182.000000
828.825256	182.200000
828.859924	183.100000
828.894714	185.600000
828.929443	187.700000
828.964111	179.600000
828.998840	185.900000
829.033569	179.400000
829.068237	180.700000
829.102966	179.800000
829.137634	180.800000
829.172363	181.900000
829.207092	181.500000
829.241821	178.500000
829.276489	176.600000
829.311157	182.300000
829.345825	179.700000
829.380554	185.500000
829.415283	178.100000
829.449951	177.800000
829.484619	187.600000
829.519348	185.900000
829.554016	181.200000
829.588745	182.900000
829.623413	176.900000
829.658081	189.900000
829.692749	176.400000
829.727417	186.000000
829.762146	182.000000
829.796814	181.000000
829.831482	179.600000
829.866150	182.700000
829.900879	179.400000
829.935486	183.100000
829.970154	179.200000
830.004883	190.200000
830.039490	182.200000
830.074219	178.700000
830.108887	181.600000
830.143494	181.200000
830.178223	176.500000
830.212891	182.100000
830.247498	180.800000
830.282166	186.800000
830.316772	184.600000
830.351501	180.900000
830.386169	179.900000
830.420776	180.600000
830.455444	181.000000
830.490112	178.500000
830.524719	177.000000
830.559387	183.400000
830.594055	182.600000
830.628662	181.000000
830.663330	181.800000
830.697998	186.200000
830.732605	181.500000
830.767273	181.800000
830.801941	181.800000
830.836487	186.900000
830.871155	182.500000
830.905762	182.100000
830.940430	178.300000
830.975098	177.500000
831.009644	182.200000
831.044312	187.000000
831.078979	185.100000
831.113525	174.900000
831.148193	183.100000
831.182861	180.500000
831.217407	185.200000
831.252075	191.500000
831.286621	180.600000
831.321289	177.600000
831.355896	182.300000
831.390564	185.000000
831.425110	183.300000
831.459778	185.400000
831.494324	190.700000
831.528931	182.000000
831.563599	187.000000
831.598145	177.000000
831.632751	182.600000
831.667419	178.800000
831.701965	183.900000
831.736572	182.900000
831.771179	179.100000
831.805786	178.900000
831.840393	186.800000
831.874939	175.000000
831.909546	184.600000
831.944153	175.400000
831.978760	181.500000
832.013306	178.100000
832.047913	186.800000
832.082458	186.500000
832.117065	179.600000
832.151672	187.100000
832.186218	184.500000
832.220825	182.300000
832.255432	175.400000
832.289978	179.100000
832.324585	182.900000
832.359192	183.600000
832.393677	180.400000
832.428284	181.800000
832.462830	179.900000
832.497437	180.500000
832.531982	181.500000
832.566589	179.100000
832.601135	181.000000
832.635681	177.000000
832.670227	180.000000
832.704773	186.700000
832.739380	181.300000
832.773926	182.900000
832.808472	179.500000
832.843079	182.100000
832.877563	184.400000
832.912170	180.000000
832.946716	176.200000
832.981201	185.100000
833.015808	183.100000
833.050293	181.300000
833.084839	178.100000
833.119446	180.300000
833.153992	183.000000
833.188477	180.600000
833.223022	179.400000
833.257568	183.500000
833.292114	184.800000
833.326660	191.900000
833.361145	178.700000
833.395691	176.100000
833.430237	180.600000
833.464783	184.000000
833.499329	178.200000
833.533875	179.500000
833.568359	183.100000
833.602905	187.000000
833.637390	184.200000
833.671875	180.400000
833.706421	179.800000
833.740906	180.100000
833.775452	174.100000
833.809998	179.500000
833.844482	188.000000
833.879028	179.200000
833.913513	180.100000
833.947998	183.500000
833.982544	178.100000
834.017090	178.500000
834.051514	174.800000
834.086060	183.200000
834.120544	180.900000
834.155029	182.700000
834.189575	180.700000
834.223999	183.200000
834.258545	183.700000
834.293030	181.300000
834.327515	181.000000
834.362000	179.600000
834.396545	184.000000
834.430969	180.200000
834.465454	185.700000
834.500000	175.600000
834.534424	183.400000
834.568970	175.700000
834.603455	176.600000
834.637878	177.000000
834.672363	183.200000
834.706909	181.800000
834.741333	183.000000
834.775818	175.400000
834.810242	180.700000
834.844727	180.800000
834.879211	181.300000
834.913635	181.500000
834.948181	183.800000
834.982666	181.900000
835.017090	180.900000
835.051575	182.200000
835.086060	179.200000
835.120483	182.700000
835.154907	183.900000
835.189331	180.200000
835.223816	184.600000
835.258301	177.000000
835.292786	179.700000
835.327209	183.100000
835.361694	180.000000
835.396057	180.800000
835.430542	183.600000
835.465027	180.700000
835.499390	179.100000
835.533875	208.000000
835.568359	179.200000
835.602722	176.500000
835.637207	183.200000
835.671692	177.100000
835.706055	195.200000
835.740540	182.700000
835.774902	182.800000
835.809387	181.800000
835.843811	176.900000
835.878235	185.800000
835.912659	177.900000
835.947083	179.800000
835.981506	182.100000
836.015930	177.200000
836.050354	183.700000
836.084778	188.200000
836.119202	184.200000
836.153625	193.700000
836.187988	177.600000
836.222473	179.800000
836.256897	181.500000
836.291260	181.900000
836.325684	183.200000
836.360046	180.300000
836.394470	180.200000
836.428894	188.200000
836.463318	178.400000
836.497681	185.700000
836.532104	186.000000
836.566467	182.600000
836.600891	179.700000
836.635315	186.600000
836.669678	181.200000
836.704102	185.100000
836.738525	183.400000
836.772888	176.500000
836.807251	177.900000
836.841675	184.300000
836.876038	177.000000
836.910461	178.700000
836.944763	182.700000
836.979187	179.100000
837.013611	184.300000
837.047974	178.200000
837.082336	189.400000
837.116699	184.500000
837.151062	181.700000
837.185486	177.300000
837.219849	179.300000
837.254211	183.900000
837.288574	181.100000
837.322937	177.700000
837.357300	173.900000
837.391663	189.800000
837.426086	185.400000
837.460388	182.700000
837.494751	184.300000
837.529114	179.500000
837.563477	186.900000
837.597839	181.800000
837.632141	181.700000
837.666565	178.500000
837.700928	185.100000
837.735229	181.300000
837.769592	184.600000
837.803955	184.900000
837.838257	180.300000
837.872620	178.300000
837.906982	188.000000
837.941284	181.100000
837.975647	184.400000
838.010010	187.400000
838.044312	180.800000
838.078674	179.700000
838.112976	183.400000
838.147339	183.600000
838.181702	183.400000
838.216003	186.200000
838.250366	182.800000
838.284668	183.500000
838.318970	176.800000
838.353333	180.400000
838.387634	181.800000
838.421936	180.700000
838.456299	182.400000
838.490601	185.100000
838.524902	185.800000
838.559265	184.000000
838.593567	185.600000
838.627869	178.000000
838.662170	183.000000
838.696472	176.400000
838.730774	179.800000
838.765137	183.900000
838.799377	172.800000
838.833740	182.300000
838.868042	185.500000
838.902283	176.900000
838.936646	185.800000
838.970947	181.800000
839.005188	184.900000
839.039551	176.500000
839.073792	184.800000
839.108093	180.200000
839.142395	188.700000
839.176697	176.500000
839.210937	182.700000
839.245300	189.200000
839.279541	176.400000
839.313843	180.100000
839.348145	183.900000
839.382385	185.000000
839.416687	184.600000
839.450989	183.800000
839.485229	179.900000
839.519531	180.100000
839.553833	186.300000
839.588013	181.400000
839.622314	182.300000
839.656555	183.700000
839.690857	181.000000
839.725159	178.500000
839.759460	179.600000
839.793640	179.200000
839.827942	181.000000
839.862183	179.100000
839.896423	182.100000
839.930725	192.600000
839.964966	189.100000
839.999207	186.500000
840.033508	187.800000
840.067688	180.100000
840.101990	186.500000
840.136230	183.000000
840.170471	186.500000
840.204712	179.400000
840.238953	179.000000
840.273193	182.100000
840.307434	184.400000
840.341736	180.400000
840.375916	177.200000
840.410217	178.300000
840.444397	184.000000
840.478638	183.800000
840.512878	184.800000
840.547119	182.600000
840.581360	183.900000
840.615601	187.900000
840.649780	190.800000
840.684021	180.400000
840.718262	187.300000
840.752441	187.000000
840.786682	184.200000
840.820862	182.000000
840.855103	188.900000
840.889343	182.200000
840.923584	186.900000
840.957764	181.900000
840.992004	183.000000
841.026184	192.700000
841.060425	181.600000
841.094666	178.700000
841.128845	186.000000
841.163025	183.400000
841.197266	183.800000
841.231445	181.000000
841.265686	185.400000
841.299866	178.200000
841.334045	187.400000
841.368286	180.500000
841.402405	187.700000
841.436646	182.500000
841.470825	180.700000
841.505005	180.200000
841.539185	179.200000
841.573425	179.900000
841.607544	181.800000
841.641785	179.500000
841.675964	180.700000
841.710144	183.200000
841.744324	179.400000
841.778503	181.300000
841.812683	179.600000
841.846863	186.500000
841.881042	187.100000
841.915222	180.700000
841.949402	193.200000
841.983521	175.900000
842.017700	182.500000
842.051880	180.300000
842.086060	184.800000
842.120239	183.500000
842.154419	180.000000
842.188538	182.100000
842.222717	178.700000
842.256897	188.700000
842.291016	181.600000
842.325195	183.700000
842.359375	189.900000
842.393494	187.300000
842.427673	181.900000
842.461853	183.300000
842.495911	189.000000
842.530090	184.000000
842.564209	181.000000
842.598389	184.000000
842.632568	182.100000
842.666626	185.500000
842.700806	180.300000
842.734985	180.300000
842.769043	182.700000
842.803223	181.500000
842.837402	179.700000
842.871460	180.600000
842.905640	188.900000
842.939697	178.700000
842.973877	182.800000
843.007996	188.100000
843.042175	188.800000
843.076233	180.000000
843.110413	184.100000
843.144470	189.800000
843.178589	183.700000
843.212769	182.200000
843.246826	184.400000
843.280945	181.500000
843.315125	180.500000
843.349182	180.100000
843.383301	185.300000
843.417419	192.800000
843.451538	182.600000
843.485657	180.300000
843.519714	181.400000
843.553833	183.300000
843.587952	180.300000
843.622070	179.600000
843.656128	183.500000
843.690247	180.000000
843.724304	181.100000
843.758423	183.700000
843.792542	181.400000
843.826599	182.300000
843.860718	181.100000
843.894836	175.700000
843.928894	182.500000
843.963013	182.000000
843.997070	179.200000
844.031128	177.000000
844.065247	186.300000
844.099304	185.200000
844.133362	183.600000
844.167480	184.100000
844.201599	187.400000
844.235596	183.200000
844.269714	184.100000
844.303711	182.600000
844.337830	178.100000
844.371948	183.700000
844.405945	182.100000
844.440063	178.200000
844.474121	193.200000
844.508118	181.300000
844.542236	182.900000
844.576294	180.700000
844.610352	179.400000
844.644409	181.200000
844.678406	177.200000
844.712524	185.000000
844.746582	187.300000
844.780640	180.900000
844.814636	183.700000
844.848755	190.300000
844.882751	181.000000
844.916809	184.100000
844.950867	184.600000
844.984863	188.500000
845.018921	182.000000
845.052979	179.000000
845.086975	182.300000
845.121033	177.400000
845.155090	180.000000
845.189087	187.500000
845.223145	180.700000
845.257141	183.700000
845.291199	186.300000
845.325256	185.900000
845.359253	184.000000
845.393250	193.000000
845.427307	180.300000
845.461304	183.400000
845.495361	182.500000
845.529358	189.500000
845.563354	181.000000
845.597412	180.000000
845.631409	189.200000
845.665405	188.200000
845.699463	185.800000
845.733459	181.800000
845.767456	189.200000
845.801453	182.700000
845.835449	186.600000
845.869446	185.700000
845.903503	184.600000
845.937439	180.100000
845.971497	186.700000
846.005493	179.600000
846.039429	185.100000
846.073486	192.000000
846.107483	180.600000
846.141418	181.500000
846.175476	182.300000
846.209473	188.200000
846.243408	178.200000
846.277405	184.600000
846.311401	179.200000
846.345337	182.400000
846.379395	185.200000
846.413330	181.600000
846.447327	190.700000
846.481323	180.600000
846.515259	179.800000
846.549255	182.100000
846.583252	184.000000
846.617187	179.900000
846.651184	183.200000
846.685120	182.100000
846.719055	188.500000
846.753052	186.300000
846.786987	185.500000
846.820984	178.300000
846.854980	187.000000
846.888916	179.500000
846.922852	183.600000
846.956848	186.600000
846.990723	179.900000
847.024719	183.700000
847.058716	181.100000
847.092590	185.800000
847.126587	184.700000
847.160522	180.800000
847.194458	186.500000
847.228455	180.200000
847.262390	179.200000
847.296265	180.100000
847.330261	186.700000
847.364136	179.300000
847.398132	182.800000
847.432068	182.000000
847.466003	180.600000
847.499939	181.500000
847.533875	185.500000
847.567749	181.400000
847.601746	181.800000
847.635681	184.100000
847.669556	178.200000
847.703491	186.400000
847.737427	192.000000
847.771301	179.100000
847.805237	185.100000
847.839233	182.300000
847.873108	183.700000
847.907043	181.200000
847.940918	189.600000
847.974854	183.100000
848.008789	186.300000
848.042664	181.400000
848.076538	184.900000
848.110474	182.800000
848.144348	184.700000
848.178284	177.000000
848.212219	183.200000
848.246094	179.200000
848.279968	182.800000
848.313904	185.000000
848.347778	182.200000
848.381653	180.800000
848.415588	180.900000
848.449463	180.500000
848.483337	184.800000
848.517212	188.200000
848.551086	182.300000
848.585022	179.500000
848.618835	191.500000
848.652771	180.100000
848.686646	178.600000
848.720520	187.600000
848.754395	182.300000
848.788330	184.600000
848.822144	184.600000
848.856018	181.900000
848.889954	189.100000
848.923767	180.900000
848.957642	179.000000
848.991577	183.600000
849.025391	180.300000
849.059265	182.200000
849.093079	178.900000
849.126953	180.200000
849.160828	186.100000
849.194641	185.000000
849.228577	181.100000
849.262451	182.800000
849.296265	179.000000
849.330139	181.900000
849.364014	181.500000
849.397827	184.200000
849.431702	182.300000
849.465515	185.900000
849.499329	176.000000
849.533203	179.000000
849.567078	175.200000
849.600891	185.800000
849.634766	181.900000
849.668518	185.600000
849.702393	182.900000
849.736267	179.500000
849.770020	189.300000
849.803894	185.800000
849.837769	182.600000
849.871521	183.200000
849.905396	184.800000
849.939270	180.200000
849.973022	182.100000
850.006897	185.600000
850.040710	184.700000
850.074524	186.100000
850.108337	181.100000
850.142151	187.500000
850.175964	187.200000
850.209778	182.400000
850.243530	175.000000
850.277405	185.900000
850.311218	183.300000
850.344971	181.100000
850.378845	189.500000
850.412659	179.500000
850.446411	183.800000
850.480225	182.400000
850.514038	187.400000
850.547791	185.400000
850.581665	183.600000
850.615417	180.200000
850.649231	184.400000
850.683044	181.100000
850.716858	181.500000
850.750610	182.200000
850.784424	186.400000
850.818176	179.200000
850.851929	181.400000
850.885742	179.900000
850.919495	183.100000
850.953308	187.100000
850.987122	189.700000
851.020874	177.900000
851.054626	179.300000
851.088440	183.600000
851.122192	185.900000
851.156006	183.200000
851.189697	184.500000
851.223511	178.600000
851.257263	186.900000
851.291077	182.600000
851.324829	181.000000
851.358582	181.000000
851.392334	183.500000
851.426086	180.700000
851.459900	189.100000
851.493591	182.400000
851.527344	183.800000
851.561157	183.200000
851.594849	184.600000
851.628662	182.300000
851.662415	189.200000
851.696106	184.700000
851.729858	186.000000
851.763611	178.800000
851.797363	183.500000
851.831116	179.600000
851.864868	185.300000
851.898560	186.900000
851.932312	180.400000
851.966064	185.200000
851.999817	182.100000
852.033569	182.800000
852.067261	187.600000
852.101013	180.600000
852.134766	181.900000
852.168457	175.900000
852.202209	186.400000
852.235901	179.100000
852.269592	183.600000
852.303345	190.300000
852.337036	184.700000
852.370789	183.400000
852.404541	184.600000
852.438171	180.400000
852.471924	182.600000
852.505676	179.100000
852.539307	182.300000
852.573059	181.100000
852.606812	179.600000
852.640442	181.200000
852.674194	185.900000
852.707886	190.700000
852.741577	186.300000
852.775269	180.100000
852.809021	182.700000
852.842651	185.300000
852.876404	187.300000
852.910034	185.200000
852.943787	185.500000
852.977478	184.700000
853.011108	179.700000
853.044861	181.600000
853.078552	188.600000
853.112183	184.200000
853.145874	182.600000
853.179626	177.200000
853.213257	183.000000
853.246948	180.400000
853.280640	189.900000
853.314270	182.700000
853.347961	186.900000
853.381653	184.200000
853.415283	188.800000
853.448975	180.400000
853.482605	184.600000
853.516296	182.200000
853.549988	178.500000
853.583618	184.100000
853.617310	184.300000
853.651001	182.400000
853.684631	181.000000
853.718323	181.600000
853.751953	188.100000
853.785583	177.300000
853.819275	187.100000
853.852966	185.300000
853.886536	178.800000
853.920227	178.800000
853.953918	187.200000
853.987488	182.200000
854.021179	187.600000
854.054749	188.600000
854.088440	186.500000
854.122131	178.600000
854.155701	185.500000
854.189331	179.000000
854.223022	185.300000
854.256592	184.000000
854.290283	181.500000
854.323914	183.500000
854.357483	184.900000
854.391174	184.900000
854.424744	189.600000
854.458374	183.200000
854.492065	192.100000
854.525696	180.900000
854.559265	188.600000
854.592896	192.200000
854.626465	184.400000
854.660095	180.800000
854.693787	183.600000
854.727356	181.100000
854.760986	185.500000
854.794617	184.900000
854.828186	182.500000
854.861816	185.900000
854.895447	184.200000
854.929016	185.100000
854.962585	184.100000
854.996155	191.100000
855.029785	182.200000
855.063416	183.200000
855.097046	185.600000
855.130615	179.700000
855.164185	186.800000
855.197754	183.400000
855.231384	184.400000
855.264954	183.200000
855.298523	185.100000
855.332153	184.900000
855.365723	187.600000
855.399292	182.800000
855.432922	181.100000
855.466492	185.600000
855.500061	179.700000
855.533630	182.300000
855.567200	184.900000
855.600769	186.700000
855.634338	187.200000
855.667969	184.700000
855.701477	179.400000
855.735046	181.200000
855.768616	177.200000
855.802185	185.600000
855.835754	193.100000
855.869324	179.000000
855.902893	182.900000
855.936401	187.800000
855.969971	182.700000
856.003540	179.400000
856.037109	185.400000
856.070618	183.100000
856.104187	178.400000
856.137695	181.700000
856.171265	175.500000
856.204834	184.600000
856.238403	185.600000
856.271912	180.900000
856.305481	183.500000
856.338989	178.400000
856.372559	184.400000
856.406128	184.400000
856.439636	185.100000
856.473145	180.900000
856.506653	187.700000
856.540222	183.800000
856.573792	187.700000
856.607300	186.100000
856.640808	180.100000
856.674377	181.800000
856.707825	216.200000
856.741394	186.600000
856.774902	180.100000
856.808472	177.700000
856.841980	185.700000
856.875488	186.300000
856.908936	178.900000
856.942505	181.600000
856.976013	182.400000
857.009521	180.100000
857.043030	182.800000
857.076477	181.200000
857.110046	188.700000
857.143555	182.400000
857.177063	185.800000
857.210571	181.200000
857.244080	179.700000
857.277527	184.300000
857.311035	182.700000
857.344543	186.600000
857.378052	182.000000
857.411499	186.700000
857.445068	189.900000
857.478516	180.900000
857.512024	179.400000
857.545532	181.200000
857.578979	183.400000
857.612427	183.800000
857.645874	181.200000
857.679382	184.400000
857.712891	188.200000
857.746399	183.100000
857.779846	186.600000
857.813354	186.400000
857.846741	183.800000
857.880249	179.500000
857.913757	184.900000
857.947266	183.700000
857.980652	185.600000
858.014160	182.800000
858.047546	182.100000
858.081055	181.500000
858.114563	193.400000
858.147949	180.000000
858.181458	183.700000
858.214844	183.800000
858.248352	176.600000
858.281799	185.500000
858.315308	190.400000
858.348694	186.200000
858.382141	189.400000
858.415588	186.500000
858.449036	184.800000
858.482483	183.900000
858.515930	182.100000
858.549377	183.600000
858.582825	187.300000
858.616211	186.600000
858.649658	184.900000
858.683105	179.800000
858.716553	180.800000
858.750000	178.400000
858.783386	180.700000
858.816833	179.200000
858.850281	183.600000
858.883728	184.700000
858.917114	182.700000
858.950562	189.700000
858.983948	187.100000
859.017395	187.100000
859.050781	181.000000
859.084167	182.000000
859.117615	178.200000
859.151062	185.700000
859.184448	179.500000
859.217834	182.700000
859.251282	179.200000
859.284668	179.800000
859.318054	176.200000
859.351440	181.400000
859.384888	187.800000
859.418274	178.400000
859.451721	177.400000
859.485046	184.600000
859.518494	185.100000
859.551819	179.900000
859.585266	185.100000
859.618652	187.700000
859.652039	179.600000
859.685425	178.900000
859.718811	180.100000
859.752197	175.500000
859.785583	185.900000
859.819031	186.900000
859.852356	185.700000
859.885742	180.000000
859.919067	182.200000
859.952454	179.600000
859.985901	187.000000
860.019287	182.000000
860.052612	0.000000
860.085999	0.000000
860.119324	0.000000
860.152710	0.000000
860.186096	0.000000
860.219421	0.000000
860.252808	0.000000
860.286133	0.000000
860.319519	0.000000
860.352905	0.000000
860.386292	0.000000
860.419617	0.000000
860.452942	0.000000
860.486267	0.000000
860.519653	0.000000
860.553040	0.000000
860.586365	0.000000
860.619690	0.000000
860.653076	0.000000
860.686340	0.000000
860.719727	0.000000
860.753113	0.000000
860.786377	0.000000
860.819763	0.000000
860.853027	0.000000
860.886414	0.000000
860.919739	0.000000
860.953125	0.000000
860.986389	0.000000
861.019714	0.000000
861.053040	0.000000
861.086365	0.000000
861.119690	0.000000
861.153076	0.000000
861.186340	0.000000
861.219666	0.000000
861.252930	0.000000
861.286316	0.000000
861.319641	0.000000
861.352905	0.000000
861.386230	0.000000
861.419495	0.000000
861.452820	0.000000
861.486145	0.000000
861.519470	0.000000
861.552734	0.000000
861.586060	0.000000
861.619324	0.000000
861.652649	0.000000
861.685974	0.000000
861.719238	0.000000
861.752563	0.000000
861.785828	0.000000
861.819092	0.000000
861.852417	0.000000
861.885742	0.000000
861.918945	0.000000
861.952271	0.000000
861.985535	0.000000
862.018799	0.000000
862.052124	0.000000
862.085449	0.000000
862.118652	0.000000
862.151978	0.000000
862.185181	0.000000
862.218506	0.000000
862.251770	0.000000
862.285034	0.000000
862.318298	0.000000
862.351562	0.000000
862.384827	0.000000
862.418091	0.000000
862.451355	0.000000
862.484619	0.000000
862.517883	0.000000
862.551086	0.000000
862.584351	0.000000
862.617676	0.000000
862.650940	0.000000
862.684143	0.000000
862.717407	0.000000
862.750610	0.000000
862.783875	0.000000
862.817139	0.000000
862.850342	0.000000
862.883606	0.000000
862.916870	0.000000
862.950073	0.000000
862.983337	0.000000
863.016602	0.000000
863.049805	0.000000
863.083069	0.000000
863.116211	0.000000
863.149475	0.000000
863.182739	0.000000
863.216003	0.000000
863.249146	0.000000
863.282410	0.000000
863.315613	0.000000
863.348816	0.000000
863.382080	0.000000
863.415222	0.000000
863.448486	0.000000
863.481689	0.000000
863.514893	0.000000
863.548157	0.000000
863.581360	0.000000
863.614502	0.000000
863.647766	0.000000
863.680908	0.000000
863.714172	0.000000
863.747375	0.000000
863.780579	0.000000
863.813721	0.000000
863.846985	0.000000
863.880127	0.000000
863.913330	0.000000
863.946533	0.000000
863.979675	0.000000
864.012939	0.000000
