Model Number: SPM-001-M   
Serial Number: 10090201
Firmware Version: 004.17.6
Exposure Time: 300000.000000us
Data Taken on: 28-01-2021 10:43:31.974
Wavelength	Amplitude
733.770752	0.000000
733.808716	0.000000
733.846619	0.000000
733.884583	0.000000
733.922546	0.000000
733.960449	0.000000
733.998413	0.000000
734.036377	0.000000
734.074219	0.000000
734.112183	0.000000
734.150085	0.000000
734.188049	0.000000
734.226013	0.000000
734.263916	0.000000
734.301819	0.000000
734.339783	0.000000
734.377686	0.000000
734.415588	0.000000
734.453552	0.000000
734.491455	0.000000
734.529419	0.000000
734.567322	0.000000
734.605225	0.000000
734.643127	0.000000
734.681091	0.000000
734.718994	0.000000
734.756897	0.000000
734.794800	0.000000
734.832703	0.000000
734.870667	0.000000
734.908508	0.000000
734.946472	0.000000
734.984375	0.000000
735.022278	0.000000
735.060181	0.000000
735.098083	0.000000
735.135986	0.000000
735.173889	0.000000
735.211792	0.000000
735.249695	0.000000
735.287598	0.000000
735.325439	0.000000
735.363403	0.000000
735.401306	0.000000
735.439148	0.000000
735.477051	0.000000
735.515015	0.000000
735.552856	0.000000
735.590759	0.000000
735.628662	0.000000
735.666504	0.000000
735.704407	0.000000
735.742310	0.000000
735.780212	0.000000
735.818115	0.000000
735.856018	0.000000
735.893860	0.000000
735.931763	0.000000
735.969604	0.000000
736.007507	0.000000
736.045410	0.000000
736.083252	0.000000
736.121094	0.000000
736.158997	0.000000
736.196838	0.000000
736.234741	0.000000
736.272644	0.000000
736.310486	0.000000
736.348389	0.000000
736.386230	0.000000
736.424072	0.000000
736.461975	0.000000
736.499878	0.000000
736.537720	0.000000
736.575562	0.000000
736.613403	0.000000
736.651306	0.000000
736.689148	0.000000
736.726990	0.000000
736.764893	0.000000
736.802734	0.000000
736.840576	0.000000
736.878418	0.000000
736.916321	0.000000
736.954102	0.000000
736.992004	0.000000
737.029846	0.000000
737.067688	0.000000
737.105530	0.000000
737.143372	0.000000
737.181213	0.000000
737.219116	0.000000
737.256897	0.000000
737.294739	0.000000
737.332642	0.000000
737.370422	0.000000
737.408325	0.000000
737.446167	0.000000
737.483948	0.000000
737.521790	0.000000
737.559692	0.000000
737.597473	0.000000
737.635315	0.000000
737.673157	0.000000
737.710999	0.000000
737.748840	0.000000
737.786621	0.000000
737.824463	0.000000
737.862305	0.000000
737.900085	0.000000
737.937927	0.000000
737.975769	0.000000
738.013550	0.000000
738.051392	0.000000
738.089233	0.000000
738.127014	0.000000
738.164856	0.000000
738.202698	0.000000
738.240479	0.000000
738.278320	0.000000
738.316162	0.000000
738.353943	0.000000
738.391785	0.000000
738.429565	0.000000
738.467407	0.000000
738.505188	0.000000
738.542969	0.000000
738.580811	0.000000
738.618652	0.000000
738.656372	0.000000
738.694214	0.000000
738.732056	0.000000
738.769836	0.000000
738.807617	0.000000
738.845459	0.000000
738.883240	0.000000
738.921021	0.000000
738.958862	0.000000
738.996582	0.000000
739.034424	0.000000
739.072205	0.000000
739.109985	0.000000
739.147827	0.000000
739.185547	0.000000
739.223389	0.000000
739.261169	0.000000
739.298889	0.000000
739.336731	0.000000
739.374512	0.000000
739.412292	0.000000
739.450073	0.000000
739.487854	0.000000
739.525635	0.000000
739.563416	0.000000
739.601135	0.000000
739.638977	0.000000
739.676758	0.000000
739.714478	0.000000
739.752258	0.000000
739.790100	0.000000
739.827820	0.000000
739.865601	0.000000
739.903381	0.000000
739.941101	0.000000
739.978882	185.400000
740.016724	180.100000
740.054443	184.600000
740.092224	181.400000
740.130005	178.500000
740.167725	180.000000
740.205505	178.200000
740.243225	186.900000
740.281006	182.200000
740.318787	178.600000
740.356506	185.600000
740.394287	186.600000
740.432068	178.200000
740.469727	178.500000
740.507507	183.400000
740.545288	182.800000
740.583008	182.900000
740.620789	182.600000
740.658569	176.800000
740.696228	183.200000
740.734009	184.600000
740.771790	175.500000
740.809509	183.500000
740.847229	178.800000
740.884949	179.800000
740.922729	176.900000
740.960449	179.800000
740.998169	178.700000
741.035950	179.000000
741.073669	182.400000
741.111389	182.700000
741.149170	187.900000
741.186890	186.800000
741.224609	184.200000
741.262329	182.300000
741.300110	187.700000
741.337769	179.200000
741.375549	177.500000
741.413208	181.900000
741.450989	180.000000
741.488708	180.600000
741.526367	179.600000
741.564148	183.800000
741.601868	184.500000
741.639526	180.900000
741.677307	182.900000
741.715027	184.800000
741.752686	179.700000
741.790466	186.600000
741.828186	183.400000
741.865845	178.100000
741.903564	175.700000
741.941345	182.900000
741.979004	177.200000
742.016724	186.100000
742.054382	183.000000
742.092102	186.800000
742.129822	177.600000
742.167480	181.800000
742.205200	180.200000
742.242920	184.400000
742.280640	184.500000
742.318359	179.900000
742.356079	180.400000
742.393738	184.900000
742.431396	179.600000
742.469116	185.700000
742.506775	175.200000
742.544495	183.100000
742.582214	184.500000
742.619873	183.000000
742.657593	185.900000
742.695251	185.100000
742.732971	178.800000
742.770630	182.700000
742.808289	182.600000
742.846008	182.200000
742.883728	182.200000
742.921326	182.500000
742.959045	179.800000
742.996765	181.300000
743.034424	182.100000
743.072083	180.100000
743.109802	180.500000
743.147400	178.800000
743.185120	180.600000
743.222839	180.700000
743.260437	187.100000
743.298157	181.800000
743.335754	176.900000
743.373474	181.900000
743.411133	176.100000
743.448792	181.600000
743.486450	182.600000
743.524170	177.200000
743.561768	182.200000
743.599487	187.000000
743.637146	189.400000
743.674744	181.000000
743.712463	181.100000
743.750122	182.000000
743.787720	183.800000
743.825439	179.700000
743.863037	182.300000
743.900696	180.500000
743.938416	207.100000
743.976013	181.000000
744.013672	188.500000
744.051331	185.100000
744.088928	188.900000
744.126587	185.800000
744.164307	183.500000
744.201904	179.300000
744.239563	184.100000
744.277222	182.800000
744.314819	183.400000
744.352478	184.800000
744.390137	183.700000
744.427734	181.900000
744.465393	180.100000
744.502991	178.400000
744.540649	183.400000
744.578308	181.800000
744.615906	179.200000
744.653564	174.100000
744.691223	183.800000
744.728821	177.500000
744.766418	181.000000
744.804077	181.900000
744.841675	179.900000
744.879333	177.100000
744.916992	181.400000
744.954529	179.800000
744.992187	183.500000
745.029785	180.800000
745.067444	181.000000
745.105042	181.600000
745.142639	182.600000
745.180298	189.400000
745.217896	181.100000
745.255493	181.000000
745.293152	186.200000
745.330750	185.900000
745.368347	187.000000
745.405945	185.100000
745.443604	182.500000
745.481140	185.100000
745.518799	182.600000
745.556396	185.300000
745.593994	183.100000
745.631592	183.000000
745.669189	178.800000
745.706787	183.500000
745.744385	180.100000
745.781982	185.100000
745.819580	178.900000
745.857178	181.200000
745.894775	181.400000
745.932373	183.800000
745.969971	182.700000
746.007568	176.700000
746.045166	186.600000
746.082764	187.500000
746.120300	182.700000
746.157898	183.900000
746.195557	182.200000
746.233093	178.700000
746.270691	182.000000
746.308228	183.400000
746.345825	183.900000
746.383423	184.100000
746.420959	179.000000
746.458557	180.600000
746.496155	179.600000
746.533691	181.700000
746.571289	178.600000
746.608887	181.500000
746.646423	183.400000
746.684021	182.200000
746.721619	180.000000
746.759155	183.900000
746.796753	177.900000
746.834351	177.300000
746.871826	179.400000
746.909424	187.900000
746.946960	181.300000
746.984558	180.900000
747.022156	179.700000
747.059631	189.200000
747.097229	183.400000
747.134827	180.600000
747.172363	186.900000
747.209900	185.000000
747.247498	179.800000
747.285034	185.800000
747.322571	186.600000
747.360168	180.400000
747.397644	178.400000
747.435242	183.800000
747.472778	186.600000
747.510315	181.500000
747.547913	182.500000
747.585388	185.900000
747.622925	182.900000
747.660522	178.300000
747.697998	181.200000
747.735596	179.800000
747.773132	180.700000
747.810669	181.400000
747.848206	185.900000
747.885742	179.100000
747.923279	178.400000
747.960815	182.200000
747.998352	183.400000
748.035889	184.900000
748.073425	184.100000
748.110901	180.100000
748.148437	178.700000
748.185974	181.600000
748.223511	188.800000
748.261047	184.000000
748.298584	184.000000
748.336060	181.700000
748.373596	184.400000
748.411133	206.900000
748.448608	180.400000
748.486145	183.700000
748.523682	184.900000
748.561218	187.700000
748.598755	183.000000
748.636292	184.100000
748.673706	180.900000
748.711243	188.100000
748.748718	182.800000
748.786255	182.100000
748.823792	181.600000
748.861267	180.000000
748.898804	185.100000
748.936340	183.400000
748.973816	180.300000
749.011292	187.700000
749.048828	183.200000
749.086304	184.600000
749.123840	190.500000
749.161316	179.600000
749.198792	187.400000
749.236328	187.300000
749.273743	181.100000
749.311279	182.100000
749.348816	186.200000
749.386230	183.800000
749.423767	173.800000
749.461304	186.000000
749.498718	180.700000
749.536255	185.900000
749.573730	188.500000
749.611206	188.800000
749.648682	181.200000
749.686218	183.500000
749.723633	184.100000
749.761169	181.600000
749.798645	179.700000
749.836060	180.600000
749.873596	178.200000
749.911011	184.600000
749.948547	185.000000
749.986023	182.000000
750.023437	181.200000
750.060913	178.300000
750.098450	177.700000
750.135864	182.900000
750.173340	181.500000
750.210815	186.300000
750.248291	178.400000
750.285767	181.900000
750.323242	185.100000
750.360657	184.800000
750.398132	178.500000
750.435608	184.400000
750.473022	179.100000
750.510498	179.200000
750.547974	179.300000
750.585449	180.900000
750.622925	174.400000
750.660339	191.300000
750.697815	182.900000
750.735291	181.200000
750.772644	183.500000
750.810120	183.800000
750.847595	184.800000
750.885010	178.400000
750.922485	187.800000
750.959961	181.200000
750.997375	187.400000
751.034851	185.100000
751.072266	184.800000
751.109680	176.400000
751.147156	187.600000
751.184570	182.500000
751.221985	183.000000
751.259460	176.200000
751.296875	184.400000
751.334290	180.500000
751.371765	185.900000
751.409180	184.100000
751.446594	186.800000
751.484070	183.500000
751.521423	184.100000
751.558899	182.200000
751.596375	188.100000
751.633728	185.700000
751.671204	189.100000
751.708618	178.800000
751.746033	184.100000
751.783447	177.800000
751.820801	179.800000
751.858276	185.700000
751.895691	181.300000
751.933105	180.500000
751.970520	179.100000
752.007935	182.200000
752.045349	186.000000
752.082764	182.700000
752.120178	180.800000
752.157532	179.800000
752.195007	179.500000
752.232422	184.300000
752.269775	185.400000
752.307190	184.300000
752.344543	178.700000
752.382019	182.300000
752.419434	181.300000
752.456787	185.900000
752.494202	186.500000
752.531616	182.100000
752.568970	184.400000
752.606384	185.900000
752.643799	182.300000
752.681152	188.600000
752.718567	185.200000
752.755981	178.800000
752.793335	184.700000
752.830750	179.300000
752.868164	184.700000
752.905518	180.300000
752.942932	185.600000
752.980225	180.000000
753.017639	184.200000
753.055054	186.100000
753.092407	183.400000
753.129822	185.200000
753.167175	187.800000
753.204529	183.600000
753.241943	179.100000
753.279358	178.500000
753.316650	183.600000
753.354065	183.300000
753.391479	184.300000
753.428772	188.100000
753.466187	183.300000
753.503479	180.300000
753.540894	181.800000
753.578308	178.500000
753.615601	179.100000
753.653015	182.300000
753.690369	180.400000
753.727722	180.300000
753.765076	177.500000
753.802490	178.900000
753.839783	178.000000
753.877136	181.300000
753.914551	191.300000
753.951843	180.500000
753.989258	184.900000
754.026611	183.700000
754.063904	183.500000
754.101257	179.600000
754.138611	177.300000
754.175964	184.900000
754.213318	188.500000
754.250610	177.400000
754.288025	182.100000
754.325378	178.200000
754.362671	185.500000
754.400024	181.800000
754.437378	190.400000
754.474670	186.200000
754.512085	181.000000
754.549438	182.100000
754.586731	180.700000
754.624084	181.700000
754.661438	180.500000
754.698730	187.100000
754.736084	183.100000
754.773376	181.600000
754.810730	185.300000
754.848083	181.300000
754.885315	187.700000
754.922668	177.600000
754.960022	179.900000
754.997314	185.700000
755.034668	182.600000
755.072021	182.800000
755.109253	183.100000
755.146606	186.900000
755.183960	181.800000
755.221252	187.300000
755.258545	185.900000
755.295898	187.800000
755.333191	186.000000
755.370544	184.500000
755.407776	184.300000
755.445129	183.600000
755.482422	186.800000
755.519714	182.000000
755.557068	179.000000
755.594360	179.500000
755.631653	185.900000
755.668945	189.800000
755.706299	183.000000
755.743530	191.500000
755.780884	188.400000
755.818176	187.100000
755.855408	187.000000
755.892761	185.700000
755.930054	183.700000
755.967346	185.200000
756.004639	185.400000
756.041870	184.700000
756.079224	188.000000
756.116516	183.000000
756.153748	186.100000
756.191040	192.000000
756.228394	185.400000
756.265625	182.400000
756.302917	186.100000
756.340210	183.600000
756.377441	188.500000
756.414795	191.000000
756.452087	183.500000
756.489319	181.500000
756.526611	188.900000
756.563843	186.700000
756.601135	189.600000
756.638428	193.300000
756.675659	184.500000
756.712952	188.800000
756.750244	186.600000
756.787476	186.500000
756.824768	188.100000
756.862061	184.500000
756.899292	229.200000
756.936584	188.200000
756.973816	192.300000
757.011047	194.000000
757.048340	183.900000
757.085632	187.100000
757.122864	198.800000
757.160156	183.500000
757.197327	187.400000
757.234619	190.800000
757.271912	184.700000
757.309082	189.700000
757.346375	184.300000
757.383667	190.800000
757.420837	188.500000
757.458130	187.800000
757.495422	186.300000
757.532593	189.400000
757.569885	182.000000
757.607117	185.100000
757.644348	187.700000
757.681580	196.500000
757.718811	180.700000
757.756042	188.000000
757.793335	186.000000
757.830505	188.600000
757.867798	187.800000
757.905029	186.100000
757.942200	190.200000
757.979492	187.100000
758.016724	187.500000
758.053894	186.500000
758.091187	200.600000
758.128418	188.200000
758.165588	188.900000
758.202820	197.100000
758.240112	189.800000
758.277283	196.400000
758.314514	190.800000
758.351685	186.500000
758.388916	195.600000
758.426147	194.300000
758.463379	195.600000
758.500610	189.700000
758.537842	189.500000
758.575012	192.800000
758.612244	186.500000
758.649475	197.700000
758.686646	185.200000
758.723877	193.900000
758.761108	196.300000
758.798279	190.500000
758.835510	191.900000
758.872742	195.600000
758.909851	192.200000
758.947083	193.200000
758.984253	193.000000
759.021484	195.300000
759.058716	193.600000
759.095886	193.100000
759.133057	190.300000
759.170288	195.800000
759.207458	190.600000
759.244690	200.300000
759.281860	199.100000
759.319031	194.600000
759.356262	190.900000
759.393433	192.300000
759.430603	193.400000
759.467773	193.100000
759.505005	197.900000
759.542175	199.000000
759.579346	191.800000
759.616516	195.300000
759.653687	196.800000
759.690918	193.000000
759.728027	194.600000
759.765259	196.600000
759.802429	196.000000
759.839539	197.000000
759.876770	199.000000
759.913940	203.200000
759.951111	195.100000
759.988281	196.900000
760.025452	193.600000
760.062561	193.500000
760.099792	203.100000
760.136963	199.000000
760.174072	193.800000
760.211243	193.500000
760.248413	193.700000
760.285583	193.800000
760.322754	203.100000
760.359863	202.200000
760.397034	201.200000
760.434204	195.900000
760.471375	197.600000
760.508545	195.200000
760.545715	196.200000
760.582825	194.600000
760.619995	199.000000
760.657166	192.900000
760.694275	201.200000
760.731445	198.800000
760.768555	198.700000
760.805664	200.400000
760.842834	199.300000
760.879944	200.700000
760.917114	200.200000
760.954285	199.100000
760.991394	194.200000
761.028564	202.800000
761.065674	200.900000
761.102783	199.200000
761.139954	203.300000
761.177124	203.300000
761.214172	203.700000
761.251343	199.200000
761.288452	200.800000
761.325562	202.500000
761.362732	199.400000
761.399841	199.700000
761.436951	204.200000
761.474121	197.500000
761.511169	203.000000
761.548340	205.000000
761.585449	203.400000
761.622559	203.600000
761.659668	202.500000
761.696838	206.900000
761.733887	206.000000
761.771057	202.500000
761.808167	203.800000
761.845276	204.500000
761.882385	212.900000
761.919434	203.600000
761.956604	217.300000
761.993713	200.300000
762.030762	207.900000
762.067871	203.300000
762.105042	203.900000
762.142090	210.700000
762.179199	206.600000
762.216309	207.200000
762.253418	215.400000
762.290527	211.900000
762.327637	209.900000
762.364685	201.700000
762.401794	210.900000
762.438904	208.600000
762.475952	204.700000
762.513062	203.700000
762.550110	206.400000
762.587219	215.500000
762.624329	213.900000
762.661377	209.700000
762.698486	209.200000
762.735596	208.900000
762.772644	205.500000
762.809753	202.700000
762.846863	206.700000
762.883911	212.400000
762.921021	210.100000
762.958069	209.100000
762.995117	216.500000
763.032227	216.700000
763.069336	208.500000
763.106323	206.500000
763.143433	205.200000
763.180481	212.400000
763.217590	212.200000
763.254639	211.600000
763.291687	210.100000
763.328735	216.300000
763.365845	210.900000
763.402893	212.200000
763.439941	213.900000
763.477051	216.500000
763.514038	214.800000
763.551147	212.200000
763.588196	213.300000
763.625244	213.700000
763.662292	219.400000
763.699402	221.600000
763.736389	217.000000
763.773499	224.700000
763.810486	218.100000
763.847534	216.300000
763.884644	216.800000
763.921631	216.100000
763.958679	223.100000
763.995728	218.900000
764.032776	222.000000
764.069824	215.100000
764.106873	220.700000
764.143860	225.600000
764.180969	219.600000
764.218018	225.500000
764.255005	219.000000
764.292053	220.500000
764.329102	227.100000
764.366089	227.000000
764.403137	225.800000
764.440125	221.200000
764.477173	221.800000
764.514221	224.300000
764.551208	224.300000
764.588257	221.100000
764.625305	228.000000
764.662292	232.400000
764.699341	233.200000
764.736389	229.500000
764.773376	239.600000
764.810425	230.800000
764.847473	235.600000
764.884399	231.200000
764.921448	236.800000
764.958435	235.200000
764.995483	230.500000
765.032532	239.700000
765.069458	233.400000
765.106506	232.300000
765.143555	232.600000
765.180481	234.100000
765.217529	242.300000
765.254578	229.000000
765.291504	237.400000
765.328552	233.700000
765.365540	234.200000
765.402527	242.200000
765.439575	233.800000
765.476501	230.500000
765.513550	232.100000
765.550537	236.400000
765.587463	241.300000
765.624512	234.100000
765.661499	233.100000
765.698486	240.700000
765.735474	234.500000
765.772461	237.300000
765.809448	242.900000
765.846436	240.500000
765.883423	245.700000
765.920410	240.600000
765.957397	239.000000
765.994385	244.200000
766.031311	248.300000
766.068359	244.000000
766.105286	244.300000
766.142273	247.300000
766.179260	246.100000
766.216187	240.100000
766.253174	239.000000
766.290161	245.700000
766.327148	247.600000
766.364136	248.100000
766.401123	256.700000
766.438049	244.100000
766.475037	251.300000
766.512024	251.200000
766.548950	260.300000
766.585937	254.200000
766.622864	252.200000
766.659790	252.500000
766.696777	244.900000
766.733704	256.400000
766.770691	250.600000
766.807678	260.400000
766.844604	254.800000
766.881531	256.800000
766.918518	258.300000
766.955444	260.400000
766.992432	255.400000
767.029358	257.700000
767.066284	258.900000
767.103271	258.500000
767.140198	288.700000
767.177124	270.000000
767.214050	260.400000
767.251038	265.500000
767.287964	260.600000
767.324890	260.000000
767.361816	260.500000
767.398743	268.100000
767.435730	261.700000
767.472595	263.300000
767.509583	266.300000
767.546509	260.200000
767.583374	263.100000
767.620361	259.200000
767.657288	262.900000
767.694214	263.400000
767.731140	262.700000
767.768066	265.200000
767.804993	266.500000
767.841919	261.700000
767.878845	267.000000
767.915710	270.500000
767.952698	264.400000
767.989563	267.200000
768.026489	267.900000
768.063416	265.200000
768.100281	263.600000
768.137207	272.900000
768.174133	271.300000
768.211060	271.400000
768.247986	268.200000
768.284912	269.300000
768.321777	271.100000
768.358704	267.100000
768.395630	270.400000
768.432495	267.400000
768.469421	273.400000
768.506348	275.000000
768.543152	281.000000
768.580078	274.600000
768.616943	277.200000
768.653870	278.600000
768.690796	278.100000
768.727661	275.400000
768.764587	280.200000
768.801453	275.100000
768.838318	282.300000
768.875244	279.500000
768.912109	288.000000
768.948975	277.900000
768.985901	280.500000
769.022766	279.800000
769.059631	286.800000
769.096558	281.700000
769.133362	283.400000
769.170288	282.200000
769.207214	281.900000
769.244019	285.300000
769.280945	287.500000
769.317810	293.300000
769.354675	288.700000
769.391541	296.600000
769.428406	292.300000
769.465271	299.700000
769.502136	290.600000
769.539062	297.400000
769.575867	295.900000
769.612732	293.700000
769.649597	299.500000
769.686462	301.400000
769.723328	299.600000
769.760193	298.500000
769.797058	298.700000
769.833923	305.200000
769.870728	303.000000
769.907593	305.700000
769.944519	302.000000
769.981323	307.500000
770.018188	306.600000
770.055054	305.000000
770.091858	308.900000
770.128723	314.400000
770.165588	319.000000
770.202393	310.400000
770.239258	316.400000
770.276062	314.400000
770.312927	314.900000
770.349792	323.100000
770.386597	318.300000
770.423462	327.200000
770.460327	332.000000
770.497131	320.900000
770.533997	316.200000
770.570862	329.600000
770.607605	328.100000
770.644470	325.300000
770.681335	326.200000
770.718140	327.300000
770.754944	323.000000
770.791809	328.200000
770.828613	325.400000
770.865479	329.300000
770.902222	334.900000
770.939087	328.300000
770.975952	323.900000
771.012695	329.100000
771.049561	337.500000
771.086365	331.600000
771.123169	329.400000
771.159973	333.900000
771.196838	334.200000
771.233582	337.700000
771.270447	338.300000
771.307251	339.900000
771.344055	338.000000
771.380859	340.900000
771.417664	337.500000
771.454468	344.000000
771.491272	340.200000
771.528076	341.700000
771.564880	342.600000
771.601685	346.700000
771.638428	343.100000
771.675293	347.900000
771.712097	340.700000
771.748840	353.100000
771.785645	350.200000
771.822449	350.300000
771.859253	351.300000
771.896057	347.700000
771.932861	355.900000
771.969604	353.000000
772.006409	349.100000
772.043213	355.500000
772.079956	354.800000
772.116760	347.400000
772.153503	356.200000
772.190308	360.600000
772.227112	357.300000
772.263855	354.700000
772.300659	356.500000
772.337463	360.600000
772.374207	353.800000
772.411011	352.900000
772.447754	356.900000
772.484497	367.500000
772.521301	365.400000
772.558105	363.100000
772.594849	361.700000
772.631592	365.900000
772.668396	366.300000
772.705139	372.100000
772.741882	370.200000
772.778625	374.500000
772.815430	373.200000
772.852173	371.500000
772.888916	376.800000
772.925720	377.800000
772.962463	384.700000
772.999207	378.200000
773.035950	379.300000
773.072754	379.100000
773.109436	371.900000
773.146240	376.200000
773.182922	379.400000
773.219727	384.600000
773.256470	379.000000
773.293152	375.800000
773.329956	378.400000
773.366699	381.300000
773.403381	379.000000
773.440186	383.900000
773.476929	383.300000
773.513611	381.100000
773.550354	380.600000
773.587158	383.100000
773.623840	381.100000
773.660583	389.600000
773.697327	396.100000
773.734009	388.400000
773.770813	385.600000
773.807495	388.200000
773.844238	389.800000
773.880981	401.400000
773.917664	391.900000
773.954407	397.000000
773.991150	390.400000
774.027832	400.900000
774.064575	392.000000
774.101318	399.500000
774.138000	401.400000
774.174744	397.200000
774.211487	401.200000
774.248108	392.900000
774.284851	393.700000
774.321594	402.200000
774.358276	402.100000
774.395020	406.900000
774.431702	405.400000
774.468384	398.500000
774.505127	395.800000
774.541809	406.200000
774.578491	410.400000
774.615234	410.500000
774.651917	402.300000
774.688599	409.200000
774.725342	412.600000
774.762024	415.000000
774.798706	417.700000
774.835449	419.100000
774.872070	422.200000
774.908813	420.700000
774.945496	415.700000
774.982178	420.300000
775.018860	424.700000
775.055542	425.100000
775.092224	422.800000
775.128967	430.900000
775.165588	431.000000
775.202271	428.000000
775.239014	436.200000
775.275635	439.500000
775.312317	431.600000
775.349060	433.500000
775.385681	435.800000
775.422363	432.300000
775.459045	444.300000
775.495667	442.100000
775.532410	443.600000
775.569092	440.800000
775.605713	441.500000
775.642395	441.400000
775.679016	449.900000
775.715698	448.700000
775.752380	449.700000
775.789001	447.600000
775.825684	451.200000
775.862366	449.600000
775.898987	461.000000
775.935669	454.800000
775.972351	469.700000
776.008972	465.800000
776.045654	465.800000
776.082336	462.500000
776.118958	463.000000
776.155640	470.600000
776.192322	478.100000
776.228882	477.700000
776.265564	477.800000
776.302185	470.200000
776.338867	479.100000
776.375488	473.700000
776.412109	485.100000
776.448792	486.100000
776.485413	488.600000
776.522034	478.700000
776.558716	475.600000
776.595337	482.200000
776.631958	486.400000
776.668579	485.500000
776.705261	493.700000
776.741882	489.100000
776.778503	492.400000
776.815186	492.200000
776.851746	497.400000
776.888367	496.200000
776.924988	505.400000
776.961609	497.800000
776.998291	497.400000
777.034851	496.800000
777.071472	503.600000
777.108154	503.900000
777.144714	511.600000
777.181335	509.800000
777.218018	501.000000
777.254578	509.800000
777.291199	511.400000
777.327759	515.000000
777.364380	520.700000
777.401062	528.300000
777.437622	531.100000
777.474243	523.900000
777.510864	525.500000
777.547424	523.700000
777.584045	526.900000
777.620667	527.500000
777.657227	528.100000
777.693848	528.400000
777.730469	540.100000
777.767029	534.300000
777.803650	537.900000
777.840271	535.000000
777.876831	533.400000
777.913452	538.900000
777.950012	524.800000
777.986633	530.500000
778.023193	530.700000
778.059753	531.300000
778.096375	531.500000
778.132996	539.800000
778.169556	531.400000
778.206116	536.100000
778.242737	532.200000
778.279297	540.900000
778.315857	533.200000
778.352478	541.800000
778.389038	547.400000
778.425598	545.100000
778.462219	552.900000
778.498718	546.300000
778.535339	550.000000
778.571838	554.700000
778.608459	557.600000
778.645020	549.900000
778.681580	555.600000
778.718140	556.000000
778.754761	549.900000
778.791260	556.500000
778.827881	562.500000
778.864441	561.700000
778.900940	567.300000
778.937561	562.100000
778.974121	562.500000
779.010620	555.000000
779.047241	558.800000
779.083801	563.800000
779.120300	565.200000
779.156860	567.100000
779.193359	571.200000
779.229980	566.900000
779.266541	575.400000
779.303040	571.400000
779.339600	571.100000
779.376160	561.800000
779.412659	573.300000
779.449219	567.000000
779.485779	568.900000
779.522278	565.500000
779.558838	571.600000
779.595398	573.600000
779.631897	568.900000
779.668457	563.200000
779.705017	568.700000
779.741516	571.700000
779.778076	573.500000
779.814575	571.900000
779.851074	575.900000
779.887634	566.300000
779.924133	572.500000
779.960693	566.100000
779.997253	583.100000
780.033691	588.200000
780.070251	586.200000
780.106812	587.500000
780.143250	584.300000
780.179810	585.900000
780.216370	591.800000
780.252808	591.300000
780.289368	601.100000
780.325867	595.900000
780.362366	589.900000
780.398865	600.600000
780.435364	596.300000
780.471863	608.100000
780.508423	598.100000
780.544861	605.500000
780.581421	600.100000
780.617920	599.100000
780.654419	597.100000
780.690918	605.700000
780.727417	612.000000
780.763916	607.300000
780.800415	606.900000
780.836914	597.200000
780.873352	610.600000
780.909912	607.100000
780.946411	614.200000
780.982849	616.200000
781.019348	625.800000
781.055786	627.000000
781.092346	621.100000
781.128845	629.500000
781.165283	630.000000
781.201782	643.300000
781.238281	641.600000
781.274719	642.800000
781.311218	632.700000
781.347717	645.200000
781.384155	634.700000
781.420654	644.400000
781.457092	652.700000
781.493591	651.500000
781.530090	645.000000
781.566528	647.600000
781.602966	650.700000
781.639465	649.900000
781.675903	646.700000
781.712402	656.200000
781.748901	658.200000
781.785278	645.900000
781.821777	655.300000
781.858276	661.400000
781.894714	674.500000
781.931152	663.600000
781.967651	671.200000
782.004089	658.700000
782.040527	669.900000
782.076965	681.000000
782.113403	677.600000
782.149902	673.200000
782.186340	677.400000
782.222778	689.500000
782.259277	677.700000
782.295654	677.900000
782.332092	686.200000
782.368591	685.500000
782.404968	688.900000
782.441467	693.000000
782.477905	689.000000
782.514282	689.100000
782.550781	704.600000
782.587219	699.200000
782.623596	705.800000
782.660095	710.200000
782.696472	712.000000
782.732910	713.900000
782.769348	719.900000
782.805786	730.000000
782.842224	728.400000
782.878662	721.200000
782.915039	722.300000
782.951477	729.500000
782.987915	719.900000
783.024292	726.200000
783.060730	734.600000
783.097168	728.200000
783.133545	723.600000
783.169983	716.200000
783.206421	709.800000
783.242798	704.600000
783.279236	699.400000
783.315613	698.300000
783.352051	695.100000
783.388489	690.600000
783.424866	684.100000
783.461304	693.000000
783.497681	701.900000
783.534058	696.600000
783.570496	694.800000
783.606934	690.800000
783.643250	693.500000
783.679687	691.600000
783.716125	657.500000
783.752441	608.500000
783.788879	546.200000
783.825317	482.400000
783.861633	410.600000
783.898071	361.400000
783.934448	332.900000
783.970825	320.500000
784.007263	327.400000
784.043579	388.300000
784.080017	478.600000
784.116394	589.200000
784.152710	682.700000
784.189148	732.800000
784.225525	747.200000
784.261902	750.700000
784.298279	747.900000
784.334656	750.600000
784.371033	736.000000
784.407410	741.500000
784.443787	729.000000
784.480164	723.600000
784.516541	716.400000
784.552856	725.500000
784.589233	717.300000
784.625610	719.300000
784.661987	741.900000
784.698364	732.500000
784.734741	728.300000
784.771057	731.500000
784.807434	743.400000
784.843811	753.000000
784.880127	757.200000
784.916504	779.300000
784.952881	779.000000
784.989197	775.600000
785.025574	784.000000
785.061951	783.300000
785.098267	799.400000
785.134644	796.100000
785.170959	788.200000
785.207275	785.600000
785.243652	782.700000
785.279968	771.000000
785.316345	774.500000
785.352722	767.500000
785.388977	756.300000
785.425354	744.200000
785.461731	733.300000
785.498047	729.800000
785.534363	722.900000
785.570679	728.300000
785.606995	732.400000
785.643372	732.700000
785.679687	725.800000
785.716003	726.500000
785.752380	734.000000
785.788635	741.500000
785.825012	750.600000
785.861328	751.900000
785.897644	747.600000
785.933960	758.000000
785.970337	766.400000
786.006592	789.200000
786.042908	795.500000
786.079285	798.800000
786.115540	809.200000
786.151855	802.400000
786.188171	801.800000
786.224487	808.200000
786.260803	813.100000
786.297119	803.300000
786.333435	800.100000
786.369751	784.200000
786.406006	793.200000
786.442322	783.100000
786.478638	771.500000
786.514954	774.200000
786.551270	771.400000
786.587585	769.500000
786.623840	757.100000
786.660156	756.800000
786.696472	743.300000
786.732727	749.400000
786.769043	754.000000
786.805298	751.400000
786.841614	753.500000
786.877930	754.500000
786.914124	751.300000
786.950439	774.200000
786.986755	784.700000
787.023010	800.800000
787.059326	801.700000
787.095642	798.100000
787.131836	814.200000
787.168152	813.000000
787.204468	825.500000
787.240723	838.100000
787.276978	841.500000
787.313293	844.400000
787.349548	834.600000
787.385803	832.000000
787.422058	834.400000
787.458313	831.600000
787.494629	827.900000
787.530823	824.000000
787.567139	808.300000
787.603455	804.700000
787.639648	792.600000
787.675903	792.100000
787.712219	795.300000
787.748413	789.500000
787.784729	794.500000
787.820984	787.600000
787.857178	784.000000
787.893494	786.400000
787.929749	787.200000
787.965942	798.100000
788.002258	810.300000
788.038452	825.000000
788.074707	825.700000
788.110962	832.200000
788.147217	831.600000
788.183472	840.100000
788.219727	839.900000
788.255920	863.500000
788.292175	862.000000
788.328430	855.600000
788.364624	849.100000
788.400879	848.800000
788.437134	852.800000
788.473328	855.200000
788.509583	858.800000
788.545837	846.200000
788.582031	845.500000
788.618286	850.800000
788.654480	850.300000
788.690735	860.800000
788.726990	869.800000
788.763184	865.200000
788.799377	873.700000
788.835632	861.600000
788.871826	877.500000
788.908081	881.200000
788.944336	876.100000
788.980469	885.700000
789.016724	881.500000
789.052979	884.600000
789.089111	869.300000
789.125366	868.100000
789.161621	866.800000
789.197754	876.200000
789.234009	875.700000
789.270142	865.300000
789.306396	855.400000
789.342590	851.400000
789.378784	841.400000
789.414978	842.400000
789.451233	852.200000
789.487366	848.700000
789.523621	851.600000
789.559814	853.100000
789.595947	847.000000
789.632202	852.300000
789.668335	868.000000
789.704529	884.400000
789.740784	898.100000
789.776917	897.300000
789.813110	892.300000
789.849304	896.600000
789.885498	911.500000
789.921692	921.700000
789.957886	928.400000
789.994019	923.400000
790.030212	921.700000
790.066406	928.800000
790.102539	930.100000
790.138733	940.200000
790.174927	937.900000
790.211060	941.000000
790.247253	933.300000
790.283386	921.500000
790.319580	913.200000
790.355774	903.400000
790.391907	907.800000
790.428101	918.200000
790.464294	915.900000
790.500427	915.100000
790.536621	901.300000
790.572754	891.800000
790.608887	889.500000
790.645081	887.800000
790.681274	899.400000
790.717346	902.700000
790.753540	888.400000
790.789734	873.400000
790.825867	861.800000
790.862000	868.700000
790.898132	884.500000
790.934265	886.400000
790.970459	877.200000
791.006592	874.000000
791.042725	876.000000
791.078918	872.200000
791.114990	871.500000
791.151184	885.400000
791.187317	891.200000
791.223389	885.800000
791.259583	878.200000
791.295715	881.000000
791.331848	883.000000
791.367981	892.300000
791.404114	895.000000
791.440247	887.900000
791.476379	889.900000
791.512451	876.900000
791.548584	875.000000
791.584778	869.000000
791.620850	877.900000
791.656982	884.300000
791.693115	884.600000
791.729187	883.800000
791.765381	875.400000
791.801514	872.200000
791.837585	878.600000
791.873718	903.000000
791.909851	910.100000
791.945923	903.800000
791.982056	879.700000
792.018188	873.500000
792.054260	876.500000
792.090393	880.300000
792.126465	875.800000
792.162598	885.100000
792.198669	863.300000
792.234741	858.300000
792.270874	852.000000
792.307007	858.000000
792.343079	851.300000
792.379150	858.000000
792.415283	848.900000
792.451355	855.600000
792.487488	831.700000
792.523560	816.900000
792.559631	798.200000
792.595764	753.400000
792.631836	721.200000
792.667908	708.200000
792.703979	711.000000
792.740051	739.800000
792.776184	765.100000
792.812256	769.900000
792.848328	784.000000
792.884399	790.000000
792.920471	795.300000
792.956543	795.100000
792.992615	782.600000
793.028748	779.900000
793.064758	793.800000
793.100830	809.300000
793.136963	821.400000
793.172974	817.600000
793.209045	808.600000
793.245178	819.000000
793.281189	809.900000
793.317261	812.900000
793.353271	815.700000
793.389404	819.100000
793.425476	812.400000
793.461487	800.000000
793.497559	796.700000
793.533630	802.400000
793.569641	804.000000
793.605713	811.500000
793.641785	817.700000
793.677795	824.800000
793.713867	810.200000
793.749878	815.500000
793.785950	828.900000
793.822021	834.800000
793.858032	822.700000
793.894104	836.900000
793.930176	826.100000
793.966187	830.100000
794.002258	821.800000
794.038269	837.200000
794.074280	825.300000
794.110352	847.900000
794.146423	830.000000
794.182373	826.200000
794.218445	819.800000
794.254517	817.300000
794.290466	805.800000
794.326538	812.600000
794.362549	812.300000
794.398560	811.600000
794.434631	800.700000
794.470581	790.200000
794.506653	785.800000
794.542664	789.800000
794.578674	795.400000
794.614685	798.400000
794.650757	795.500000
794.686707	805.100000
794.722778	797.000000
794.758789	806.700000
794.794739	817.200000
794.830811	842.200000
794.866821	850.700000
794.902771	852.300000
794.938843	843.000000
794.974792	837.700000
795.010803	841.400000
795.046814	849.800000
795.082825	835.600000
795.118835	846.100000
795.154846	827.100000
795.190796	824.100000
795.226807	808.800000
795.262817	813.500000
795.298767	822.400000
795.334778	836.100000
795.370850	824.400000
795.406799	817.900000
795.442810	801.400000
795.478821	804.500000
795.514709	805.700000
795.550720	836.700000
795.586670	819.300000
795.622681	822.800000
795.658691	819.300000
795.694641	815.000000
795.730652	815.700000
795.766663	827.900000
795.802551	835.000000
795.838562	841.100000
795.874573	826.800000
795.910522	820.800000
795.946472	812.600000
795.982483	816.900000
796.018433	815.300000
796.054382	823.400000
796.090393	820.000000
796.126282	811.100000
796.162292	800.200000
796.198242	796.000000
796.234192	800.100000
796.270203	796.800000
796.306091	798.600000
796.342041	810.000000
796.378052	796.300000
796.413940	790.700000
796.449951	803.500000
796.485901	806.500000
796.521790	816.900000
796.557800	829.200000
796.593689	829.800000
796.629639	819.600000
796.665649	810.800000
796.701599	810.000000
796.737488	809.900000
796.773437	820.900000
796.809387	822.300000
796.845337	824.700000
796.881287	810.200000
796.917175	801.000000
796.953125	806.600000
796.989075	814.000000
797.024963	816.400000
797.060913	812.600000
797.096863	802.700000
797.132751	795.800000
797.168701	783.600000
797.204590	792.500000
797.240540	796.700000
797.276489	803.100000
797.312439	806.700000
797.348328	795.900000
797.384277	780.700000
797.420166	773.700000
797.456055	773.800000
797.492004	782.300000
797.527893	794.900000
797.563843	797.400000
797.599731	785.100000
797.635620	776.900000
797.671570	781.200000
797.707520	788.700000
797.743347	792.200000
797.779297	795.600000
797.815125	785.500000
797.851074	768.500000
797.887024	759.500000
797.922913	763.500000
797.958801	772.700000
797.994690	771.400000
798.030579	773.200000
798.066467	774.900000
798.102356	767.500000
798.138245	761.500000
798.174133	758.800000
798.210083	768.900000
798.245911	775.600000
798.281799	782.000000
798.317749	772.200000
798.353577	766.800000
798.389465	762.100000
798.425293	759.300000
798.461243	764.100000
798.497131	767.500000
798.532959	772.000000
798.568848	770.700000
798.604736	757.000000
798.640564	742.300000
798.676453	749.000000
798.712402	752.400000
798.748230	757.400000
798.784119	754.700000
798.820007	753.800000
798.855835	750.200000
798.891724	747.800000
798.927551	740.400000
798.963379	747.000000
798.999268	749.000000
799.035095	736.100000
799.070984	723.700000
799.106873	726.000000
799.142700	736.400000
799.178528	726.000000
799.214417	731.000000
799.250244	741.900000
799.286133	730.100000
799.321960	728.500000
799.357788	723.500000
799.393677	723.400000
799.429504	731.100000
799.465332	726.900000
799.501221	733.200000
799.537048	733.000000
799.572876	725.900000
799.608704	731.100000
799.644531	743.100000
799.680359	739.800000
799.716248	743.200000
799.752014	751.700000
799.787903	742.200000
799.823730	731.300000
799.859558	721.500000
799.895386	726.000000
799.931213	731.100000
799.967041	729.000000
800.002869	728.500000
800.038696	734.800000
800.074463	721.400000
800.110352	724.100000
800.146179	711.700000
800.181946	724.400000
800.217773	720.600000
800.253540	717.000000
800.289429	712.700000
800.325256	713.400000
800.361023	709.200000
800.396851	718.000000
800.432678	719.500000
800.468445	718.400000
800.504272	719.900000
800.540100	704.800000
800.575867	699.900000
800.611694	710.700000
800.647461	707.600000
800.683289	710.600000
800.719116	710.200000
800.754883	707.700000
800.790649	699.200000
800.826477	693.500000
800.862244	710.600000
800.898071	701.600000
800.933838	703.800000
800.969604	698.600000
801.005432	695.900000
801.041199	689.800000
801.076965	690.700000
801.112793	682.500000
801.148560	683.900000
801.184326	682.800000
801.220154	686.900000
801.255859	675.200000
801.291687	676.200000
801.327454	665.200000
801.363281	667.900000
801.398987	667.300000
801.434814	673.200000
801.470520	677.400000
801.506287	663.900000
801.542114	654.400000
801.577820	659.000000
801.613647	659.800000
801.649414	663.900000
801.685120	663.200000
801.720886	665.400000
801.756714	655.400000
801.792419	655.300000
801.828186	654.400000
801.863892	662.500000
801.899719	650.300000
801.935486	644.200000
801.971252	651.400000
802.006958	647.000000
802.042725	642.200000
802.078430	642.200000
802.114197	640.300000
802.149963	649.600000
802.185669	640.200000
802.221436	640.800000
802.257202	637.300000
802.292908	638.000000
802.328674	645.400000
802.364441	649.900000
802.400146	648.700000
802.435913	640.200000
802.471558	635.600000
802.507324	638.200000
802.543091	634.700000
802.578796	641.500000
802.614502	646.200000
802.650269	646.800000
802.685974	635.700000
802.721741	633.400000
802.757446	634.200000
802.793152	639.200000
802.828918	645.700000
802.864624	645.100000
802.900330	641.600000
802.936035	636.100000
802.971802	636.300000
803.007446	626.800000
803.043213	625.900000
803.078857	635.100000
803.114624	620.900000
803.150330	621.500000
803.185974	614.500000
803.221741	615.300000
803.257446	629.600000
803.293152	631.000000
803.328857	629.500000
803.364563	619.000000
803.400208	612.000000
803.435974	613.300000
803.471680	609.400000
803.507324	613.900000
803.543030	624.900000
803.578735	622.200000
803.614441	615.900000
803.650146	625.500000
803.685791	611.600000
803.721497	604.500000
803.757202	599.500000
803.792847	608.400000
803.828552	604.800000
803.864258	602.600000
803.899902	598.500000
803.935608	592.600000
803.971313	594.800000
804.006958	596.700000
804.042664	596.500000
804.078308	598.500000
804.113953	586.600000
804.149658	593.700000
804.185364	583.400000
804.221008	601.500000
804.256714	582.600000
804.292297	581.500000
804.328003	576.900000
804.363708	578.600000
804.399292	578.300000
804.434998	578.400000
804.470703	569.800000
804.506287	580.800000
804.541992	573.000000
804.577637	581.600000
804.613281	571.400000
804.648926	565.000000
804.684570	563.000000
804.720215	561.500000
804.755920	557.600000
804.791565	556.600000
804.827209	562.200000
804.862854	559.400000
804.898437	551.700000
804.934143	558.100000
804.969788	560.600000
805.005371	560.800000
805.041077	555.600000
805.076721	554.000000
805.112305	547.000000
805.147949	545.800000
805.183655	542.900000
805.219238	551.900000
805.254883	543.800000
805.290466	549.300000
805.326111	546.500000
805.361755	538.500000
805.397400	535.600000
805.432983	537.500000
805.468628	536.100000
805.504211	545.400000
805.539856	548.000000
805.575500	545.400000
805.611084	537.700000
805.646729	533.000000
805.682373	531.200000
805.717957	542.700000
805.753601	544.500000
805.789246	527.400000
805.824768	534.000000
805.860413	537.800000
805.895996	529.200000
805.931641	526.900000
805.967224	538.900000
806.002869	532.800000
806.038452	535.100000
806.074036	539.900000
806.109619	532.300000
806.145264	524.000000
806.180847	521.600000
806.216431	519.900000
806.252014	525.700000
806.287659	524.000000
806.323181	530.200000
806.358826	522.600000
806.394409	512.800000
806.429993	513.300000
806.465576	526.000000
806.501160	514.200000
806.536743	510.200000
806.572327	514.000000
806.607910	516.500000
806.643494	509.600000
806.679077	505.600000
806.714661	505.600000
806.750244	507.800000
806.785828	501.800000
806.821350	501.600000
806.856934	503.600000
806.892517	497.200000
806.928101	494.700000
806.963684	497.900000
806.999268	502.500000
807.034790	488.000000
807.070374	493.400000
807.105896	491.200000
807.141479	484.800000
807.177063	488.000000
807.212585	486.000000
807.248169	487.400000
807.283752	494.600000
807.319275	486.200000
807.354858	485.300000
807.390381	485.500000
807.425903	479.000000
807.461487	479.500000
807.497070	477.000000
807.532593	476.800000
807.568115	475.300000
807.603699	468.800000
807.639221	469.000000
807.674744	470.800000
807.710266	477.500000
807.745850	475.300000
807.781372	472.000000
807.816895	466.500000
807.852417	469.300000
807.888000	468.300000
807.923523	466.700000
807.959045	466.700000
807.994629	464.600000
808.030090	463.800000
808.065613	468.100000
808.101135	465.100000
808.136658	459.700000
808.172241	457.900000
808.207764	461.100000
808.243225	461.300000
808.278809	456.800000
808.314270	458.200000
808.349792	452.700000
808.385315	448.500000
808.420837	453.600000
808.456360	454.100000
808.491882	455.800000
808.527344	452.100000
808.562866	462.600000
808.598389	451.700000
808.633850	451.600000
808.669434	448.200000
808.704895	453.000000
808.740417	455.400000
808.775940	448.100000
808.811462	442.800000
808.846924	442.500000
808.882385	441.400000
808.917847	443.200000
808.953369	443.900000
808.988892	440.000000
809.024353	445.900000
809.059875	444.300000
809.095398	441.300000
809.130798	435.300000
809.166321	434.300000
809.201843	435.600000
809.237305	433.800000
809.272766	435.800000
809.308228	428.600000
809.343750	426.700000
809.379211	432.400000
809.414734	428.200000
809.450134	432.100000
809.485657	420.300000
809.521118	427.800000
809.556580	419.800000
809.592102	423.900000
809.627502	422.500000
809.663025	420.100000
809.698486	416.800000
809.733887	414.300000
809.769409	414.200000
809.804871	410.500000
809.840271	410.100000
809.875793	414.200000
809.911194	416.000000
809.946655	408.400000
809.982178	406.300000
810.017639	413.000000
810.053040	406.000000
810.088501	405.800000
810.123901	401.700000
810.159424	402.300000
810.194885	395.700000
810.230286	401.200000
810.265747	393.800000
810.301208	389.700000
810.336609	395.100000
810.372070	389.000000
810.407532	393.600000
810.442932	395.700000
810.478394	396.200000
810.513794	391.800000
810.549255	389.600000
810.584717	388.300000
810.620117	383.000000
810.655518	389.500000
810.690979	384.800000
810.726379	383.200000
810.761841	373.900000
810.797302	375.000000
810.832642	373.400000
810.868103	385.000000
810.903564	377.900000
810.938904	378.900000
810.974365	367.300000
811.009827	370.500000
811.045166	368.900000
811.080627	364.200000
811.115967	365.800000
811.151428	371.700000
811.186829	367.700000
811.222229	365.400000
811.257629	363.500000
811.293091	365.100000
811.328430	369.000000
811.363892	365.000000
811.399292	367.700000
811.434631	364.900000
811.470093	366.600000
811.505493	358.900000
811.540833	364.100000
811.576294	360.900000
811.611694	361.900000
811.647034	355.200000
811.682434	358.900000
811.717773	361.000000
811.753235	363.600000
811.788635	355.200000
811.823975	358.000000
811.859375	359.800000
811.894775	352.600000
811.930115	353.100000
811.965515	355.300000
812.000916	353.800000
812.036255	352.300000
812.071655	353.500000
812.106995	349.600000
812.142395	347.000000
812.177795	355.900000
812.213196	353.400000
812.248474	351.700000
812.283875	345.500000
812.319214	345.200000
812.354614	345.800000
812.390015	342.100000
812.425293	343.800000
812.460693	344.600000
812.496094	341.900000
812.531433	334.600000
812.566772	335.700000
812.602173	336.900000
812.637451	338.200000
812.672852	333.000000
812.708191	336.000000
812.743530	329.500000
812.778931	324.700000
812.814270	327.200000
812.849609	333.400000
812.884949	329.600000
812.920227	324.300000
812.955627	334.200000
812.990967	328.300000
813.026306	322.400000
813.061646	317.800000
813.096985	314.500000
813.132324	312.300000
813.167664	317.100000
813.203003	319.300000
813.238281	307.800000
813.273682	309.400000
813.308960	306.200000
813.344299	308.100000
813.379639	308.800000
813.414978	307.000000
813.450256	306.000000
813.485596	310.100000
813.520874	301.800000
813.556213	305.800000
813.591614	309.200000
813.626831	303.200000
813.662170	305.600000
813.697510	312.400000
813.732788	300.700000
813.768127	304.000000
813.803467	303.100000
813.838745	298.600000
813.874084	302.300000
813.909363	299.800000
813.944641	302.300000
813.979980	293.000000
814.015320	296.100000
814.050598	294.700000
814.085876	299.000000
814.121155	294.900000
814.156494	292.600000
814.191772	292.600000
814.227051	291.200000
814.262390	291.400000
814.297668	289.900000
814.332947	291.500000
814.368225	287.900000
814.403564	286.000000
814.438782	286.200000
814.474121	288.000000
814.509338	286.000000
814.544617	291.100000
814.579956	284.100000
814.615173	289.700000
814.650513	289.000000
814.685791	282.300000
814.721008	286.700000
814.756348	282.600000
814.791626	282.700000
814.826843	281.300000
814.862122	280.900000
814.897400	277.700000
814.932678	279.800000
814.967957	279.800000
815.003235	280.400000
815.038452	276.200000
815.073730	273.900000
815.108948	280.900000
815.144226	280.000000
815.179504	280.100000
815.214722	271.300000
815.250000	270.800000
815.285278	273.800000
815.320496	271.900000
815.355774	272.900000
815.391052	273.000000
815.426270	274.000000
815.461487	267.600000
815.496765	268.400000
815.531982	263.800000
815.567261	269.100000
815.602539	272.500000
815.637695	268.900000
815.672974	270.400000
815.708191	272.500000
815.743408	273.100000
815.778687	264.000000
815.813904	271.100000
815.849121	259.500000
815.884399	259.200000
815.919556	258.700000
815.954834	261.000000
815.990051	262.600000
816.025269	266.000000
816.060486	259.000000
816.095703	257.900000
816.130920	258.200000
816.166199	255.700000
816.201416	257.100000
816.236572	263.400000
816.271851	253.900000
816.307007	258.200000
816.342224	250.100000
816.377441	254.200000
816.412659	248.700000
816.447876	256.600000
816.483093	250.000000
816.518250	250.700000
816.553467	247.800000
816.588745	252.000000
816.623901	245.100000
816.659119	243.800000
816.694275	247.100000
816.729492	243.700000
816.764709	270.500000
816.799927	241.400000
816.835083	244.800000
816.870300	240.700000
816.905457	242.100000
816.940674	243.700000
816.975830	238.500000
817.010986	237.200000
817.046204	238.000000
817.081421	236.300000
817.116577	236.800000
817.151733	242.600000
817.186951	239.900000
817.222107	239.200000
817.257324	241.400000
817.292419	240.100000
817.327637	232.800000
817.362854	235.900000
817.398010	231.100000
817.433167	233.900000
817.468323	230.800000
817.503479	234.400000
817.538635	240.400000
817.573853	232.900000
817.608948	233.200000
817.644165	228.500000
817.679321	227.500000
817.714478	226.700000
817.749634	230.300000
817.784790	236.800000
817.819946	236.500000
817.855103	223.900000
817.890198	228.600000
817.925415	221.900000
817.960571	228.800000
817.995667	227.400000
818.030823	227.900000
818.066040	222.000000
818.101135	227.600000
818.136292	222.900000
818.171448	221.400000
818.206543	221.000000
818.241699	226.800000
818.276855	223.500000
818.311951	223.900000
818.347107	219.400000
818.382263	225.400000
818.417358	226.200000
818.452515	226.900000
818.487610	225.500000
818.522766	219.300000
818.557922	225.700000
818.593018	222.000000
818.628113	219.800000
818.663269	217.100000
818.698364	220.200000
818.733521	216.900000
818.768677	218.200000
818.803711	215.400000
818.838867	215.300000
818.874023	215.800000
818.909058	213.800000
818.944214	211.900000
818.979370	216.300000
819.014404	215.200000
819.049561	212.200000
819.084595	214.800000
819.119751	211.600000
819.154846	214.100000
819.189941	211.300000
819.225037	210.100000
819.260193	206.200000
819.295227	206.700000
819.330322	206.500000
819.365479	203.800000
819.400513	238.500000
819.435608	201.500000
819.470764	201.000000
819.505798	202.500000
819.540894	206.300000
819.575989	202.900000
819.611084	210.000000
819.646179	209.400000
819.681213	206.500000
819.716309	202.900000
819.751404	204.900000
819.786438	208.600000
819.821533	201.700000
819.856628	202.800000
819.891663	206.900000
819.926758	210.000000
819.961853	209.100000
819.996887	199.100000
820.031982	205.300000
820.067017	200.500000
820.102112	236.000000
820.137207	198.900000
820.172302	211.200000
820.207275	198.300000
820.242371	198.200000
820.277405	197.900000
820.312500	199.400000
820.347534	200.700000
820.382568	203.800000
820.417664	197.500000
820.452759	197.200000
820.487732	196.900000
820.522827	197.200000
820.557861	194.400000
820.592896	197.000000
820.627930	198.000000
820.662964	194.200000
820.698059	200.400000
820.733093	195.200000
820.768127	200.200000
820.803162	196.100000
820.838196	194.700000
820.873230	196.700000
820.908264	198.200000
820.943298	193.700000
820.978333	200.800000
821.013367	195.300000
821.048401	196.700000
821.083435	198.100000
821.118469	192.300000
821.153503	196.900000
821.188477	197.100000
821.223511	190.500000
821.258484	195.200000
821.293579	193.600000
821.328613	191.200000
821.363647	192.100000
821.398621	191.300000
821.433655	192.100000
821.468628	203.900000
821.503662	191.600000
821.538696	196.900000
821.573669	188.100000
821.608704	196.400000
821.643677	190.700000
821.678650	195.900000
821.713684	197.200000
821.748718	193.900000
821.783691	191.400000
821.818726	193.100000
821.853638	193.900000
821.888672	190.800000
821.923706	191.000000
821.958618	191.600000
821.993652	191.900000
822.028687	195.700000
822.063599	196.200000
822.098633	193.700000
822.133667	186.900000
822.168579	193.400000
822.203613	191.900000
822.238586	188.300000
822.273560	192.600000
822.308533	190.200000
822.343567	188.800000
822.378479	190.300000
822.413452	189.900000
822.448425	186.900000
822.483398	194.500000
822.518372	192.500000
822.553345	188.800000
822.588318	195.900000
822.623291	190.400000
822.658203	188.200000
822.693237	190.600000
822.728210	187.000000
822.763123	191.400000
822.798096	186.300000
822.833069	190.200000
822.867981	189.100000
822.902954	192.000000
822.937927	189.700000
822.972900	197.700000
823.007874	185.300000
823.042725	192.200000
823.077698	197.100000
823.112671	188.700000
823.147583	188.600000
823.182556	192.400000
823.217529	191.700000
823.252441	189.100000
823.287415	197.300000
823.322388	193.800000
823.357239	188.400000
823.392212	195.700000
823.427185	195.400000
823.462097	187.100000
823.497009	190.700000
823.531982	188.800000
823.566895	189.000000
823.601807	186.500000
823.636719	187.700000
823.671631	191.400000
823.706604	187.300000
823.741455	191.100000
823.776428	183.800000
823.811340	192.200000
823.846252	194.800000
823.881165	193.600000
823.916138	189.500000
823.950989	195.500000
823.985901	187.100000
824.020813	188.900000
824.055725	187.900000
824.090637	185.500000
824.125610	190.200000
824.160461	191.500000
824.195374	190.200000
824.230225	191.200000
824.265198	184.800000
824.300110	187.200000
824.334961	195.100000
824.369873	181.700000
824.404785	190.100000
824.439636	191.200000
824.474548	183.100000
824.509460	181.400000
824.544312	193.300000
824.579224	189.100000
824.614075	189.400000
824.648987	185.500000
824.683899	189.700000
824.718811	185.300000
824.753662	191.800000
824.788574	190.600000
824.823364	189.800000
824.858276	184.200000
824.893188	192.600000
824.928040	189.900000
824.962952	189.100000
824.997803	188.400000
825.032654	189.100000
825.067566	188.100000
825.102417	186.500000
825.137268	185.000000
825.172119	187.100000
825.206970	183.700000
825.241882	186.400000
825.276733	183.000000
825.311646	186.000000
825.346436	181.600000
825.381348	183.300000
825.416138	185.500000
825.450989	182.600000
825.485901	178.500000
825.520691	179.600000
825.555542	180.100000
825.590454	184.100000
825.625244	180.200000
825.660095	188.400000
825.695007	185.600000
825.729797	182.300000
825.764648	181.600000
825.799438	183.300000
825.834290	186.100000
825.869202	178.500000
825.903992	184.700000
825.938843	182.200000
825.973694	180.500000
826.008484	191.300000
826.043335	180.600000
826.078186	175.800000
826.112976	187.300000
826.147827	185.900000
826.182678	189.800000
826.217468	177.200000
826.252319	188.000000
826.287109	178.000000
826.321899	186.400000
826.356750	180.000000
826.391541	179.600000
826.426392	184.900000
826.461182	184.600000
826.495972	177.300000
826.530823	177.800000
826.565613	181.900000
826.600403	179.700000
826.635254	183.000000
826.670044	176.500000
826.704834	174.600000
826.739685	179.000000
826.774475	182.100000
826.809265	182.000000
826.844055	179.000000
826.878906	186.900000
826.913635	182.100000
826.948425	183.100000
826.983215	183.400000
827.018005	183.700000
827.052856	179.100000
827.087585	184.600000
827.122375	177.100000
827.157227	181.200000
827.191956	191.400000
827.226746	178.200000
827.261536	184.500000
827.296265	178.300000
827.331116	180.500000
827.365906	182.700000
827.400635	179.700000
827.435425	175.200000
827.470215	185.200000
827.504944	180.600000
827.539734	185.400000
827.574463	181.200000
827.609253	187.000000
827.644043	180.400000
827.678772	185.900000
827.713562	180.000000
827.748352	180.800000
827.783081	176.900000
827.817871	185.400000
827.852600	178.100000
827.887329	182.500000
827.922119	176.400000
827.956848	185.500000
827.991638	188.100000
828.026367	182.800000
828.061157	180.300000
828.095886	181.900000
828.130615	192.900000
828.165344	175.700000
828.200073	180.900000
828.234863	181.000000
828.269592	179.800000
828.304321	184.400000
828.339111	181.700000
828.373779	180.500000
828.408569	183.300000
828.443298	185.100000
828.477966	179.600000
828.512756	180.800000
828.547424	176.900000
828.582214	181.200000
828.616943	178.900000
828.651672	181.200000
828.686340	183.500000
828.721130	180.200000
828.755798	182.100000
828.790527	180.100000
828.825256	182.500000
828.859924	182.000000
828.894714	184.700000
828.929443	188.000000
828.964111	179.500000
828.998840	184.200000
829.033569	179.000000
829.068237	180.900000
829.102966	179.400000
829.137634	181.900000
829.172363	184.000000
829.207092	181.300000
829.241821	178.300000
829.276489	176.500000
829.311157	181.300000
829.345825	178.300000
829.380554	186.200000
829.415283	177.200000
829.449951	179.000000
829.484619	186.300000
829.519348	187.400000
829.554016	180.700000
829.588745	181.900000
829.623413	176.500000
829.658081	189.300000
829.692749	177.200000
829.727417	184.800000
829.762146	181.600000
829.796814	180.300000
829.831482	180.200000
829.866150	181.800000
829.900879	178.900000
829.935486	184.200000
829.970154	177.900000
830.004883	189.800000
830.039490	180.900000
830.074219	179.000000
830.108887	182.000000
830.143494	181.800000
830.178223	176.800000
830.212891	180.100000
830.247498	182.100000
830.282166	187.400000
830.316772	184.900000
830.351501	178.600000
830.386169	180.400000
830.420776	179.500000
830.455444	180.900000
830.490112	178.900000
830.524719	175.300000
830.559387	182.400000
830.594055	185.000000
830.628662	182.100000
830.663330	180.900000
830.697998	187.200000
830.732605	181.700000
830.767273	182.700000
830.801941	180.700000
830.836487	188.600000
830.871155	182.800000
830.905762	182.200000
830.940430	177.800000
830.975098	178.300000
831.009644	182.400000
831.044312	189.000000
831.078979	183.500000
831.113525	174.700000
831.148193	181.900000
831.182861	180.200000
831.217407	184.400000
831.252075	189.500000
831.286621	181.100000
831.321289	177.900000
831.355896	181.800000
831.390564	185.700000
831.425110	183.900000
831.459778	184.900000
831.494324	191.400000
831.528931	182.600000
831.563599	186.000000
831.598145	175.200000
831.632751	180.500000
831.667419	180.000000
831.701965	183.900000
831.736572	180.600000
831.771179	178.400000
831.805786	178.800000
831.840393	186.900000
831.874939	177.100000
831.909546	184.300000
831.944153	174.600000
831.978760	180.900000
832.013306	177.000000
832.047913	185.900000
832.082458	188.000000
832.117065	178.400000
832.151672	187.000000
832.186218	182.100000
832.220825	182.400000
832.255432	176.700000
832.289978	178.600000
832.324585	182.000000
832.359192	182.100000
832.393677	182.300000
832.428284	182.200000
832.462830	180.700000
832.497437	180.500000
832.531982	183.000000
832.566589	181.100000
832.601135	182.400000
832.635681	176.300000
832.670227	181.500000
832.704773	186.900000
832.739380	181.500000
832.773926	182.300000
832.808472	178.700000
832.843079	181.400000
832.877563	181.900000
832.912170	181.200000
832.946716	175.200000
832.981201	185.800000
833.015808	183.500000
833.050293	181.000000
833.084839	176.800000
833.119446	181.200000
833.153992	182.900000
833.188477	182.300000
833.223022	179.700000
833.257568	184.500000
833.292114	184.000000
833.326660	190.200000
833.361145	179.500000
833.395691	176.200000
833.430237	181.000000
833.464783	183.800000
833.499329	179.000000
833.533875	178.100000
833.568359	183.000000
833.602905	185.200000
833.637390	185.600000
833.671875	179.300000
833.706421	180.200000
833.740906	180.200000
833.775452	175.000000
833.809998	179.900000
833.844482	187.000000
833.879028	180.300000
833.913513	179.600000
833.947998	182.100000
833.982544	178.500000
834.017090	178.000000
834.051514	174.800000
834.086060	181.500000
834.120544	182.000000
834.155029	183.800000
834.189575	181.400000
834.223999	182.400000
834.258545	183.000000
834.293030	180.000000
834.327515	181.800000
834.362000	178.700000
834.396545	184.700000
834.430969	179.200000
834.465454	186.200000
834.500000	175.500000
834.534424	182.500000
834.568970	175.400000
834.603455	176.900000
834.637878	178.300000
834.672363	182.600000
834.706909	179.600000
834.741333	183.300000
834.775818	175.500000
834.810242	180.000000
834.844727	181.500000
834.879211	180.800000
834.913635	180.900000
834.948181	183.200000
834.982666	179.900000
835.017090	180.500000
835.051575	182.400000
835.086060	179.500000
835.120483	183.000000
835.154907	184.000000
835.189331	178.900000
835.223816	184.000000
835.258301	175.600000
835.292786	177.300000
835.327209	183.300000
835.361694	178.200000
835.396057	179.700000
835.430542	182.600000
835.465027	180.600000
835.499390	178.600000
835.533875	207.800000
835.568359	179.500000
835.602722	176.300000
835.637207	182.200000
835.671692	177.200000
835.706055	195.500000
835.740540	183.500000
835.774902	181.100000
835.809387	182.700000
835.843811	176.600000
835.878235	186.600000
835.912659	177.000000
835.947083	180.000000
835.981506	179.700000
836.015930	177.800000
836.050354	184.400000
836.084778	188.300000
836.119202	183.400000
836.153625	194.700000
836.187988	177.200000
836.222473	180.700000
836.256897	181.400000
836.291260	181.400000
836.325684	183.400000
836.360046	181.200000
836.394470	178.900000
836.428894	186.900000
836.463318	178.300000
836.497681	184.400000
836.532104	185.200000
836.566467	183.600000
836.600891	178.600000
836.635315	185.500000
836.669678	183.000000
836.704102	185.000000
836.738525	183.700000
836.772888	176.900000
836.807251	178.800000
836.841675	184.700000
836.876038	177.400000
836.910461	179.500000
836.944763	183.500000
836.979187	178.900000
837.013611	184.900000
837.047974	176.800000
837.082336	189.400000
837.116699	182.300000
837.151062	180.000000
837.185486	178.400000
837.219849	180.300000
837.254211	184.300000
837.288574	181.500000
837.322937	177.500000
837.357300	174.400000
837.391663	188.900000
837.426086	185.000000
837.460388	181.600000
837.494751	185.100000
837.529114	178.500000
837.563477	187.400000
837.597839	181.000000
837.632141	182.200000
837.666565	179.100000
837.700928	184.200000
837.735229	183.100000
837.769592	184.900000
837.803955	184.600000
837.838257	181.000000
837.872620	180.000000
837.906982	187.300000
837.941284	179.900000
837.975647	184.500000
838.010010	184.700000
838.044312	180.600000
838.078674	178.800000
838.112976	183.400000
838.147339	182.600000
838.181702	182.000000
838.216003	186.400000
838.250366	184.000000
838.284668	182.800000
838.318970	176.400000
838.353333	179.500000
838.387634	180.000000
838.421936	180.600000
838.456299	182.500000
838.490601	185.000000
838.524902	184.700000
838.559265	184.200000
838.593567	185.400000
838.627869	177.400000
838.662170	182.300000
838.696472	177.500000
838.730774	178.000000
838.765137	183.800000
838.799377	172.600000
838.833740	181.400000
838.868042	185.500000
838.902283	177.200000
838.936646	186.300000
838.970947	182.600000
839.005188	186.300000
839.039551	177.100000
839.073792	185.800000
839.108093	181.200000
839.142395	187.400000
839.176697	177.700000
839.210937	182.900000
839.245300	189.600000
839.279541	177.300000
839.313843	182.100000
839.348145	183.000000
839.382385	185.900000
839.416687	183.700000
839.450989	184.700000
839.485229	180.500000
839.519531	179.800000
839.553833	185.200000
839.588013	182.400000
839.622314	182.400000
839.656555	185.200000
839.690857	180.300000
839.725159	178.400000
839.759460	180.300000
839.793640	180.600000
839.827942	180.400000
839.862183	179.600000
839.896423	182.400000
839.930725	191.500000
839.964966	186.500000
839.999207	185.900000
840.033508	188.000000
840.067688	180.800000
840.101990	186.300000
840.136230	182.000000
840.170471	186.200000
840.204712	179.000000
840.238953	178.100000
840.273193	182.700000
840.307434	182.900000
840.341736	179.100000
840.375916	176.400000
840.410217	179.900000
840.444397	183.800000
840.478638	183.700000
840.512878	186.300000
840.547119	182.300000
840.581360	184.100000
840.615601	188.300000
840.649780	189.400000
840.684021	179.800000
840.718262	187.900000
840.752441	187.300000
840.786682	183.500000
840.820862	182.900000
840.855103	188.500000
840.889343	181.700000
840.923584	186.900000
840.957764	183.700000
840.992004	184.200000
841.026184	191.300000
841.060425	183.300000
841.094666	178.800000
841.128845	184.800000
841.163025	182.100000
841.197266	183.700000
841.231445	180.600000
841.265686	184.900000
841.299866	177.900000
841.334045	188.100000
841.368286	179.700000
841.402405	188.300000
841.436646	183.300000
841.470825	181.100000
841.505005	181.500000
841.539185	179.100000
841.573425	179.400000
841.607544	182.700000
841.641785	181.400000
841.675964	179.500000
841.710144	181.300000
841.744324	180.000000
841.778503	180.800000
841.812683	179.600000
841.846863	187.200000
841.881042	188.100000
841.915222	180.000000
841.949402	191.900000
841.983521	176.000000
842.017700	181.200000
842.051880	182.200000
842.086060	184.700000
842.120239	182.200000
842.154419	180.700000
842.188538	182.600000
842.222717	179.900000
842.256897	188.500000
842.291016	181.000000
842.325195	184.700000
842.359375	190.800000
842.393494	188.400000
842.427673	182.400000
842.461853	184.500000
842.495911	188.400000
842.530090	184.300000
842.564209	180.000000
842.598389	184.500000
842.632568	181.000000
842.666626	185.700000
842.700806	179.700000
842.734985	181.700000
842.769043	184.100000
842.803223	183.400000
842.837402	179.700000
842.871460	181.300000
842.905640	189.300000
842.939697	179.900000
842.973877	181.300000
843.007996	188.300000
843.042175	189.600000
843.076233	180.200000
843.110413	184.000000
843.144470	188.400000
843.178589	186.100000
843.212769	181.000000
843.246826	184.500000
843.280945	179.800000
843.315125	181.300000
843.349182	180.400000
843.383301	185.800000
843.417419	192.200000
843.451538	182.700000
843.485657	179.400000
843.519714	182.200000
843.553833	183.400000
843.587952	180.800000
843.622070	179.600000
843.656128	184.700000
843.690247	179.200000
843.724304	182.400000
843.758423	183.600000
843.792542	182.000000
843.826599	181.400000
843.860718	180.700000
843.894836	178.700000
843.928894	182.000000
843.963013	182.700000
843.997070	180.300000
844.031128	178.100000
844.065247	186.300000
844.099304	185.300000
844.133362	183.900000
844.167480	183.300000
844.201599	187.900000
844.235596	183.600000
844.269714	184.800000
844.303711	181.700000
844.337830	177.800000
844.371948	183.500000
844.405945	183.800000
844.440063	178.300000
844.474121	193.400000
844.508118	179.200000
844.542236	183.100000
844.576294	180.400000
844.610352	178.500000
844.644409	180.700000
844.678406	177.600000
844.712524	184.300000
844.746582	187.800000
844.780640	180.700000
844.814636	182.900000
844.848755	190.300000
844.882751	180.800000
844.916809	184.500000
844.950867	184.600000
844.984863	188.500000
845.018921	181.100000
845.052979	179.400000
845.086975	182.700000
845.121033	177.300000
845.155090	179.600000
845.189087	187.000000
845.223145	181.800000
845.257141	184.700000
845.291199	184.600000
845.325256	186.600000
845.359253	182.900000
845.393250	194.500000
845.427307	180.800000
845.461304	184.300000
845.495361	183.400000
845.529358	189.300000
845.563354	180.500000
845.597412	179.800000
845.631409	188.100000
845.665405	187.500000
845.699463	184.800000
845.733459	182.200000
845.767456	189.300000
845.801453	182.400000
845.835449	185.500000
845.869446	186.000000
845.903503	183.900000
845.937439	180.200000
845.971497	187.700000
846.005493	178.900000
846.039429	185.400000
846.073486	191.700000
846.107483	179.700000
846.141418	182.100000
846.175476	182.900000
846.209473	188.700000
846.243408	178.000000
846.277405	183.300000
846.311401	180.000000
846.345337	183.000000
846.379395	186.200000
846.413330	180.800000
846.447327	190.300000
846.481323	178.600000
846.515259	178.700000
846.549255	180.900000
846.583252	184.100000
846.617187	180.700000
846.651184	183.300000
846.685120	180.800000
846.719055	188.900000
846.753052	185.700000
846.786987	186.000000
846.820984	177.900000
846.854980	188.900000
846.888916	180.100000
846.922852	184.200000
846.956848	186.200000
846.990723	181.000000
847.024719	183.800000
847.058716	183.000000
847.092590	187.500000
847.126587	185.400000
847.160522	181.100000
847.194458	186.500000
847.228455	179.300000
847.262390	179.900000
847.296265	181.300000
847.330261	185.400000
847.364136	179.500000
847.398132	183.100000
847.432068	184.300000
847.466003	182.200000
847.499939	180.800000
847.533875	185.700000
847.567749	179.300000
847.601746	182.300000
847.635681	182.400000
847.669556	177.300000
847.703491	186.300000
847.737427	193.800000
847.771301	177.800000
847.805237	186.700000
847.839233	182.000000
847.873108	182.100000
847.907043	180.100000
847.940918	189.300000
847.974854	181.900000
848.008789	186.700000
848.042664	181.200000
848.076538	183.400000
848.110474	181.300000
848.144348	184.300000
848.178284	177.500000
848.212219	184.100000
848.246094	181.900000
848.279968	184.500000
848.313904	184.100000
848.347778	182.700000
848.381653	182.300000
848.415588	180.100000
848.449463	180.500000
848.483337	185.400000
848.517212	190.100000
848.551086	183.300000
848.585022	180.100000
848.618835	190.200000
848.652771	182.000000
848.686646	180.200000
848.720520	187.900000
848.754395	181.800000
848.788330	186.300000
848.822144	186.000000
848.856018	182.000000
848.889954	188.700000
848.923767	182.300000
848.957642	179.800000
848.991577	185.600000
849.025391	182.100000
849.059265	183.000000
849.093079	179.000000
849.126953	180.600000
849.160828	186.400000
849.194641	184.400000
849.228577	181.200000
849.262451	182.600000
849.296265	181.500000
849.330139	181.300000
849.364014	181.500000
849.397827	186.100000
849.431702	182.700000
849.465515	186.100000
849.499329	174.700000
849.533203	178.800000
849.567078	176.600000
849.600891	184.900000
849.634766	182.200000
849.668518	186.600000
849.702393	182.200000
849.736267	178.500000
849.770020	189.000000
849.803894	185.400000
849.837769	184.200000
849.871521	183.800000
849.905396	185.600000
849.939270	181.200000
849.973022	181.600000
850.006897	186.300000
850.040710	185.100000
850.074524	186.400000
850.108337	182.700000
850.142151	186.700000
850.175964	187.700000
850.209778	182.000000
850.243530	176.000000
850.277405	185.000000
850.311218	183.500000
850.344971	181.200000
850.378845	189.800000
850.412659	179.700000
850.446411	186.200000
850.480225	181.400000
850.514038	186.900000
850.547791	185.200000
850.581665	183.700000
850.615417	179.100000
850.649231	184.500000
850.683044	180.300000
850.716858	182.800000
850.750610	183.400000
850.784424	186.400000
850.818176	179.500000
850.851929	183.900000
850.885742	179.100000
850.919495	183.500000
850.953308	187.600000
850.987122	189.700000
851.020874	177.600000
851.054626	178.700000
851.088440	183.800000
851.122192	186.500000
851.156006	182.700000
851.189697	182.600000
851.223511	177.900000
851.257263	187.700000
851.291077	184.500000
851.324829	181.800000
851.358582	181.600000
851.392334	181.500000
851.426086	179.900000
851.459900	189.700000
851.493591	181.900000
851.527344	183.000000
851.561157	183.000000
851.594849	184.300000
851.628662	182.600000
851.662415	189.600000
851.696106	183.400000
851.729858	186.300000
851.763611	178.100000
851.797363	183.300000
851.831116	179.900000
851.864868	184.000000
851.898560	185.800000
851.932312	182.000000
851.966064	185.500000
851.999817	182.400000
852.033569	182.200000
852.067261	186.500000
852.101013	181.400000
852.134766	181.200000
852.168457	176.700000
852.202209	186.200000
852.235901	180.500000
852.269592	183.900000
852.303345	189.300000
852.337036	183.800000
852.370789	183.100000
852.404541	184.900000
852.438171	179.400000
852.471924	182.400000
852.505676	179.700000
852.539307	183.000000
852.573059	182.100000
852.606812	180.000000
852.640442	181.700000
852.674194	187.500000
852.707886	189.800000
852.741577	186.900000
852.775269	180.300000
852.809021	182.500000
852.842651	186.100000
852.876404	187.900000
852.910034	184.100000
852.943787	186.600000
852.977478	185.100000
853.011108	179.700000
853.044861	180.300000
853.078552	187.700000
853.112183	185.400000
853.145874	183.300000
853.179626	177.600000
853.213257	183.400000
853.246948	180.000000
853.280640	189.800000
853.314270	183.100000
853.347961	188.500000
853.381653	185.700000
853.415283	189.000000
853.448975	181.100000
853.482605	184.500000
853.516296	182.500000
853.549988	179.000000
853.583618	184.700000
853.617310	185.800000
853.651001	183.000000
853.684631	182.200000
853.718323	180.000000
853.751953	188.400000
853.785583	175.900000
853.819275	185.900000
853.852966	184.100000
853.886536	179.300000
853.920227	177.800000
853.953918	187.200000
853.987488	181.900000
854.021179	188.200000
854.054749	187.900000
854.088440	186.600000
854.122131	179.200000
854.155701	185.000000
854.189331	179.800000
854.223022	185.500000
854.256592	182.600000
854.290283	180.900000
854.323914	184.300000
854.357483	183.700000
854.391174	185.300000
854.424744	189.700000
854.458374	183.500000
854.492065	192.900000
854.525696	181.400000
854.559265	188.200000
854.592896	190.900000
854.626465	183.300000
854.660095	182.200000
854.693787	185.300000
854.727356	182.200000
854.760986	186.400000
854.794617	185.900000
854.828186	179.700000
854.861816	184.000000
854.895447	184.600000
854.929016	183.700000
854.962585	184.800000
854.996155	191.000000
855.029785	184.500000
855.063416	184.900000
855.097046	184.900000
855.130615	179.800000
855.164185	186.800000
855.197754	183.600000
855.231384	184.500000
855.264954	181.800000
855.298523	186.000000
855.332153	184.600000
855.365723	187.800000
855.399292	181.400000
855.432922	181.600000
855.466492	185.900000
855.500061	179.100000
855.533630	182.300000
855.567200	184.800000
855.600769	188.400000
855.634338	186.600000
855.667969	184.700000
855.701477	179.900000
855.735046	180.300000
855.768616	175.400000
855.802185	185.100000
855.835754	192.500000
855.869324	177.600000
855.902893	182.200000
855.936401	188.200000
855.969971	182.500000
856.003540	177.300000
856.037109	185.100000
856.070618	181.000000
856.104187	180.200000
856.137695	181.000000
856.171265	175.300000
856.204834	184.000000
856.238403	186.200000
856.271912	181.100000
856.305481	184.800000
856.338989	178.800000
856.372559	185.600000
856.406128	184.800000
856.439636	186.400000
856.473145	182.200000
856.506653	188.600000
856.540222	181.900000
856.573792	187.200000
856.607300	186.200000
856.640808	179.300000
856.674377	183.100000
856.707825	216.200000
856.741394	187.100000
856.774902	180.300000
856.808472	176.900000
856.841980	187.100000
856.875488	187.100000
856.908936	178.900000
856.942505	181.200000
856.976013	183.100000
857.009521	180.500000
857.043030	184.800000
857.076477	180.700000
857.110046	189.300000
857.143555	183.100000
857.177063	185.700000
857.210571	181.400000
857.244080	179.600000
857.277527	182.700000
857.311035	184.600000
857.344543	186.300000
857.378052	183.500000
857.411499	187.100000
857.445068	189.200000
857.478516	180.800000
857.512024	180.100000
857.545532	181.000000
857.578979	185.100000
857.612427	183.500000
857.645874	181.200000
857.679382	182.400000
857.712891	186.700000
857.746399	182.300000
857.779846	186.300000
857.813354	186.800000
857.846741	183.300000
857.880249	179.300000
857.913757	185.400000
857.947266	183.400000
857.980652	186.500000
858.014160	183.700000
858.047546	181.800000
858.081055	182.300000
858.114563	192.900000
858.147949	179.100000
858.181458	184.800000
858.214844	183.300000
858.248352	176.900000
858.281799	186.300000
858.315308	192.700000
858.348694	186.300000
858.382141	189.100000
858.415588	187.500000
858.449036	185.900000
858.482483	185.800000
858.515930	180.300000
858.549377	184.100000
858.582825	188.200000
858.616211	187.800000
858.649658	183.600000
858.683105	180.400000
858.716553	181.300000
858.750000	181.300000
858.783386	180.200000
858.816833	179.200000
858.850281	183.200000
858.883728	183.900000
858.917114	184.000000
858.950562	190.400000
858.983948	187.000000
859.017395	187.400000
859.050781	181.100000
859.084167	180.500000
859.117615	180.200000
859.151062	186.200000
859.184448	179.800000
859.217834	182.000000
859.251282	180.700000
859.284668	179.400000
859.318054	177.100000
859.351440	182.600000
859.384888	189.000000
859.418274	179.100000
859.451721	177.100000
859.485046	183.500000
859.518494	184.700000
859.551819	179.900000
859.585266	185.600000
859.618652	187.400000
859.652039	180.300000
859.685425	180.200000
859.718811	179.600000
859.752197	175.700000
859.785583	188.000000
859.819031	189.400000
859.852356	184.800000
859.885742	180.100000
859.919067	184.200000
859.952454	180.400000
859.985901	187.200000
860.019287	181.200000
860.052612	0.000000
860.085999	0.000000
860.119324	0.000000
860.152710	0.000000
860.186096	0.000000
860.219421	0.000000
860.252808	0.000000
860.286133	0.000000
860.319519	0.000000
860.352905	0.000000
860.386292	0.000000
860.419617	0.000000
860.452942	0.000000
860.486267	0.000000
860.519653	0.000000
860.553040	0.000000
860.586365	0.000000
860.619690	0.000000
860.653076	0.000000
860.686340	0.000000
860.719727	0.000000
860.753113	0.000000
860.786377	0.000000
860.819763	0.000000
860.853027	0.000000
860.886414	0.000000
860.919739	0.000000
860.953125	0.000000
860.986389	0.000000
861.019714	0.000000
861.053040	0.000000
861.086365	0.000000
861.119690	0.000000
861.153076	0.000000
861.186340	0.000000
861.219666	0.000000
861.252930	0.000000
861.286316	0.000000
861.319641	0.000000
861.352905	0.000000
861.386230	0.000000
861.419495	0.000000
861.452820	0.000000
861.486145	0.000000
861.519470	0.000000
861.552734	0.000000
861.586060	0.000000
861.619324	0.000000
861.652649	0.000000
861.685974	0.000000
861.719238	0.000000
861.752563	0.000000
861.785828	0.000000
861.819092	0.000000
861.852417	0.000000
861.885742	0.000000
861.918945	0.000000
861.952271	0.000000
861.985535	0.000000
862.018799	0.000000
862.052124	0.000000
862.085449	0.000000
862.118652	0.000000
862.151978	0.000000
862.185181	0.000000
862.218506	0.000000
862.251770	0.000000
862.285034	0.000000
862.318298	0.000000
862.351562	0.000000
862.384827	0.000000
862.418091	0.000000
862.451355	0.000000
862.484619	0.000000
862.517883	0.000000
862.551086	0.000000
862.584351	0.000000
862.617676	0.000000
862.650940	0.000000
862.684143	0.000000
862.717407	0.000000
862.750610	0.000000
862.783875	0.000000
862.817139	0.000000
862.850342	0.000000
862.883606	0.000000
862.916870	0.000000
862.950073	0.000000
862.983337	0.000000
863.016602	0.000000
863.049805	0.000000
863.083069	0.000000
863.116211	0.000000
863.149475	0.000000
863.182739	0.000000
863.216003	0.000000
863.249146	0.000000
863.282410	0.000000
863.315613	0.000000
863.348816	0.000000
863.382080	0.000000
863.415222	0.000000
863.448486	0.000000
863.481689	0.000000
863.514893	0.000000
863.548157	0.000000
863.581360	0.000000
863.614502	0.000000
863.647766	0.000000
863.680908	0.000000
863.714172	0.000000
863.747375	0.000000
863.780579	0.000000
863.813721	0.000000
863.846985	0.000000
863.880127	0.000000
863.913330	0.000000
863.946533	0.000000
863.979675	0.000000
864.012939	0.000000
