Model Number: SPM-001-M   
Serial Number: 10090201
Firmware Version: 004.17.6
Exposure Time: 300000.000000us
Data Taken on: 28-01-2021 09:59:11.299
Wavelength	Amplitude
733.770752	0.000000
733.808716	0.000000
733.846619	0.000000
733.884583	0.000000
733.922546	0.000000
733.960449	0.000000
733.998413	0.000000
734.036377	0.000000
734.074219	0.000000
734.112183	0.000000
734.150085	0.000000
734.188049	0.000000
734.226013	0.000000
734.263916	0.000000
734.301819	0.000000
734.339783	0.000000
734.377686	0.000000
734.415588	0.000000
734.453552	0.000000
734.491455	0.000000
734.529419	0.000000
734.567322	0.000000
734.605225	0.000000
734.643127	0.000000
734.681091	0.000000
734.718994	0.000000
734.756897	0.000000
734.794800	0.000000
734.832703	0.000000
734.870667	0.000000
734.908508	0.000000
734.946472	0.000000
734.984375	0.000000
735.022278	0.000000
735.060181	0.000000
735.098083	0.000000
735.135986	0.000000
735.173889	0.000000
735.211792	0.000000
735.249695	0.000000
735.287598	0.000000
735.325439	0.000000
735.363403	0.000000
735.401306	0.000000
735.439148	0.000000
735.477051	0.000000
735.515015	0.000000
735.552856	0.000000
735.590759	0.000000
735.628662	0.000000
735.666504	0.000000
735.704407	0.000000
735.742310	0.000000
735.780212	0.000000
735.818115	0.000000
735.856018	0.000000
735.893860	0.000000
735.931763	0.000000
735.969604	0.000000
736.007507	0.000000
736.045410	0.000000
736.083252	0.000000
736.121094	0.000000
736.158997	0.000000
736.196838	0.000000
736.234741	0.000000
736.272644	0.000000
736.310486	0.000000
736.348389	0.000000
736.386230	0.000000
736.424072	0.000000
736.461975	0.000000
736.499878	0.000000
736.537720	0.000000
736.575562	0.000000
736.613403	0.000000
736.651306	0.000000
736.689148	0.000000
736.726990	0.000000
736.764893	0.000000
736.802734	0.000000
736.840576	0.000000
736.878418	0.000000
736.916321	0.000000
736.954102	0.000000
736.992004	0.000000
737.029846	0.000000
737.067688	0.000000
737.105530	0.000000
737.143372	0.000000
737.181213	0.000000
737.219116	0.000000
737.256897	0.000000
737.294739	0.000000
737.332642	0.000000
737.370422	0.000000
737.408325	0.000000
737.446167	0.000000
737.483948	0.000000
737.521790	0.000000
737.559692	0.000000
737.597473	0.000000
737.635315	0.000000
737.673157	0.000000
737.710999	0.000000
737.748840	0.000000
737.786621	0.000000
737.824463	0.000000
737.862305	0.000000
737.900085	0.000000
737.937927	0.000000
737.975769	0.000000
738.013550	0.000000
738.051392	0.000000
738.089233	0.000000
738.127014	0.000000
738.164856	0.000000
738.202698	0.000000
738.240479	0.000000
738.278320	0.000000
738.316162	0.000000
738.353943	0.000000
738.391785	0.000000
738.429565	0.000000
738.467407	0.000000
738.505188	0.000000
738.542969	0.000000
738.580811	0.000000
738.618652	0.000000
738.656372	0.000000
738.694214	0.000000
738.732056	0.000000
738.769836	0.000000
738.807617	0.000000
738.845459	0.000000
738.883240	0.000000
738.921021	0.000000
738.958862	0.000000
738.996582	0.000000
739.034424	0.000000
739.072205	0.000000
739.109985	0.000000
739.147827	0.000000
739.185547	0.000000
739.223389	0.000000
739.261169	0.000000
739.298889	0.000000
739.336731	0.000000
739.374512	0.000000
739.412292	0.000000
739.450073	0.000000
739.487854	0.000000
739.525635	0.000000
739.563416	0.000000
739.601135	0.000000
739.638977	0.000000
739.676758	0.000000
739.714478	0.000000
739.752258	0.000000
739.790100	0.000000
739.827820	0.000000
739.865601	0.000000
739.903381	0.000000
739.941101	0.000000
739.978882	182.400000
740.016724	180.100000
740.054443	182.300000
740.092224	180.100000
740.130005	178.900000
740.167725	178.000000
740.205505	177.800000
740.243225	184.900000
740.281006	180.500000
740.318787	174.900000
740.356506	186.000000
740.394287	183.200000
740.432068	178.200000
740.469727	177.000000
740.507507	182.700000
740.545288	180.500000
740.583008	180.800000
740.620789	179.400000
740.658569	174.700000
740.696228	180.800000
740.734009	183.500000
740.771790	173.800000
740.809509	183.300000
740.847229	175.800000
740.884949	178.600000
740.922729	176.300000
740.960449	177.700000
740.998169	176.600000
741.035950	177.800000
741.073669	180.500000
741.111389	181.800000
741.149170	187.700000
741.186890	185.200000
741.224609	182.000000
741.262329	181.300000
741.300110	187.900000
741.337769	177.700000
741.375549	175.900000
741.413208	182.100000
741.450989	177.800000
741.488708	178.300000
741.526367	178.200000
741.564148	183.000000
741.601868	184.100000
741.639526	180.500000
741.677307	182.500000
741.715027	181.900000
741.752686	178.300000
741.790466	185.700000
741.828186	181.300000
741.865845	176.800000
741.903564	175.700000
741.941345	179.800000
741.979004	179.200000
742.016724	183.800000
742.054382	180.700000
742.092102	183.400000
742.129822	176.600000
742.167480	178.000000
742.205200	179.600000
742.242920	181.500000
742.280640	183.600000
742.318359	177.400000
742.356079	179.400000
742.393738	183.100000
742.431396	179.700000
742.469116	184.100000
742.506775	173.800000
742.544495	183.000000
742.582214	183.200000
742.619873	179.300000
742.657593	184.600000
742.695251	183.600000
742.732971	179.900000
742.770630	180.200000
742.808289	179.800000
742.846008	179.800000
742.883728	181.500000
742.921326	181.300000
742.959045	179.300000
742.996765	179.900000
743.034424	180.600000
743.072083	178.300000
743.109802	179.800000
743.147400	176.200000
743.185120	179.900000
743.222839	180.400000
743.260437	185.200000
743.298157	182.600000
743.335754	174.600000
743.373474	178.900000
743.411133	175.100000
743.448792	181.400000
743.486450	181.500000
743.524170	174.800000
743.561768	179.300000
743.599487	184.200000
743.637146	187.700000
743.674744	180.100000
743.712463	180.000000
743.750122	181.500000
743.787720	181.800000
743.825439	177.800000
743.863037	178.100000
743.900696	180.600000
743.938416	205.600000
743.976013	180.000000
744.013672	185.700000
744.051331	183.500000
744.088928	186.400000
744.126587	184.700000
744.164307	181.900000
744.201904	179.300000
744.239563	181.800000
744.277222	183.500000
744.314819	180.100000
744.352478	185.300000
744.390137	181.300000
744.427734	181.300000
744.465393	178.900000
744.502991	178.000000
744.540649	181.900000
744.578308	180.100000
744.615906	177.400000
744.653564	173.500000
744.691223	182.500000
744.728821	175.900000
744.766418	181.000000
744.804077	181.800000
744.841675	179.500000
744.879333	177.200000
744.916992	181.200000
744.954529	179.500000
744.992187	184.300000
745.029785	179.700000
745.067444	177.500000
745.105042	180.900000
745.142639	182.600000
745.180298	187.800000
745.217896	179.300000
745.255493	179.700000
745.293152	183.600000
745.330750	184.100000
745.368347	187.100000
745.405945	183.200000
745.443604	182.100000
745.481140	183.100000
745.518799	182.000000
745.556396	182.800000
745.593994	183.500000
745.631592	180.500000
745.669189	176.500000
745.706787	181.100000
745.744385	178.900000
745.781982	182.300000
745.819580	178.000000
745.857178	179.600000
745.894775	181.200000
745.932373	181.700000
745.969971	181.200000
746.007568	174.800000
746.045166	185.500000
746.082764	184.700000
746.120300	181.800000
746.157898	182.600000
746.195557	180.600000
746.233093	176.400000
746.270691	180.900000
746.308228	181.100000
746.345825	183.200000
746.383423	182.800000
746.420959	178.400000
746.458557	179.900000
746.496155	178.900000
746.533691	180.600000
746.571289	175.900000
746.608887	180.700000
746.646423	182.000000
746.684021	181.300000
746.721619	178.700000
746.759155	181.400000
746.796753	177.100000
746.834351	177.600000
746.871826	178.700000
746.909424	185.500000
746.946960	180.800000
746.984558	179.100000
747.022156	178.400000
747.059631	187.900000
747.097229	183.200000
747.134827	179.800000
747.172363	184.600000
747.209900	184.000000
747.247498	177.500000
747.285034	184.800000
747.322571	185.900000
747.360168	179.800000
747.397644	176.200000
747.435242	183.000000
747.472778	184.900000
747.510315	179.800000
747.547913	179.300000
747.585388	185.900000
747.622925	179.300000
747.660522	175.500000
747.697998	178.100000
747.735596	179.100000
747.773132	178.100000
747.810669	180.500000
747.848206	182.300000
747.885742	178.100000
747.923279	176.000000
747.960815	181.800000
747.998352	181.100000
748.035889	183.100000
748.073425	182.600000
748.110901	178.200000
748.148437	177.000000
748.185974	179.900000
748.223511	186.800000
748.261047	182.100000
748.298584	181.300000
748.336060	180.700000
748.373596	183.800000
748.411133	206.000000
748.448608	178.700000
748.486145	182.700000
748.523682	185.300000
748.561218	187.200000
748.598755	182.400000
748.636292	182.500000
748.673706	179.600000
748.711243	186.600000
748.748718	181.300000
748.786255	181.200000
748.823792	180.000000
748.861267	176.900000
748.898804	182.000000
748.936340	181.200000
748.973816	178.900000
749.011292	184.600000
749.048828	180.500000
749.086304	182.500000
749.123840	187.800000
749.161316	177.900000
749.198792	186.700000
749.236328	184.200000
749.273743	180.800000
749.311279	179.800000
749.348816	183.300000
749.386230	179.700000
749.423767	173.000000
749.461304	183.400000
749.498718	180.000000
749.536255	185.700000
749.573730	187.900000
749.611206	185.100000
749.648682	179.200000
749.686218	180.400000
749.723633	182.000000
749.761169	178.900000
749.798645	178.500000
749.836060	179.500000
749.873596	177.900000
749.911011	182.700000
749.948547	184.300000
749.986023	181.700000
750.023437	180.300000
750.060913	177.900000
750.098450	176.200000
750.135864	179.100000
750.173340	180.000000
750.210815	185.600000
750.248291	176.900000
750.285767	181.700000
750.323242	183.600000
750.360657	182.200000
750.398132	177.500000
750.435608	182.300000
750.473022	177.400000
750.510498	178.500000
750.547974	177.600000
750.585449	180.400000
750.622925	173.600000
750.660339	189.600000
750.697815	182.100000
750.735291	180.000000
750.772644	179.600000
750.810120	180.900000
750.847595	182.200000
750.885010	177.600000
750.922485	185.700000
750.959961	180.100000
750.997375	185.000000
751.034851	184.100000
751.072266	183.300000
751.109680	175.600000
751.147156	184.700000
751.184570	183.000000
751.221985	180.300000
751.259460	176.100000
751.296875	180.400000
751.334290	180.000000
751.371765	183.300000
751.409180	184.600000
751.446594	185.600000
751.484070	182.600000
751.521423	181.200000
751.558899	180.100000
751.596375	188.400000
751.633728	184.600000
751.671204	186.900000
751.708618	179.700000
751.746033	181.800000
751.783447	177.100000
751.820801	178.400000
751.858276	184.100000
751.895691	180.800000
751.933105	177.900000
751.970520	178.900000
752.007935	180.800000
752.045349	183.000000
752.082764	181.400000
752.120178	179.300000
752.157532	178.300000
752.195007	179.000000
752.232422	181.900000
752.269775	184.600000
752.307190	183.500000
752.344543	177.100000
752.382019	180.800000
752.419434	179.500000
752.456787	182.000000
752.494202	184.600000
752.531616	182.200000
752.568970	182.500000
752.606384	182.900000
752.643799	183.300000
752.681152	185.900000
752.718567	181.900000
752.755981	175.400000
752.793335	182.900000
752.830750	175.000000
752.868164	185.000000
752.905518	178.500000
752.942932	184.000000
752.980225	178.000000
753.017639	182.900000
753.055054	182.900000
753.092407	182.500000
753.129822	185.100000
753.167175	187.200000
753.204529	181.500000
753.241943	177.600000
753.279358	177.200000
753.316650	183.300000
753.354065	181.500000
753.391479	183.900000
753.428772	185.900000
753.466187	181.400000
753.503479	177.500000
753.540894	180.200000
753.578308	178.200000
753.615601	176.600000
753.653015	180.800000
753.690369	179.700000
753.727722	178.100000
753.765076	176.000000
753.802490	177.300000
753.839783	175.700000
753.877136	179.500000
753.914551	189.400000
753.951843	178.600000
753.989258	182.500000
754.026611	181.000000
754.063904	182.900000
754.101257	177.600000
754.138611	175.600000
754.175964	182.300000
754.213318	188.200000
754.250610	175.100000
754.288025	180.100000
754.325378	178.000000
754.362671	183.100000
754.400024	179.800000
754.437378	188.900000
754.474670	185.900000
754.512085	179.300000
754.549438	182.300000
754.586731	177.700000
754.624084	180.800000
754.661438	177.800000
754.698730	187.800000
754.736084	179.900000
754.773376	180.100000
754.810730	183.100000
754.848083	180.500000
754.885315	184.400000
754.922668	177.500000
754.960022	177.700000
754.997314	184.000000
755.034668	180.100000
755.072021	181.700000
755.109253	180.500000
755.146606	185.600000
755.183960	180.100000
755.221252	186.200000
755.258545	184.200000
755.295898	185.700000
755.333191	186.200000
755.370544	182.700000
755.407776	181.900000
755.445129	182.100000
755.482422	184.700000
755.519714	180.500000
755.557068	176.600000
755.594360	175.600000
755.631653	184.500000
755.668945	185.900000
755.706299	182.900000
755.743530	191.200000
755.780884	186.900000
755.818176	185.000000
755.855408	186.200000
755.892761	183.300000
755.930054	182.200000
755.967346	185.000000
756.004639	184.200000
756.041870	181.400000
756.079224	186.700000
756.116516	180.500000
756.153748	184.700000
756.191040	191.100000
756.228394	185.200000
756.265625	179.400000
756.302917	184.300000
756.340210	182.200000
756.377441	186.000000
756.414795	187.300000
756.452087	182.700000
756.489319	178.100000
756.526611	186.700000
756.563843	183.200000
756.601135	189.400000
756.638428	190.200000
756.675659	182.000000
756.712952	184.800000
756.750244	186.500000
756.787476	182.800000
756.824768	187.600000
756.862061	182.600000
756.899292	227.900000
756.936584	188.500000
756.973816	191.300000
757.011047	191.600000
757.048340	183.200000
757.085632	184.300000
757.122864	196.800000
757.160156	183.600000
757.197327	186.800000
757.234619	188.400000
757.271912	183.300000
757.309082	188.700000
757.346375	183.700000
757.383667	190.100000
757.420837	185.800000
757.458130	185.500000
757.495422	184.400000
757.532593	187.100000
757.569885	181.300000
757.607117	182.600000
757.644348	187.000000
757.681580	195.700000
757.718811	177.100000
757.756042	186.600000
757.793335	183.700000
757.830505	191.300000
757.867798	185.100000
757.905029	184.300000
757.942200	185.700000
757.979492	185.600000
758.016724	186.000000
758.053894	185.000000
758.091187	197.300000
758.128418	187.000000
758.165588	186.700000
758.202820	195.500000
758.240112	188.200000
758.277283	194.500000
758.314514	187.000000
758.351685	185.000000
758.388916	192.500000
758.426147	192.200000
758.463379	193.400000
758.500610	189.500000
758.537842	186.500000
758.575012	192.900000
758.612244	184.600000
758.649475	196.700000
758.686646	185.100000
758.723877	192.500000
758.761108	193.500000
758.798279	188.400000
758.835510	189.400000
758.872742	192.500000
758.909851	191.000000
758.947083	192.600000
758.984253	191.900000
759.021484	193.900000
759.058716	192.600000
759.095886	193.500000
759.133057	190.300000
759.170288	193.000000
759.207458	187.600000
759.244690	198.000000
759.281860	196.900000
759.319031	191.100000
759.356262	190.800000
759.393433	189.700000
759.430603	191.500000
759.467773	191.500000
759.505005	195.900000
759.542175	196.100000
759.579346	191.000000
759.616516	192.600000
759.653687	196.600000
759.690918	192.000000
759.728027	194.300000
759.765259	194.400000
759.802429	195.100000
759.839539	195.400000
759.876770	199.000000
759.913940	199.700000
759.951111	194.200000
759.988281	193.500000
760.025452	191.500000
760.062561	189.700000
760.099792	202.100000
760.136963	198.300000
760.174072	194.200000
760.211243	190.800000
760.248413	190.900000
760.285583	191.800000
760.322754	201.000000
760.359863	198.800000
760.397034	199.200000
760.434204	195.000000
760.471375	195.300000
760.508545	193.900000
760.545715	196.100000
760.582825	192.500000
760.619995	198.500000
760.657166	192.500000
760.694275	200.100000
760.731445	197.200000
760.768555	197.400000
760.805664	198.600000
760.842834	199.200000
760.879944	198.800000
760.917114	197.600000
760.954285	198.100000
760.991394	193.100000
761.028564	200.500000
761.065674	199.600000
761.102783	195.900000
761.139954	201.900000
761.177124	200.700000
761.214172	202.000000
761.251343	198.500000
761.288452	198.000000
761.325562	199.900000
761.362732	196.600000
761.399841	199.600000
761.436951	200.300000
761.474121	196.200000
761.511169	198.400000
761.548340	203.800000
761.585449	200.800000
761.622559	202.600000
761.659668	201.200000
761.696838	203.800000
761.733887	201.700000
761.771057	199.500000
761.808167	200.500000
761.845276	203.300000
761.882385	209.400000
761.919434	201.600000
761.956604	213.300000
761.993713	199.900000
762.030762	206.600000
762.067871	201.900000
762.105042	202.300000
762.142090	209.600000
762.179199	204.300000
762.216309	205.300000
762.253418	213.600000
762.290527	211.300000
762.327637	208.300000
762.364685	200.800000
762.401794	206.800000
762.438904	206.500000
762.475952	202.200000
762.513062	201.800000
762.550110	203.600000
762.587219	211.900000
762.624329	211.000000
762.661377	207.700000
762.698486	208.500000
762.735596	206.700000
762.772644	203.500000
762.809753	201.200000
762.846863	206.400000
762.883911	210.200000
762.921021	208.300000
762.958069	207.500000
762.995117	213.200000
763.032227	212.900000
763.069336	206.700000
763.106323	205.200000
763.143433	205.300000
763.180481	210.700000
763.217590	211.400000
763.254639	208.100000
763.291687	208.800000
763.328735	214.400000
763.365845	209.500000
763.402893	207.900000
763.439941	212.000000
763.477051	212.400000
763.514038	213.300000
763.551147	208.800000
763.588196	213.100000
763.625244	210.600000
763.662292	218.300000
763.699402	220.500000
763.736389	216.500000
763.773499	221.300000
763.810486	217.100000
763.847534	213.600000
763.884644	217.200000
763.921631	213.600000
763.958679	220.300000
763.995728	213.900000
764.032776	222.300000
764.069824	213.500000
764.106873	219.600000
764.143860	223.700000
764.180969	218.800000
764.218018	223.200000
764.255005	217.200000
764.292053	218.900000
764.329102	224.500000
764.366089	227.700000
764.403137	224.800000
764.440125	219.000000
764.477173	220.500000
764.514221	223.700000
764.551208	223.500000
764.588257	219.600000
764.625305	227.300000
764.662292	231.600000
764.699341	230.400000
764.736389	226.300000
764.773376	235.800000
764.810425	227.200000
764.847473	233.300000
764.884399	231.500000
764.921448	231.700000
764.958435	233.400000
764.995483	226.200000
765.032532	238.000000
765.069458	228.200000
765.106506	229.600000
765.143555	231.600000
765.180481	233.800000
765.217529	237.700000
765.254578	228.500000
765.291504	233.200000
765.328552	233.700000
765.365540	228.800000
765.402527	241.000000
765.439575	232.700000
765.476501	230.500000
765.513550	230.300000
765.550537	233.500000
765.587463	238.400000
765.624512	232.800000
765.661499	228.900000
765.698486	236.800000
765.735474	232.600000
765.772461	235.100000
765.809448	240.300000
765.846436	238.000000
765.883423	241.300000
765.920410	237.600000
765.957397	232.900000
765.994385	238.600000
766.031311	244.400000
766.068359	240.800000
766.105286	242.800000
766.142273	246.200000
766.179260	243.600000
766.216187	236.800000
766.253174	237.800000
766.290161	242.700000
766.327148	246.300000
766.364136	245.100000
766.401123	255.200000
766.438049	241.600000
766.475037	250.000000
766.512024	247.900000
766.548950	258.700000
766.585937	254.400000
766.622864	250.800000
766.659790	250.100000
766.696777	243.000000
766.733704	253.500000
766.770691	248.400000
766.807678	256.100000
766.844604	253.400000
766.881531	252.200000
766.918518	255.200000
766.955444	255.500000
766.992432	251.900000
767.029358	255.000000
767.066284	258.500000
767.103271	254.100000
767.140198	285.700000
767.177124	265.000000
767.214050	257.500000
767.251038	258.600000
767.287964	257.400000
767.324890	256.900000
767.361816	259.700000
767.398743	261.600000
767.435730	255.900000
767.472595	259.800000
767.509583	262.600000
767.546509	257.400000
767.583374	259.600000
767.620361	256.200000
767.657288	257.600000
767.694214	260.600000
767.731140	260.000000
767.768066	260.100000
767.804993	262.600000
767.841919	257.700000
767.878845	263.900000
767.915710	267.800000
767.952698	261.400000
767.989563	264.100000
768.026489	266.300000
768.063416	262.600000
768.100281	261.700000
768.137207	270.300000
768.174133	265.300000
768.211060	266.700000
768.247986	266.900000
768.284912	264.800000
768.321777	269.500000
768.358704	263.900000
768.395630	265.700000
768.432495	265.100000
768.469421	268.100000
768.506348	271.600000
768.543152	276.800000
768.580078	271.800000
768.616943	274.200000
768.653870	276.700000
768.690796	274.900000
768.727661	274.400000
768.764587	273.900000
768.801453	271.100000
768.838318	278.900000
768.875244	277.200000
768.912109	282.500000
768.948975	277.000000
768.985901	278.800000
769.022766	279.000000
769.059631	282.600000
769.096558	279.100000
769.133362	279.300000
769.170288	280.200000
769.207214	281.400000
769.244019	284.900000
769.280945	285.500000
769.317810	290.700000
769.354675	285.900000
769.391541	290.400000
769.428406	289.200000
769.465271	296.400000
769.502136	288.900000
769.539062	291.900000
769.575867	289.600000
769.612732	293.400000
769.649597	298.400000
769.686462	300.500000
769.723328	296.200000
769.760193	294.700000
769.797058	295.900000
769.833923	302.900000
769.870728	301.900000
769.907593	301.200000
769.944519	301.500000
769.981323	305.000000
770.018188	303.100000
770.055054	303.000000
770.091858	303.600000
770.128723	312.600000
770.165588	316.100000
770.202393	305.100000
770.239258	315.200000
770.276062	312.400000
770.312927	314.000000
770.349792	319.300000
770.386597	316.300000
770.423462	323.400000
770.460327	330.800000
770.497131	315.900000
770.533997	315.100000
770.570862	325.300000
770.607605	327.100000
770.644470	324.100000
770.681335	325.500000
770.718140	324.000000
770.754944	320.800000
770.791809	321.600000
770.828613	321.500000
770.865479	323.100000
770.902222	329.300000
770.939087	325.100000
770.975952	320.200000
771.012695	323.200000
771.049561	334.400000
771.086365	330.000000
771.123169	327.400000
771.159973	329.200000
771.196838	328.200000
771.233582	332.900000
771.270447	334.600000
771.307251	338.800000
771.344055	336.000000
771.380859	338.100000
771.417664	333.900000
771.454468	341.500000
771.491272	342.000000
771.528076	341.600000
771.564880	337.500000
771.601685	343.200000
771.638428	337.100000
771.675293	343.400000
771.712097	334.900000
771.748840	349.600000
771.785645	343.900000
771.822449	346.600000
771.859253	347.700000
771.896057	345.400000
771.932861	353.800000
771.969604	350.800000
772.006409	344.200000
772.043213	353.800000
772.079956	349.900000
772.116760	346.100000
772.153503	346.700000
772.190308	358.400000
772.227112	353.300000
772.263855	350.900000
772.300659	354.400000
772.337463	358.500000
772.374207	351.600000
772.411011	351.400000
772.447754	354.700000
772.484497	364.000000
772.521301	360.400000
772.558105	360.900000
772.594849	361.700000
772.631592	361.600000
772.668396	365.100000
772.705139	367.200000
772.741882	365.900000
772.778625	370.900000
772.815430	373.500000
772.852173	372.100000
772.888916	375.900000
772.925720	375.300000
772.962463	379.400000
772.999207	375.500000
773.035950	377.200000
773.072754	375.000000
773.109436	369.200000
773.146240	374.500000
773.182922	373.900000
773.219727	381.200000
773.256470	377.400000
773.293152	369.100000
773.329956	375.300000
773.366699	380.000000
773.403381	378.400000
773.440186	382.800000
773.476929	379.600000
773.513611	377.000000
773.550354	379.000000
773.587158	379.500000
773.623840	378.500000
773.660583	383.500000
773.697327	390.800000
773.734009	384.200000
773.770813	381.500000
773.807495	381.100000
773.844238	384.100000
773.880981	393.800000
773.917664	390.000000
773.954407	391.100000
773.991150	386.500000
774.027832	391.700000
774.064575	389.300000
774.101318	393.400000
774.138000	397.500000
774.174744	393.800000
774.211487	394.900000
774.248108	388.100000
774.284851	390.900000
774.321594	397.300000
774.358276	400.800000
774.395020	405.100000
774.431702	401.800000
774.468384	394.900000
774.505127	396.500000
774.541809	401.100000
774.578491	408.500000
774.615234	407.700000
774.651917	400.200000
774.688599	403.300000
774.725342	406.900000
774.762024	413.100000
774.798706	414.500000
774.835449	414.700000
774.872070	417.600000
774.908813	417.200000
774.945496	414.700000
774.982178	417.400000
775.018860	422.900000
775.055542	420.100000
775.092224	425.600000
775.128967	425.100000
775.165588	424.000000
775.202271	421.900000
775.239014	431.800000
775.275635	431.500000
775.312317	426.500000
775.349060	431.400000
775.385681	435.300000
775.422363	430.500000
775.459045	433.700000
775.495667	439.600000
775.532410	440.500000
775.569092	438.400000
775.605713	439.200000
775.642395	440.200000
775.679016	441.600000
775.715698	447.400000
775.752380	444.000000
775.789001	442.100000
775.825684	442.800000
775.862366	446.800000
775.898987	454.100000
775.935669	453.500000
775.972351	465.800000
776.008972	464.900000
776.045654	465.500000
776.082336	460.900000
776.118958	460.200000
776.155640	464.600000
776.192322	472.200000
776.228882	472.700000
776.265564	472.700000
776.302185	469.400000
776.338867	473.400000
776.375488	473.000000
776.412109	479.100000
776.448792	480.500000
776.485413	485.500000
776.522034	476.800000
776.558716	473.000000
776.595337	479.400000
776.631958	482.400000
776.668579	482.600000
776.705261	487.600000
776.741882	482.900000
776.778503	483.500000
776.815186	488.600000
776.851746	493.400000
776.888367	491.500000
776.924988	502.900000
776.961609	495.000000
776.998291	498.200000
777.034851	496.000000
777.071472	502.900000
777.108154	500.100000
777.144714	505.400000
777.181335	507.000000
777.218018	503.800000
777.254578	506.800000
777.291199	507.600000
777.327759	512.100000
777.364380	521.500000
777.401062	523.000000
777.437622	526.500000
777.474243	517.500000
777.510864	522.500000
777.547424	515.500000
777.584045	525.300000
777.620667	522.400000
777.657227	528.500000
777.693848	525.600000
777.730469	533.500000
777.767029	525.500000
777.803650	532.400000
777.840271	530.600000
777.876831	530.800000
777.913452	536.700000
777.950012	523.100000
777.986633	526.300000
778.023193	529.000000
778.059753	526.900000
778.096375	526.900000
778.132996	537.300000
778.169556	525.200000
778.206116	529.200000
778.242737	532.700000
778.279297	539.600000
778.315857	532.800000
778.352478	534.100000
778.389038	540.300000
778.425598	540.900000
778.462219	549.900000
778.498718	546.500000
778.535339	547.400000
778.571838	548.600000
778.608459	557.700000
778.645020	547.100000
778.681580	549.300000
778.718140	554.200000
778.754761	549.300000
778.791260	553.800000
778.827881	561.700000
778.864441	560.900000
778.900940	563.400000
778.937561	559.500000
778.974121	559.700000
779.010620	558.400000
779.047241	559.000000
779.083801	560.700000
779.120300	562.000000
779.156860	561.800000
779.193359	561.000000
779.229980	568.300000
779.266541	569.900000
779.303040	573.500000
779.339600	563.200000
779.376160	558.700000
779.412659	556.600000
779.449219	555.400000
779.485779	561.300000
779.522278	562.300000
779.558838	566.600000
779.595398	569.100000
779.631897	565.000000
779.668457	563.100000
779.705017	566.900000
779.741516	561.300000
779.778076	561.800000
779.814575	567.500000
779.851074	568.000000
779.887634	563.200000
779.924133	565.500000
779.960693	562.900000
779.997253	572.800000
780.033691	580.400000
780.070251	581.200000
780.106812	586.200000
780.143250	582.300000
780.179810	577.700000
780.216370	584.200000
780.252808	588.700000
780.289368	596.700000
780.325867	591.300000
780.362366	586.300000
780.398865	596.200000
780.435364	590.900000
780.471863	600.000000
780.508423	599.600000
780.544861	602.300000
780.581421	602.400000
780.617920	595.900000
780.654419	591.300000
780.690918	599.500000
780.727417	604.000000
780.763916	599.100000
780.800415	607.200000
780.836914	596.900000
780.873352	604.700000
780.909912	603.600000
780.946411	606.700000
780.982849	610.900000
781.019348	623.100000
781.055786	619.700000
781.092346	617.200000
781.128845	628.800000
781.165283	634.900000
781.201782	639.200000
781.238281	640.400000
781.274719	640.800000
781.311218	640.600000
781.347717	646.800000
781.384155	634.600000
781.420654	640.200000
781.457092	655.500000
781.493591	649.200000
781.530090	635.500000
781.566528	638.500000
781.602966	641.700000
781.639465	640.100000
781.675903	644.400000
781.712402	650.500000
781.748901	654.000000
781.785278	645.000000
781.821777	646.300000
781.858276	652.400000
781.894714	664.700000
781.931152	664.300000
781.967651	667.400000
782.004089	658.700000
782.040527	669.100000
782.076965	673.300000
782.113403	669.400000
782.149902	674.700000
782.186340	677.900000
782.222778	685.000000
782.259277	671.300000
782.295654	675.800000
782.332092	683.200000
782.368591	688.900000
782.404968	685.100000
782.441467	682.500000
782.477905	680.600000
782.514282	686.800000
782.550781	700.200000
782.587219	696.600000
782.623596	703.500000
782.660095	704.400000
782.696472	700.700000
782.732910	712.100000
782.769348	722.400000
782.805786	731.700000
782.842224	720.300000
782.878662	724.400000
782.915039	720.200000
782.951477	723.300000
782.987915	717.900000
783.024292	734.900000
783.060730	730.200000
783.097168	719.000000
783.133545	713.900000
783.169983	712.100000
783.206421	706.800000
783.242798	706.400000
783.279236	704.700000
783.315613	703.200000
783.352051	690.300000
783.388489	691.200000
783.424866	687.200000
783.461304	693.600000
783.497681	704.500000
783.534058	698.600000
783.570496	698.700000
783.606934	696.000000
783.643250	704.100000
783.679687	712.100000
783.716125	714.000000
783.752441	720.000000
783.788879	735.300000
783.825317	743.100000
783.861633	743.500000
783.898071	739.300000
783.934448	747.400000
783.970825	734.800000
784.007263	691.400000
784.043579	608.500000
784.080017	507.200000
784.116394	422.700000
784.152710	402.300000
784.189148	447.200000
784.225525	529.200000
784.261902	613.400000
784.298279	674.900000
784.334656	712.800000
784.371033	730.800000
784.407410	742.600000
784.443787	735.700000
784.480164	727.800000
784.516541	720.900000
784.552856	729.500000
784.589233	724.900000
784.625610	727.200000
784.661987	745.300000
784.698364	739.100000
784.734741	735.800000
784.771057	737.900000
784.807434	744.200000
784.843811	755.300000
784.880127	752.600000
784.916504	769.000000
784.952881	772.800000
784.989197	773.400000
785.025574	772.200000
785.061951	778.600000
785.098267	794.600000
785.134644	785.100000
785.170959	782.800000
785.207275	776.500000
785.243652	772.100000
785.279968	766.700000
785.316345	770.500000
785.352722	771.600000
785.388977	766.300000
785.425354	748.800000
785.461731	728.800000
785.498047	730.200000
785.534363	728.700000
785.570679	728.500000
785.606995	725.700000
785.643372	725.100000
785.679687	728.500000
785.716003	723.900000
785.752380	726.900000
785.788635	738.700000
785.825012	746.900000
785.861328	752.300000
785.897644	747.000000
785.933960	754.000000
785.970337	767.300000
786.006592	784.600000
786.042908	801.000000
786.079285	804.000000
786.115540	798.700000
786.151855	801.000000
786.188171	795.700000
786.224487	794.800000
786.260803	799.500000
786.297119	808.000000
786.333435	797.500000
786.369751	786.700000
786.406006	780.800000
786.442322	772.000000
786.478638	765.400000
786.514954	771.400000
786.551270	760.200000
786.587585	761.900000
786.623840	750.500000
786.660156	753.400000
786.696472	742.800000
786.732727	742.800000
786.769043	749.200000
786.805298	751.600000
786.841614	751.100000
786.877930	761.200000
786.914124	755.200000
786.950439	771.200000
786.986755	779.500000
787.023010	789.100000
787.059326	802.100000
787.095642	801.200000
787.131836	822.000000
787.168152	821.000000
787.204468	827.800000
787.240723	831.800000
787.276978	832.200000
787.313293	840.400000
787.349548	830.700000
787.385803	834.900000
787.422058	827.300000
787.458313	828.000000
787.494629	822.700000
787.530823	811.600000
787.567139	802.000000
787.603455	800.200000
787.639648	791.300000
787.675903	795.400000
787.712219	799.800000
787.748413	793.500000
787.784729	801.100000
787.820984	789.000000
787.857178	792.800000
787.893494	786.700000
787.929749	794.500000
787.965942	805.100000
788.002258	814.100000
788.038452	824.700000
788.074707	813.600000
788.110962	822.400000
788.147217	821.800000
788.183472	833.800000
788.219727	848.700000
788.255920	856.500000
788.292175	864.000000
788.328430	850.300000
788.364624	841.200000
788.400879	845.200000
788.437134	851.300000
788.473328	851.700000
788.509583	854.200000
788.545837	846.700000
788.582031	852.000000
788.618286	854.800000
788.654480	850.200000
788.690735	858.600000
788.726990	870.700000
788.763184	862.900000
788.799377	869.400000
788.835632	871.100000
788.871826	884.100000
788.908081	880.700000
788.944336	869.900000
788.980469	884.600000
789.016724	877.100000
789.052979	879.700000
789.089111	866.800000
789.125366	871.600000
789.161621	861.200000
789.197754	875.300000
789.234009	868.700000
789.270142	861.100000
789.306396	849.800000
789.342590	852.000000
789.378784	844.600000
789.414978	847.900000
789.451233	847.600000
789.487366	847.700000
789.523621	855.000000
789.559814	855.600000
789.595947	845.400000
789.632202	858.600000
789.668335	870.200000
789.704529	888.300000
789.740784	897.500000
789.776917	898.600000
789.813110	889.300000
789.849304	902.100000
789.885498	910.900000
789.921692	917.400000
789.957886	927.000000
789.994019	925.800000
790.030212	919.000000
790.066406	920.100000
790.102539	925.200000
790.138733	940.900000
790.174927	943.400000
790.211060	951.400000
790.247253	938.200000
790.283386	930.600000
790.319580	912.500000
790.355774	897.500000
790.391907	903.100000
790.428101	918.600000
790.464294	918.200000
790.500427	916.800000
790.536621	899.100000
790.572754	885.400000
790.608887	883.800000
790.645081	896.100000
790.681274	909.500000
790.717346	899.500000
790.753540	887.800000
790.789734	882.500000
790.825867	867.700000
790.862000	871.700000
790.898132	888.600000
790.934265	886.100000
790.970459	885.900000
791.006592	883.000000
791.042725	874.500000
791.078918	873.500000
791.114990	874.800000
791.151184	879.100000
791.187317	887.800000
791.223389	877.300000
791.259583	869.100000
791.295715	876.600000
791.331848	886.500000
791.367981	891.400000
791.404114	886.600000
791.440247	887.500000
791.476379	886.600000
791.512451	872.700000
791.548584	870.700000
791.584778	865.900000
791.620850	880.200000
791.656982	887.900000
791.693115	877.400000
791.729187	873.800000
791.765381	875.300000
791.801514	870.500000
791.837585	872.600000
791.873718	891.800000
791.909851	899.800000
791.945923	907.500000
791.982056	876.700000
792.018188	878.500000
792.054260	877.700000
792.090393	882.800000
792.126465	876.000000
792.162598	882.900000
792.198669	870.100000
792.234741	861.500000
792.270874	854.800000
792.307007	847.900000
792.343079	855.200000
792.379150	864.900000
792.415283	857.700000
792.451355	855.700000
792.487488	824.800000
792.523560	824.500000
792.559631	809.200000
792.595764	764.900000
792.631836	742.600000
792.667908	742.700000
792.703979	752.900000
792.740051	795.700000
792.776184	823.000000
792.812256	839.700000
792.848328	852.700000
792.884399	859.800000
792.920471	858.500000
792.956543	856.400000
792.992615	852.600000
793.028748	854.600000
793.064758	861.300000
793.100830	880.400000
793.136963	888.000000
793.172974	883.900000
793.209045	880.200000
793.245178	882.100000
793.281189	871.500000
793.317261	885.900000
793.353271	888.900000
793.389404	900.700000
793.425476	891.600000
793.461487	874.700000
793.497559	871.700000
793.533630	868.100000
793.569641	877.800000
793.605713	886.400000
793.641785	885.600000
793.677795	893.900000
793.713867	886.300000
793.749878	885.900000
793.785950	898.400000
793.822021	912.100000
793.858032	903.400000
793.894104	912.500000
793.930176	899.500000
793.966187	902.100000
794.002258	898.800000
794.038269	905.200000
794.074280	907.100000
794.110352	923.100000
794.146423	904.500000
794.182373	904.700000
794.218445	901.900000
794.254517	897.200000
794.290466	887.600000
794.326538	889.200000
794.362549	889.600000
794.398560	891.400000
794.434631	884.800000
794.470581	864.700000
794.506653	862.500000
794.542664	868.200000
794.578674	873.100000
794.614685	873.000000
794.650757	878.700000
794.686707	876.300000
794.722778	868.900000
794.758789	877.600000
794.794739	896.100000
794.830811	923.300000
794.866821	936.600000
794.902771	932.900000
794.938843	916.000000
794.974792	909.300000
795.010803	911.500000
795.046814	917.500000
795.082825	903.900000
795.118835	922.100000
795.154846	904.100000
795.190796	904.200000
795.226807	882.100000
795.262817	890.600000
795.298767	893.300000
795.334778	902.400000
795.370850	889.300000
795.406799	894.000000
795.442810	882.200000
795.478821	878.000000
795.514709	881.800000
795.550720	907.400000
795.586670	892.100000
795.622681	898.600000
795.658691	891.400000
795.694641	887.800000
795.730652	884.500000
795.766663	895.500000
795.802551	898.200000
795.838562	918.000000
795.874573	905.200000
795.910522	899.300000
795.946472	886.900000
795.982483	895.100000
796.018433	896.500000
796.054382	910.500000
796.090393	897.900000
796.126282	885.000000
796.162292	873.300000
796.198242	867.200000
796.234192	866.700000
796.270203	874.400000
796.306091	890.900000
796.342041	896.100000
796.378052	882.100000
796.413940	874.100000
796.449951	876.700000
796.485901	889.300000
796.521790	900.200000
796.557800	910.700000
796.593689	897.100000
796.629639	886.700000
796.665649	884.300000
796.701599	886.200000
796.737488	885.900000
796.773437	895.100000
796.809387	897.400000
796.845337	895.000000
796.881287	883.000000
796.917175	871.900000
796.953125	876.200000
796.989075	883.800000
797.024963	888.800000
797.060913	880.200000
797.096863	875.600000
797.132751	871.700000
797.168701	857.300000
797.204590	867.600000
797.240540	874.200000
797.276489	883.000000
797.312439	874.200000
797.348328	858.300000
797.384277	855.900000
797.420166	853.200000
797.456055	859.000000
797.492004	866.800000
797.527893	868.600000
797.563843	869.400000
797.599731	861.100000
797.635620	842.000000
797.671570	853.700000
797.707520	858.400000
797.743347	864.500000
797.779297	868.600000
797.815125	862.600000
797.851074	840.900000
797.887024	833.600000
797.922913	833.000000
797.958801	834.000000
797.994690	843.500000
798.030579	860.200000
798.066467	848.700000
798.102356	832.800000
798.138245	828.800000
798.174133	822.100000
798.210083	835.000000
798.245911	847.200000
798.281799	847.700000
798.317749	839.000000
798.353577	830.200000
798.389465	829.100000
798.425293	833.300000
798.461243	839.600000
798.497131	841.200000
798.532959	834.100000
798.568848	833.600000
798.604736	824.200000
798.640564	813.800000
798.676453	817.000000
798.712402	817.400000
798.748230	826.500000
798.784119	829.200000
798.820007	829.300000
798.855835	825.100000
798.891724	817.200000
798.927551	813.000000
798.963379	812.900000
798.999268	812.400000
799.035095	805.900000
799.070984	801.700000
799.106873	782.700000
799.142700	796.300000
799.178528	789.700000
799.214417	796.200000
799.250244	801.200000
799.286133	793.900000
799.321960	794.900000
799.357788	785.600000
799.393677	786.900000
799.429504	788.800000
799.465332	796.700000
799.501221	802.800000
799.537048	800.900000
799.572876	790.100000
799.608704	787.000000
799.644531	804.400000
799.680359	805.500000
799.716248	814.100000
799.752014	814.700000
799.787903	796.400000
799.823730	790.400000
799.859558	788.500000
799.895386	792.600000
799.931213	796.100000
799.967041	796.500000
800.002869	792.100000
800.038696	801.300000
800.074463	784.500000
800.110352	784.300000
800.146179	780.900000
800.181946	789.000000
800.217773	789.900000
800.253540	782.400000
800.289429	776.300000
800.325256	770.600000
800.361023	771.700000
800.396851	774.200000
800.432678	779.900000
800.468445	779.600000
800.504272	777.700000
800.540100	767.500000
800.575867	759.200000
800.611694	768.400000
800.647461	764.100000
800.683289	773.100000
800.719116	775.500000
800.754883	771.800000
800.790649	754.400000
800.826477	755.900000
800.862244	772.600000
800.898071	768.000000
800.933838	764.400000
800.969604	759.100000
801.005432	753.600000
801.041199	753.200000
801.076965	752.300000
801.112793	742.300000
801.148560	737.100000
801.184326	741.500000
801.220154	736.100000
801.255859	734.400000
801.291687	732.600000
801.327454	731.500000
801.363281	730.700000
801.398987	727.800000
801.434814	730.900000
801.470520	735.100000
801.506287	725.700000
801.542114	716.800000
801.577820	720.900000
801.613647	718.100000
801.649414	716.300000
801.685120	718.400000
801.720886	716.300000
801.756714	713.700000
801.792419	706.700000
801.828186	705.500000
801.863892	707.100000
801.899719	702.500000
801.935486	703.500000
801.971252	712.900000
802.006958	704.600000
802.042725	703.300000
802.078430	700.300000
802.114197	698.000000
802.149963	705.200000
802.185669	699.200000
802.221436	696.700000
802.257202	696.400000
802.292908	691.800000
802.328674	698.800000
802.364441	706.200000
802.400146	701.300000
802.435913	695.900000
802.471558	693.500000
802.507324	697.400000
802.543091	690.400000
802.578796	697.100000
802.614502	697.300000
802.650269	699.800000
802.685974	689.100000
802.721741	690.200000
802.757446	693.300000
802.793152	692.200000
802.828918	703.900000
802.864624	700.600000
802.900330	698.000000
802.936035	693.800000
802.971802	691.300000
803.007446	684.900000
803.043213	673.300000
803.078857	688.300000
803.114624	669.000000
803.150330	679.200000
803.185974	667.300000
803.221741	671.200000
803.257446	680.500000
803.293152	676.300000
803.328857	674.100000
803.364563	670.100000
803.400208	665.500000
803.435974	672.500000
803.471680	664.700000
803.507324	668.300000
803.543030	677.700000
803.578735	674.800000
803.614441	670.800000
803.650146	676.100000
803.685791	657.200000
803.721497	660.500000
803.757202	651.700000
803.792847	664.300000
803.828552	657.700000
803.864258	651.700000
803.899902	644.000000
803.935608	639.500000
803.971313	643.000000
804.006958	642.400000
804.042664	646.400000
804.078308	652.300000
804.113953	641.300000
804.149658	648.000000
804.185364	638.300000
804.221008	645.100000
804.256714	628.700000
804.292297	628.900000
804.328003	630.500000
804.363708	626.000000
804.399292	621.600000
804.434998	622.500000
804.470703	617.400000
804.506287	632.200000
804.541992	621.900000
804.577637	621.200000
804.613281	608.100000
804.648926	606.900000
804.684570	608.700000
804.720215	605.700000
804.755920	611.400000
804.791565	612.200000
804.827209	614.600000
804.862854	605.800000
804.898437	602.000000
804.934143	607.200000
804.969788	601.000000
805.005371	600.800000
805.041077	603.700000
805.076721	603.300000
805.112305	593.200000
805.147949	590.400000
805.183655	585.300000
805.219238	591.300000
805.254883	591.000000
805.290466	593.200000
805.326111	589.400000
805.361755	577.400000
805.397400	580.300000
805.432983	582.300000
805.468628	579.800000
805.504211	584.700000
805.539856	585.000000
805.575500	589.200000
805.611084	580.500000
805.646729	570.200000
805.682373	576.700000
805.717957	580.800000
805.753601	581.700000
805.789246	570.200000
805.824768	575.700000
805.860413	577.700000
805.895996	569.700000
805.931641	571.700000
805.967224	575.300000
806.002869	572.800000
806.038452	579.500000
806.074036	583.100000
806.109619	571.300000
806.145264	565.700000
806.180847	560.100000
806.216431	562.200000
806.252014	562.400000
806.287659	567.000000
806.323181	571.100000
806.358826	565.500000
806.394409	551.000000
806.429993	552.400000
806.465576	561.000000
806.501160	550.500000
806.536743	548.100000
806.572327	554.900000
806.607910	549.200000
806.643494	546.700000
806.679077	540.300000
806.714661	547.600000
806.750244	542.500000
806.785828	535.600000
806.821350	538.500000
806.856934	541.900000
806.892517	537.800000
806.928101	533.800000
806.963684	533.100000
806.999268	536.600000
807.034790	527.700000
807.070374	529.100000
807.105896	523.200000
807.141479	523.000000
807.177063	530.300000
807.212585	522.300000
807.248169	524.700000
807.283752	527.700000
807.319275	517.900000
807.354858	520.800000
807.390381	519.000000
807.425903	514.400000
807.461487	511.700000
807.497070	508.000000
807.532593	509.200000
807.568115	509.200000
807.603699	504.200000
807.639221	502.600000
807.674744	508.900000
807.710266	508.200000
807.745850	505.800000
807.781372	502.500000
807.816895	501.900000
807.852417	500.500000
807.888000	498.900000
807.923523	497.300000
807.959045	501.000000
807.994629	497.100000
808.030090	496.100000
808.065613	496.700000
808.101135	498.100000
808.136658	495.200000
808.172241	495.400000
808.207764	493.300000
808.243225	489.300000
808.278809	488.700000
808.314270	494.500000
808.349792	482.200000
808.385315	485.200000
808.420837	490.800000
808.456360	489.400000
808.491882	490.700000
808.527344	487.300000
808.562866	490.300000
808.598389	480.300000
808.633850	483.900000
808.669434	476.600000
808.704895	482.500000
808.740417	489.400000
808.775940	484.800000
808.811462	481.100000
808.846924	475.200000
808.882385	469.100000
808.917847	469.500000
808.953369	475.100000
808.988892	469.500000
809.024353	472.800000
809.059875	470.300000
809.095398	469.300000
809.130798	463.600000
809.166321	462.800000
809.201843	460.600000
809.237305	463.100000
809.272766	466.800000
809.308228	460.200000
809.343750	459.100000
809.379211	459.100000
809.414734	455.900000
809.450134	459.600000
809.485657	451.400000
809.521118	457.600000
809.556580	451.100000
809.592102	451.500000
809.627502	451.600000
809.663025	448.400000
809.698486	446.700000
809.733887	444.700000
809.769409	446.000000
809.804871	437.500000
809.840271	441.900000
809.875793	440.900000
809.911194	442.000000
809.946655	436.400000
809.982178	434.900000
810.017639	434.600000
810.053040	433.100000
810.088501	431.200000
810.123901	430.300000
810.159424	424.600000
810.194885	425.100000
810.230286	428.000000
810.265747	424.900000
810.301208	418.300000
810.336609	420.500000
810.372070	414.400000
810.407532	420.300000
810.442932	420.600000
810.478394	419.500000
810.513794	416.700000
810.549255	412.800000
810.584717	411.100000
810.620117	409.400000
810.655518	411.500000
810.690979	408.400000
810.726379	407.800000
810.761841	397.300000
810.797302	399.300000
810.832642	393.700000
810.868103	403.200000
810.903564	396.700000
810.938904	402.800000
810.974365	392.000000
811.009827	394.500000
811.045166	391.200000
811.080627	383.800000
811.115967	386.800000
811.151428	394.700000
811.186829	387.100000
811.222229	386.900000
811.257629	380.300000
811.293091	386.000000
811.328430	391.500000
811.363892	389.400000
811.399292	389.100000
811.434631	381.800000
811.470093	384.800000
811.505493	380.200000
811.540833	378.300000
811.576294	384.000000
811.611694	379.600000
811.647034	375.800000
811.682434	377.300000
811.717773	379.800000
811.753235	385.300000
811.788635	375.500000
811.823975	375.600000
811.859375	379.200000
811.894775	372.800000
811.930115	373.800000
811.965515	370.000000
812.000916	374.500000
812.036255	369.700000
812.071655	373.200000
812.106995	366.200000
812.142395	367.600000
812.177795	372.100000
812.213196	369.500000
812.248474	370.000000
812.283875	361.600000
812.319214	362.600000
812.354614	363.300000
812.390015	361.300000
812.425293	357.500000
812.460693	360.400000
812.496094	357.600000
812.531433	350.600000
812.566772	349.700000
812.602173	357.300000
812.637451	353.100000
812.672852	348.300000
812.708191	353.400000
812.743530	348.000000
812.778931	340.700000
812.814270	343.600000
812.849609	346.200000
812.884949	345.200000
812.920227	339.500000
812.955627	351.300000
812.990967	341.900000
813.026306	336.800000
813.061646	328.800000
813.096985	329.000000
813.132324	327.000000
813.167664	330.000000
813.203003	331.800000
813.238281	322.200000
813.273682	320.200000
813.308960	319.600000
813.344299	322.000000
813.379639	327.500000
813.414978	322.900000
813.450256	320.600000
813.485596	322.100000
813.520874	316.200000
813.556213	318.500000
813.591614	320.900000
813.626831	314.500000
813.662170	317.200000
813.697510	323.000000
813.732788	313.800000
813.768127	317.000000
813.803467	316.000000
813.838745	314.100000
813.874084	313.900000
813.909363	312.300000
813.944641	313.600000
813.979980	306.800000
814.015320	308.300000
814.050598	307.100000
814.085876	305.100000
814.121155	304.300000
814.156494	303.800000
814.191772	306.500000
814.227051	301.400000
814.262390	303.700000
814.297668	300.100000
814.332947	302.600000
814.368225	298.400000
814.403564	300.400000
814.438782	296.600000
814.474121	297.600000
814.509338	295.100000
814.544617	301.900000
814.579956	295.400000
814.615173	302.400000
814.650513	296.300000
814.685791	291.500000
814.721008	295.100000
814.756348	294.200000
814.791626	291.400000
814.826843	290.300000
814.862122	291.100000
814.897400	287.900000
814.932678	290.700000
814.967957	290.500000
815.003235	288.700000
815.038452	285.900000
815.073730	281.900000
815.108948	290.400000
815.144226	288.100000
815.179504	292.500000
815.214722	280.400000
815.250000	278.300000
815.285278	283.300000
815.320496	278.100000
815.355774	279.500000
815.391052	283.400000
815.426270	280.000000
815.461487	276.200000
815.496765	274.100000
815.531982	270.600000
815.567261	276.100000
815.602539	278.600000
815.637695	276.500000
815.672974	276.400000
815.708191	277.800000
815.743408	278.900000
815.778687	271.200000
815.813904	275.900000
815.849121	266.600000
815.884399	267.200000
815.919556	266.500000
815.954834	269.500000
815.990051	269.900000
816.025269	272.600000
816.060486	265.400000
816.095703	265.500000
816.130920	268.200000
816.166199	262.300000
816.201416	265.600000
816.236572	266.900000
816.271851	263.400000
816.307007	264.900000
816.342224	258.700000
816.377441	260.200000
816.412659	255.300000
816.447876	260.900000
816.483093	257.800000
816.518250	254.900000
816.553467	256.100000
816.588745	259.300000
816.623901	252.200000
816.659119	249.400000
816.694275	254.200000
816.729492	249.300000
816.764709	277.000000
816.799927	247.300000
816.835083	250.400000
816.870300	243.500000
816.905457	246.400000
816.940674	247.700000
816.975830	243.900000
817.010986	242.000000
817.046204	243.200000
817.081421	241.700000
817.116577	241.400000
817.151733	247.300000
817.186951	244.700000
817.222107	242.000000
817.257324	243.800000
817.292419	242.500000
817.327637	236.700000
817.362854	239.500000
817.398010	235.200000
817.433167	238.600000
817.468323	235.600000
817.503479	238.200000
817.538635	243.200000
817.573853	238.700000
817.608948	234.700000
817.644165	232.700000
817.679321	233.400000
817.714478	232.100000
817.749634	233.800000
817.784790	240.400000
817.819946	235.700000
817.855103	225.500000
817.890198	229.900000
817.925415	225.900000
817.960571	232.500000
817.995667	230.900000
818.030823	230.400000
818.066040	228.000000
818.101135	230.700000
818.136292	228.400000
818.171448	223.400000
818.206543	228.000000
818.241699	229.000000
818.276855	225.800000
818.311951	224.300000
818.347107	221.600000
818.382263	226.700000
818.417358	227.700000
818.452515	227.500000
818.487610	228.200000
818.522766	221.900000
818.557922	227.500000
818.593018	224.600000
818.628113	223.400000
818.663269	219.000000
818.698364	222.300000
818.733521	218.800000
818.768677	221.000000
818.803711	216.800000
818.838867	216.000000
818.874023	218.100000
818.909058	214.500000
818.944214	213.000000
818.979370	218.000000
819.014404	216.800000
819.049561	214.400000
819.084595	218.700000
819.119751	211.700000
819.154846	215.000000
819.189941	212.200000
819.225037	210.600000
819.260193	206.700000
819.295227	208.500000
819.330322	205.700000
819.365479	206.000000
819.400513	239.300000
819.435608	204.400000
819.470764	203.500000
819.505798	205.300000
819.540894	205.700000
819.575989	204.500000
819.611084	208.800000
819.646179	211.200000
819.681213	206.000000
819.716309	203.700000
819.751404	205.600000
819.786438	210.200000
819.821533	200.700000
819.856628	206.000000
819.891663	205.500000
819.926758	213.400000
819.961853	208.100000
819.996887	201.000000
820.031982	203.700000
820.067017	202.600000
820.102112	235.400000
820.137207	201.500000
820.172302	210.900000
820.207275	199.400000
820.242371	198.200000
820.277405	199.200000
820.312500	199.700000
820.347534	200.600000
820.382568	204.700000
820.417664	197.700000
820.452759	197.700000
820.487732	197.600000
820.522827	197.000000
820.557861	194.600000
820.592896	197.100000
820.627930	197.400000
820.662964	195.300000
820.698059	198.500000
820.733093	195.800000
820.768127	199.700000
820.803162	196.900000
820.838196	194.000000
820.873230	197.400000
820.908264	197.900000
820.943298	194.700000
820.978333	198.000000
821.013367	195.900000
821.048401	198.700000
821.083435	198.000000
821.118469	190.100000
821.153503	199.900000
821.188477	195.100000
821.223511	190.200000
821.258484	195.300000
821.293579	195.000000
821.328613	190.100000
821.363647	194.000000
821.398621	189.700000
821.433655	193.500000
821.468628	202.600000
821.503662	192.300000
821.538696	195.500000
821.573669	192.100000
821.608704	195.800000
821.643677	192.600000
821.678650	195.200000
821.713684	198.400000
821.748718	192.700000
821.783691	192.700000
821.818726	192.500000
821.853638	194.200000
821.888672	191.300000
821.923706	191.500000
821.958618	190.800000
821.993652	190.900000
822.028687	194.200000
822.063599	197.000000
822.098633	191.900000
822.133667	189.100000
822.168579	190.700000
822.203613	192.400000
822.238586	188.100000
822.273560	192.000000
822.308533	189.100000
822.343567	189.700000
822.378479	189.300000
822.413452	189.300000
822.448425	187.700000
822.483398	193.100000
822.518372	193.700000
822.553345	187.800000
822.588318	196.400000
822.623291	190.000000
822.658203	189.300000
822.693237	190.200000
822.728210	187.300000
822.763123	190.400000
822.798096	187.300000
822.833069	189.400000
822.867981	189.100000
822.902954	191.100000
822.937927	192.100000
822.972900	195.700000
823.007874	186.000000
823.042725	192.600000
823.077698	198.700000
823.112671	187.300000
823.147583	188.900000
823.182556	189.700000
823.217529	192.500000
823.252441	188.000000
823.287415	197.600000
823.322388	192.400000
823.357239	189.300000
823.392212	194.500000
823.427185	194.100000
823.462097	186.900000
823.497009	191.100000
823.531982	188.000000
823.566895	189.300000
823.601807	186.600000
823.636719	188.800000
823.671631	189.900000
823.706604	186.600000
823.741455	190.200000
823.776428	184.300000
823.811340	190.500000
823.846252	193.000000
823.881165	192.300000
823.916138	187.900000
823.950989	194.300000
823.985901	186.100000
824.020813	189.200000
824.055725	187.700000
824.090637	185.300000
824.125610	191.000000
824.160461	189.500000
824.195374	189.100000
824.230225	191.500000
824.265198	184.700000
824.300110	187.300000
824.334961	195.600000
824.369873	182.200000
824.404785	189.700000
824.439636	192.600000
824.474548	183.100000
824.509460	182.300000
824.544312	190.200000
824.579224	188.400000
824.614075	189.600000
824.648987	186.000000
824.683899	186.500000
824.718811	186.300000
824.753662	189.400000
824.788574	190.700000
824.823364	187.700000
824.858276	185.400000
824.893188	191.100000
824.928040	190.300000
824.962952	188.400000
824.997803	188.900000
825.032654	188.100000
825.067566	188.700000
825.102417	184.200000
825.137268	184.600000
825.172119	186.000000
825.206970	184.900000
825.241882	185.400000
825.276733	182.700000
825.311646	184.300000
825.346436	181.800000
825.381348	181.600000
825.416138	185.000000
825.450989	180.700000
825.485901	178.100000
825.520691	179.800000
825.555542	180.000000
825.590454	182.500000
825.625244	178.500000
825.660095	188.000000
825.695007	186.200000
825.729797	182.400000
825.764648	180.200000
825.799438	182.300000
825.834290	184.800000
825.869202	180.100000
825.903992	183.700000
825.938843	181.200000
825.973694	178.800000
826.008484	189.900000
826.043335	179.200000
826.078186	177.300000
826.112976	184.000000
826.147827	184.700000
826.182678	188.800000
826.217468	177.100000
826.252319	185.900000
826.287109	179.200000
826.321899	185.100000
826.356750	181.000000
826.391541	177.500000
826.426392	184.700000
826.461182	180.300000
826.495972	176.400000
826.530823	174.600000
826.565613	181.400000
826.600403	177.100000
826.635254	184.000000
826.670044	175.900000
826.704834	175.500000
826.739685	178.000000
826.774475	182.100000
826.809265	178.900000
826.844055	179.200000
826.878906	183.200000
826.913635	181.700000
826.948425	180.700000
826.983215	183.100000
827.018005	182.100000
827.052856	178.400000
827.087585	182.700000
827.122375	175.600000
827.157227	180.300000
827.191956	189.700000
827.226746	175.800000
827.261536	182.700000
827.296265	177.100000
827.331116	178.100000
827.365906	182.000000
827.400635	178.400000
827.435425	174.000000
827.470215	185.200000
827.504944	179.100000
827.539734	185.000000
827.574463	179.700000
827.609253	185.900000
827.644043	180.100000
827.678772	184.000000
827.713562	179.000000
827.748352	179.000000
827.783081	177.800000
827.817871	182.100000
827.852600	177.300000
827.887329	180.300000
827.922119	175.000000
827.956848	183.000000
827.991638	189.200000
828.026367	181.700000
828.061157	181.100000
828.095886	181.000000
828.130615	192.500000
828.165344	174.400000
828.200073	179.400000
828.234863	180.000000
828.269592	181.500000
828.304321	182.300000
828.339111	181.200000
828.373779	179.400000
828.408569	182.200000
828.443298	182.700000
828.477966	178.300000
828.512756	180.600000
828.547424	176.500000
828.582214	178.700000
828.616943	179.100000
828.651672	180.500000
828.686340	182.700000
828.721130	176.900000
828.755798	180.700000
828.790527	179.600000
828.825256	179.900000
828.859924	180.200000
828.894714	183.300000
828.929443	185.600000
828.964111	177.000000
828.998840	182.800000
829.033569	177.700000
829.068237	180.200000
829.102966	177.800000
829.137634	181.300000
829.172363	180.800000
829.207092	180.200000
829.241821	177.400000
829.276489	176.300000
829.311157	179.700000
829.345825	178.300000
829.380554	182.700000
829.415283	177.300000
829.449951	174.800000
829.484619	185.100000
829.519348	185.100000
829.554016	179.900000
829.588745	181.300000
829.623413	176.700000
829.658081	187.400000
829.692749	177.400000
829.727417	182.800000
829.762146	181.200000
829.796814	179.200000
829.831482	179.500000
829.866150	179.900000
829.900879	178.600000
829.935486	181.000000
829.970154	179.000000
830.004883	188.300000
830.039490	179.500000
830.074219	177.600000
830.108887	180.400000
830.143494	178.400000
830.178223	176.600000
830.212891	178.700000
830.247498	179.900000
830.282166	185.000000
830.316772	184.200000
830.351501	177.200000
830.386169	178.600000
830.420776	178.700000
830.455444	181.100000
830.490112	177.700000
830.524719	174.800000
830.559387	179.700000
830.594055	181.400000
830.628662	180.400000
830.663330	180.900000
830.697998	186.900000
830.732605	180.000000
830.767273	180.700000
830.801941	178.700000
830.836487	186.700000
830.871155	180.500000
830.905762	180.600000
830.940430	174.700000
830.975098	177.400000
831.009644	179.700000
831.044312	186.400000
831.078979	182.500000
831.113525	173.700000
831.148193	180.700000
831.182861	178.700000
831.217407	182.300000
831.252075	189.800000
831.286621	178.700000
831.321289	177.000000
831.355896	182.000000
831.390564	185.600000
831.425110	180.200000
831.459778	185.900000
831.494324	189.700000
831.528931	182.300000
831.563599	183.700000
831.598145	175.100000
831.632751	179.300000
831.667419	180.400000
831.701965	182.300000
831.736572	181.700000
831.771179	176.700000
831.805786	177.100000
831.840393	184.600000
831.874939	174.900000
831.909546	184.100000
831.944153	174.400000
831.978760	179.200000
832.013306	177.700000
832.047913	183.000000
832.082458	186.700000
832.117065	177.400000
832.151672	186.500000
832.186218	181.000000
832.220825	182.400000
832.255432	174.400000
832.289978	177.600000
832.324585	182.200000
832.359192	181.600000
832.393677	179.300000
832.428284	180.400000
832.462830	179.100000
832.497437	179.900000
832.531982	181.700000
832.566589	176.700000
832.601135	181.300000
832.635681	174.800000
832.670227	179.500000
832.704773	184.200000
832.739380	180.200000
832.773926	180.300000
832.808472	177.500000
832.843079	179.200000
832.877563	181.000000
832.912170	179.500000
832.946716	175.000000
832.981201	182.700000
833.015808	182.300000
833.050293	180.100000
833.084839	177.800000
833.119446	178.900000
833.153992	183.200000
833.188477	179.900000
833.223022	177.600000
833.257568	181.200000
833.292114	185.400000
833.326660	188.300000
833.361145	178.600000
833.395691	174.500000
833.430237	180.600000
833.464783	181.600000
833.499329	178.000000
833.533875	176.500000
833.568359	183.100000
833.602905	182.900000
833.637390	183.100000
833.671875	177.200000
833.706421	178.300000
833.740906	178.200000
833.775452	174.000000
833.809998	178.500000
833.844482	186.000000
833.879028	178.900000
833.913513	178.300000
833.947998	180.700000
833.982544	177.500000
834.017090	177.800000
834.051514	173.200000
834.086060	182.800000
834.120544	178.700000
834.155029	180.300000
834.189575	179.700000
834.223999	182.100000
834.258545	180.500000
834.293030	180.700000
834.327515	180.000000
834.362000	177.800000
834.396545	182.200000
834.430969	181.700000
834.465454	183.100000
834.500000	174.600000
834.534424	181.200000
834.568970	174.100000
834.603455	175.700000
834.637878	178.300000
834.672363	182.000000
834.706909	180.300000
834.741333	180.400000
834.775818	175.800000
834.810242	177.700000
834.844727	180.600000
834.879211	179.500000
834.913635	181.000000
834.948181	180.600000
834.982666	180.600000
835.017090	179.200000
835.051575	181.600000
835.086060	177.800000
835.120483	183.300000
835.154907	181.400000
835.189331	180.200000
835.223816	181.800000
835.258301	176.000000
835.292786	176.700000
835.327209	183.200000
835.361694	178.200000
835.396057	177.700000
835.430542	182.500000
835.465027	179.400000
835.499390	177.700000
835.533875	206.800000
835.568359	178.900000
835.602722	174.400000
835.637207	179.700000
835.671692	175.000000
835.706055	194.100000
835.740540	182.100000
835.774902	182.500000
835.809387	179.800000
835.843811	177.200000
835.878235	184.100000
835.912659	176.500000
835.947083	177.600000
835.981506	179.900000
836.015930	175.300000
836.050354	183.800000
836.084778	185.800000
836.119202	184.600000
836.153625	192.300000
836.187988	177.100000
836.222473	177.700000
836.256897	181.000000
836.291260	179.700000
836.325684	183.600000
836.360046	179.500000
836.394470	180.200000
836.428894	185.100000
836.463318	177.400000
836.497681	181.800000
836.532104	184.800000
836.566467	181.000000
836.600891	180.100000
836.635315	185.000000
836.669678	181.800000
836.704102	183.200000
836.738525	181.400000
836.772888	175.000000
836.807251	178.200000
836.841675	181.800000
836.876038	177.600000
836.910461	177.900000
836.944763	182.700000
836.979187	176.300000
837.013611	184.700000
837.047974	174.500000
837.082336	188.900000
837.116699	182.100000
837.151062	180.300000
837.185486	174.400000
837.219849	178.500000
837.254211	183.100000
837.288574	180.100000
837.322937	176.500000
837.357300	172.700000
837.391663	186.800000
837.426086	183.600000
837.460388	180.500000
837.494751	182.300000
837.529114	179.500000
837.563477	185.400000
837.597839	180.700000
837.632141	178.900000
837.666565	179.200000
837.700928	182.700000
837.735229	181.400000
837.769592	182.600000
837.803955	183.600000
837.838257	177.400000
837.872620	177.700000
837.906982	184.700000
837.941284	182.200000
837.975647	182.600000
838.010010	185.600000
838.044312	178.000000
838.078674	179.300000
838.112976	179.900000
838.147339	182.200000
838.181702	181.700000
838.216003	185.700000
838.250366	181.800000
838.284668	182.600000
838.318970	175.500000
838.353333	180.200000
838.387634	179.500000
838.421936	180.600000
838.456299	181.600000
838.490601	184.400000
838.524902	183.400000
838.559265	185.000000
838.593567	182.900000
838.627869	176.800000
838.662170	182.500000
838.696472	175.900000
838.730774	177.400000
838.765137	182.100000
838.799377	172.200000
838.833740	181.700000
838.868042	185.000000
838.902283	175.000000
838.936646	185.200000
838.970947	179.600000
839.005188	185.600000
839.039551	175.300000
839.073792	185.400000
839.108093	178.700000
839.142395	186.400000
839.176697	174.100000
839.210937	180.900000
839.245300	186.700000
839.279541	176.800000
839.313843	178.300000
839.348145	181.900000
839.382385	182.100000
839.416687	184.500000
839.450989	181.600000
839.485229	180.000000
839.519531	177.300000
839.553833	184.100000
839.588013	179.400000
839.622314	181.700000
839.656555	183.200000
839.690857	179.500000
839.725159	176.800000
839.759460	180.100000
839.793640	178.300000
839.827942	180.700000
839.862183	177.200000
839.896423	181.500000
839.930725	190.000000
839.964966	188.100000
839.999207	184.000000
840.033508	185.600000
840.067688	176.900000
840.101990	186.000000
840.136230	179.500000
840.170471	186.100000
840.204712	177.900000
840.238953	179.100000
840.273193	180.000000
840.307434	184.200000
840.341736	178.200000
840.375916	175.700000
840.410217	177.500000
840.444397	183.100000
840.478638	182.300000
840.512878	183.700000
840.547119	181.200000
840.581360	183.500000
840.615601	187.100000
840.649780	188.500000
840.684021	179.100000
840.718262	185.600000
840.752441	185.600000
840.786682	181.900000
840.820862	181.600000
840.855103	186.000000
840.889343	180.400000
840.923584	185.200000
840.957764	182.200000
840.992004	182.000000
841.026184	192.300000
841.060425	180.300000
841.094666	177.500000
841.128845	182.300000
841.163025	180.500000
841.197266	181.500000
841.231445	180.200000
841.265686	183.300000
841.299866	178.100000
841.334045	185.400000
841.368286	180.700000
841.402405	184.400000
841.436646	182.700000
841.470825	179.300000
841.505005	179.500000
841.539185	178.100000
841.573425	178.800000
841.607544	179.500000
841.641785	180.300000
841.675964	177.500000
841.710144	180.800000
841.744324	179.200000
841.778503	180.200000
841.812683	178.300000
841.846863	185.300000
841.881042	185.700000
841.915222	179.500000
841.949402	190.400000
841.983521	176.000000
842.017700	179.800000
842.051880	179.900000
842.086060	183.500000
842.120239	181.300000
842.154419	179.400000
842.188538	181.900000
842.222717	178.000000
842.256897	186.500000
842.291016	180.200000
842.325195	181.000000
842.359375	188.600000
842.393494	186.300000
842.427673	181.900000
842.461853	182.000000
842.495911	187.800000
842.530090	181.900000
842.564209	180.500000
842.598389	182.700000
842.632568	182.300000
842.666626	183.500000
842.700806	179.500000
842.734985	177.000000
842.769043	184.100000
842.803223	180.200000
842.837402	180.600000
842.871460	177.900000
842.905640	189.000000
842.939697	177.000000
842.973877	182.000000
843.007996	186.200000
843.042175	188.100000
843.076233	178.800000
843.110413	184.500000
843.144470	187.000000
843.178589	184.900000
843.212769	179.100000
843.246826	183.900000
843.280945	177.800000
843.315125	181.100000
843.349182	178.200000
843.383301	184.400000
843.417419	190.300000
843.451538	180.500000
843.485657	180.000000
843.519714	181.400000
843.553833	181.700000
843.587952	180.100000
843.622070	178.900000
843.656128	184.400000
843.690247	180.000000
843.724304	180.700000
843.758423	182.100000
843.792542	179.700000
843.826599	181.100000
843.860718	179.700000
843.894836	177.000000
843.928894	182.200000
843.963013	182.400000
843.997070	178.300000
844.031128	176.800000
844.065247	185.100000
844.099304	184.200000
844.133362	182.500000
844.167480	183.400000
844.201599	185.900000
844.235596	182.300000
844.269714	183.700000
844.303711	182.500000
844.337830	176.000000
844.371948	183.200000
844.405945	181.400000
844.440063	177.700000
844.474121	191.600000
844.508118	180.200000
844.542236	180.700000
844.576294	181.500000
844.610352	177.400000
844.644409	181.700000
844.678406	175.600000
844.712524	186.200000
844.746582	184.700000
844.780640	179.500000
844.814636	181.600000
844.848755	190.600000
844.882751	179.300000
844.916809	184.500000
844.950867	183.600000
844.984863	188.000000
845.018921	180.200000
845.052979	178.800000
845.086975	180.900000
845.121033	177.300000
845.155090	178.000000
845.189087	185.900000
845.223145	180.400000
845.257141	183.400000
845.291199	182.100000
845.325256	186.000000
845.359253	181.300000
845.393250	191.200000
845.427307	180.100000
845.461304	181.300000
845.495361	181.200000
845.529358	188.400000
845.563354	179.800000
845.597412	178.200000
845.631409	188.000000
845.665405	186.200000
845.699463	183.900000
845.733459	179.600000
845.767456	188.700000
845.801453	180.600000
845.835449	186.400000
845.869446	183.400000
845.903503	183.900000
845.937439	178.900000
845.971497	186.200000
846.005493	177.600000
846.039429	184.800000
846.073486	188.900000
846.107483	180.600000
846.141418	180.100000
846.175476	182.100000
846.209473	187.000000
846.243408	179.800000
846.277405	181.200000
846.311401	179.000000
846.345337	181.600000
846.379395	185.800000
846.413330	180.000000
846.447327	189.700000
846.481323	177.900000
846.515259	178.800000
846.549255	180.900000
846.583252	184.000000
846.617187	179.300000
846.651184	183.000000
846.685120	180.700000
846.719055	188.300000
846.753052	183.100000
846.786987	185.000000
846.820984	176.700000
846.854980	187.000000
846.888916	178.300000
846.922852	184.100000
846.956848	186.700000
846.990723	179.300000
847.024719	181.600000
847.058716	181.400000
847.092590	185.500000
847.126587	182.900000
847.160522	180.300000
847.194458	185.100000
847.228455	177.800000
847.262390	176.700000
847.296265	180.900000
847.330261	186.500000
847.364136	180.800000
847.398132	180.300000
847.432068	182.600000
847.466003	179.600000
847.499939	180.400000
847.533875	183.700000
847.567749	181.000000
847.601746	180.200000
847.635681	182.900000
847.669556	176.600000
847.703491	186.400000
847.737427	190.800000
847.771301	178.300000
847.805237	183.200000
847.839233	182.100000
847.873108	180.700000
847.907043	181.000000
847.940918	187.700000
847.974854	184.000000
848.008789	185.400000
848.042664	182.000000
848.076538	182.300000
848.110474	181.800000
848.144348	182.800000
848.178284	176.300000
848.212219	182.000000
848.246094	179.700000
848.279968	180.700000
848.313904	183.800000
848.347778	182.100000
848.381653	180.300000
848.415588	178.800000
848.449463	179.700000
848.483337	183.200000
848.517212	186.800000
848.551086	181.900000
848.585022	177.400000
848.618835	190.300000
848.652771	178.700000
848.686646	179.200000
848.720520	187.300000
848.754395	181.700000
848.788330	185.100000
848.822144	184.900000
848.856018	180.300000
848.889954	189.600000
848.923767	178.800000
848.957642	179.700000
848.991577	182.100000
849.025391	181.500000
849.059265	181.500000
849.093079	178.800000
849.126953	178.000000
849.160828	185.200000
849.194641	183.100000
849.228577	181.200000
849.262451	179.200000
849.296265	181.300000
849.330139	179.600000
849.364014	182.400000
849.397827	182.700000
849.431702	182.400000
849.465515	184.900000
849.499329	176.600000
849.533203	178.500000
849.567078	174.700000
849.600891	182.700000
849.634766	180.700000
849.668518	183.700000
849.702393	182.500000
849.736267	176.500000
849.770020	188.600000
849.803894	182.200000
849.837769	181.700000
849.871521	181.800000
849.905396	184.100000
849.939270	179.000000
849.973022	179.200000
850.006897	183.600000
850.040710	184.300000
850.074524	184.000000
850.108337	181.300000
850.142151	185.000000
850.175964	185.100000
850.209778	180.700000
850.243530	172.800000
850.277405	184.200000
850.311218	181.200000
850.344971	180.400000
850.378845	188.000000
850.412659	180.100000
850.446411	182.900000
850.480225	181.500000
850.514038	185.200000
850.547791	184.100000
850.581665	182.500000
850.615417	180.000000
850.649231	182.200000
850.683044	180.600000
850.716858	179.700000
850.750610	182.100000
850.784424	184.300000
850.818176	179.600000
850.851929	181.300000
850.885742	179.600000
850.919495	182.300000
850.953308	187.700000
850.987122	187.700000
851.020874	177.600000
851.054626	177.800000
851.088440	183.600000
851.122192	184.600000
851.156006	181.900000
851.189697	180.500000
851.223511	178.400000
851.257263	185.200000
851.291077	183.900000
851.324829	180.800000
851.358582	180.600000
851.392334	181.500000
851.426086	179.300000
851.459900	189.000000
851.493591	181.900000
851.527344	181.100000
851.561157	180.600000
851.594849	182.600000
851.628662	181.800000
851.662415	188.000000
851.696106	182.600000
851.729858	185.100000
851.763611	178.200000
851.797363	181.800000
851.831116	177.900000
851.864868	182.500000
851.898560	185.300000
851.932312	180.900000
851.966064	182.000000
851.999817	182.400000
852.033569	181.100000
852.067261	184.900000
852.101013	178.300000
852.134766	181.600000
852.168457	175.800000
852.202209	187.300000
852.235901	179.000000
852.269592	184.900000
852.303345	186.900000
852.337036	184.100000
852.370789	182.600000
852.404541	183.900000
852.438171	178.600000
852.471924	182.400000
852.505676	178.000000
852.539307	182.000000
852.573059	179.600000
852.606812	181.600000
852.640442	181.600000
852.674194	185.400000
852.707886	189.200000
852.741577	186.300000
852.775269	179.100000
852.809021	182.200000
852.842651	183.400000
852.876404	187.400000
852.910034	182.600000
852.943787	185.000000
852.977478	183.400000
853.011108	179.500000
853.044861	179.200000
853.078552	185.900000
853.112183	182.900000
853.145874	181.800000
853.179626	176.400000
853.213257	183.100000
853.246948	180.100000
853.280640	189.300000
853.314270	181.800000
853.347961	185.300000
853.381653	184.600000
853.415283	186.000000
853.448975	178.400000
853.482605	181.700000
853.516296	182.100000
853.549988	178.700000
853.583618	184.700000
853.617310	183.200000
853.651001	182.800000
853.684631	178.600000
853.718323	180.000000
853.751953	185.400000
853.785583	176.300000
853.819275	185.000000
853.852966	184.400000
853.886536	176.100000
853.920227	178.200000
853.953918	184.700000
853.987488	180.900000
854.021179	184.100000
854.054749	187.900000
854.088440	184.500000
854.122131	178.400000
854.155701	182.500000
854.189331	179.700000
854.223022	183.800000
854.256592	184.200000
854.290283	180.300000
854.323914	183.900000
854.357483	181.300000
854.391174	183.700000
854.424744	186.100000
854.458374	182.500000
854.492065	191.500000
854.525696	184.800000
854.559265	185.500000
854.592896	190.800000
854.626465	181.000000
854.660095	181.900000
854.693787	184.100000
854.727356	180.800000
854.760986	184.000000
854.794617	184.400000
854.828186	180.200000
854.861816	183.400000
854.895447	183.200000
854.929016	181.000000
854.962585	183.300000
854.996155	188.200000
855.029785	182.800000
855.063416	182.100000
855.097046	184.500000
855.130615	179.000000
855.164185	186.600000
855.197754	182.000000
855.231384	182.400000
855.264954	179.900000
855.298523	185.600000
855.332153	182.800000
855.365723	185.800000
855.399292	180.200000
855.432922	181.200000
855.466492	183.500000
855.500061	179.400000
855.533630	178.200000
855.567200	185.800000
855.600769	185.400000
855.634338	186.000000
855.667969	182.100000
855.701477	180.500000
855.735046	178.900000
855.768616	176.100000
855.802185	182.700000
855.835754	192.100000
855.869324	177.700000
855.902893	181.300000
855.936401	185.100000
855.969971	182.700000
856.003540	177.500000
856.037109	184.300000
856.070618	181.500000
856.104187	178.400000
856.137695	179.900000
856.171265	175.400000
856.204834	182.200000
856.238403	183.800000
856.271912	180.700000
856.305481	184.800000
856.338989	178.000000
856.372559	184.900000
856.406128	184.500000
856.439636	184.800000
856.473145	179.900000
856.506653	187.700000
856.540222	180.300000
856.573792	186.500000
856.607300	185.000000
856.640808	178.600000
856.674377	182.300000
856.707825	214.900000
856.741394	186.600000
856.774902	178.100000
856.808472	176.900000
856.841980	183.600000
856.875488	186.500000
856.908936	176.500000
856.942505	180.900000
856.976013	180.600000
857.009521	179.100000
857.043030	181.500000
857.076477	181.000000
857.110046	187.500000
857.143555	182.400000
857.177063	185.000000
857.210571	180.900000
857.244080	177.200000
857.277527	183.800000
857.311035	181.400000
857.344543	185.500000
857.378052	181.500000
857.411499	186.300000
857.445068	188.500000
857.478516	181.200000
857.512024	179.200000
857.545532	180.400000
857.578979	181.800000
857.612427	183.700000
857.645874	179.100000
857.679382	184.100000
857.712891	185.500000
857.746399	181.700000
857.779846	186.200000
857.813354	186.400000
857.846741	180.800000
857.880249	179.500000
857.913757	182.200000
857.947266	182.000000
857.980652	185.300000
858.014160	181.400000
858.047546	180.500000
858.081055	180.800000
858.114563	191.700000
858.147949	178.000000
858.181458	184.900000
858.214844	181.200000
858.248352	175.600000
858.281799	185.000000
858.315308	190.800000
858.348694	185.500000
858.382141	188.800000
858.415588	184.900000
858.449036	184.200000
858.482483	183.100000
858.515930	179.700000
858.549377	181.800000
858.582825	186.700000
858.616211	185.000000
858.649658	184.800000
858.683105	178.400000
858.716553	180.500000
858.750000	178.200000
858.783386	179.700000
858.816833	176.800000
858.850281	183.300000
858.883728	182.500000
858.917114	183.500000
858.950562	188.700000
858.983948	187.500000
859.017395	185.500000
859.050781	180.600000
859.084167	179.300000
859.117615	180.000000
859.151062	183.400000
859.184448	180.000000
859.217834	180.000000
859.251282	180.200000
859.284668	177.800000
859.318054	177.200000
859.351440	181.100000
859.384888	187.000000
859.418274	176.600000
859.451721	176.400000
859.485046	183.800000
859.518494	183.300000
859.551819	178.800000
859.585266	183.800000
859.618652	186.200000
859.652039	177.100000
859.685425	177.400000
859.718811	177.800000
859.752197	174.500000
859.785583	185.100000
859.819031	186.500000
859.852356	183.900000
859.885742	179.800000
859.919067	180.900000
859.952454	178.700000
859.985901	186.500000
860.019287	181.500000
860.052612	0.000000
860.085999	0.000000
860.119324	0.000000
860.152710	0.000000
860.186096	0.000000
860.219421	0.000000
860.252808	0.000000
860.286133	0.000000
860.319519	0.000000
860.352905	0.000000
860.386292	0.000000
860.419617	0.000000
860.452942	0.000000
860.486267	0.000000
860.519653	0.000000
860.553040	0.000000
860.586365	0.000000
860.619690	0.000000
860.653076	0.000000
860.686340	0.000000
860.719727	0.000000
860.753113	0.000000
860.786377	0.000000
860.819763	0.000000
860.853027	0.000000
860.886414	0.000000
860.919739	0.000000
860.953125	0.000000
860.986389	0.000000
861.019714	0.000000
861.053040	0.000000
861.086365	0.000000
861.119690	0.000000
861.153076	0.000000
861.186340	0.000000
861.219666	0.000000
861.252930	0.000000
861.286316	0.000000
861.319641	0.000000
861.352905	0.000000
861.386230	0.000000
861.419495	0.000000
861.452820	0.000000
861.486145	0.000000
861.519470	0.000000
861.552734	0.000000
861.586060	0.000000
861.619324	0.000000
861.652649	0.000000
861.685974	0.000000
861.719238	0.000000
861.752563	0.000000
861.785828	0.000000
861.819092	0.000000
861.852417	0.000000
861.885742	0.000000
861.918945	0.000000
861.952271	0.000000
861.985535	0.000000
862.018799	0.000000
862.052124	0.000000
862.085449	0.000000
862.118652	0.000000
862.151978	0.000000
862.185181	0.000000
862.218506	0.000000
862.251770	0.000000
862.285034	0.000000
862.318298	0.000000
862.351562	0.000000
862.384827	0.000000
862.418091	0.000000
862.451355	0.000000
862.484619	0.000000
862.517883	0.000000
862.551086	0.000000
862.584351	0.000000
862.617676	0.000000
862.650940	0.000000
862.684143	0.000000
862.717407	0.000000
862.750610	0.000000
862.783875	0.000000
862.817139	0.000000
862.850342	0.000000
862.883606	0.000000
862.916870	0.000000
862.950073	0.000000
862.983337	0.000000
863.016602	0.000000
863.049805	0.000000
863.083069	0.000000
863.116211	0.000000
863.149475	0.000000
863.182739	0.000000
863.216003	0.000000
863.249146	0.000000
863.282410	0.000000
863.315613	0.000000
863.348816	0.000000
863.382080	0.000000
863.415222	0.000000
863.448486	0.000000
863.481689	0.000000
863.514893	0.000000
863.548157	0.000000
863.581360	0.000000
863.614502	0.000000
863.647766	0.000000
863.680908	0.000000
863.714172	0.000000
863.747375	0.000000
863.780579	0.000000
863.813721	0.000000
863.846985	0.000000
863.880127	0.000000
863.913330	0.000000
863.946533	0.000000
863.979675	0.000000
864.012939	0.000000
