Model Number: SPM-001-M   
Serial Number: 10090201
Firmware Version: 004.17.6
Exposure Time: 300000.000000us
Data Taken on: 28-01-2021 10:09:59.598
Wavelength	Amplitude
733.770752	0.000000
733.808716	0.000000
733.846619	0.000000
733.884583	0.000000
733.922546	0.000000
733.960449	0.000000
733.998413	0.000000
734.036377	0.000000
734.074219	0.000000
734.112183	0.000000
734.150085	0.000000
734.188049	0.000000
734.226013	0.000000
734.263916	0.000000
734.301819	0.000000
734.339783	0.000000
734.377686	0.000000
734.415588	0.000000
734.453552	0.000000
734.491455	0.000000
734.529419	0.000000
734.567322	0.000000
734.605225	0.000000
734.643127	0.000000
734.681091	0.000000
734.718994	0.000000
734.756897	0.000000
734.794800	0.000000
734.832703	0.000000
734.870667	0.000000
734.908508	0.000000
734.946472	0.000000
734.984375	0.000000
735.022278	0.000000
735.060181	0.000000
735.098083	0.000000
735.135986	0.000000
735.173889	0.000000
735.211792	0.000000
735.249695	0.000000
735.287598	0.000000
735.325439	0.000000
735.363403	0.000000
735.401306	0.000000
735.439148	0.000000
735.477051	0.000000
735.515015	0.000000
735.552856	0.000000
735.590759	0.000000
735.628662	0.000000
735.666504	0.000000
735.704407	0.000000
735.742310	0.000000
735.780212	0.000000
735.818115	0.000000
735.856018	0.000000
735.893860	0.000000
735.931763	0.000000
735.969604	0.000000
736.007507	0.000000
736.045410	0.000000
736.083252	0.000000
736.121094	0.000000
736.158997	0.000000
736.196838	0.000000
736.234741	0.000000
736.272644	0.000000
736.310486	0.000000
736.348389	0.000000
736.386230	0.000000
736.424072	0.000000
736.461975	0.000000
736.499878	0.000000
736.537720	0.000000
736.575562	0.000000
736.613403	0.000000
736.651306	0.000000
736.689148	0.000000
736.726990	0.000000
736.764893	0.000000
736.802734	0.000000
736.840576	0.000000
736.878418	0.000000
736.916321	0.000000
736.954102	0.000000
736.992004	0.000000
737.029846	0.000000
737.067688	0.000000
737.105530	0.000000
737.143372	0.000000
737.181213	0.000000
737.219116	0.000000
737.256897	0.000000
737.294739	0.000000
737.332642	0.000000
737.370422	0.000000
737.408325	0.000000
737.446167	0.000000
737.483948	0.000000
737.521790	0.000000
737.559692	0.000000
737.597473	0.000000
737.635315	0.000000
737.673157	0.000000
737.710999	0.000000
737.748840	0.000000
737.786621	0.000000
737.824463	0.000000
737.862305	0.000000
737.900085	0.000000
737.937927	0.000000
737.975769	0.000000
738.013550	0.000000
738.051392	0.000000
738.089233	0.000000
738.127014	0.000000
738.164856	0.000000
738.202698	0.000000
738.240479	0.000000
738.278320	0.000000
738.316162	0.000000
738.353943	0.000000
738.391785	0.000000
738.429565	0.000000
738.467407	0.000000
738.505188	0.000000
738.542969	0.000000
738.580811	0.000000
738.618652	0.000000
738.656372	0.000000
738.694214	0.000000
738.732056	0.000000
738.769836	0.000000
738.807617	0.000000
738.845459	0.000000
738.883240	0.000000
738.921021	0.000000
738.958862	0.000000
738.996582	0.000000
739.034424	0.000000
739.072205	0.000000
739.109985	0.000000
739.147827	0.000000
739.185547	0.000000
739.223389	0.000000
739.261169	0.000000
739.298889	0.000000
739.336731	0.000000
739.374512	0.000000
739.412292	0.000000
739.450073	0.000000
739.487854	0.000000
739.525635	0.000000
739.563416	0.000000
739.601135	0.000000
739.638977	0.000000
739.676758	0.000000
739.714478	0.000000
739.752258	0.000000
739.790100	0.000000
739.827820	0.000000
739.865601	0.000000
739.903381	0.000000
739.941101	0.000000
739.978882	183.600000
740.016724	179.100000
740.054443	183.800000
740.092224	179.400000
740.130005	179.200000
740.167725	179.400000
740.205505	179.300000
740.243225	185.000000
740.281006	182.000000
740.318787	177.200000
740.356506	185.700000
740.394287	184.500000
740.432068	178.400000
740.469727	176.400000
740.507507	183.100000
740.545288	180.600000
740.583008	182.300000
740.620789	180.900000
740.658569	175.800000
740.696228	179.900000
740.734009	182.000000
740.771790	173.800000
740.809509	183.800000
740.847229	176.700000
740.884949	178.300000
740.922729	176.900000
740.960449	179.100000
740.998169	178.800000
741.035950	178.700000
741.073669	182.600000
741.111389	181.600000
741.149170	187.200000
741.186890	187.000000
741.224609	184.000000
741.262329	181.500000
741.300110	186.700000
741.337769	178.000000
741.375549	176.000000
741.413208	180.000000
741.450989	178.000000
741.488708	179.600000
741.526367	177.900000
741.564148	182.600000
741.601868	182.600000
741.639526	178.800000
741.677307	182.400000
741.715027	182.100000
741.752686	177.900000
741.790466	184.400000
741.828186	181.200000
741.865845	176.700000
741.903564	175.900000
741.941345	179.900000
741.979004	177.000000
742.016724	183.400000
742.054382	181.000000
742.092102	182.900000
742.129822	175.600000
742.167480	180.200000
742.205200	179.000000
742.242920	183.000000
742.280640	183.400000
742.318359	178.000000
742.356079	180.100000
742.393738	184.100000
742.431396	178.500000
742.469116	183.500000
742.506775	175.500000
742.544495	181.600000
742.582214	182.400000
742.619873	179.900000
742.657593	185.800000
742.695251	184.000000
742.732971	179.000000
742.770630	182.000000
742.808289	180.900000
742.846008	180.700000
742.883728	180.100000
742.921326	181.500000
742.959045	179.000000
742.996765	180.000000
743.034424	178.800000
743.072083	178.900000
743.109802	179.200000
743.147400	177.000000
743.185120	181.100000
743.222839	180.600000
743.260437	185.700000
743.298157	180.500000
743.335754	174.900000
743.373474	179.200000
743.411133	176.100000
743.448792	179.600000
743.486450	180.100000
743.524170	175.800000
743.561768	179.900000
743.599487	185.400000
743.637146	187.200000
743.674744	179.600000
743.712463	179.700000
743.750122	181.000000
743.787720	181.600000
743.825439	179.100000
743.863037	180.200000
743.900696	180.200000
743.938416	204.900000
743.976013	180.400000
744.013672	186.600000
744.051331	185.200000
744.088928	185.200000
744.126587	184.700000
744.164307	182.800000
744.201904	178.600000
744.239563	181.600000
744.277222	183.100000
744.314819	180.800000
744.352478	185.700000
744.390137	182.000000
744.427734	182.600000
744.465393	179.400000
744.502991	177.600000
744.540649	182.300000
744.578308	181.400000
744.615906	177.900000
744.653564	173.600000
744.691223	181.900000
744.728821	177.100000
744.766418	179.500000
744.804077	181.600000
744.841675	178.300000
744.879333	177.100000
744.916992	179.700000
744.954529	179.200000
744.992187	183.500000
745.029785	178.000000
745.067444	179.500000
745.105042	181.100000
745.142639	180.800000
745.180298	188.100000
745.217896	180.400000
745.255493	178.600000
745.293152	183.200000
745.330750	184.000000
745.368347	184.100000
745.405945	183.500000
745.443604	181.300000
745.481140	181.700000
745.518799	181.000000
745.556396	183.900000
745.593994	181.800000
745.631592	181.200000
745.669189	177.800000
745.706787	181.300000
745.744385	178.600000
745.781982	182.900000
745.819580	178.000000
745.857178	180.600000
745.894775	180.200000
745.932373	182.800000
745.969971	182.200000
746.007568	175.500000
746.045166	186.500000
746.082764	184.700000
746.120300	182.000000
746.157898	182.700000
746.195557	179.600000
746.233093	176.700000
746.270691	183.000000
746.308228	183.300000
746.345825	184.000000
746.383423	183.000000
746.420959	179.200000
746.458557	179.600000
746.496155	179.300000
746.533691	182.800000
746.571289	177.600000
746.608887	180.200000
746.646423	181.100000
746.684021	180.600000
746.721619	178.700000
746.759155	181.700000
746.796753	176.300000
746.834351	175.600000
746.871826	178.100000
746.909424	184.600000
746.946960	180.600000
746.984558	179.800000
747.022156	179.100000
747.059631	187.000000
747.097229	181.800000
747.134827	179.900000
747.172363	184.900000
747.209900	183.900000
747.247498	178.400000
747.285034	184.600000
747.322571	184.800000
747.360168	179.700000
747.397644	176.200000
747.435242	183.700000
747.472778	185.100000
747.510315	180.400000
747.547913	180.800000
747.585388	184.400000
747.622925	180.000000
747.660522	176.400000
747.697998	179.400000
747.735596	179.100000
747.773132	179.100000
747.810669	181.400000
747.848206	184.200000
747.885742	177.400000
747.923279	176.700000
747.960815	182.600000
747.998352	182.800000
748.035889	184.700000
748.073425	183.400000
748.110901	179.700000
748.148437	178.000000
748.185974	180.400000
748.223511	187.200000
748.261047	182.700000
748.298584	180.500000
748.336060	179.900000
748.373596	182.100000
748.411133	205.600000
748.448608	179.600000
748.486145	181.400000
748.523682	183.100000
748.561218	186.900000
748.598755	181.900000
748.636292	183.000000
748.673706	179.800000
748.711243	187.100000
748.748718	181.700000
748.786255	181.000000
748.823792	180.700000
748.861267	178.100000
748.898804	183.600000
748.936340	182.400000
748.973816	178.500000
749.011292	185.400000
749.048828	182.200000
749.086304	182.900000
749.123840	187.800000
749.161316	179.900000
749.198792	186.700000
749.236328	185.600000
749.273743	181.400000
749.311279	179.800000
749.348816	183.800000
749.386230	181.000000
749.423767	173.900000
749.461304	182.400000
749.498718	181.700000
749.536255	185.200000
749.573730	188.000000
749.611206	186.700000
749.648682	180.000000
749.686218	180.800000
749.723633	183.200000
749.761169	180.100000
749.798645	178.000000
749.836060	179.900000
749.873596	178.500000
749.911011	182.600000
749.948547	185.000000
749.986023	180.900000
750.023437	180.900000
750.060913	176.500000
750.098450	176.500000
750.135864	180.800000
750.173340	180.500000
750.210815	185.700000
750.248291	178.100000
750.285767	179.300000
750.323242	184.300000
750.360657	182.400000
750.398132	177.300000
750.435608	182.200000
750.473022	178.900000
750.510498	178.000000
750.547974	177.700000
750.585449	181.200000
750.622925	174.200000
750.660339	189.700000
750.697815	182.100000
750.735291	181.500000
750.772644	181.000000
750.810120	182.900000
750.847595	182.500000
750.885010	177.400000
750.922485	186.600000
750.959961	180.900000
750.997375	185.500000
751.034851	183.600000
751.072266	183.200000
751.109680	176.700000
751.147156	185.100000
751.184570	182.100000
751.221985	181.300000
751.259460	176.000000
751.296875	181.600000
751.334290	179.500000
751.371765	184.900000
751.409180	183.300000
751.446594	186.000000
751.484070	182.400000
751.521423	181.500000
751.558899	181.400000
751.596375	189.000000
751.633728	184.500000
751.671204	188.500000
751.708618	177.900000
751.746033	182.400000
751.783447	176.500000
751.820801	178.100000
751.858276	183.500000
751.895691	180.800000
751.933105	179.100000
751.970520	177.500000
752.007935	179.700000
752.045349	185.200000
752.082764	181.800000
752.120178	179.900000
752.157532	178.700000
752.195007	179.200000
752.232422	181.900000
752.269775	185.400000
752.307190	183.400000
752.344543	178.000000
752.382019	180.700000
752.419434	179.600000
752.456787	183.100000
752.494202	184.200000
752.531616	182.600000
752.568970	183.400000
752.606384	183.800000
752.643799	183.200000
752.681152	185.700000
752.718567	183.700000
752.755981	175.900000
752.793335	184.900000
752.830750	175.300000
752.868164	184.900000
752.905518	177.900000
752.942932	185.100000
752.980225	178.100000
753.017639	183.100000
753.055054	184.100000
753.092407	182.600000
753.129822	183.900000
753.167175	186.700000
753.204529	181.000000
753.241943	178.300000
753.279358	176.900000
753.316650	183.000000
753.354065	182.700000
753.391479	183.600000
753.428772	186.500000
753.466187	182.700000
753.503479	178.700000
753.540894	180.600000
753.578308	177.000000
753.615601	176.900000
753.653015	180.900000
753.690369	178.200000
753.727722	179.500000
753.765076	177.600000
753.802490	177.500000
753.839783	177.000000
753.877136	179.100000
753.914551	190.100000
753.951843	179.600000
753.989258	183.700000
754.026611	181.400000
754.063904	182.500000
754.101257	178.400000
754.138611	174.500000
754.175964	181.200000
754.213318	189.000000
754.250610	177.400000
754.288025	180.800000
754.325378	176.900000
754.362671	183.600000
754.400024	181.300000
754.437378	188.200000
754.474670	186.300000
754.512085	178.600000
754.549438	182.900000
754.586731	178.800000
754.624084	181.300000
754.661438	178.000000
754.698730	186.100000
754.736084	180.700000
754.773376	180.800000
754.810730	183.100000
754.848083	181.100000
754.885315	185.100000
754.922668	176.600000
754.960022	177.800000
754.997314	184.200000
755.034668	181.800000
755.072021	182.200000
755.109253	180.400000
755.146606	186.600000
755.183960	181.000000
755.221252	187.500000
755.258545	183.800000
755.295898	186.100000
755.333191	185.300000
755.370544	185.000000
755.407776	182.200000
755.445129	183.200000
755.482422	184.100000
755.519714	181.200000
755.557068	177.200000
755.594360	176.800000
755.631653	184.400000
755.668945	189.400000
755.706299	183.400000
755.743530	191.300000
755.780884	187.500000
755.818176	185.800000
755.855408	186.400000
755.892761	185.600000
755.930054	182.700000
755.967346	184.600000
756.004639	185.100000
756.041870	183.400000
756.079224	185.900000
756.116516	181.300000
756.153748	185.500000
756.191040	189.400000
756.228394	185.100000
756.265625	180.500000
756.302917	184.600000
756.340210	182.300000
756.377441	187.300000
756.414795	187.600000
756.452087	183.900000
756.489319	180.400000
756.526611	186.200000
756.563843	184.300000
756.601135	189.200000
756.638428	190.500000
756.675659	184.100000
756.712952	187.300000
756.750244	185.700000
756.787476	185.100000
756.824768	188.600000
756.862061	182.700000
756.899292	227.700000
756.936584	186.200000
756.973816	191.100000
757.011047	192.400000
757.048340	184.000000
757.085632	185.800000
757.122864	198.000000
757.160156	182.900000
757.197327	186.500000
757.234619	190.100000
757.271912	184.300000
757.309082	189.600000
757.346375	182.800000
757.383667	189.000000
757.420837	186.500000
757.458130	187.100000
757.495422	183.900000
757.532593	187.900000
757.569885	181.300000
757.607117	183.400000
757.644348	187.300000
757.681580	197.000000
757.718811	177.400000
757.756042	187.900000
757.793335	185.700000
757.830505	192.300000
757.867798	184.900000
757.905029	185.800000
757.942200	185.700000
757.979492	185.700000
758.016724	185.800000
758.053894	185.800000
758.091187	199.000000
758.128418	188.800000
758.165588	187.400000
758.202820	195.200000
758.240112	188.800000
758.277283	194.500000
758.314514	189.600000
758.351685	186.600000
758.388916	193.700000
758.426147	191.500000
758.463379	194.600000
758.500610	188.600000
758.537842	189.600000
758.575012	193.600000
758.612244	185.800000
758.649475	198.300000
758.686646	185.100000
758.723877	193.700000
758.761108	196.300000
758.798279	188.900000
758.835510	190.900000
758.872742	194.700000
758.909851	191.300000
758.947083	191.500000
758.984253	191.000000
759.021484	193.400000
759.058716	192.500000
759.095886	194.200000
759.133057	190.800000
759.170288	193.300000
759.207458	190.300000
759.244690	199.600000
759.281860	197.500000
759.319031	191.900000
759.356262	191.400000
759.393433	190.600000
759.430603	192.700000
759.467773	191.700000
759.505005	196.200000
759.542175	197.300000
759.579346	193.100000
759.616516	192.300000
759.653687	195.200000
759.690918	191.500000
759.728027	194.500000
759.765259	194.800000
759.802429	195.500000
759.839539	194.700000
759.876770	197.700000
759.913940	202.000000
759.951111	195.900000
759.988281	195.600000
760.025452	191.900000
760.062561	191.000000
760.099792	202.800000
760.136963	197.600000
760.174072	194.300000
760.211243	192.800000
760.248413	192.600000
760.285583	192.400000
760.322754	202.600000
760.359863	200.600000
760.397034	200.300000
760.434204	196.400000
760.471375	196.100000
760.508545	192.900000
760.545715	196.100000
760.582825	193.700000
760.619995	198.200000
760.657166	192.700000
760.694275	200.600000
760.731445	197.600000
760.768555	197.700000
760.805664	200.500000
760.842834	197.400000
760.879944	200.300000
760.917114	198.000000
760.954285	197.900000
760.991394	193.800000
761.028564	201.800000
761.065674	199.400000
761.102783	197.000000
761.139954	201.900000
761.177124	201.600000
761.214172	203.500000
761.251343	198.400000
761.288452	198.000000
761.325562	202.500000
761.362732	197.100000
761.399841	199.600000
761.436951	200.500000
761.474121	196.700000
761.511169	198.900000
761.548340	203.800000
761.585449	202.800000
761.622559	203.300000
761.659668	202.400000
761.696838	205.200000
761.733887	201.500000
761.771057	201.600000
761.808167	201.300000
761.845276	205.100000
761.882385	212.600000
761.919434	202.800000
761.956604	215.800000
761.993713	199.700000
762.030762	206.900000
762.067871	203.500000
762.105042	201.500000
762.142090	208.500000
762.179199	204.600000
762.216309	208.100000
762.253418	214.500000
762.290527	212.400000
762.327637	210.100000
762.364685	200.900000
762.401794	206.900000
762.438904	207.200000
762.475952	202.500000
762.513062	202.100000
762.550110	205.000000
762.587219	214.000000
762.624329	212.200000
762.661377	207.400000
762.698486	206.600000
762.735596	206.400000
762.772644	203.900000
762.809753	202.300000
762.846863	207.800000
762.883911	212.500000
762.921021	209.500000
762.958069	208.600000
762.995117	212.500000
763.032227	213.200000
763.069336	207.100000
763.106323	204.600000
763.143433	205.400000
763.180481	208.900000
763.217590	210.400000
763.254639	208.900000
763.291687	209.100000
763.328735	217.100000
763.365845	211.500000
763.402893	209.800000
763.439941	211.500000
763.477051	214.300000
763.514038	214.000000
763.551147	210.400000
763.588196	213.000000
763.625244	212.400000
763.662292	217.500000
763.699402	220.100000
763.736389	216.700000
763.773499	222.800000
763.810486	215.900000
763.847534	215.900000
763.884644	216.500000
763.921631	216.000000
763.958679	221.500000
763.995728	216.300000
764.032776	220.700000
764.069824	213.200000
764.106873	220.300000
764.143860	223.800000
764.180969	218.700000
764.218018	224.400000
764.255005	217.400000
764.292053	219.800000
764.329102	226.200000
764.366089	227.700000
764.403137	223.700000
764.440125	219.300000
764.477173	222.100000
764.514221	224.900000
764.551208	222.500000
764.588257	220.800000
764.625305	226.800000
764.662292	231.100000
764.699341	230.400000
764.736389	227.600000
764.773376	236.900000
764.810425	228.800000
764.847473	234.600000
764.884399	231.800000
764.921448	237.000000
764.958435	234.400000
764.995483	228.800000
765.032532	238.900000
765.069458	229.400000
765.106506	232.700000
765.143555	230.300000
765.180481	233.500000
765.217529	240.300000
765.254578	229.800000
765.291504	233.300000
765.328552	233.300000
765.365540	231.000000
765.402527	241.600000
765.439575	232.400000
765.476501	230.200000
765.513550	231.600000
765.550537	233.200000
765.587463	239.600000
765.624512	233.900000
765.661499	229.400000
765.698486	241.600000
765.735474	234.100000
765.772461	236.000000
765.809448	241.700000
765.846436	239.400000
765.883423	244.500000
765.920410	239.500000
765.957397	237.500000
765.994385	242.200000
766.031311	247.300000
766.068359	240.900000
766.105286	243.600000
766.142273	245.400000
766.179260	242.200000
766.216187	240.400000
766.253174	238.900000
766.290161	244.400000
766.327148	246.000000
766.364136	246.500000
766.401123	255.300000
766.438049	242.100000
766.475037	251.900000
766.512024	248.500000
766.548950	259.900000
766.585937	255.300000
766.622864	251.300000
766.659790	249.400000
766.696777	244.400000
766.733704	253.900000
766.770691	250.000000
766.807678	256.300000
766.844604	253.100000
766.881531	253.700000
766.918518	256.600000
766.955444	258.500000
766.992432	253.800000
767.029358	255.300000
767.066284	257.400000
767.103271	259.200000
767.140198	289.100000
767.177124	265.600000
767.214050	260.800000
767.251038	261.600000
767.287964	258.700000
767.324890	257.200000
767.361816	259.900000
767.398743	264.500000
767.435730	259.400000
767.472595	262.200000
767.509583	264.500000
767.546509	259.200000
767.583374	263.500000
767.620361	257.500000
767.657288	260.500000
767.694214	261.100000
767.731140	261.400000
767.768066	262.100000
767.804993	264.200000
767.841919	259.300000
767.878845	264.000000
767.915710	267.500000
767.952698	262.400000
767.989563	267.600000
768.026489	266.900000
768.063416	263.700000
768.100281	264.000000
768.137207	269.700000
768.174133	267.500000
768.211060	268.700000
768.247986	268.000000
768.284912	267.900000
768.321777	269.300000
768.358704	267.500000
768.395630	269.600000
768.432495	264.900000
768.469421	271.900000
768.506348	273.500000
768.543152	277.500000
768.580078	273.400000
768.616943	276.900000
768.653870	276.800000
768.690796	277.900000
768.727661	277.500000
768.764587	278.200000
768.801453	274.500000
768.838318	280.100000
768.875244	280.300000
768.912109	284.500000
768.948975	276.900000
768.985901	279.000000
769.022766	278.900000
769.059631	283.800000
769.096558	279.300000
769.133362	281.000000
769.170288	281.500000
769.207214	284.000000
769.244019	288.400000
769.280945	287.400000
769.317810	292.200000
769.354675	287.500000
769.391541	293.400000
769.428406	291.300000
769.465271	298.400000
769.502136	291.800000
769.539062	293.600000
769.575867	293.300000
769.612732	293.800000
769.649597	298.100000
769.686462	300.500000
769.723328	295.500000
769.760193	296.200000
769.797058	298.700000
769.833923	302.900000
769.870728	299.900000
769.907593	303.600000
769.944519	302.400000
769.981323	305.900000
770.018188	306.600000
770.055054	302.700000
770.091858	305.500000
770.128723	312.500000
770.165588	316.800000
770.202393	308.200000
770.239258	317.100000
770.276062	312.500000
770.312927	313.700000
770.349792	320.300000
770.386597	318.200000
770.423462	324.900000
770.460327	330.900000
770.497131	318.500000
770.533997	315.500000
770.570862	325.000000
770.607605	326.800000
770.644470	325.900000
770.681335	326.000000
770.718140	325.300000
770.754944	322.600000
770.791809	326.700000
770.828613	326.500000
770.865479	327.300000
770.902222	333.200000
770.939087	329.500000
770.975952	323.100000
771.012695	327.200000
771.049561	339.800000
771.086365	333.800000
771.123169	328.700000
771.159973	330.800000
771.196838	332.900000
771.233582	337.400000
771.270447	335.200000
771.307251	339.000000
771.344055	334.600000
771.380859	339.200000
771.417664	336.200000
771.454468	340.700000
771.491272	341.400000
771.528076	341.800000
771.564880	340.000000
771.601685	347.000000
771.638428	341.200000
771.675293	345.500000
771.712097	338.100000
771.748840	354.100000
771.785645	345.900000
771.822449	348.400000
771.859253	350.000000
771.896057	348.300000
771.932861	355.600000
771.969604	349.500000
772.006409	344.000000
772.043213	354.800000
772.079956	354.000000
772.116760	350.600000
772.153503	349.700000
772.190308	361.300000
772.227112	357.100000
772.263855	353.400000
772.300659	356.600000
772.337463	360.800000
772.374207	354.600000
772.411011	355.200000
772.447754	357.100000
772.484497	368.200000
772.521301	362.000000
772.558105	359.200000
772.594849	361.900000
772.631592	368.600000
772.668396	363.800000
772.705139	368.700000
772.741882	369.500000
772.778625	375.600000
772.815430	373.700000
772.852173	370.800000
772.888916	374.800000
772.925720	379.800000
772.962463	384.700000
772.999207	377.800000
773.035950	382.600000
773.072754	381.300000
773.109436	375.400000
773.146240	376.200000
773.182922	376.800000
773.219727	382.400000
773.256470	380.700000
773.293152	375.000000
773.329956	377.900000
773.366699	382.200000
773.403381	376.300000
773.440186	380.800000
773.476929	380.600000
773.513611	376.900000
773.550354	376.100000
773.587158	383.000000
773.623840	380.000000
773.660583	385.700000
773.697327	393.500000
773.734009	384.700000
773.770813	386.000000
773.807495	386.100000
773.844238	386.100000
773.880981	398.000000
773.917664	394.600000
773.954407	397.200000
773.991150	390.400000
774.027832	397.100000
774.064575	389.800000
774.101318	398.100000
774.138000	399.200000
774.174744	396.000000
774.211487	398.000000
774.248108	391.900000
774.284851	390.800000
774.321594	399.300000
774.358276	398.500000
774.395020	406.600000
774.431702	401.300000
774.468384	397.000000
774.505127	396.400000
774.541809	404.300000
774.578491	409.000000
774.615234	408.200000
774.651917	401.100000
774.688599	407.000000
774.725342	416.300000
774.762024	415.300000
774.798706	418.300000
774.835449	419.700000
774.872070	421.900000
774.908813	417.700000
774.945496	418.000000
774.982178	421.800000
775.018860	425.000000
775.055542	427.300000
775.092224	425.800000
775.128967	428.300000
775.165588	428.400000
775.202271	424.900000
775.239014	435.100000
775.275635	433.900000
775.312317	431.800000
775.349060	436.600000
775.385681	434.200000
775.422363	430.900000
775.459045	439.800000
775.495667	441.500000
775.532410	445.000000
775.569092	443.300000
775.605713	441.500000
775.642395	444.000000
775.679016	447.300000
775.715698	451.900000
775.752380	450.400000
775.789001	447.300000
775.825684	445.700000
775.862366	453.400000
775.898987	459.200000
775.935669	456.900000
775.972351	471.300000
776.008972	465.600000
776.045654	464.100000
776.082336	460.200000
776.118958	462.400000
776.155640	469.700000
776.192322	475.800000
776.228882	476.100000
776.265564	477.800000
776.302185	470.200000
776.338867	481.300000
776.375488	473.200000
776.412109	482.500000
776.448792	486.900000
776.485413	492.300000
776.522034	480.700000
776.558716	475.800000
776.595337	481.800000
776.631958	483.800000
776.668579	486.000000
776.705261	491.600000
776.741882	488.700000
776.778503	491.000000
776.815186	485.900000
776.851746	493.400000
776.888367	495.700000
776.924988	504.800000
776.961609	499.100000
776.998291	500.800000
777.034851	495.800000
777.071472	503.700000
777.108154	503.200000
777.144714	513.600000
777.181335	513.400000
777.218018	510.600000
777.254578	513.200000
777.291199	514.000000
777.327759	517.700000
777.364380	522.900000
777.401062	527.900000
777.437622	531.700000
777.474243	524.900000
777.510864	527.600000
777.547424	523.800000
777.584045	525.900000
777.620667	528.500000
777.657227	532.400000
777.693848	529.600000
777.730469	539.000000
777.767029	533.000000
777.803650	533.600000
777.840271	534.400000
777.876831	533.900000
777.913452	539.600000
777.950012	523.200000
777.986633	524.300000
778.023193	528.700000
778.059753	528.100000
778.096375	532.700000
778.132996	541.300000
778.169556	534.000000
778.206116	536.500000
778.242737	533.400000
778.279297	541.000000
778.315857	534.000000
778.352478	539.300000
778.389038	546.100000
778.425598	545.100000
778.462219	549.600000
778.498718	549.500000
778.535339	552.300000
778.571838	556.300000
778.608459	558.800000
778.645020	549.500000
778.681580	554.500000
778.718140	551.200000
778.754761	547.600000
778.791260	558.700000
778.827881	566.200000
778.864441	562.600000
778.900940	569.400000
778.937561	564.000000
778.974121	560.600000
779.010620	554.900000
779.047241	561.900000
779.083801	572.100000
779.120300	565.000000
779.156860	568.800000
779.193359	563.400000
779.229980	566.700000
779.266541	576.600000
779.303040	577.500000
779.339600	570.100000
779.376160	560.500000
779.412659	561.800000
779.449219	564.500000
779.485779	570.400000
779.522278	567.500000
779.558838	571.100000
779.595398	572.300000
779.631897	568.200000
779.668457	564.400000
779.705017	575.000000
779.741516	569.100000
779.778076	570.800000
779.814575	569.600000
779.851074	571.200000
779.887634	568.400000
779.924133	577.100000
779.960693	569.700000
779.997253	581.500000
780.033691	583.800000
780.070251	588.200000
780.106812	590.300000
780.143250	586.300000
780.179810	588.100000
780.216370	588.500000
780.252808	591.300000
780.289368	599.000000
780.325867	593.700000
780.362366	592.400000
780.398865	603.700000
780.435364	595.000000
780.471863	608.700000
780.508423	602.000000
780.544861	605.100000
780.581421	603.600000
780.617920	593.200000
780.654419	594.500000
780.690918	602.400000
780.727417	609.000000
780.763916	608.900000
780.800415	613.300000
780.836914	602.000000
780.873352	606.900000
780.909912	604.100000
780.946411	613.700000
780.982849	620.200000
781.019348	628.300000
781.055786	620.700000
781.092346	623.000000
781.128845	628.500000
781.165283	634.400000
781.201782	644.000000
781.238281	648.700000
781.274719	646.900000
781.311218	640.300000
781.347717	649.300000
781.384155	641.400000
781.420654	647.100000
781.457092	654.600000
781.493591	646.100000
781.530090	643.600000
781.566528	647.300000
781.602966	648.800000
781.639465	648.900000
781.675903	646.300000
781.712402	655.700000
781.748901	653.300000
781.785278	649.900000
781.821777	655.000000
781.858276	656.800000
781.894714	665.400000
781.931152	665.500000
781.967651	671.900000
782.004089	661.200000
782.040527	669.000000
782.076965	668.200000
782.113403	673.700000
782.149902	681.300000
782.186340	677.100000
782.222778	682.100000
782.259277	679.900000
782.295654	679.700000
782.332092	689.300000
782.368591	685.600000
782.404968	686.600000
782.441467	692.100000
782.477905	688.900000
782.514282	689.600000
782.550781	698.600000
782.587219	698.100000
782.623596	704.000000
782.660095	708.900000
782.696472	714.000000
782.732910	722.900000
782.769348	727.500000
782.805786	740.000000
782.842224	736.800000
782.878662	729.500000
782.915039	728.000000
782.951477	733.500000
782.987915	728.100000
783.024292	726.900000
783.060730	726.900000
783.097168	720.300000
783.133545	717.500000
783.169983	711.900000
783.206421	708.600000
783.242798	705.600000
783.279236	701.000000
783.315613	700.500000
783.352051	693.800000
783.388489	690.000000
783.424866	681.100000
783.461304	689.900000
783.497681	698.700000
783.534058	686.800000
783.570496	681.700000
783.606934	676.400000
783.643250	666.400000
783.679687	659.000000
783.716125	633.800000
783.752441	611.600000
783.788879	590.900000
783.825317	563.100000
783.861633	526.700000
783.898071	491.500000
783.934448	465.800000
783.970825	436.100000
784.007263	403.900000
784.043579	384.900000
784.080017	364.800000
784.116394	344.500000
784.152710	335.700000
784.189148	331.900000
784.225525	322.500000
784.261902	318.900000
784.298279	319.900000
784.334656	323.200000
784.371033	316.300000
784.407410	318.600000
784.443787	317.600000
784.480164	323.600000
784.516541	337.900000
784.552856	368.400000
784.589233	395.400000
784.625610	418.200000
784.661987	471.800000
784.698364	505.100000
784.734741	537.700000
784.771057	576.400000
784.807434	609.000000
784.843811	651.300000
784.880127	677.100000
784.916504	716.500000
784.952881	735.300000
784.989197	740.300000
785.025574	759.900000
785.061951	769.300000
785.098267	788.300000
785.134644	785.900000
785.170959	778.000000
785.207275	776.000000
785.243652	773.400000
785.279968	761.900000
785.316345	769.700000
785.352722	765.700000
785.388977	755.800000
785.425354	740.100000
785.461731	724.300000
785.498047	726.200000
785.534363	724.300000
785.570679	728.200000
785.606995	727.700000
785.643372	724.200000
785.679687	725.900000
785.716003	722.500000
785.752380	722.400000
785.788635	733.100000
785.825012	749.600000
785.861328	757.000000
785.897644	748.000000
785.933960	764.500000
785.970337	774.800000
786.006592	789.700000
786.042908	796.900000
786.079285	804.300000
786.115540	807.700000
786.151855	798.500000
786.188171	797.400000
786.224487	803.900000
786.260803	797.900000
786.297119	808.700000
786.333435	807.000000
786.369751	795.100000
786.406006	790.600000
786.442322	781.200000
786.478638	773.300000
786.514954	776.800000
786.551270	771.000000
786.587585	767.800000
786.623840	758.100000
786.660156	757.600000
786.696472	751.200000
786.732727	749.300000
786.769043	757.200000
786.805298	746.300000
786.841614	751.600000
786.877930	767.500000
786.914124	760.400000
786.950439	773.100000
786.986755	784.100000
787.023010	800.600000
787.059326	807.100000
787.095642	808.200000
787.131836	820.200000
787.168152	816.200000
787.204468	832.300000
787.240723	844.200000
787.276978	844.800000
787.313293	844.200000
787.349548	840.700000
787.385803	843.200000
787.422058	841.000000
787.458313	839.300000
787.494629	830.800000
787.530823	824.300000
787.567139	814.300000
787.603455	807.500000
787.639648	796.100000
787.675903	800.500000
787.712219	795.900000
787.748413	797.900000
787.784729	797.500000
787.820984	786.900000
787.857178	785.300000
787.893494	782.500000
787.929749	790.700000
787.965942	805.400000
788.002258	814.200000
788.038452	821.100000
788.074707	815.600000
788.110962	824.500000
788.147217	831.900000
788.183472	843.900000
788.219727	851.800000
788.255920	862.000000
788.292175	868.700000
788.328430	865.200000
788.364624	853.600000
788.400879	853.800000
788.437134	857.700000
788.473328	858.000000
788.509583	851.800000
788.545837	852.000000
788.582031	853.500000
788.618286	852.000000
788.654480	855.200000
788.690735	863.600000
788.726990	876.000000
788.763184	871.800000
788.799377	878.000000
788.835632	870.700000
788.871826	883.700000
788.908081	876.800000
788.944336	877.100000
788.980469	890.400000
789.016724	886.000000
789.052979	885.100000
789.089111	872.000000
789.125366	877.100000
789.161621	864.900000
789.197754	876.100000
789.234009	873.200000
789.270142	866.500000
789.306396	859.600000
789.342590	852.100000
789.378784	842.500000
789.414978	843.600000
789.451233	855.500000
789.487366	856.700000
789.523621	861.500000
789.559814	854.500000
789.595947	853.800000
789.632202	859.000000
789.668335	872.900000
789.704529	890.600000
789.740784	899.700000
789.776917	895.100000
789.813110	892.800000
789.849304	904.000000
789.885498	911.900000
789.921692	920.300000
789.957886	930.600000
789.994019	929.600000
790.030212	926.600000
790.066406	929.300000
790.102539	931.400000
790.138733	944.800000
790.174927	940.400000
790.211060	949.200000
790.247253	942.400000
790.283386	932.200000
790.319580	917.600000
790.355774	910.600000
790.391907	908.000000
790.428101	919.900000
790.464294	921.300000
790.500427	915.600000
790.536621	889.900000
790.572754	885.100000
790.608887	890.600000
790.645081	895.900000
790.681274	912.200000
790.717346	904.900000
790.753540	883.400000
790.789734	869.700000
790.825867	859.100000
790.862000	877.600000
790.898132	886.000000
790.934265	882.200000
790.970459	881.100000
791.006592	882.400000
791.042725	875.100000
791.078918	874.600000
791.114990	878.700000
791.151184	879.600000
791.187317	887.000000
791.223389	885.500000
791.259583	877.200000
791.295715	882.500000
791.331848	887.100000
791.367981	893.700000
791.404114	892.800000
791.440247	892.500000
791.476379	895.300000
791.512451	881.000000
791.548584	874.400000
791.584778	866.200000
791.620850	883.700000
791.656982	888.600000
791.693115	891.200000
791.729187	880.400000
791.765381	875.900000
791.801514	874.400000
791.837585	887.600000
791.873718	896.300000
791.909851	894.100000
791.945923	898.900000
791.982056	883.900000
792.018188	878.700000
792.054260	880.700000
792.090393	886.300000
792.126465	881.600000
792.162598	881.500000
792.198669	874.800000
792.234741	864.100000
792.270874	849.700000
792.307007	846.300000
792.343079	858.100000
792.379150	867.600000
792.415283	855.300000
792.451355	852.900000
792.487488	828.300000
792.523560	821.100000
792.559631	802.500000
792.595764	756.200000
792.631836	729.100000
792.667908	717.900000
792.703979	722.700000
792.740051	755.500000
792.776184	782.700000
792.812256	790.000000
792.848328	802.800000
792.884399	810.900000
792.920471	804.300000
792.956543	803.800000
792.992615	798.100000
793.028748	798.700000
793.064758	814.000000
793.100830	831.400000
793.136963	842.100000
793.172974	834.500000
793.209045	826.400000
793.245178	827.900000
793.281189	820.500000
793.317261	833.800000
793.353271	836.500000
793.389404	838.900000
793.425476	830.800000
793.461487	822.800000
793.497559	813.700000
793.533630	818.700000
793.569641	821.100000
793.605713	827.600000
793.641785	826.800000
793.677795	839.100000
793.713867	830.800000
793.749878	826.700000
793.785950	847.700000
793.822021	854.100000
793.858032	840.700000
793.894104	849.400000
793.930176	842.100000
793.966187	843.200000
794.002258	837.500000
794.038269	848.700000
794.074280	848.800000
794.110352	864.600000
794.146423	851.500000
794.182373	850.700000
794.218445	840.500000
794.254517	837.600000
794.290466	827.000000
794.326538	831.200000
794.362549	830.600000
794.398560	822.600000
794.434631	818.400000
794.470581	800.500000
794.506653	801.000000
794.542664	813.000000
794.578674	820.000000
794.614685	820.900000
794.650757	819.200000
794.686707	818.600000
794.722778	807.400000
794.758789	821.100000
794.794739	840.000000
794.830811	864.000000
794.866821	879.300000
794.902771	880.300000
794.938843	862.000000
794.974792	858.900000
795.010803	860.000000
795.046814	859.900000
795.082825	857.700000
795.118835	868.400000
795.154846	846.400000
795.190796	840.900000
795.226807	828.300000
795.262817	840.200000
795.298767	840.700000
795.334778	856.600000
795.370850	839.200000
795.406799	839.800000
795.442810	823.100000
795.478821	820.700000
795.514709	825.500000
795.550720	854.100000
795.586670	835.900000
795.622681	838.700000
795.658691	837.000000
795.694641	834.700000
795.730652	829.700000
795.766663	837.000000
795.802551	843.800000
795.838562	856.000000
795.874573	851.600000
795.910522	843.300000
795.946472	833.800000
795.982483	839.600000
796.018433	840.000000
796.054382	846.700000
796.090393	841.900000
796.126282	831.900000
796.162292	816.800000
796.198242	817.400000
796.234192	810.600000
796.270203	811.700000
796.306091	821.000000
796.342041	829.500000
796.378052	819.400000
796.413940	818.400000
796.449951	823.300000
796.485901	826.100000
796.521790	833.200000
796.557800	849.100000
796.593689	848.000000
796.629639	835.800000
796.665649	830.900000
796.701599	825.300000
796.737488	830.400000
796.773437	836.200000
796.809387	838.800000
796.845337	838.900000
796.881287	830.700000
796.917175	815.700000
796.953125	814.200000
796.989075	822.200000
797.024963	823.500000
797.060913	825.800000
797.096863	819.700000
797.132751	811.000000
797.168701	792.900000
797.204590	808.000000
797.240540	810.900000
797.276489	816.200000
797.312439	817.900000
797.348328	812.200000
797.384277	800.700000
797.420166	791.300000
797.456055	793.000000
797.492004	799.500000
797.527893	810.300000
797.563843	815.100000
797.599731	798.900000
797.635620	789.800000
797.671570	801.100000
797.707520	801.100000
797.743347	801.200000
797.779297	806.500000
797.815125	792.600000
797.851074	786.200000
797.887024	775.100000
797.922913	770.300000
797.958801	786.600000
797.994690	780.600000
798.030579	786.900000
798.066467	788.500000
798.102356	775.100000
798.138245	778.100000
798.174133	774.900000
798.210083	783.300000
798.245911	793.300000
798.281799	794.100000
798.317749	781.000000
798.353577	776.300000
798.389465	781.500000
798.425293	776.500000
798.461243	778.600000
798.497131	793.300000
798.532959	784.000000
798.568848	786.400000
798.604736	768.500000
798.640564	765.800000
798.676453	766.200000
798.712402	769.900000
798.748230	774.100000
798.784119	779.700000
798.820007	775.500000
798.855835	772.400000
798.891724	762.100000
798.927551	760.500000
798.963379	759.800000
798.999268	757.100000
799.035095	751.400000
799.070984	740.200000
799.106873	736.000000
799.142700	748.400000
799.178528	735.800000
799.214417	743.800000
799.250244	758.200000
799.286133	747.500000
799.321960	740.100000
799.357788	737.100000
799.393677	731.000000
799.429504	738.200000
799.465332	740.100000
799.501221	745.400000
799.537048	742.900000
799.572876	737.900000
799.608704	740.500000
799.644531	749.900000
799.680359	754.200000
799.716248	758.500000
799.752014	767.100000
799.787903	752.600000
799.823730	742.700000
799.859558	737.800000
799.895386	737.700000
799.931213	744.900000
799.967041	742.400000
800.002869	744.000000
800.038696	744.500000
800.074463	729.800000
800.110352	737.200000
800.146179	730.500000
800.181946	743.500000
800.217773	740.900000
800.253540	731.400000
800.289429	732.400000
800.325256	727.600000
800.361023	721.900000
800.396851	729.500000
800.432678	731.700000
800.468445	731.000000
800.504272	729.600000
800.540100	717.200000
800.575867	716.000000
800.611694	723.800000
800.647461	719.200000
800.683289	719.900000
800.719116	722.600000
800.754883	720.100000
800.790649	703.400000
800.826477	704.300000
800.862244	719.500000
800.898071	708.700000
800.933838	712.900000
800.969604	708.500000
801.005432	705.000000
801.041199	709.000000
801.076965	709.100000
801.112793	701.100000
801.148560	693.000000
801.184326	693.900000
801.220154	692.000000
801.255859	684.900000
801.291687	685.300000
801.327454	682.100000
801.363281	685.900000
801.398987	682.200000
801.434814	677.900000
801.470520	687.800000
801.506287	681.100000
801.542114	673.300000
801.577820	670.000000
801.613647	672.700000
801.649414	670.900000
801.685120	674.200000
801.720886	680.300000
801.756714	672.900000
801.792419	663.200000
801.828186	661.300000
801.863892	662.900000
801.899719	659.600000
801.935486	659.200000
801.971252	670.300000
802.006958	660.000000
802.042725	660.100000
802.078430	656.800000
802.114197	654.400000
802.149963	661.100000
802.185669	651.600000
802.221436	651.800000
802.257202	656.600000
802.292908	649.700000
802.328674	656.100000
802.364441	658.700000
802.400146	654.200000
802.435913	655.300000
802.471558	650.600000
802.507324	651.100000
802.543091	647.600000
802.578796	658.000000
802.614502	651.000000
802.650269	657.000000
802.685974	645.700000
802.721741	646.700000
802.757446	645.800000
802.793152	647.800000
802.828918	655.200000
802.864624	655.100000
802.900330	649.300000
802.936035	644.300000
802.971802	642.600000
803.007446	639.600000
803.043213	631.600000
803.078857	649.700000
803.114624	636.200000
803.150330	638.200000
803.185974	626.600000
803.221741	632.100000
803.257446	639.000000
803.293152	638.300000
803.328857	634.100000
803.364563	635.300000
803.400208	631.100000
803.435974	626.800000
803.471680	619.300000
803.507324	622.100000
803.543030	632.300000
803.578735	632.900000
803.614441	624.900000
803.650146	630.300000
803.685791	616.000000
803.721497	621.200000
803.757202	616.200000
803.792847	622.600000
803.828552	614.000000
803.864258	615.300000
803.899902	609.300000
803.935608	598.400000
803.971313	604.100000
804.006958	601.800000
804.042664	600.600000
804.078308	612.300000
804.113953	601.500000
804.149658	602.300000
804.185364	586.900000
804.221008	605.200000
804.256714	591.600000
804.292297	590.500000
804.328003	588.300000
804.363708	585.500000
804.399292	585.700000
804.434998	582.400000
804.470703	577.200000
804.506287	592.100000
804.541992	583.300000
804.577637	586.200000
804.613281	574.400000
804.648926	573.700000
804.684570	572.700000
804.720215	566.200000
804.755920	568.500000
804.791565	575.000000
804.827209	578.800000
804.862854	567.400000
804.898437	563.800000
804.934143	566.700000
804.969788	561.800000
805.005371	561.900000
805.041077	564.900000
805.076721	563.900000
805.112305	555.000000
805.147949	553.100000
805.183655	548.500000
805.219238	558.600000
805.254883	550.400000
805.290466	557.500000
805.326111	552.500000
805.361755	547.100000
805.397400	546.700000
805.432983	550.500000
805.468628	548.900000
805.504211	551.900000
805.539856	550.200000
805.575500	550.200000
805.611084	544.800000
805.646729	532.500000
805.682373	539.400000
805.717957	550.500000
805.753601	547.800000
805.789246	537.700000
805.824768	543.000000
805.860413	543.900000
805.895996	537.900000
805.931641	534.800000
805.967224	543.500000
806.002869	538.800000
806.038452	543.200000
806.074036	544.900000
806.109619	535.600000
806.145264	529.000000
806.180847	532.100000
806.216431	530.200000
806.252014	534.000000
806.287659	530.700000
806.323181	536.900000
806.358826	534.900000
806.394409	521.300000
806.429993	520.200000
806.465576	531.000000
806.501160	521.700000
806.536743	511.900000
806.572327	519.500000
806.607910	516.600000
806.643494	514.500000
806.679077	511.100000
806.714661	510.700000
806.750244	511.700000
806.785828	509.000000
806.821350	507.900000
806.856934	509.900000
806.892517	503.700000
806.928101	501.600000
806.963684	503.500000
806.999268	510.700000
807.034790	494.000000
807.070374	501.800000
807.105896	492.300000
807.141479	489.400000
807.177063	495.500000
807.212585	493.400000
807.248169	494.800000
807.283752	499.100000
807.319275	490.500000
807.354858	491.700000
807.390381	486.300000
807.425903	483.600000
807.461487	483.100000
807.497070	479.100000
807.532593	481.400000
807.568115	480.400000
807.603699	477.300000
807.639221	475.900000
807.674744	478.100000
807.710266	478.900000
807.745850	479.100000
807.781372	477.300000
807.816895	473.900000
807.852417	473.500000
807.888000	473.100000
807.923523	467.400000
807.959045	472.300000
807.994629	466.500000
808.030090	467.100000
808.065613	469.400000
808.101135	475.700000
808.136658	467.700000
808.172241	469.500000
808.207764	468.100000
808.243225	463.900000
808.278809	462.200000
808.314270	470.200000
808.349792	454.900000
808.385315	455.400000
808.420837	459.500000
808.456360	464.800000
808.491882	463.800000
808.527344	457.600000
808.562866	464.000000
808.598389	457.400000
808.633850	455.400000
808.669434	450.800000
808.704895	456.600000
808.740417	463.200000
808.775940	456.200000
808.811462	450.500000
808.846924	447.300000
808.882385	443.900000
808.917847	445.300000
808.953369	447.200000
808.988892	444.300000
809.024353	449.900000
809.059875	448.700000
809.095398	442.100000
809.130798	437.300000
809.166321	437.600000
809.201843	435.700000
809.237305	439.900000
809.272766	440.400000
809.308228	430.500000
809.343750	431.200000
809.379211	433.200000
809.414734	428.400000
809.450134	436.500000
809.485657	424.200000
809.521118	430.600000
809.556580	427.300000
809.592102	427.300000
809.627502	423.900000
809.663025	425.600000
809.698486	420.600000
809.733887	418.300000
809.769409	422.700000
809.804871	415.000000
809.840271	415.900000
809.875793	418.500000
809.911194	419.800000
809.946655	412.500000
809.982178	409.700000
810.017639	414.300000
810.053040	409.400000
810.088501	408.700000
810.123901	409.200000
810.159424	408.100000
810.194885	403.000000
810.230286	405.200000
810.265747	399.000000
810.301208	396.800000
810.336609	405.400000
810.372070	395.800000
810.407532	395.600000
810.442932	397.100000
810.478394	403.200000
810.513794	396.000000
810.549255	392.700000
810.584717	389.100000
810.620117	388.300000
810.655518	391.000000
810.690979	389.000000
810.726379	387.600000
810.761841	379.000000
810.797302	377.300000
810.832642	377.000000
810.868103	382.500000
810.903564	375.200000
810.938904	380.000000
810.974365	370.200000
811.009827	375.700000
811.045166	369.900000
811.080627	365.700000
811.115967	369.800000
811.151428	375.000000
811.186829	371.500000
811.222229	367.900000
811.257629	365.100000
811.293091	368.700000
811.328430	374.600000
811.363892	367.500000
811.399292	368.200000
811.434631	365.500000
811.470093	371.300000
811.505493	364.100000
811.540833	360.700000
811.576294	364.400000
811.611694	358.500000
811.647034	358.300000
811.682434	360.700000
811.717773	362.200000
811.753235	366.500000
811.788635	357.800000
811.823975	358.500000
811.859375	363.200000
811.894775	353.000000
811.930115	355.700000
811.965515	354.900000
812.000916	358.100000
812.036255	353.800000
812.071655	355.000000
812.106995	351.800000
812.142395	351.900000
812.177795	357.300000
812.213196	352.400000
812.248474	352.200000
812.283875	345.200000
812.319214	346.800000
812.354614	348.600000
812.390015	346.500000
812.425293	346.000000
812.460693	345.700000
812.496094	343.700000
812.531433	337.400000
812.566772	337.100000
812.602173	337.400000
812.637451	337.200000
812.672852	333.900000
812.708191	336.100000
812.743530	331.800000
812.778931	326.900000
812.814270	328.600000
812.849609	333.100000
812.884949	329.500000
812.920227	326.000000
812.955627	333.000000
812.990967	329.900000
813.026306	323.900000
813.061646	314.600000
813.096985	316.900000
813.132324	313.800000
813.167664	315.700000
813.203003	318.000000
813.238281	310.300000
813.273682	312.100000
813.308960	308.100000
813.344299	309.100000
813.379639	314.800000
813.414978	311.300000
813.450256	308.900000
813.485596	311.800000
813.520874	303.600000
813.556213	305.900000
813.591614	310.500000
813.626831	304.200000
813.662170	305.600000
813.697510	312.700000
813.732788	300.400000
813.768127	304.400000
813.803467	303.300000
813.838745	301.100000
813.874084	304.600000
813.909363	303.500000
813.944641	302.600000
813.979980	293.600000
814.015320	297.800000
814.050598	293.700000
814.085876	296.800000
814.121155	294.800000
814.156494	295.100000
814.191772	295.600000
814.227051	291.300000
814.262390	294.800000
814.297668	291.200000
814.332947	291.600000
814.368225	287.800000
814.403564	287.300000
814.438782	286.600000
814.474121	290.900000
814.509338	285.100000
814.544617	290.400000
814.579956	283.900000
814.615173	292.000000
814.650513	286.500000
814.685791	283.600000
814.721008	287.200000
814.756348	284.600000
814.791626	280.800000
814.826843	281.000000
814.862122	281.100000
814.897400	280.300000
814.932678	278.600000
814.967957	279.600000
815.003235	281.400000
815.038452	276.500000
815.073730	272.200000
815.108948	280.200000
815.144226	279.600000
815.179504	283.300000
815.214722	270.700000
815.250000	272.000000
815.285278	273.400000
815.320496	270.000000
815.355774	271.700000
815.391052	275.700000
815.426270	272.400000
815.461487	269.400000
815.496765	266.400000
815.531982	264.100000
815.567261	267.400000
815.602539	273.500000
815.637695	268.500000
815.672974	270.100000
815.708191	272.600000
815.743408	272.100000
815.778687	262.500000
815.813904	270.400000
815.849121	261.700000
815.884399	260.700000
815.919556	260.600000
815.954834	262.500000
815.990051	264.400000
816.025269	266.300000
816.060486	257.800000
816.095703	256.800000
816.130920	258.000000
816.166199	257.300000
816.201416	258.000000
816.236572	259.500000
816.271851	254.200000
816.307007	258.100000
816.342224	250.300000
816.377441	254.700000
816.412659	250.500000
816.447876	253.100000
816.483093	251.800000
816.518250	249.000000
816.553467	249.600000
816.588745	251.000000
816.623901	246.300000
816.659119	241.400000
816.694275	246.700000
816.729492	242.800000
816.764709	269.500000
816.799927	240.700000
816.835083	245.200000
816.870300	240.000000
816.905457	243.000000
816.940674	241.100000
816.975830	239.300000
817.010986	238.100000
817.046204	238.200000
817.081421	233.500000
817.116577	235.800000
817.151733	241.500000
817.186951	239.900000
817.222107	238.200000
817.257324	239.100000
817.292419	238.000000
817.327637	230.700000
817.362854	235.100000
817.398010	231.500000
817.433167	233.200000
817.468323	231.200000
817.503479	232.900000
817.538635	238.500000
817.573853	233.400000
817.608948	233.100000
817.644165	229.100000
817.679321	227.400000
817.714478	226.700000
817.749634	229.500000
817.784790	237.000000
817.819946	234.100000
817.855103	222.300000
817.890198	226.300000
817.925415	221.900000
817.960571	227.000000
817.995667	228.200000
818.030823	226.500000
818.066040	223.500000
818.101135	226.500000
818.136292	223.600000
818.171448	220.600000
818.206543	222.900000
818.241699	224.900000
818.276855	223.000000
818.311951	222.300000
818.347107	219.500000
818.382263	222.800000
818.417358	226.200000
818.452515	224.200000
818.487610	225.500000
818.522766	217.300000
818.557922	225.800000
818.593018	220.300000
818.628113	220.600000
818.663269	216.100000
818.698364	219.000000
818.733521	216.900000
818.768677	220.100000
818.803711	215.000000
818.838867	215.100000
818.874023	214.500000
818.909058	212.900000
818.944214	211.700000
818.979370	215.000000
819.014404	214.700000
819.049561	212.700000
819.084595	215.900000
819.119751	208.600000
819.154846	214.000000
819.189941	211.500000
819.225037	208.200000
819.260193	205.400000
819.295227	204.800000
819.330322	202.500000
819.365479	203.000000
819.400513	236.100000
819.435608	203.500000
819.470764	201.200000
819.505798	202.600000
819.540894	203.000000
819.575989	201.700000
819.611084	207.900000
819.646179	208.600000
819.681213	206.300000
819.716309	202.400000
819.751404	203.200000
819.786438	208.200000
819.821533	199.300000
819.856628	203.000000
819.891663	205.500000
819.926758	210.600000
819.961853	207.500000
819.996887	200.700000
820.031982	202.600000
820.067017	199.800000
820.102112	234.100000
820.137207	198.700000
820.172302	210.200000
820.207275	197.900000
820.242371	197.100000
820.277405	198.000000
820.312500	199.400000
820.347534	200.500000
820.382568	203.000000
820.417664	197.000000
820.452759	195.600000
820.487732	196.100000
820.522827	196.600000
820.557861	194.900000
820.592896	197.700000
820.627930	196.500000
820.662964	194.200000
820.698059	197.600000
820.733093	195.800000
820.768127	197.800000
820.803162	195.400000
820.838196	193.400000
820.873230	195.900000
820.908264	196.300000
820.943298	192.400000
820.978333	196.400000
821.013367	193.900000
821.048401	196.400000
821.083435	196.900000
821.118469	190.900000
821.153503	195.400000
821.188477	194.800000
821.223511	189.600000
821.258484	192.200000
821.293579	194.400000
821.328613	189.100000
821.363647	192.900000
821.398621	188.700000
821.433655	190.900000
821.468628	202.100000
821.503662	191.800000
821.538696	195.000000
821.573669	189.700000
821.608704	195.000000
821.643677	191.800000
821.678650	195.000000
821.713684	197.900000
821.748718	192.900000
821.783691	191.300000
821.818726	191.800000
821.853638	194.500000
821.888672	190.700000
821.923706	191.000000
821.958618	190.600000
821.993652	190.300000
822.028687	195.000000
822.063599	196.700000
822.098633	192.600000
822.133667	188.500000
822.168579	191.400000
822.203613	191.000000
822.238586	186.800000
822.273560	192.100000
822.308533	188.900000
822.343567	188.000000
822.378479	191.200000
822.413452	189.600000
822.448425	187.300000
822.483398	194.100000
822.518372	192.600000
822.553345	187.900000
822.588318	195.700000
822.623291	189.100000
822.658203	187.500000
822.693237	189.600000
822.728210	186.800000
822.763123	189.300000
822.798096	185.300000
822.833069	188.600000
822.867981	187.600000
822.902954	191.100000
822.937927	190.100000
822.972900	195.300000
823.007874	184.000000
823.042725	192.200000
823.077698	198.300000
823.112671	187.200000
823.147583	187.200000
823.182556	189.800000
823.217529	191.400000
823.252441	187.600000
823.287415	196.400000
823.322388	191.400000
823.357239	189.100000
823.392212	193.500000
823.427185	193.500000
823.462097	186.600000
823.497009	191.300000
823.531982	188.200000
823.566895	190.000000
823.601807	184.900000
823.636719	189.000000
823.671631	190.000000
823.706604	186.900000
823.741455	190.600000
823.776428	183.800000
823.811340	191.800000
823.846252	193.800000
823.881165	194.300000
823.916138	188.800000
823.950989	195.200000
823.985901	186.200000
824.020813	188.300000
824.055725	187.600000
824.090637	183.500000
824.125610	190.000000
824.160461	190.600000
824.195374	189.600000
824.230225	191.600000
824.265198	183.100000
824.300110	185.600000
824.334961	194.900000
824.369873	181.700000
824.404785	189.200000
824.439636	190.000000
824.474548	182.400000
824.509460	180.300000
824.544312	191.000000
824.579224	189.800000
824.614075	189.100000
824.648987	185.200000
824.683899	186.100000
824.718811	184.500000
824.753662	190.800000
824.788574	190.400000
824.823364	188.700000
824.858276	183.800000
824.893188	189.600000
824.928040	190.300000
824.962952	187.200000
824.997803	189.300000
825.032654	186.900000
825.067566	188.300000
825.102417	184.200000
825.137268	184.100000
825.172119	184.000000
825.206970	184.600000
825.241882	185.700000
825.276733	182.000000
825.311646	184.000000
825.346436	181.000000
825.381348	181.700000
825.416138	184.200000
825.450989	182.800000
825.485901	178.100000
825.520691	179.600000
825.555542	178.900000
825.590454	183.300000
825.625244	179.200000
825.660095	188.500000
825.695007	186.200000
825.729797	183.200000
825.764648	180.800000
825.799438	183.000000
825.834290	183.900000
825.869202	178.000000
825.903992	183.400000
825.938843	181.800000
825.973694	179.500000
826.008484	191.500000
826.043335	179.800000
826.078186	176.400000
826.112976	185.400000
826.147827	185.900000
826.182678	188.400000
826.217468	175.800000
826.252319	185.600000
826.287109	179.200000
826.321899	185.200000
826.356750	181.100000
826.391541	178.500000
826.426392	183.900000
826.461182	181.100000
826.495972	177.600000
826.530823	173.100000
826.565613	182.100000
826.600403	177.700000
826.635254	182.300000
826.670044	175.200000
826.704834	176.800000
826.739685	176.800000
826.774475	183.500000
826.809265	180.400000
826.844055	178.300000
826.878906	184.700000
826.913635	181.700000
826.948425	181.200000
826.983215	184.100000
827.018005	182.900000
827.052856	180.000000
827.087585	183.200000
827.122375	176.800000
827.157227	180.000000
827.191956	189.900000
827.226746	177.400000
827.261536	182.500000
827.296265	175.700000
827.331116	180.000000
827.365906	181.800000
827.400635	179.200000
827.435425	174.700000
827.470215	183.600000
827.504944	180.500000
827.539734	184.800000
827.574463	180.700000
827.609253	186.600000
827.644043	179.000000
827.678772	183.500000
827.713562	177.900000
827.748352	178.400000
827.783081	177.600000
827.817871	180.600000
827.852600	176.600000
827.887329	179.700000
827.922119	174.200000
827.956848	181.700000
827.991638	187.800000
828.026367	181.200000
828.061157	180.600000
828.095886	179.400000
828.130615	191.400000
828.165344	175.300000
828.200073	180.200000
828.234863	179.500000
828.269592	179.600000
828.304321	183.200000
828.339111	181.800000
828.373779	177.100000
828.408569	183.500000
828.443298	183.500000
828.477966	179.200000
828.512756	181.000000
828.547424	177.100000
828.582214	178.900000
828.616943	179.300000
828.651672	179.100000
828.686340	183.700000
828.721130	179.600000
828.755798	180.400000
828.790527	181.700000
828.825256	181.000000
828.859924	181.400000
828.894714	184.600000
828.929443	186.900000
828.964111	177.500000
828.998840	182.700000
829.033569	176.600000
829.068237	178.900000
829.102966	179.500000
829.137634	180.300000
829.172363	181.800000
829.207092	180.500000
829.241821	176.800000
829.276489	175.600000
829.311157	180.400000
829.345825	178.400000
829.380554	183.400000
829.415283	177.900000
829.449951	175.200000
829.484619	185.800000
829.519348	185.600000
829.554016	178.900000
829.588745	181.400000
829.623413	177.100000
829.658081	188.100000
829.692749	178.200000
829.727417	183.600000
829.762146	180.800000
829.796814	178.400000
829.831482	179.300000
829.866150	180.500000
829.900879	179.400000
829.935486	182.200000
829.970154	179.000000
830.004883	189.200000
830.039490	180.700000
830.074219	177.200000
830.108887	181.100000
830.143494	180.000000
830.178223	175.600000
830.212891	179.100000
830.247498	180.700000
830.282166	184.600000
830.316772	184.200000
830.351501	177.800000
830.386169	179.900000
830.420776	178.700000
830.455444	180.800000
830.490112	177.800000
830.524719	176.100000
830.559387	181.900000
830.594055	181.000000
830.628662	179.900000
830.663330	180.700000
830.697998	187.100000
830.732605	181.300000
830.767273	181.600000
830.801941	179.200000
830.836487	185.900000
830.871155	180.700000
830.905762	182.500000
830.940430	175.700000
830.975098	176.800000
831.009644	179.400000
831.044312	186.300000
831.078979	183.200000
831.113525	173.600000
831.148193	180.100000
831.182861	179.700000
831.217407	183.000000
831.252075	191.300000
831.286621	178.700000
831.321289	176.500000
831.355896	180.100000
831.390564	185.600000
831.425110	180.400000
831.459778	185.300000
831.494324	189.100000
831.528931	181.200000
831.563599	184.800000
831.598145	176.600000
831.632751	179.600000
831.667419	180.400000
831.701965	182.200000
831.736572	182.100000
831.771179	177.000000
831.805786	178.400000
831.840393	185.700000
831.874939	175.700000
831.909546	184.200000
831.944153	175.700000
831.978760	180.900000
832.013306	176.700000
832.047913	184.100000
832.082458	186.100000
832.117065	177.900000
832.151672	187.300000
832.186218	181.900000
832.220825	183.800000
832.255432	175.800000
832.289978	179.700000
832.324585	181.600000
832.359192	181.900000
832.393677	179.200000
832.428284	180.700000
832.462830	179.900000
832.497437	179.600000
832.531982	183.600000
832.566589	179.800000
832.601135	182.100000
832.635681	174.400000
832.670227	180.000000
832.704773	185.400000
832.739380	181.500000
832.773926	180.100000
832.808472	178.400000
832.843079	181.400000
832.877563	182.000000
832.912170	178.800000
832.946716	175.700000
832.981201	185.100000
833.015808	183.100000
833.050293	179.800000
833.084839	177.500000
833.119446	179.400000
833.153992	182.400000
833.188477	179.400000
833.223022	179.600000
833.257568	181.900000
833.292114	183.900000
833.326660	188.900000
833.361145	178.600000
833.395691	175.000000
833.430237	180.800000
833.464783	182.400000
833.499329	178.600000
833.533875	179.100000
833.568359	183.100000
833.602905	184.500000
833.637390	184.600000
833.671875	179.100000
833.706421	179.500000
833.740906	178.600000
833.775452	173.900000
833.809998	178.300000
833.844482	186.000000
833.879028	179.800000
833.913513	178.300000
833.947998	180.700000
833.982544	177.900000
834.017090	178.100000
834.051514	173.300000
834.086060	181.500000
834.120544	179.800000
834.155029	181.600000
834.189575	178.700000
834.223999	181.100000
834.258545	181.400000
834.293030	181.000000
834.327515	180.100000
834.362000	179.000000
834.396545	183.300000
834.430969	179.300000
834.465454	183.300000
834.500000	175.100000
834.534424	180.700000
834.568970	174.200000
834.603455	175.000000
834.637878	178.000000
834.672363	182.200000
834.706909	180.300000
834.741333	180.600000
834.775818	174.800000
834.810242	177.200000
834.844727	180.100000
834.879211	179.300000
834.913635	179.500000
834.948181	181.400000
834.982666	181.500000
835.017090	178.800000
835.051575	181.000000
835.086060	178.700000
835.120483	183.700000
835.154907	181.700000
835.189331	180.800000
835.223816	182.900000
835.258301	177.500000
835.292786	178.300000
835.327209	183.300000
835.361694	178.900000
835.396057	178.600000
835.430542	183.000000
835.465027	180.100000
835.499390	179.100000
835.533875	206.900000
835.568359	178.600000
835.602722	175.200000
835.637207	181.800000
835.671692	175.000000
835.706055	195.000000
835.740540	180.600000
835.774902	182.600000
835.809387	180.400000
835.843811	176.500000
835.878235	184.100000
835.912659	176.500000
835.947083	177.900000
835.981506	180.900000
836.015930	175.500000
836.050354	184.400000
836.084778	184.900000
836.119202	183.200000
836.153625	192.500000
836.187988	178.600000
836.222473	178.400000
836.256897	181.100000
836.291260	177.800000
836.325684	181.500000
836.360046	179.200000
836.394470	179.200000
836.428894	185.200000
836.463318	177.900000
836.497681	182.900000
836.532104	185.700000
836.566467	179.400000
836.600891	177.600000
836.635315	183.800000
836.669678	182.000000
836.704102	183.700000
836.738525	183.500000
836.772888	175.100000
836.807251	178.700000
836.841675	182.500000
836.876038	176.700000
836.910461	177.700000
836.944763	181.900000
836.979187	177.800000
837.013611	185.200000
837.047974	176.200000
837.082336	189.100000
837.116699	183.200000
837.151062	179.700000
837.185486	176.100000
837.219849	179.600000
837.254211	184.000000
837.288574	181.200000
837.322937	176.900000
837.357300	173.800000
837.391663	188.600000
837.426086	183.900000
837.460388	181.800000
837.494751	182.900000
837.529114	177.900000
837.563477	185.300000
837.597839	180.400000
837.632141	178.900000
837.666565	177.500000
837.700928	181.700000
837.735229	180.900000
837.769592	183.100000
837.803955	183.700000
837.838257	178.400000
837.872620	179.000000
837.906982	185.400000
837.941284	179.800000
837.975647	181.500000
838.010010	185.600000
838.044312	178.300000
838.078674	178.800000
838.112976	181.200000
838.147339	182.400000
838.181702	180.600000
838.216003	186.900000
838.250366	181.000000
838.284668	182.000000
838.318970	177.000000
838.353333	180.600000
838.387634	180.300000
838.421936	180.200000
838.456299	181.800000
838.490601	186.400000
838.524902	184.000000
838.559265	184.500000
838.593567	184.800000
838.627869	175.900000
838.662170	181.900000
838.696472	176.500000
838.730774	177.400000
838.765137	183.400000
838.799377	172.000000
838.833740	182.000000
838.868042	185.300000
838.902283	175.300000
838.936646	185.600000
838.970947	181.600000
839.005188	185.600000
839.039551	176.500000
839.073792	186.400000
839.108093	178.400000
839.142395	186.800000
839.176697	175.300000
839.210937	181.500000
839.245300	188.200000
839.279541	175.100000
839.313843	179.100000
839.348145	183.600000
839.382385	183.500000
839.416687	184.200000
839.450989	182.700000
839.485229	179.800000
839.519531	177.700000
839.553833	183.900000
839.588013	180.600000
839.622314	182.600000
839.656555	183.700000
839.690857	180.200000
839.725159	177.700000
839.759460	181.800000
839.793640	178.600000
839.827942	181.300000
839.862183	177.500000
839.896423	181.600000
839.930725	191.000000
839.964966	187.500000
839.999207	183.800000
840.033508	186.800000
840.067688	178.900000
840.101990	185.600000
840.136230	181.100000
840.170471	185.600000
840.204712	176.600000
840.238953	178.800000
840.273193	181.000000
840.307434	182.300000
840.341736	178.100000
840.375916	176.300000
840.410217	178.300000
840.444397	183.300000
840.478638	183.300000
840.512878	183.600000
840.547119	181.200000
840.581360	184.000000
840.615601	187.600000
840.649780	189.300000
840.684021	180.400000
840.718262	186.700000
840.752441	186.300000
840.786682	183.200000
840.820862	182.100000
840.855103	187.500000
840.889343	181.100000
840.923584	184.500000
840.957764	181.800000
840.992004	182.500000
841.026184	190.100000
841.060425	180.600000
841.094666	179.900000
841.128845	183.000000
841.163025	181.500000
841.197266	183.900000
841.231445	182.600000
841.265686	182.300000
841.299866	178.200000
841.334045	186.300000
841.368286	180.300000
841.402405	186.100000
841.436646	183.100000
841.470825	179.500000
841.505005	180.100000
841.539185	177.500000
841.573425	177.800000
841.607544	181.300000
841.641785	180.500000
841.675964	178.400000
841.710144	182.500000
841.744324	180.000000
841.778503	181.100000
841.812683	178.900000
841.846863	186.200000
841.881042	187.200000
841.915222	178.900000
841.949402	190.800000
841.983521	175.500000
842.017700	180.800000
842.051880	182.400000
842.086060	183.400000
842.120239	183.400000
842.154419	178.700000
842.188538	180.600000
842.222717	179.600000
842.256897	187.200000
842.291016	181.000000
842.325195	182.300000
842.359375	189.900000
842.393494	186.700000
842.427673	182.100000
842.461853	182.300000
842.495911	188.200000
842.530090	183.000000
842.564209	180.600000
842.598389	182.300000
842.632568	181.200000
842.666626	183.900000
842.700806	178.900000
842.734985	179.100000
842.769043	183.000000
842.803223	180.000000
842.837402	179.400000
842.871460	177.900000
842.905640	189.600000
842.939697	178.000000
842.973877	180.600000
843.007996	186.800000
843.042175	188.100000
843.076233	178.600000
843.110413	183.900000
843.144470	187.300000
843.178589	184.600000
843.212769	180.000000
843.246826	185.300000
843.280945	179.500000
843.315125	179.900000
843.349182	178.800000
843.383301	184.600000
843.417419	191.700000
843.451538	182.000000
843.485657	180.400000
843.519714	181.000000
843.553833	182.900000
843.587952	180.000000
843.622070	178.600000
843.656128	184.300000
843.690247	180.800000
843.724304	182.000000
843.758423	184.400000
843.792542	180.600000
843.826599	180.500000
843.860718	180.300000
843.894836	176.400000
843.928894	182.800000
843.963013	181.900000
843.997070	178.300000
844.031128	177.000000
844.065247	185.200000
844.099304	182.600000
844.133362	183.600000
844.167480	183.100000
844.201599	184.500000
844.235596	182.500000
844.269714	183.200000
844.303711	181.300000
844.337830	177.200000
844.371948	183.300000
844.405945	180.900000
844.440063	178.700000
844.474121	191.900000
844.508118	180.000000
844.542236	181.600000
844.576294	180.900000
844.610352	178.400000
844.644409	182.100000
844.678406	177.100000
844.712524	184.100000
844.746582	185.500000
844.780640	181.300000
844.814636	180.900000
844.848755	191.200000
844.882751	180.100000
844.916809	184.200000
844.950867	183.900000
844.984863	187.000000
845.018921	178.600000
845.052979	179.500000
845.086975	182.600000
845.121033	177.900000
845.155090	179.300000
845.189087	187.000000
845.223145	181.900000
845.257141	183.400000
845.291199	184.400000
845.325256	184.800000
845.359253	182.700000
845.393250	191.900000
845.427307	180.700000
845.461304	182.400000
845.495361	181.500000
845.529358	187.900000
845.563354	180.300000
845.597412	179.500000
845.631409	187.800000
845.665405	185.800000
845.699463	183.300000
845.733459	181.100000
845.767456	189.400000
845.801453	181.000000
845.835449	184.900000
845.869446	185.700000
845.903503	184.400000
845.937439	178.700000
845.971497	187.300000
846.005493	179.300000
846.039429	185.500000
846.073486	189.700000
846.107483	181.000000
846.141418	180.000000
846.175476	183.300000
846.209473	185.900000
846.243408	178.100000
846.277405	182.700000
846.311401	179.300000
846.345337	181.500000
846.379395	187.000000
846.413330	179.700000
846.447327	191.600000
846.481323	179.900000
846.515259	181.300000
846.549255	182.400000
846.583252	184.000000
846.617187	180.400000
846.651184	183.800000
846.685120	180.200000
846.719055	189.200000
846.753052	185.400000
846.786987	184.500000
846.820984	178.700000
846.854980	187.500000
846.888916	178.100000
846.922852	184.400000
846.956848	185.900000
846.990723	179.400000
847.024719	182.700000
847.058716	180.500000
847.092590	186.600000
847.126587	183.400000
847.160522	181.300000
847.194458	185.300000
847.228455	179.400000
847.262390	179.000000
847.296265	180.500000
847.330261	185.100000
847.364136	178.600000
847.398132	181.300000
847.432068	181.900000
847.466003	179.600000
847.499939	180.400000
847.533875	184.200000
847.567749	180.900000
847.601746	180.800000
847.635681	183.900000
847.669556	176.100000
847.703491	187.400000
847.737427	191.700000
847.771301	177.300000
847.805237	183.800000
847.839233	183.100000
847.873108	181.400000
847.907043	181.200000
847.940918	188.100000
847.974854	182.400000
848.008789	184.200000
848.042664	182.000000
848.076538	182.900000
848.110474	183.000000
848.144348	183.900000
848.178284	176.800000
848.212219	183.900000
848.246094	180.500000
848.279968	182.200000
848.313904	183.000000
848.347778	182.500000
848.381653	180.700000
848.415588	179.700000
848.449463	179.800000
848.483337	184.200000
848.517212	189.400000
848.551086	181.900000
848.585022	178.200000
848.618835	191.300000
848.652771	180.100000
848.686646	178.900000
848.720520	187.300000
848.754395	180.100000
848.788330	184.400000
848.822144	184.600000
848.856018	181.100000
848.889954	190.100000
848.923767	180.900000
848.957642	179.500000
848.991577	183.300000
849.025391	180.900000
849.059265	182.000000
849.093079	178.700000
849.126953	177.500000
849.160828	185.200000
849.194641	183.200000
849.228577	179.900000
849.262451	179.300000
849.296265	179.800000
849.330139	179.500000
849.364014	182.800000
849.397827	182.700000
849.431702	181.900000
849.465515	185.200000
849.499329	176.500000
849.533203	180.000000
849.567078	175.800000
849.600891	183.800000
849.634766	182.300000
849.668518	184.800000
849.702393	183.600000
849.736267	177.600000
849.770020	189.600000
849.803894	182.800000
849.837769	183.400000
849.871521	182.600000
849.905396	185.300000
849.939270	179.600000
849.973022	181.400000
850.006897	184.700000
850.040710	185.000000
850.074524	186.200000
850.108337	182.400000
850.142151	185.500000
850.175964	186.800000
850.209778	181.400000
850.243530	174.100000
850.277405	186.400000
850.311218	181.600000
850.344971	180.300000
850.378845	186.900000
850.412659	179.200000
850.446411	183.500000
850.480225	182.000000
850.514038	184.400000
850.547791	185.100000
850.581665	182.300000
850.615417	179.700000
850.649231	182.900000
850.683044	180.700000
850.716858	180.200000
850.750610	182.300000
850.784424	184.400000
850.818176	178.400000
850.851929	180.200000
850.885742	180.000000
850.919495	181.700000
850.953308	187.700000
850.987122	187.200000
851.020874	177.600000
851.054626	178.600000
851.088440	185.300000
851.122192	184.400000
851.156006	181.900000
851.189697	183.400000
851.223511	177.200000
851.257263	184.900000
851.291077	184.900000
851.324829	182.000000
851.358582	181.500000
851.392334	183.300000
851.426086	179.500000
851.459900	188.200000
851.493591	183.100000
851.527344	182.200000
851.561157	181.800000
851.594849	183.200000
851.628662	183.300000
851.662415	189.500000
851.696106	183.500000
851.729858	186.200000
851.763611	177.900000
851.797363	182.500000
851.831116	178.800000
851.864868	183.500000
851.898560	187.600000
851.932312	181.100000
851.966064	182.900000
851.999817	181.900000
852.033569	181.600000
852.067261	186.900000
852.101013	180.300000
852.134766	181.900000
852.168457	175.800000
852.202209	186.400000
852.235901	179.600000
852.269592	184.900000
852.303345	189.300000
852.337036	184.500000
852.370789	181.600000
852.404541	184.300000
852.438171	178.400000
852.471924	181.700000
852.505676	177.700000
852.539307	183.100000
852.573059	180.300000
852.606812	182.100000
852.640442	180.600000
852.674194	186.400000
852.707886	189.500000
852.741577	187.200000
852.775269	179.700000
852.809021	182.700000
852.842651	183.700000
852.876404	187.800000
852.910034	182.800000
852.943787	186.500000
852.977478	184.100000
853.011108	180.000000
853.044861	180.900000
853.078552	188.600000
853.112183	182.900000
853.145874	183.500000
853.179626	177.700000
853.213257	182.700000
853.246948	178.700000
853.280640	188.600000
853.314270	182.400000
853.347961	187.100000
853.381653	184.500000
853.415283	186.600000
853.448975	179.100000
853.482605	183.300000
853.516296	182.500000
853.549988	179.000000
853.583618	184.700000
853.617310	182.400000
853.651001	182.700000
853.684631	179.000000
853.718323	180.000000
853.751953	186.400000
853.785583	176.900000
853.819275	186.100000
853.852966	185.200000
853.886536	176.300000
853.920227	178.100000
853.953918	185.100000
853.987488	180.900000
854.021179	185.700000
854.054749	188.000000
854.088440	183.900000
854.122131	179.200000
854.155701	184.000000
854.189331	179.500000
854.223022	184.600000
854.256592	182.500000
854.290283	180.900000
854.323914	184.300000
854.357483	182.100000
854.391174	183.500000
854.424744	188.600000
854.458374	182.900000
854.492065	191.900000
854.525696	181.600000
854.559265	186.300000
854.592896	190.700000
854.626465	183.800000
854.660095	181.300000
854.693787	184.200000
854.727356	180.600000
854.760986	185.500000
854.794617	184.100000
854.828186	181.700000
854.861816	183.900000
854.895447	182.800000
854.929016	183.800000
854.962585	184.400000
854.996155	190.200000
855.029785	183.800000
855.063416	184.400000
855.097046	184.400000
855.130615	178.800000
855.164185	185.800000
855.197754	181.400000
855.231384	182.700000
855.264954	181.200000
855.298523	183.700000
855.332153	184.300000
855.365723	187.800000
855.399292	180.200000
855.432922	182.000000
855.466492	182.800000
855.500061	179.500000
855.533630	179.500000
855.567200	184.300000
855.600769	184.100000
855.634338	186.200000
855.667969	183.400000
855.701477	179.300000
855.735046	178.700000
855.768616	177.300000
855.802185	183.100000
855.835754	193.200000
855.869324	177.100000
855.902893	181.300000
855.936401	185.700000
855.969971	181.900000
856.003540	178.000000
856.037109	183.900000
856.070618	181.300000
856.104187	179.700000
856.137695	180.100000
856.171265	175.300000
856.204834	182.900000
856.238403	186.300000
856.271912	180.500000
856.305481	184.800000
856.338989	177.700000
856.372559	185.200000
856.406128	184.600000
856.439636	185.100000
856.473145	182.000000
856.506653	188.000000
856.540222	182.100000
856.573792	186.500000
856.607300	186.300000
856.640808	179.200000
856.674377	183.000000
856.707825	215.000000
856.741394	186.300000
856.774902	178.800000
856.808472	176.000000
856.841980	184.800000
856.875488	186.900000
856.908936	177.300000
856.942505	181.200000
856.976013	181.700000
857.009521	178.900000
857.043030	180.600000
857.076477	179.600000
857.110046	189.000000
857.143555	183.500000
857.177063	184.900000
857.210571	182.500000
857.244080	177.000000
857.277527	184.100000
857.311035	183.000000
857.344543	187.600000
857.378052	180.300000
857.411499	187.200000
857.445068	187.500000
857.478516	181.100000
857.512024	178.900000
857.545532	181.500000
857.578979	182.900000
857.612427	184.300000
857.645874	181.000000
857.679382	182.600000
857.712891	186.400000
857.746399	181.900000
857.779846	185.300000
857.813354	186.900000
857.846741	182.200000
857.880249	178.600000
857.913757	183.600000
857.947266	183.400000
857.980652	185.600000
858.014160	182.400000
858.047546	180.500000
858.081055	180.800000
858.114563	192.000000
858.147949	179.300000
858.181458	184.200000
858.214844	182.600000
858.248352	177.500000
858.281799	185.300000
858.315308	191.700000
858.348694	185.400000
858.382141	190.000000
858.415588	185.700000
858.449036	184.600000
858.482483	183.400000
858.515930	181.400000
858.549377	183.000000
858.582825	188.100000
858.616211	183.600000
858.649658	185.200000
858.683105	178.700000
858.716553	181.100000
858.750000	178.100000
858.783386	181.000000
858.816833	178.300000
858.850281	182.900000
858.883728	183.100000
858.917114	183.900000
858.950562	187.900000
858.983948	186.900000
859.017395	185.900000
859.050781	181.700000
859.084167	179.500000
859.117615	178.600000
859.151062	184.800000
859.184448	180.200000
859.217834	181.600000
859.251282	181.800000
859.284668	178.800000
859.318054	175.900000
859.351440	181.300000
859.384888	188.000000
859.418274	177.100000
859.451721	176.000000
859.485046	184.600000
859.518494	183.100000
859.551819	179.900000
859.585266	184.300000
859.618652	187.800000
859.652039	178.600000
859.685425	178.400000
859.718811	179.900000
859.752197	173.300000
859.785583	186.900000
859.819031	186.800000
859.852356	185.500000
859.885742	179.200000
859.919067	182.700000
859.952454	180.800000
859.985901	186.100000
860.019287	181.900000
860.052612	0.000000
860.085999	0.000000
860.119324	0.000000
860.152710	0.000000
860.186096	0.000000
860.219421	0.000000
860.252808	0.000000
860.286133	0.000000
860.319519	0.000000
860.352905	0.000000
860.386292	0.000000
860.419617	0.000000
860.452942	0.000000
860.486267	0.000000
860.519653	0.000000
860.553040	0.000000
860.586365	0.000000
860.619690	0.000000
860.653076	0.000000
860.686340	0.000000
860.719727	0.000000
860.753113	0.000000
860.786377	0.000000
860.819763	0.000000
860.853027	0.000000
860.886414	0.000000
860.919739	0.000000
860.953125	0.000000
860.986389	0.000000
861.019714	0.000000
861.053040	0.000000
861.086365	0.000000
861.119690	0.000000
861.153076	0.000000
861.186340	0.000000
861.219666	0.000000
861.252930	0.000000
861.286316	0.000000
861.319641	0.000000
861.352905	0.000000
861.386230	0.000000
861.419495	0.000000
861.452820	0.000000
861.486145	0.000000
861.519470	0.000000
861.552734	0.000000
861.586060	0.000000
861.619324	0.000000
861.652649	0.000000
861.685974	0.000000
861.719238	0.000000
861.752563	0.000000
861.785828	0.000000
861.819092	0.000000
861.852417	0.000000
861.885742	0.000000
861.918945	0.000000
861.952271	0.000000
861.985535	0.000000
862.018799	0.000000
862.052124	0.000000
862.085449	0.000000
862.118652	0.000000
862.151978	0.000000
862.185181	0.000000
862.218506	0.000000
862.251770	0.000000
862.285034	0.000000
862.318298	0.000000
862.351562	0.000000
862.384827	0.000000
862.418091	0.000000
862.451355	0.000000
862.484619	0.000000
862.517883	0.000000
862.551086	0.000000
862.584351	0.000000
862.617676	0.000000
862.650940	0.000000
862.684143	0.000000
862.717407	0.000000
862.750610	0.000000
862.783875	0.000000
862.817139	0.000000
862.850342	0.000000
862.883606	0.000000
862.916870	0.000000
862.950073	0.000000
862.983337	0.000000
863.016602	0.000000
863.049805	0.000000
863.083069	0.000000
863.116211	0.000000
863.149475	0.000000
863.182739	0.000000
863.216003	0.000000
863.249146	0.000000
863.282410	0.000000
863.315613	0.000000
863.348816	0.000000
863.382080	0.000000
863.415222	0.000000
863.448486	0.000000
863.481689	0.000000
863.514893	0.000000
863.548157	0.000000
863.581360	0.000000
863.614502	0.000000
863.647766	0.000000
863.680908	0.000000
863.714172	0.000000
863.747375	0.000000
863.780579	0.000000
863.813721	0.000000
863.846985	0.000000
863.880127	0.000000
863.913330	0.000000
863.946533	0.000000
863.979675	0.000000
864.012939	0.000000
