Model Number: SPM-001-M   
Serial Number: 10090201
Firmware Version: 004.17.6
Exposure Time: 300000.000000us
Data Taken on: 28-01-2021 10:13:43.093
Wavelength	Amplitude
733.770752	0.000000
733.808716	0.000000
733.846619	0.000000
733.884583	0.000000
733.922546	0.000000
733.960449	0.000000
733.998413	0.000000
734.036377	0.000000
734.074219	0.000000
734.112183	0.000000
734.150085	0.000000
734.188049	0.000000
734.226013	0.000000
734.263916	0.000000
734.301819	0.000000
734.339783	0.000000
734.377686	0.000000
734.415588	0.000000
734.453552	0.000000
734.491455	0.000000
734.529419	0.000000
734.567322	0.000000
734.605225	0.000000
734.643127	0.000000
734.681091	0.000000
734.718994	0.000000
734.756897	0.000000
734.794800	0.000000
734.832703	0.000000
734.870667	0.000000
734.908508	0.000000
734.946472	0.000000
734.984375	0.000000
735.022278	0.000000
735.060181	0.000000
735.098083	0.000000
735.135986	0.000000
735.173889	0.000000
735.211792	0.000000
735.249695	0.000000
735.287598	0.000000
735.325439	0.000000
735.363403	0.000000
735.401306	0.000000
735.439148	0.000000
735.477051	0.000000
735.515015	0.000000
735.552856	0.000000
735.590759	0.000000
735.628662	0.000000
735.666504	0.000000
735.704407	0.000000
735.742310	0.000000
735.780212	0.000000
735.818115	0.000000
735.856018	0.000000
735.893860	0.000000
735.931763	0.000000
735.969604	0.000000
736.007507	0.000000
736.045410	0.000000
736.083252	0.000000
736.121094	0.000000
736.158997	0.000000
736.196838	0.000000
736.234741	0.000000
736.272644	0.000000
736.310486	0.000000
736.348389	0.000000
736.386230	0.000000
736.424072	0.000000
736.461975	0.000000
736.499878	0.000000
736.537720	0.000000
736.575562	0.000000
736.613403	0.000000
736.651306	0.000000
736.689148	0.000000
736.726990	0.000000
736.764893	0.000000
736.802734	0.000000
736.840576	0.000000
736.878418	0.000000
736.916321	0.000000
736.954102	0.000000
736.992004	0.000000
737.029846	0.000000
737.067688	0.000000
737.105530	0.000000
737.143372	0.000000
737.181213	0.000000
737.219116	0.000000
737.256897	0.000000
737.294739	0.000000
737.332642	0.000000
737.370422	0.000000
737.408325	0.000000
737.446167	0.000000
737.483948	0.000000
737.521790	0.000000
737.559692	0.000000
737.597473	0.000000
737.635315	0.000000
737.673157	0.000000
737.710999	0.000000
737.748840	0.000000
737.786621	0.000000
737.824463	0.000000
737.862305	0.000000
737.900085	0.000000
737.937927	0.000000
737.975769	0.000000
738.013550	0.000000
738.051392	0.000000
738.089233	0.000000
738.127014	0.000000
738.164856	0.000000
738.202698	0.000000
738.240479	0.000000
738.278320	0.000000
738.316162	0.000000
738.353943	0.000000
738.391785	0.000000
738.429565	0.000000
738.467407	0.000000
738.505188	0.000000
738.542969	0.000000
738.580811	0.000000
738.618652	0.000000
738.656372	0.000000
738.694214	0.000000
738.732056	0.000000
738.769836	0.000000
738.807617	0.000000
738.845459	0.000000
738.883240	0.000000
738.921021	0.000000
738.958862	0.000000
738.996582	0.000000
739.034424	0.000000
739.072205	0.000000
739.109985	0.000000
739.147827	0.000000
739.185547	0.000000
739.223389	0.000000
739.261169	0.000000
739.298889	0.000000
739.336731	0.000000
739.374512	0.000000
739.412292	0.000000
739.450073	0.000000
739.487854	0.000000
739.525635	0.000000
739.563416	0.000000
739.601135	0.000000
739.638977	0.000000
739.676758	0.000000
739.714478	0.000000
739.752258	0.000000
739.790100	0.000000
739.827820	0.000000
739.865601	0.000000
739.903381	0.000000
739.941101	0.000000
739.978882	184.100000
740.016724	179.200000
740.054443	184.200000
740.092224	178.900000
740.130005	179.200000
740.167725	178.200000
740.205505	178.700000
740.243225	184.500000
740.281006	182.000000
740.318787	176.100000
740.356506	184.800000
740.394287	184.400000
740.432068	178.600000
740.469727	176.200000
740.507507	183.600000
740.545288	180.000000
740.583008	182.600000
740.620789	180.600000
740.658569	176.800000
740.696228	180.100000
740.734009	182.700000
740.771790	172.500000
740.809509	184.000000
740.847229	177.500000
740.884949	179.500000
740.922729	175.200000
740.960449	179.300000
740.998169	177.600000
741.035950	178.700000
741.073669	180.400000
741.111389	181.700000
741.149170	187.200000
741.186890	186.400000
741.224609	183.000000
741.262329	180.500000
741.300110	187.700000
741.337769	178.500000
741.375549	176.500000
741.413208	182.000000
741.450989	178.800000
741.488708	178.700000
741.526367	179.300000
741.564148	183.300000
741.601868	183.700000
741.639526	180.300000
741.677307	183.300000
741.715027	181.800000
741.752686	179.100000
741.790466	184.900000
741.828186	182.400000
741.865845	176.700000
741.903564	177.100000
741.941345	179.800000
741.979004	178.000000
742.016724	183.400000
742.054382	181.400000
742.092102	182.700000
742.129822	176.800000
742.167480	179.000000
742.205200	180.700000
742.242920	182.600000
742.280640	181.700000
742.318359	177.100000
742.356079	179.100000
742.393738	183.000000
742.431396	180.000000
742.469116	183.100000
742.506775	175.100000
742.544495	181.400000
742.582214	183.500000
742.619873	180.600000
742.657593	186.500000
742.695251	184.100000
742.732971	180.200000
742.770630	181.200000
742.808289	181.900000
742.846008	181.000000
742.883728	181.300000
742.921326	181.600000
742.959045	179.700000
742.996765	181.000000
743.034424	181.100000
743.072083	179.500000
743.109802	181.000000
743.147400	178.000000
743.185120	181.800000
743.222839	180.700000
743.260437	185.400000
743.298157	181.900000
743.335754	174.900000
743.373474	180.100000
743.411133	176.300000
743.448792	180.800000
743.486450	179.900000
743.524170	176.400000
743.561768	180.600000
743.599487	185.400000
743.637146	186.900000
743.674744	178.300000
743.712463	178.800000
743.750122	181.400000
743.787720	181.300000
743.825439	179.800000
743.863037	179.600000
743.900696	181.500000
743.938416	203.800000
743.976013	180.200000
744.013672	185.400000
744.051331	184.300000
744.088928	186.900000
744.126587	184.100000
744.164307	181.900000
744.201904	178.900000
744.239563	182.000000
744.277222	183.700000
744.314819	180.900000
744.352478	184.500000
744.390137	182.200000
744.427734	182.600000
744.465393	178.800000
744.502991	179.800000
744.540649	181.900000
744.578308	180.000000
744.615906	178.000000
744.653564	174.000000
744.691223	183.400000
744.728821	177.300000
744.766418	181.200000
744.804077	181.900000
744.841675	179.800000
744.879333	175.300000
744.916992	179.500000
744.954529	178.900000
744.992187	183.000000
745.029785	179.100000
745.067444	179.200000
745.105042	181.800000
745.142639	181.600000
745.180298	186.600000
745.217896	179.300000
745.255493	179.000000
745.293152	183.600000
745.330750	184.300000
745.368347	186.100000
745.405945	182.300000
745.443604	180.300000
745.481140	183.400000
745.518799	183.100000
745.556396	181.800000
745.593994	183.200000
745.631592	182.400000
745.669189	176.900000
745.706787	180.900000
745.744385	179.200000
745.781982	182.300000
745.819580	179.000000
745.857178	180.600000
745.894775	180.200000
745.932373	181.700000
745.969971	182.500000
746.007568	174.100000
746.045166	186.100000
746.082764	185.300000
746.120300	182.700000
746.157898	183.100000
746.195557	181.400000
746.233093	176.200000
746.270691	182.500000
746.308228	181.600000
746.345825	183.400000
746.383423	182.800000
746.420959	178.100000
746.458557	179.800000
746.496155	179.600000
746.533691	181.700000
746.571289	177.900000
746.608887	180.200000
746.646423	181.200000
746.684021	181.600000
746.721619	177.500000
746.759155	183.800000
746.796753	177.100000
746.834351	176.400000
746.871826	178.300000
746.909424	185.700000
746.946960	180.200000
746.984558	180.100000
747.022156	179.500000
747.059631	186.500000
747.097229	183.800000
747.134827	178.500000
747.172363	184.700000
747.209900	184.600000
747.247498	178.000000
747.285034	185.800000
747.322571	185.200000
747.360168	180.500000
747.397644	175.900000
747.435242	184.200000
747.472778	184.600000
747.510315	181.800000
747.547913	178.800000
747.585388	185.000000
747.622925	178.600000
747.660522	176.300000
747.697998	179.500000
747.735596	180.500000
747.773132	178.700000
747.810669	181.200000
747.848206	183.600000
747.885742	177.800000
747.923279	177.400000
747.960815	182.500000
747.998352	180.100000
748.035889	184.300000
748.073425	183.800000
748.110901	179.000000
748.148437	177.300000
748.185974	181.800000
748.223511	188.200000
748.261047	182.100000
748.298584	182.300000
748.336060	180.300000
748.373596	182.000000
748.411133	207.600000
748.448608	178.500000
748.486145	182.700000
748.523682	184.300000
748.561218	186.900000
748.598755	181.400000
748.636292	182.500000
748.673706	181.700000
748.711243	187.200000
748.748718	183.100000
748.786255	180.900000
748.823792	181.000000
748.861267	177.800000
748.898804	183.400000
748.936340	181.800000
748.973816	180.200000
749.011292	184.100000
749.048828	182.800000
749.086304	181.500000
749.123840	188.700000
749.161316	176.900000
749.198792	187.600000
749.236328	185.200000
749.273743	181.500000
749.311279	180.800000
749.348816	184.400000
749.386230	182.200000
749.423767	174.000000
749.461304	182.600000
749.498718	181.600000
749.536255	184.900000
749.573730	187.800000
749.611206	186.300000
749.648682	179.900000
749.686218	181.100000
749.723633	184.000000
749.761169	180.800000
749.798645	178.800000
749.836060	178.500000
749.873596	177.900000
749.911011	183.600000
749.948547	185.700000
749.986023	180.900000
750.023437	180.600000
750.060913	177.400000
750.098450	175.100000
750.135864	182.600000
750.173340	180.900000
750.210815	184.600000
750.248291	178.300000
750.285767	181.800000
750.323242	184.100000
750.360657	182.900000
750.398132	177.400000
750.435608	185.600000
750.473022	178.100000
750.510498	179.500000
750.547974	176.000000
750.585449	180.900000
750.622925	173.000000
750.660339	191.400000
750.697815	180.800000
750.735291	181.300000
750.772644	180.300000
750.810120	184.200000
750.847595	181.300000
750.885010	178.400000
750.922485	185.700000
750.959961	181.000000
750.997375	184.800000
751.034851	183.300000
751.072266	182.000000
751.109680	177.800000
751.147156	185.000000
751.184570	182.000000
751.221985	181.600000
751.259460	176.400000
751.296875	181.800000
751.334290	180.700000
751.371765	184.800000
751.409180	184.200000
751.446594	185.100000
751.484070	183.200000
751.521423	181.700000
751.558899	181.700000
751.596375	188.500000
751.633728	185.400000
751.671204	188.200000
751.708618	178.800000
751.746033	181.900000
751.783447	176.500000
751.820801	179.600000
751.858276	184.200000
751.895691	181.000000
751.933105	180.100000
751.970520	178.400000
752.007935	178.900000
752.045349	186.000000
752.082764	181.000000
752.120178	179.000000
752.157532	179.300000
752.195007	179.700000
752.232422	181.500000
752.269775	183.900000
752.307190	182.800000
752.344543	179.500000
752.382019	181.700000
752.419434	180.600000
752.456787	183.500000
752.494202	185.300000
752.531616	181.200000
752.568970	182.300000
752.606384	182.700000
752.643799	182.900000
752.681152	185.600000
752.718567	183.300000
752.755981	176.500000
752.793335	184.300000
752.830750	175.300000
752.868164	184.800000
752.905518	178.700000
752.942932	183.300000
752.980225	177.500000
753.017639	182.400000
753.055054	182.900000
753.092407	181.700000
753.129822	184.700000
753.167175	187.700000
753.204529	181.500000
753.241943	178.200000
753.279358	177.700000
753.316650	182.600000
753.354065	182.600000
753.391479	183.800000
753.428772	186.100000
753.466187	182.800000
753.503479	178.300000
753.540894	181.000000
753.578308	178.200000
753.615601	178.300000
753.653015	181.800000
753.690369	178.800000
753.727722	178.600000
753.765076	176.600000
753.802490	177.600000
753.839783	175.800000
753.877136	180.300000
753.914551	189.900000
753.951843	179.300000
753.989258	183.600000
754.026611	182.000000
754.063904	183.300000
754.101257	178.400000
754.138611	176.500000
754.175964	181.700000
754.213318	187.200000
754.250610	176.800000
754.288025	179.400000
754.325378	177.800000
754.362671	182.900000
754.400024	180.400000
754.437378	187.300000
754.474670	186.700000
754.512085	179.100000
754.549438	182.800000
754.586731	178.600000
754.624084	181.700000
754.661438	177.900000
754.698730	188.000000
754.736084	181.700000
754.773376	181.100000
754.810730	182.900000
754.848083	181.800000
754.885315	185.000000
754.922668	176.600000
754.960022	177.600000
754.997314	184.300000
755.034668	181.700000
755.072021	183.100000
755.109253	181.000000
755.146606	186.800000
755.183960	180.900000
755.221252	187.300000
755.258545	184.900000
755.295898	187.700000
755.333191	186.800000
755.370544	183.400000
755.407776	182.800000
755.445129	183.600000
755.482422	186.300000
755.519714	181.100000
755.557068	177.000000
755.594360	176.300000
755.631653	186.500000
755.668945	187.000000
755.706299	182.900000
755.743530	190.100000
755.780884	186.700000
755.818176	185.700000
755.855408	186.100000
755.892761	183.500000
755.930054	182.500000
755.967346	184.400000
756.004639	185.500000
756.041870	183.500000
756.079224	187.800000
756.116516	181.300000
756.153748	186.800000
756.191040	189.700000
756.228394	184.200000
756.265625	180.800000
756.302917	185.000000
756.340210	181.400000
756.377441	187.900000
756.414795	188.100000
756.452087	183.400000
756.489319	179.300000
756.526611	186.900000
756.563843	183.400000
756.601135	190.500000
756.638428	190.100000
756.675659	183.000000
756.712952	185.500000
756.750244	187.200000
756.787476	185.900000
756.824768	189.100000
756.862061	183.600000
756.899292	229.000000
756.936584	188.000000
756.973816	192.400000
757.011047	194.000000
757.048340	184.800000
757.085632	186.400000
757.122864	196.800000
757.160156	184.800000
757.197327	187.300000
757.234619	188.900000
757.271912	183.400000
757.309082	189.200000
757.346375	182.600000
757.383667	190.600000
757.420837	185.100000
757.458130	186.900000
757.495422	183.300000
757.532593	188.200000
757.569885	181.300000
757.607117	183.400000
757.644348	186.700000
757.681580	197.200000
757.718811	179.500000
757.756042	186.800000
757.793335	184.600000
757.830505	191.100000
757.867798	184.400000
757.905029	184.200000
757.942200	186.300000
757.979492	185.300000
758.016724	186.700000
758.053894	185.300000
758.091187	198.300000
758.128418	188.000000
758.165588	186.700000
758.202820	195.600000
758.240112	188.100000
758.277283	195.900000
758.314514	189.300000
758.351685	185.900000
758.388916	192.500000
758.426147	192.800000
758.463379	194.800000
758.500610	188.500000
758.537842	189.500000
758.575012	194.200000
758.612244	186.800000
758.649475	197.700000
758.686646	184.800000
758.723877	193.600000
758.761108	195.100000
758.798279	188.400000
758.835510	190.800000
758.872742	196.200000
758.909851	192.100000
758.947083	192.800000
758.984253	192.000000
759.021484	193.700000
759.058716	194.500000
759.095886	195.200000
759.133057	191.200000
759.170288	193.600000
759.207458	191.100000
759.244690	197.700000
759.281860	198.300000
759.319031	191.900000
759.356262	191.000000
759.393433	189.900000
759.430603	192.100000
759.467773	191.800000
759.505005	196.000000
759.542175	196.500000
759.579346	192.200000
759.616516	192.900000
759.653687	195.400000
759.690918	191.600000
759.728027	193.600000
759.765259	194.400000
759.802429	195.700000
759.839539	195.300000
759.876770	197.100000
759.913940	200.100000
759.951111	194.300000
759.988281	193.900000
760.025452	193.000000
760.062561	191.800000
760.099792	202.200000
760.136963	196.800000
760.174072	194.300000
760.211243	190.500000
760.248413	190.700000
760.285583	192.200000
760.322754	202.400000
760.359863	200.500000
760.397034	201.300000
760.434204	195.900000
760.471375	196.400000
760.508545	194.000000
760.545715	196.500000
760.582825	194.100000
760.619995	198.700000
760.657166	193.600000
760.694275	201.100000
760.731445	199.000000
760.768555	198.500000
760.805664	200.100000
760.842834	197.900000
760.879944	199.700000
760.917114	198.900000
760.954285	199.100000
760.991394	193.200000
761.028564	201.000000
761.065674	199.400000
761.102783	197.100000
761.139954	201.600000
761.177124	201.800000
761.214172	202.400000
761.251343	197.300000
761.288452	198.000000
761.325562	203.700000
761.362732	196.500000
761.399841	199.500000
761.436951	200.200000
761.474121	198.500000
761.511169	200.500000
761.548340	204.400000
761.585449	202.800000
761.622559	203.400000
761.659668	200.400000
761.696838	204.700000
761.733887	201.200000
761.771057	201.100000
761.808167	201.600000
761.845276	204.100000
761.882385	210.800000
761.919434	203.700000
761.956604	214.100000
761.993713	202.200000
762.030762	206.500000
762.067871	203.300000
762.105042	203.300000
762.142090	209.100000
762.179199	204.300000
762.216309	207.700000
762.253418	214.200000
762.290527	211.700000
762.327637	208.700000
762.364685	201.600000
762.401794	207.000000
762.438904	205.700000
762.475952	203.700000
762.513062	202.000000
762.550110	205.100000
762.587219	213.900000
762.624329	213.000000
762.661377	207.200000
762.698486	206.900000
762.735596	207.600000
762.772644	205.300000
762.809753	202.300000
762.846863	207.100000
762.883911	210.400000
762.921021	211.200000
762.958069	208.300000
762.995117	214.300000
763.032227	212.600000
763.069336	207.200000
763.106323	204.100000
763.143433	204.400000
763.180481	210.600000
763.217590	210.300000
763.254639	208.000000
763.291687	208.800000
763.328735	215.300000
763.365845	209.200000
763.402893	211.600000
763.439941	212.000000
763.477051	213.000000
763.514038	212.600000
763.551147	208.900000
763.588196	212.200000
763.625244	209.800000
763.662292	216.300000
763.699402	219.000000
763.736389	215.000000
763.773499	220.900000
763.810486	216.900000
763.847534	214.100000
763.884644	216.900000
763.921631	215.400000
763.958679	221.800000
763.995728	217.300000
764.032776	223.800000
764.069824	213.700000
764.106873	220.500000
764.143860	223.800000
764.180969	219.000000
764.218018	225.400000
764.255005	218.500000
764.292053	220.300000
764.329102	227.700000
764.366089	226.100000
764.403137	223.600000
764.440125	222.400000
764.477173	221.200000
764.514221	223.700000
764.551208	221.400000
764.588257	220.700000
764.625305	225.800000
764.662292	231.600000
764.699341	230.700000
764.736389	226.600000
764.773376	236.200000
764.810425	229.900000
764.847473	234.500000
764.884399	230.200000
764.921448	235.500000
764.958435	233.700000
764.995483	228.300000
765.032532	239.800000
765.069458	229.900000
765.106506	232.000000
765.143555	230.100000
765.180481	234.300000
765.217529	238.500000
765.254578	229.800000
765.291504	235.400000
765.328552	233.000000
765.365540	229.700000
765.402527	241.800000
765.439575	231.400000
765.476501	228.200000
765.513550	229.100000
765.550537	234.900000
765.587463	240.000000
765.624512	232.600000
765.661499	230.300000
765.698486	239.500000
765.735474	234.000000
765.772461	238.300000
765.809448	241.300000
765.846436	240.600000
765.883423	242.000000
765.920410	239.600000
765.957397	235.800000
765.994385	241.100000
766.031311	246.500000
766.068359	240.500000
766.105286	243.600000
766.142273	247.600000
766.179260	243.800000
766.216187	242.100000
766.253174	239.200000
766.290161	242.900000
766.327148	245.600000
766.364136	246.600000
766.401123	256.500000
766.438049	242.400000
766.475037	251.600000
766.512024	247.300000
766.548950	260.200000
766.585937	253.300000
766.622864	250.200000
766.659790	251.900000
766.696777	243.900000
766.733704	253.800000
766.770691	248.000000
766.807678	258.500000
766.844604	254.000000
766.881531	254.500000
766.918518	257.100000
766.955444	259.700000
766.992432	254.400000
767.029358	255.000000
767.066284	258.500000
767.103271	256.400000
767.140198	287.200000
767.177124	267.300000
767.214050	259.700000
767.251038	261.800000
767.287964	258.200000
767.324890	257.800000
767.361816	258.900000
767.398743	263.800000
767.435730	261.700000
767.472595	264.000000
767.509583	264.700000
767.546509	258.800000
767.583374	261.400000
767.620361	256.100000
767.657288	263.300000
767.694214	261.300000
767.731140	259.400000
767.768066	262.100000
767.804993	264.800000
767.841919	259.800000
767.878845	264.200000
767.915710	269.400000
767.952698	265.200000
767.989563	266.000000
768.026489	266.000000
768.063416	261.800000
768.100281	262.500000
768.137207	271.500000
768.174133	269.400000
768.211060	271.700000
768.247986	267.900000
768.284912	267.700000
768.321777	269.400000
768.358704	267.000000
768.395630	269.500000
768.432495	265.700000
768.469421	270.800000
768.506348	273.700000
768.543152	278.400000
768.580078	274.700000
768.616943	274.000000
768.653870	278.800000
768.690796	277.200000
768.727661	277.900000
768.764587	278.000000
768.801453	275.000000
768.838318	279.700000
768.875244	281.700000
768.912109	285.300000
768.948975	277.400000
768.985901	279.800000
769.022766	281.300000
769.059631	283.900000
769.096558	280.600000
769.133362	282.700000
769.170288	283.500000
769.207214	283.500000
769.244019	287.700000
769.280945	285.400000
769.317810	293.900000
769.354675	287.300000
769.391541	293.100000
769.428406	291.100000
769.465271	298.500000
769.502136	290.800000
769.539062	294.700000
769.575867	293.800000
769.612732	294.300000
769.649597	300.400000
769.686462	297.900000
769.723328	296.800000
769.760193	295.900000
769.797058	297.500000
769.833923	304.100000
769.870728	302.300000
769.907593	304.700000
769.944519	302.400000
769.981323	304.800000
770.018188	304.800000
770.055054	302.700000
770.091858	305.500000
770.128723	311.300000
770.165588	317.500000
770.202393	308.700000
770.239258	316.700000
770.276062	312.400000
770.312927	313.200000
770.349792	319.000000
770.386597	318.000000
770.423462	324.200000
770.460327	329.300000
770.497131	320.500000
770.533997	316.500000
770.570862	326.700000
770.607605	327.400000
770.644470	323.900000
770.681335	326.100000
770.718140	326.200000
770.754944	322.500000
770.791809	325.000000
770.828613	325.100000
770.865479	327.500000
770.902222	332.500000
770.939087	327.600000
770.975952	322.700000
771.012695	325.100000
771.049561	336.800000
771.086365	331.400000
771.123169	327.200000
771.159973	331.300000
771.196838	333.800000
771.233582	333.000000
771.270447	335.100000
771.307251	339.400000
771.344055	335.500000
771.380859	338.800000
771.417664	335.200000
771.454468	341.000000
771.491272	340.800000
771.528076	343.800000
771.564880	340.400000
771.601685	345.800000
771.638428	341.100000
771.675293	347.800000
771.712097	340.600000
771.748840	353.400000
771.785645	347.100000
771.822449	350.200000
771.859253	351.100000
771.896057	349.100000
771.932861	354.800000
771.969604	354.500000
772.006409	347.800000
772.043213	356.200000
772.079956	350.400000
772.116760	347.900000
772.153503	349.300000
772.190308	361.900000
772.227112	356.700000
772.263855	352.400000
772.300659	355.100000
772.337463	363.000000
772.374207	358.300000
772.411011	355.600000
772.447754	357.200000
772.484497	370.600000
772.521301	361.700000
772.558105	360.800000
772.594849	360.900000
772.631592	368.600000
772.668396	365.000000
772.705139	369.000000
772.741882	369.100000
772.778625	372.600000
772.815430	375.400000
772.852173	370.300000
772.888916	376.900000
772.925720	378.000000
772.962463	381.600000
772.999207	375.200000
773.035950	379.100000
773.072754	380.000000
773.109436	375.200000
773.146240	376.800000
773.182922	377.800000
773.219727	382.900000
773.256470	379.700000
773.293152	373.700000
773.329956	376.400000
773.366699	381.200000
773.403381	376.700000
773.440186	380.500000
773.476929	382.900000
773.513611	379.600000
773.550354	379.200000
773.587158	379.700000
773.623840	380.100000
773.660583	384.300000
773.697327	393.000000
773.734009	382.700000
773.770813	385.300000
773.807495	383.100000
773.844238	387.800000
773.880981	396.400000
773.917664	393.000000
773.954407	396.200000
773.991150	390.200000
774.027832	395.200000
774.064575	391.100000
774.101318	395.500000
774.138000	399.200000
774.174744	395.600000
774.211487	398.600000
774.248108	390.500000
774.284851	392.500000
774.321594	400.600000
774.358276	401.100000
774.395020	406.800000
774.431702	404.600000
774.468384	396.800000
774.505127	393.900000
774.541809	404.200000
774.578491	412.000000
774.615234	413.000000
774.651917	403.500000
774.688599	408.400000
774.725342	411.400000
774.762024	414.400000
774.798706	418.000000
774.835449	417.600000
774.872070	420.000000
774.908813	418.700000
774.945496	416.900000
774.982178	419.900000
775.018860	420.600000
775.055542	425.000000
775.092224	423.700000
775.128967	429.500000
775.165588	431.600000
775.202271	425.800000
775.239014	434.600000
775.275635	435.000000
775.312317	430.100000
775.349060	433.500000
775.385681	434.300000
775.422363	429.000000
775.459045	438.500000
775.495667	439.800000
775.532410	442.800000
775.569092	443.100000
775.605713	439.800000
775.642395	440.700000
775.679016	445.300000
775.715698	444.200000
775.752380	449.000000
775.789001	447.200000
775.825684	448.900000
775.862366	452.600000
775.898987	457.200000
775.935669	457.900000
775.972351	468.000000
776.008972	464.900000
776.045654	463.200000
776.082336	460.700000
776.118958	463.100000
776.155640	468.600000
776.192322	470.500000
776.228882	475.800000
776.265564	475.400000
776.302185	472.200000
776.338867	479.300000
776.375488	474.400000
776.412109	481.500000
776.448792	481.900000
776.485413	490.000000
776.522034	480.400000
776.558716	479.800000
776.595337	486.000000
776.631958	485.300000
776.668579	487.600000
776.705261	495.200000
776.741882	490.200000
776.778503	491.200000
776.815186	493.100000
776.851746	495.000000
776.888367	496.500000
776.924988	508.400000
776.961609	499.200000
776.998291	500.300000
777.034851	494.500000
777.071472	503.300000
777.108154	497.300000
777.144714	511.300000
777.181335	510.100000
777.218018	503.600000
777.254578	509.100000
777.291199	512.300000
777.327759	516.500000
777.364380	521.300000
777.401062	527.500000
777.437622	533.700000
777.474243	521.000000
777.510864	529.300000
777.547424	521.400000
777.584045	527.400000
777.620667	526.100000
777.657227	528.800000
777.693848	529.900000
777.730469	537.600000
777.767029	533.800000
777.803650	535.200000
777.840271	533.500000
777.876831	530.000000
777.913452	535.400000
777.950012	523.400000
777.986633	521.500000
778.023193	526.000000
778.059753	528.000000
778.096375	530.200000
778.132996	540.300000
778.169556	530.200000
778.206116	531.800000
778.242737	531.600000
778.279297	538.400000
778.315857	531.600000
778.352478	543.400000
778.389038	546.200000
778.425598	547.800000
778.462219	552.100000
778.498718	551.300000
778.535339	551.400000
778.571838	557.700000
778.608459	557.100000
778.645020	548.900000
778.681580	554.300000
778.718140	554.500000
778.754761	550.400000
778.791260	552.700000
778.827881	560.300000
778.864441	557.100000
778.900940	563.100000
778.937561	561.100000
778.974121	560.500000
779.010620	557.200000
779.047241	562.300000
779.083801	568.000000
779.120300	567.400000
779.156860	571.000000
779.193359	564.200000
779.229980	566.300000
779.266541	570.500000
779.303040	577.600000
779.339600	569.600000
779.376160	561.100000
779.412659	563.200000
779.449219	564.300000
779.485779	570.900000
779.522278	569.400000
779.558838	573.600000
779.595398	569.700000
779.631897	570.100000
779.668457	569.800000
779.705017	571.800000
779.741516	569.600000
779.778076	569.800000
779.814575	568.500000
779.851074	574.300000
779.887634	568.300000
779.924133	570.100000
779.960693	565.300000
779.997253	582.000000
780.033691	583.900000
780.070251	583.700000
780.106812	587.100000
780.143250	584.100000
780.179810	585.500000
780.216370	592.300000
780.252808	595.900000
780.289368	602.100000
780.325867	600.100000
780.362366	592.500000
780.398865	597.100000
780.435364	595.300000
780.471863	599.600000
780.508423	598.000000
780.544861	599.200000
780.581421	602.900000
780.617920	597.000000
780.654419	592.100000
780.690918	601.600000
780.727417	610.800000
780.763916	609.700000
780.800415	611.700000
780.836914	601.700000
780.873352	608.000000
780.909912	606.300000
780.946411	607.800000
780.982849	614.000000
781.019348	628.900000
781.055786	620.500000
781.092346	619.300000
781.128845	626.400000
781.165283	633.800000
781.201782	642.800000
781.238281	643.900000
781.274719	646.300000
781.311218	641.500000
781.347717	650.200000
781.384155	640.600000
781.420654	644.400000
781.457092	654.500000
781.493591	649.200000
781.530090	645.300000
781.566528	646.600000
781.602966	646.000000
781.639465	651.700000
781.675903	650.500000
781.712402	647.300000
781.748901	653.900000
781.785278	648.300000
781.821777	658.000000
781.858276	658.400000
781.894714	668.000000
781.931152	665.600000
781.967651	667.400000
782.004089	659.600000
782.040527	670.600000
782.076965	671.700000
782.113403	671.300000
782.149902	680.800000
782.186340	681.600000
782.222778	684.200000
782.259277	671.100000
782.295654	678.100000
782.332092	684.400000
782.368591	683.100000
782.404968	682.500000
782.441467	689.400000
782.477905	688.400000
782.514282	689.700000
782.550781	699.800000
782.587219	697.800000
782.623596	706.100000
782.660095	706.600000
782.696472	708.500000
782.732910	714.400000
782.769348	717.100000
782.805786	727.500000
782.842224	732.700000
782.878662	727.000000
782.915039	729.700000
782.951477	730.800000
782.987915	728.600000
783.024292	729.600000
783.060730	732.800000
783.097168	725.400000
783.133545	719.600000
783.169983	715.500000
783.206421	709.200000
783.242798	707.600000
783.279236	704.600000
783.315613	701.400000
783.352051	697.900000
783.388489	692.100000
783.424866	685.500000
783.461304	694.800000
783.497681	699.600000
783.534058	696.400000
783.570496	694.300000
783.606934	689.100000
783.643250	691.400000
783.679687	695.800000
783.716125	686.900000
783.752441	682.600000
783.788879	678.800000
783.825317	670.300000
783.861633	652.400000
783.898071	630.300000
783.934448	623.300000
783.970825	604.400000
784.007263	578.300000
784.043579	561.900000
784.080017	542.500000
784.116394	507.900000
784.152710	486.600000
784.189148	461.500000
784.225525	431.400000
784.261902	412.600000
784.298279	399.100000
784.334656	391.800000
784.371033	385.000000
784.407410	396.000000
784.443787	407.700000
784.480164	426.300000
784.516541	447.600000
784.552856	485.200000
784.589233	518.500000
784.625610	547.400000
784.661987	597.300000
784.698364	624.400000
784.734741	647.400000
784.771057	670.800000
784.807434	701.300000
784.843811	727.400000
784.880127	734.600000
784.916504	754.100000
784.952881	760.600000
784.989197	763.700000
785.025574	767.400000
785.061951	776.200000
785.098267	793.400000
785.134644	790.400000
785.170959	780.200000
785.207275	777.700000
785.243652	776.100000
785.279968	769.000000
785.316345	774.700000
785.352722	771.200000
785.388977	759.400000
785.425354	741.500000
785.461731	730.100000
785.498047	733.500000
785.534363	732.300000
785.570679	731.200000
785.606995	729.000000
785.643372	726.900000
785.679687	726.600000
785.716003	723.300000
785.752380	727.500000
785.788635	738.800000
785.825012	747.300000
785.861328	752.500000
785.897644	745.100000
785.933960	756.900000
785.970337	767.500000
786.006592	786.000000
786.042908	795.400000
786.079285	800.200000
786.115540	807.400000
786.151855	808.300000
786.188171	799.100000
786.224487	802.500000
786.260803	798.600000
786.297119	801.900000
786.333435	794.700000
786.369751	788.300000
786.406006	783.500000
786.442322	772.300000
786.478638	766.000000
786.514954	776.100000
786.551270	766.500000
786.587585	769.700000
786.623840	757.400000
786.660156	758.800000
786.696472	747.400000
786.732727	746.800000
786.769043	752.300000
786.805298	748.400000
786.841614	750.600000
786.877930	764.300000
786.914124	755.100000
786.950439	772.600000
786.986755	788.300000
787.023010	796.600000
787.059326	802.100000
787.095642	805.300000
787.131836	820.200000
787.168152	811.900000
787.204468	830.600000
787.240723	844.000000
787.276978	839.400000
787.313293	845.000000
787.349548	841.100000
787.385803	837.500000
787.422058	829.900000
787.458313	824.600000
787.494629	821.300000
787.530823	816.000000
787.567139	808.800000
787.603455	803.600000
787.639648	794.200000
787.675903	794.400000
787.712219	794.100000
787.748413	795.900000
787.784729	796.400000
787.820984	791.400000
787.857178	788.800000
787.893494	784.700000
787.929749	788.100000
787.965942	805.400000
788.002258	818.000000
788.038452	820.400000
788.074707	812.600000
788.110962	824.400000
788.147217	822.100000
788.183472	837.100000
788.219727	848.800000
788.255920	860.300000
788.292175	857.700000
788.328430	854.000000
788.364624	845.200000
788.400879	844.800000
788.437134	849.600000
788.473328	852.000000
788.509583	857.900000
788.545837	843.700000
788.582031	846.400000
788.618286	848.800000
788.654480	844.900000
788.690735	858.200000
788.726990	868.600000
788.763184	865.100000
788.799377	868.500000
788.835632	868.600000
788.871826	879.400000
788.908081	878.900000
788.944336	872.700000
788.980469	878.800000
789.016724	877.700000
789.052979	883.200000
789.089111	870.400000
789.125366	873.800000
789.161621	869.900000
789.197754	880.300000
789.234009	870.300000
789.270142	868.900000
789.306396	863.800000
789.342590	852.800000
789.378784	837.900000
789.414978	844.400000
789.451233	854.800000
789.487366	858.500000
789.523621	861.900000
789.559814	852.400000
789.595947	845.400000
789.632202	859.100000
789.668335	873.800000
789.704529	894.900000
789.740784	906.100000
789.776917	901.100000
789.813110	893.100000
789.849304	907.500000
789.885498	905.900000
789.921692	913.000000
789.957886	922.700000
789.994019	924.200000
790.030212	918.600000
790.066406	926.700000
790.102539	927.100000
790.138733	939.800000
790.174927	935.300000
790.211060	947.100000
790.247253	944.700000
790.283386	931.500000
790.319580	910.800000
790.355774	897.200000
790.391907	906.200000
790.428101	923.700000
790.464294	921.600000
790.500427	918.500000
790.536621	899.400000
790.572754	885.700000
790.608887	882.500000
790.645081	898.200000
790.681274	905.900000
790.717346	896.800000
790.753540	885.500000
790.789734	876.400000
790.825867	861.800000
790.862000	878.200000
790.898132	892.000000
790.934265	883.100000
790.970459	884.300000
791.006592	875.600000
791.042725	871.300000
791.078918	863.900000
791.114990	873.500000
791.151184	882.100000
791.187317	897.100000
791.223389	891.100000
791.259583	878.700000
791.295715	881.500000
791.331848	886.900000
791.367981	890.400000
791.404114	893.700000
791.440247	890.500000
791.476379	894.400000
791.512451	877.500000
791.548584	877.700000
791.584778	867.800000
791.620850	881.300000
791.656982	895.700000
791.693115	887.700000
791.729187	876.200000
791.765381	871.800000
791.801514	871.300000
791.837585	881.000000
791.873718	899.900000
791.909851	902.000000
791.945923	902.700000
791.982056	881.000000
792.018188	874.500000
792.054260	881.000000
792.090393	881.100000
792.126465	877.600000
792.162598	887.700000
792.198669	876.100000
792.234741	863.400000
792.270874	851.200000
792.307007	847.700000
792.343079	853.600000
792.379150	868.900000
792.415283	856.000000
792.451355	851.100000
792.487488	833.600000
792.523560	825.300000
792.559631	804.500000
792.595764	759.500000
792.631836	732.100000
792.667908	720.600000
792.703979	717.800000
792.740051	750.600000
792.776184	774.300000
792.812256	786.400000
792.848328	797.200000
792.884399	804.800000
792.920471	804.600000
792.956543	803.400000
792.992615	806.400000
793.028748	804.400000
793.064758	811.500000
793.100830	829.700000
793.136963	837.100000
793.172974	834.900000
793.209045	825.500000
793.245178	833.000000
793.281189	829.300000
793.317261	830.300000
793.353271	832.100000
793.389404	839.300000
793.425476	828.900000
793.461487	814.000000
793.497559	816.700000
793.533630	822.200000
793.569641	820.000000
793.605713	830.600000
793.641785	834.500000
793.677795	837.700000
793.713867	831.300000
793.749878	836.100000
793.785950	842.600000
793.822021	857.100000
793.858032	844.800000
793.894104	852.700000
793.930176	848.500000
793.966187	849.800000
794.002258	839.600000
794.038269	850.500000
794.074280	844.400000
794.110352	865.900000
794.146423	855.500000
794.182373	850.900000
794.218445	837.700000
794.254517	827.400000
794.290466	822.700000
794.326538	824.700000
794.362549	825.800000
794.398560	832.400000
794.434631	827.700000
794.470581	805.600000
794.506653	807.800000
794.542664	812.200000
794.578674	817.400000
794.614685	821.000000
794.650757	818.900000
794.686707	816.500000
794.722778	811.100000
794.758789	824.100000
794.794739	836.900000
794.830811	856.900000
794.866821	866.600000
794.902771	869.700000
794.938843	866.100000
794.974792	862.900000
795.010803	857.300000
795.046814	865.500000
795.082825	858.400000
795.118835	861.600000
795.154846	844.600000
795.190796	849.100000
795.226807	830.200000
795.262817	835.700000
795.298767	841.600000
795.334778	852.000000
795.370850	842.900000
795.406799	840.500000
795.442810	821.900000
795.478821	820.800000
795.514709	824.200000
795.550720	852.900000
795.586670	832.200000
795.622681	838.000000
795.658691	836.500000
795.694641	831.500000
795.730652	835.200000
795.766663	839.200000
795.802551	847.400000
795.838562	855.900000
795.874573	840.800000
795.910522	843.400000
795.946472	830.000000
795.982483	836.100000
796.018433	836.100000
796.054382	850.500000
796.090393	839.200000
796.126282	827.800000
796.162292	816.500000
796.198242	815.300000
796.234192	819.300000
796.270203	816.900000
796.306091	822.200000
796.342041	838.300000
796.378052	828.800000
796.413940	821.400000
796.449951	818.100000
796.485901	826.000000
796.521790	837.100000
796.557800	844.900000
796.593689	842.000000
796.629639	833.900000
796.665649	832.400000
796.701599	834.300000
796.737488	831.200000
796.773437	833.200000
796.809387	836.800000
796.845337	841.700000
796.881287	830.300000
796.917175	815.200000
796.953125	817.000000
796.989075	825.000000
797.024963	827.300000
797.060913	827.500000
797.096863	820.200000
797.132751	812.100000
797.168701	800.700000
797.204590	806.100000
797.240540	812.600000
797.276489	823.400000
797.312439	822.600000
797.348328	807.500000
797.384277	799.200000
797.420166	796.200000
797.456055	800.600000
797.492004	803.400000
797.527893	809.300000
797.563843	816.500000
797.599731	810.700000
797.635620	788.300000
797.671570	799.500000
797.707520	804.000000
797.743347	806.100000
797.779297	810.200000
797.815125	807.700000
797.851074	790.500000
797.887024	783.500000
797.922913	779.000000
797.958801	788.400000
797.994690	789.800000
798.030579	792.200000
798.066467	794.000000
798.102356	781.800000
798.138245	775.900000
798.174133	775.900000
798.210083	784.600000
798.245911	802.400000
798.281799	792.100000
798.317749	786.100000
798.353577	783.900000
798.389465	781.100000
798.425293	781.800000
798.461243	780.300000
798.497131	786.000000
798.532959	782.100000
798.568848	787.600000
798.604736	776.900000
798.640564	766.600000
798.676453	767.500000
798.712402	773.000000
798.748230	777.100000
798.784119	775.400000
798.820007	771.700000
798.855835	769.900000
798.891724	769.100000
798.927551	762.400000
798.963379	765.500000
798.999268	763.300000
799.035095	752.100000
799.070984	747.100000
799.106873	741.000000
799.142700	746.500000
799.178528	739.300000
799.214417	746.100000
799.250244	754.400000
799.286133	746.600000
799.321960	745.900000
799.357788	741.400000
799.393677	737.500000
799.429504	740.100000
799.465332	740.900000
799.501221	752.000000
799.537048	750.400000
799.572876	740.400000
799.608704	743.000000
799.644531	749.400000
799.680359	748.400000
799.716248	759.700000
799.752014	764.700000
799.787903	753.400000
799.823730	747.900000
799.859558	741.800000
799.895386	744.300000
799.931213	748.000000
799.967041	743.300000
800.002869	740.900000
800.038696	746.100000
800.074463	734.200000
800.110352	736.300000
800.146179	732.200000
800.181946	740.400000
800.217773	739.600000
800.253540	736.900000
800.289429	730.200000
800.325256	727.800000
800.361023	723.500000
800.396851	735.800000
800.432678	738.900000
800.468445	734.600000
800.504272	725.000000
800.540100	715.800000
800.575867	716.300000
800.611694	720.100000
800.647461	715.100000
800.683289	723.500000
800.719116	724.200000
800.754883	723.400000
800.790649	709.200000
800.826477	706.700000
800.862244	721.800000
800.898071	712.100000
800.933838	713.100000
800.969604	709.800000
801.005432	702.900000
801.041199	705.100000
801.076965	703.500000
801.112793	700.100000
801.148560	694.200000
801.184326	698.000000
801.220154	697.600000
801.255859	690.000000
801.291687	685.100000
801.327454	680.300000
801.363281	686.300000
801.398987	678.400000
801.434814	683.400000
801.470520	690.400000
801.506287	679.000000
801.542114	670.400000
801.577820	673.600000
801.613647	677.500000
801.649414	676.500000
801.685120	677.600000
801.720886	675.000000
801.756714	668.400000
801.792419	665.600000
801.828186	659.900000
801.863892	671.300000
801.899719	664.300000
801.935486	660.900000
801.971252	668.000000
802.006958	659.900000
802.042725	652.600000
802.078430	656.200000
802.114197	655.300000
802.149963	663.500000
802.185669	653.300000
802.221436	646.300000
802.257202	649.300000
802.292908	648.400000
802.328674	656.700000
802.364441	660.100000
802.400146	655.500000
802.435913	655.600000
802.471558	650.100000
802.507324	646.200000
802.543091	646.600000
802.578796	658.300000
802.614502	656.700000
802.650269	661.300000
802.685974	644.200000
802.721741	647.200000
802.757446	646.300000
802.793152	656.500000
802.828918	661.600000
802.864624	656.200000
802.900330	652.300000
802.936035	647.400000
802.971802	649.900000
803.007446	644.400000
803.043213	637.200000
803.078857	646.000000
803.114624	633.600000
803.150330	637.500000
803.185974	632.700000
803.221741	632.400000
803.257446	640.500000
803.293152	644.200000
803.328857	638.900000
803.364563	628.500000
803.400208	627.700000
803.435974	630.200000
803.471680	623.500000
803.507324	625.800000
803.543030	630.800000
803.578735	634.400000
803.614441	630.600000
803.650146	635.900000
803.685791	623.800000
803.721497	620.700000
803.757202	613.900000
803.792847	620.500000
803.828552	617.900000
803.864258	616.000000
803.899902	611.600000
803.935608	597.600000
803.971313	605.400000
804.006958	607.600000
804.042664	607.900000
804.078308	614.300000
804.113953	602.900000
804.149658	603.900000
804.185364	595.500000
804.221008	607.300000
804.256714	595.600000
804.292297	595.700000
804.328003	593.200000
804.363708	585.200000
804.399292	583.500000
804.434998	586.300000
804.470703	583.900000
804.506287	592.600000
804.541992	584.200000
804.577637	586.700000
804.613281	576.200000
804.648926	572.200000
804.684570	574.700000
804.720215	570.200000
804.755920	571.900000
804.791565	574.200000
804.827209	573.400000
804.862854	567.800000
804.898437	565.500000
804.934143	571.700000
804.969788	569.500000
805.005371	564.000000
805.041077	566.400000
805.076721	569.400000
805.112305	559.600000
805.147949	554.400000
805.183655	552.500000
805.219238	564.700000
805.254883	554.800000
805.290466	559.200000
805.326111	554.400000
805.361755	547.300000
805.397400	545.300000
805.432983	546.700000
805.468628	543.900000
805.504211	553.700000
805.539856	555.100000
805.575500	556.100000
805.611084	548.600000
805.646729	539.400000
805.682373	539.100000
805.717957	550.100000
805.753601	547.900000
805.789246	535.300000
805.824768	544.900000
805.860413	547.100000
805.895996	540.400000
805.931641	541.700000
805.967224	547.700000
806.002869	542.800000
806.038452	543.100000
806.074036	550.500000
806.109619	535.900000
806.145264	530.000000
806.180847	531.200000
806.216431	531.200000
806.252014	531.100000
806.287659	533.400000
806.323181	538.100000
806.358826	529.200000
806.394409	518.700000
806.429993	523.200000
806.465576	530.900000
806.501160	526.000000
806.536743	514.900000
806.572327	523.300000
806.607910	518.900000
806.643494	521.100000
806.679077	513.400000
806.714661	513.900000
806.750244	513.800000
806.785828	510.600000
806.821350	513.400000
806.856934	512.500000
806.892517	504.900000
806.928101	503.000000
806.963684	504.000000
806.999268	512.000000
807.034790	499.600000
807.070374	500.200000
807.105896	495.700000
807.141479	492.700000
807.177063	500.200000
807.212585	497.200000
807.248169	496.400000
807.283752	501.200000
807.319275	493.000000
807.354858	494.600000
807.390381	489.800000
807.425903	488.800000
807.461487	486.900000
807.497070	481.100000
807.532593	484.700000
807.568115	482.600000
807.603699	478.100000
807.639221	476.000000
807.674744	481.100000
807.710266	486.300000
807.745850	485.900000
807.781372	479.100000
807.816895	473.900000
807.852417	474.400000
807.888000	475.300000
807.923523	475.800000
807.959045	477.300000
807.994629	469.200000
808.030090	467.400000
808.065613	472.600000
808.101135	475.000000
808.136658	470.200000
808.172241	471.000000
808.207764	472.600000
808.243225	464.000000
808.278809	458.300000
808.314270	464.300000
808.349792	457.000000
808.385315	459.200000
808.420837	460.000000
808.456360	463.300000
808.491882	465.500000
808.527344	465.100000
808.562866	468.600000
808.598389	459.800000
808.633850	454.900000
808.669434	452.300000
808.704895	457.500000
808.740417	462.900000
808.775940	458.200000
808.811462	452.700000
808.846924	449.500000
808.882385	447.700000
808.917847	447.100000
808.953369	449.600000
808.988892	445.500000
809.024353	451.000000
809.059875	447.900000
809.095398	441.700000
809.130798	441.200000
809.166321	439.200000
809.201843	438.800000
809.237305	441.400000
809.272766	444.100000
809.308228	436.000000
809.343750	437.300000
809.379211	434.800000
809.414734	432.300000
809.450134	438.100000
809.485657	431.500000
809.521118	431.500000
809.556580	429.900000
809.592102	429.000000
809.627502	429.000000
809.663025	426.400000
809.698486	421.600000
809.733887	418.700000
809.769409	423.500000
809.804871	416.000000
809.840271	420.900000
809.875793	417.400000
809.911194	418.700000
809.946655	415.100000
809.982178	414.500000
810.017639	414.500000
810.053040	415.100000
810.088501	413.500000
810.123901	410.600000
810.159424	408.700000
810.194885	404.400000
810.230286	406.600000
810.265747	399.500000
810.301208	397.800000
810.336609	403.700000
810.372070	396.100000
810.407532	396.100000
810.442932	395.400000
810.478394	400.300000
810.513794	397.000000
810.549255	393.200000
810.584717	393.000000
810.620117	387.400000
810.655518	393.300000
810.690979	387.800000
810.726379	387.200000
810.761841	380.600000
810.797302	378.400000
810.832642	380.600000
810.868103	391.800000
810.903564	379.900000
810.938904	384.800000
810.974365	374.900000
811.009827	376.300000
811.045166	373.600000
811.080627	367.900000
811.115967	371.300000
811.151428	375.400000
811.186829	371.100000
811.222229	373.200000
811.257629	365.800000
811.293091	372.700000
811.328430	377.400000
811.363892	372.700000
811.399292	374.200000
811.434631	367.800000
811.470093	369.500000
811.505493	364.600000
811.540833	361.200000
811.576294	369.300000
811.611694	364.200000
811.647034	359.800000
811.682434	360.300000
811.717773	363.200000
811.753235	368.800000
811.788635	359.000000
811.823975	360.000000
811.859375	365.600000
811.894775	356.500000
811.930115	358.400000
811.965515	355.000000
812.000916	356.800000
812.036255	354.800000
812.071655	357.900000
812.106995	349.600000
812.142395	354.800000
812.177795	360.000000
812.213196	353.700000
812.248474	356.300000
812.283875	349.100000
812.319214	348.200000
812.354614	351.000000
812.390015	346.000000
812.425293	344.600000
812.460693	349.200000
812.496094	345.300000
812.531433	339.100000
812.566772	338.000000
812.602173	341.100000
812.637451	339.500000
812.672852	336.500000
812.708191	337.100000
812.743530	334.500000
812.778931	328.800000
812.814270	331.500000
812.849609	334.800000
812.884949	334.200000
812.920227	327.000000
812.955627	337.000000
812.990967	329.000000
813.026306	325.700000
813.061646	318.800000
813.096985	317.700000
813.132324	314.200000
813.167664	317.700000
813.203003	318.400000
813.238281	313.600000
813.273682	312.100000
813.308960	311.500000
813.344299	312.100000
813.379639	316.400000
813.414978	309.500000
813.450256	308.700000
813.485596	311.200000
813.520874	306.800000
813.556213	305.400000
813.591614	309.900000
813.626831	305.700000
813.662170	308.100000
813.697510	314.000000
813.732788	302.900000
813.768127	306.400000
813.803467	304.500000
813.838745	302.400000
813.874084	305.500000
813.909363	301.400000
813.944641	302.000000
813.979980	296.400000
814.015320	298.700000
814.050598	298.200000
814.085876	297.500000
814.121155	295.900000
814.156494	294.600000
814.191772	296.600000
814.227051	290.800000
814.262390	293.900000
814.297668	291.100000
814.332947	293.100000
814.368225	287.500000
814.403564	290.500000
814.438782	288.300000
814.474121	290.800000
814.509338	287.700000
814.544617	292.000000
814.579956	285.000000
814.615173	293.400000
814.650513	288.800000
814.685791	283.300000
814.721008	286.800000
814.756348	285.300000
814.791626	280.800000
814.826843	281.600000
814.862122	281.900000
814.897400	281.000000
814.932678	282.400000
814.967957	282.300000
815.003235	282.300000
815.038452	277.300000
815.073730	275.500000
815.108948	283.100000
815.144226	281.300000
815.179504	282.600000
815.214722	271.500000
815.250000	274.000000
815.285278	275.300000
815.320496	273.000000
815.355774	273.500000
815.391052	274.200000
815.426270	272.400000
815.461487	271.900000
815.496765	268.800000
815.531982	265.700000
815.567261	269.100000
815.602539	274.600000
815.637695	271.500000
815.672974	269.800000
815.708191	270.300000
815.743408	273.000000
815.778687	266.500000
815.813904	271.700000
815.849121	262.800000
815.884399	259.300000
815.919556	263.100000
815.954834	260.200000
815.990051	262.800000
816.025269	266.400000
816.060486	259.700000
816.095703	258.000000
816.130920	260.300000
816.166199	255.100000
816.201416	258.500000
816.236572	260.900000
816.271851	257.700000
816.307007	257.900000
816.342224	251.500000
816.377441	255.400000
816.412659	249.800000
816.447876	255.600000
816.483093	251.500000
816.518250	249.900000
816.553467	248.500000
816.588745	252.500000
816.623901	247.000000
816.659119	242.700000
816.694275	247.900000
816.729492	244.100000
816.764709	270.800000
816.799927	242.500000
816.835083	245.200000
816.870300	240.800000
816.905457	243.600000
816.940674	241.300000
816.975830	239.300000
817.010986	238.200000
817.046204	239.100000
817.081421	237.800000
817.116577	236.100000
817.151733	243.500000
817.186951	240.900000
817.222107	238.100000
817.257324	239.600000
817.292419	239.900000
817.327637	231.900000
817.362854	235.300000
817.398010	230.500000
817.433167	233.700000
817.468323	232.100000
817.503479	235.000000
817.538635	238.500000
817.573853	234.800000
817.608948	230.900000
817.644165	228.400000
817.679321	227.000000
817.714478	227.900000
817.749634	229.900000
817.784790	236.400000
817.819946	233.300000
817.855103	223.500000
817.890198	228.100000
817.925415	221.300000
817.960571	229.100000
817.995667	227.800000
818.030823	226.700000
818.066040	224.400000
818.101135	226.300000
818.136292	223.200000
818.171448	220.600000
818.206543	222.900000
818.241699	224.700000
818.276855	225.100000
818.311951	221.300000
818.347107	221.400000
818.382263	224.100000
818.417358	226.700000
818.452515	226.400000
818.487610	227.000000
818.522766	218.600000
818.557922	225.300000
818.593018	223.200000
818.628113	219.700000
818.663269	217.400000
818.698364	218.800000
818.733521	216.400000
818.768677	218.500000
818.803711	214.400000
818.838867	214.800000
818.874023	215.400000
818.909058	213.500000
818.944214	213.500000
818.979370	215.900000
819.014404	215.900000
819.049561	210.200000
819.084595	215.500000
819.119751	211.500000
819.154846	214.200000
819.189941	211.200000
819.225037	210.300000
819.260193	203.800000
819.295227	205.800000
819.330322	203.400000
819.365479	202.900000
819.400513	237.900000
819.435608	203.000000
819.470764	200.800000
819.505798	203.300000
819.540894	202.500000
819.575989	203.800000
819.611084	206.900000
819.646179	210.900000
819.681213	204.300000
819.716309	202.900000
819.751404	201.100000
819.786438	208.300000
819.821533	200.300000
819.856628	203.100000
819.891663	203.600000
819.926758	212.100000
819.961853	207.100000
819.996887	200.900000
820.031982	202.200000
820.067017	201.500000
820.102112	233.700000
820.137207	199.800000
820.172302	208.200000
820.207275	198.000000
820.242371	197.000000
820.277405	197.800000
820.312500	198.600000
820.347534	199.800000
820.382568	203.300000
820.417664	196.400000
820.452759	196.900000
820.487732	196.400000
820.522827	197.400000
820.557861	194.000000
820.592896	195.900000
820.627930	195.700000
820.662964	194.400000
820.698059	198.100000
820.733093	194.500000
820.768127	198.000000
820.803162	197.100000
820.838196	193.400000
820.873230	195.700000
820.908264	195.300000
820.943298	193.600000
820.978333	197.100000
821.013367	196.400000
821.048401	197.500000
821.083435	196.000000
821.118469	188.700000
821.153503	197.300000
821.188477	193.900000
821.223511	191.300000
821.258484	193.600000
821.293579	193.800000
821.328613	189.000000
821.363647	192.800000
821.398621	189.400000
821.433655	192.000000
821.468628	201.600000
821.503662	192.100000
821.538696	193.800000
821.573669	189.500000
821.608704	194.600000
821.643677	192.200000
821.678650	192.900000
821.713684	197.100000
821.748718	190.900000
821.783691	192.400000
821.818726	191.200000
821.853638	193.200000
821.888672	190.200000
821.923706	190.600000
821.958618	191.100000
821.993652	189.300000
822.028687	192.900000
822.063599	197.600000
822.098633	191.100000
822.133667	186.700000
822.168579	191.100000
822.203613	191.200000
822.238586	188.300000
822.273560	192.100000
822.308533	187.200000
822.343567	187.800000
822.378479	190.600000
822.413452	189.100000
822.448425	187.000000
822.483398	193.300000
822.518372	193.500000
822.553345	185.500000
822.588318	196.500000
822.623291	188.800000
822.658203	189.400000
822.693237	189.200000
822.728210	186.800000
822.763123	189.400000
822.798096	186.800000
822.833069	187.600000
822.867981	188.300000
822.902954	188.800000
822.937927	191.400000
822.972900	195.200000
823.007874	185.400000
823.042725	192.300000
823.077698	196.400000
823.112671	185.500000
823.147583	188.600000
823.182556	189.600000
823.217529	192.700000
823.252441	186.400000
823.287415	195.800000
823.322388	190.700000
823.357239	188.000000
823.392212	194.100000
823.427185	193.400000
823.462097	186.800000
823.497009	190.800000
823.531982	186.200000
823.566895	189.600000
823.601807	185.200000
823.636719	188.600000
823.671631	190.000000
823.706604	186.400000
823.741455	189.900000
823.776428	182.700000
823.811340	191.000000
823.846252	193.300000
823.881165	192.900000
823.916138	188.200000
823.950989	194.500000
823.985901	186.700000
824.020813	188.000000
824.055725	187.100000
824.090637	183.800000
824.125610	190.700000
824.160461	191.200000
824.195374	189.900000
824.230225	191.000000
824.265198	182.300000
824.300110	186.400000
824.334961	194.900000
824.369873	181.700000
824.404785	188.700000
824.439636	190.600000
824.474548	181.600000
824.509460	180.400000
824.544312	190.700000
824.579224	190.200000
824.614075	188.500000
824.648987	186.000000
824.683899	184.600000
824.718811	184.600000
824.753662	189.000000
824.788574	190.500000
824.823364	186.900000
824.858276	185.000000
824.893188	188.800000
824.928040	189.400000
824.962952	187.800000
824.997803	189.600000
825.032654	186.500000
825.067566	187.800000
825.102417	184.100000
825.137268	184.500000
825.172119	184.700000
825.206970	183.500000
825.241882	184.600000
825.276733	181.300000
825.311646	184.500000
825.346436	181.400000
825.381348	182.400000
825.416138	186.000000
825.450989	181.900000
825.485901	177.400000
825.520691	179.600000
825.555542	179.900000
825.590454	181.700000
825.625244	179.000000
825.660095	189.100000
825.695007	185.500000
825.729797	182.900000
825.764648	180.100000
825.799438	184.400000
825.834290	183.400000
825.869202	179.400000
825.903992	183.300000
825.938843	182.300000
825.973694	177.500000
826.008484	191.300000
826.043335	179.000000
826.078186	176.400000
826.112976	184.600000
826.147827	186.300000
826.182678	187.700000
826.217468	176.800000
826.252319	185.600000
826.287109	178.000000
826.321899	184.600000
826.356750	181.000000
826.391541	177.700000
826.426392	184.700000
826.461182	180.600000
826.495972	178.200000
826.530823	174.800000
826.565613	180.300000
826.600403	177.600000
826.635254	183.100000
826.670044	175.200000
826.704834	175.700000
826.739685	177.900000
826.774475	182.300000
826.809265	179.700000
826.844055	178.700000
826.878906	183.600000
826.913635	181.300000
826.948425	182.100000
826.983215	182.600000
827.018005	182.900000
827.052856	178.400000
827.087585	183.200000
827.122375	174.800000
827.157227	178.500000
827.191956	191.200000
827.226746	175.900000
827.261536	182.400000
827.296265	177.700000
827.331116	179.400000
827.365906	182.500000
827.400635	178.700000
827.435425	174.800000
827.470215	182.600000
827.504944	179.600000
827.539734	183.700000
827.574463	179.800000
827.609253	185.700000
827.644043	180.300000
827.678772	182.200000
827.713562	179.200000
827.748352	179.500000
827.783081	177.300000
827.817871	181.400000
827.852600	178.000000
827.887329	180.500000
827.922119	176.600000
827.956848	182.500000
827.991638	189.500000
828.026367	182.600000
828.061157	181.500000
828.095886	180.200000
828.130615	192.400000
828.165344	173.700000
828.200073	180.700000
828.234863	178.200000
828.269592	179.100000
828.304321	181.400000
828.339111	181.200000
828.373779	178.600000
828.408569	183.500000
828.443298	183.400000
828.477966	178.200000
828.512756	180.700000
828.547424	177.500000
828.582214	178.500000
828.616943	177.700000
828.651672	180.200000
828.686340	182.700000
828.721130	178.300000
828.755798	180.800000
828.790527	179.400000
828.825256	180.100000
828.859924	181.400000
828.894714	184.100000
828.929443	186.600000
828.964111	179.500000
828.998840	182.700000
829.033569	178.500000
829.068237	179.800000
829.102966	179.600000
829.137634	181.400000
829.172363	181.600000
829.207092	181.600000
829.241821	177.600000
829.276489	175.800000
829.311157	181.000000
829.345825	179.300000
829.380554	182.200000
829.415283	177.200000
829.449951	174.500000
829.484619	186.400000
829.519348	183.900000
829.554016	180.700000
829.588745	180.300000
829.623413	177.000000
829.658081	186.500000
829.692749	176.700000
829.727417	183.200000
829.762146	181.500000
829.796814	176.800000
829.831482	180.400000
829.866150	180.400000
829.900879	178.000000
829.935486	181.200000
829.970154	178.800000
830.004883	188.600000
830.039490	180.800000
830.074219	178.100000
830.108887	181.100000
830.143494	180.300000
830.178223	176.800000
830.212891	179.200000
830.247498	180.600000
830.282166	185.000000
830.316772	184.500000
830.351501	178.100000
830.386169	179.700000
830.420776	179.000000
830.455444	180.500000
830.490112	179.500000
830.524719	175.000000
830.559387	181.800000
830.594055	181.900000
830.628662	180.000000
830.663330	180.100000
830.697998	186.100000
830.732605	180.200000
830.767273	180.600000
830.801941	178.700000
830.836487	187.500000
830.871155	181.000000
830.905762	181.700000
830.940430	175.400000
830.975098	178.100000
831.009644	180.300000
831.044312	185.700000
831.078979	182.500000
831.113525	174.800000
831.148193	180.100000
831.182861	178.900000
831.217407	181.000000
831.252075	189.400000
831.286621	178.100000
831.321289	176.800000
831.355896	179.300000
831.390564	185.500000
831.425110	179.900000
831.459778	184.300000
831.494324	190.400000
831.528931	182.600000
831.563599	184.800000
831.598145	176.600000
831.632751	179.100000
831.667419	180.900000
831.701965	181.800000
831.736572	181.100000
831.771179	175.100000
831.805786	178.100000
831.840393	185.100000
831.874939	175.600000
831.909546	182.700000
831.944153	174.100000
831.978760	180.500000
832.013306	176.600000
832.047913	184.900000
832.082458	186.300000
832.117065	177.200000
832.151672	187.400000
832.186218	181.900000
832.220825	181.900000
832.255432	176.100000
832.289978	178.000000
832.324585	181.500000
832.359192	180.500000
832.393677	179.900000
832.428284	179.000000
832.462830	179.900000
832.497437	178.200000
832.531982	183.100000
832.566589	177.400000
832.601135	183.300000
832.635681	174.600000
832.670227	180.700000
832.704773	184.800000
832.739380	180.800000
832.773926	180.200000
832.808472	179.900000
832.843079	180.000000
832.877563	182.600000
832.912170	177.700000
832.946716	175.600000
832.981201	184.400000
833.015808	182.600000
833.050293	179.600000
833.084839	177.200000
833.119446	178.300000
833.153992	182.700000
833.188477	179.400000
833.223022	178.700000
833.257568	181.500000
833.292114	184.500000
833.326660	188.600000
833.361145	178.100000
833.395691	175.600000
833.430237	180.500000
833.464783	181.900000
833.499329	178.600000
833.533875	175.900000
833.568359	182.900000
833.602905	183.400000
833.637390	184.800000
833.671875	179.200000
833.706421	179.600000
833.740906	179.200000
833.775452	174.800000
833.809998	179.300000
833.844482	185.900000
833.879028	179.600000
833.913513	178.300000
833.947998	182.600000
833.982544	178.100000
834.017090	178.700000
834.051514	174.200000
834.086060	182.700000
834.120544	179.200000
834.155029	181.700000
834.189575	177.400000
834.223999	182.200000
834.258545	180.800000
834.293030	181.100000
834.327515	180.400000
834.362000	178.700000
834.396545	181.800000
834.430969	179.100000
834.465454	183.200000
834.500000	175.200000
834.534424	180.600000
834.568970	175.100000
834.603455	175.000000
834.637878	177.600000
834.672363	180.900000
834.706909	179.900000
834.741333	180.700000
834.775818	176.800000
834.810242	177.000000
834.844727	180.500000
834.879211	178.000000
834.913635	180.500000
834.948181	180.600000
834.982666	181.100000
835.017090	178.300000
835.051575	181.600000
835.086060	179.300000
835.120483	182.000000
835.154907	181.600000
835.189331	179.800000
835.223816	183.600000
835.258301	175.900000
835.292786	178.000000
835.327209	183.400000
835.361694	178.100000
835.396057	179.400000
835.430542	182.100000
835.465027	179.900000
835.499390	178.100000
835.533875	207.500000
835.568359	179.500000
835.602722	175.700000
835.637207	181.600000
835.671692	176.300000
835.706055	194.900000
835.740540	181.900000
835.774902	181.900000
835.809387	180.200000
835.843811	176.400000
835.878235	184.400000
835.912659	177.800000
835.947083	178.400000
835.981506	181.300000
836.015930	175.900000
836.050354	183.400000
836.084778	185.300000
836.119202	183.800000
836.153625	192.200000
836.187988	177.400000
836.222473	177.700000
836.256897	180.800000
836.291260	179.000000
836.325684	181.100000
836.360046	178.600000
836.394470	181.200000
836.428894	186.000000
836.463318	178.100000
836.497681	183.300000
836.532104	185.400000
836.566467	180.200000
836.600891	179.800000
836.635315	184.100000
836.669678	182.600000
836.704102	183.800000
836.738525	182.800000
836.772888	174.900000
836.807251	177.900000
836.841675	182.800000
836.876038	176.200000
836.910461	177.500000
836.944763	182.700000
836.979187	178.100000
837.013611	182.600000
837.047974	176.400000
837.082336	189.200000
837.116699	181.400000
837.151062	179.900000
837.185486	176.600000
837.219849	178.000000
837.254211	182.800000
837.288574	179.800000
837.322937	177.300000
837.357300	172.900000
837.391663	188.700000
837.426086	182.800000
837.460388	181.700000
837.494751	183.500000
837.529114	178.800000
837.563477	183.900000
837.597839	182.100000
837.632141	179.100000
837.666565	179.200000
837.700928	181.500000
837.735229	181.900000
837.769592	181.700000
837.803955	182.600000
837.838257	177.900000
837.872620	177.600000
837.906982	184.900000
837.941284	180.000000
837.975647	182.700000
838.010010	184.500000
838.044312	177.700000
838.078674	178.500000
838.112976	180.900000
838.147339	182.300000
838.181702	181.300000
838.216003	187.200000
838.250366	181.200000
838.284668	183.000000
838.318970	175.200000
838.353333	180.500000
838.387634	179.300000
838.421936	181.300000
838.456299	182.200000
838.490601	186.000000
838.524902	183.500000
838.559265	183.400000
838.593567	183.600000
838.627869	176.200000
838.662170	182.700000
838.696472	175.700000
838.730774	178.800000
838.765137	182.400000
838.799377	172.300000
838.833740	180.800000
838.868042	185.200000
838.902283	174.300000
838.936646	186.200000
838.970947	180.800000
839.005188	186.600000
839.039551	175.000000
839.073792	184.800000
839.108093	178.100000
839.142395	187.500000
839.176697	175.100000
839.210937	181.900000
839.245300	186.700000
839.279541	176.500000
839.313843	178.400000
839.348145	182.900000
839.382385	184.400000
839.416687	183.600000
839.450989	182.500000
839.485229	180.000000
839.519531	177.200000
839.553833	184.200000
839.588013	178.700000
839.622314	182.400000
839.656555	181.800000
839.690857	181.200000
839.725159	175.300000
839.759460	180.300000
839.793640	178.000000
839.827942	180.900000
839.862183	176.800000
839.896423	181.500000
839.930725	190.900000
839.964966	185.700000
839.999207	184.700000
840.033508	185.800000
840.067688	177.500000
840.101990	186.600000
840.136230	180.600000
840.170471	186.400000
840.204712	178.400000
840.238953	178.300000
840.273193	181.500000
840.307434	183.300000
840.341736	179.100000
840.375916	176.700000
840.410217	178.400000
840.444397	182.500000
840.478638	181.900000
840.512878	184.700000
840.547119	181.000000
840.581360	183.500000
840.615601	188.100000
840.649780	189.700000
840.684021	181.200000
840.718262	186.500000
840.752441	186.800000
840.786682	181.700000
840.820862	182.100000
840.855103	187.400000
840.889343	180.000000
840.923584	184.100000
840.957764	183.600000
840.992004	181.800000
841.026184	191.900000
841.060425	179.600000
841.094666	178.500000
841.128845	183.300000
841.163025	182.300000
841.197266	182.100000
841.231445	181.600000
841.265686	182.000000
841.299866	178.100000
841.334045	186.800000
841.368286	180.300000
841.402405	185.000000
841.436646	182.900000
841.470825	179.100000
841.505005	180.200000
841.539185	177.200000
841.573425	179.000000
841.607544	180.300000
841.641785	180.000000
841.675964	177.700000
841.710144	182.100000
841.744324	179.100000
841.778503	180.400000
841.812683	178.100000
841.846863	185.800000
841.881042	186.100000
841.915222	180.000000
841.949402	192.400000
841.983521	176.400000
842.017700	180.700000
842.051880	180.500000
842.086060	183.900000
842.120239	181.500000
842.154419	180.000000
842.188538	179.900000
842.222717	179.100000
842.256897	186.700000
842.291016	181.700000
842.325195	181.400000
842.359375	189.200000
842.393494	184.700000
842.427673	181.700000
842.461853	182.200000
842.495911	188.000000
842.530090	182.400000
842.564209	181.300000
842.598389	181.700000
842.632568	181.000000
842.666626	182.100000
842.700806	179.700000
842.734985	179.600000
842.769043	183.200000
842.803223	180.600000
842.837402	180.500000
842.871460	177.700000
842.905640	189.400000
842.939697	177.700000
842.973877	182.500000
843.007996	184.800000
843.042175	189.900000
843.076233	180.200000
843.110413	184.600000
843.144470	186.700000
843.178589	185.500000
843.212769	180.900000
843.246826	184.600000
843.280945	179.500000
843.315125	181.400000
843.349182	178.400000
843.383301	186.200000
843.417419	191.000000
843.451538	181.800000
843.485657	179.400000
843.519714	180.900000
843.553833	181.900000
843.587952	179.500000
843.622070	180.200000
843.656128	182.400000
843.690247	179.500000
843.724304	181.300000
843.758423	183.200000
843.792542	179.800000
843.826599	182.000000
843.860718	180.400000
843.894836	177.200000
843.928894	181.000000
843.963013	182.600000
843.997070	177.900000
844.031128	178.700000
844.065247	185.400000
844.099304	184.600000
844.133362	183.400000
844.167480	183.300000
844.201599	185.300000
844.235596	183.500000
844.269714	182.300000
844.303711	181.900000
844.337830	175.700000
844.371948	182.900000
844.405945	180.400000
844.440063	179.200000
844.474121	190.800000
844.508118	180.400000
844.542236	180.600000
844.576294	179.900000
844.610352	176.900000
844.644409	180.900000
844.678406	175.000000
844.712524	185.700000
844.746582	185.700000
844.780640	181.300000
844.814636	182.300000
844.848755	191.200000
844.882751	181.000000
844.916809	184.200000
844.950867	183.900000
844.984863	187.800000
845.018921	181.000000
845.052979	180.000000
845.086975	184.000000
845.121033	176.900000
845.155090	179.400000
845.189087	185.800000
845.223145	180.700000
845.257141	183.400000
845.291199	184.100000
845.325256	184.500000
845.359253	183.500000
845.393250	193.700000
845.427307	181.400000
845.461304	182.600000
845.495361	182.000000
845.529358	188.300000
845.563354	180.800000
845.597412	178.300000
845.631409	190.000000
845.665405	186.200000
845.699463	185.600000
845.733459	179.600000
845.767456	190.200000
845.801453	180.700000
845.835449	185.400000
845.869446	183.500000
845.903503	184.900000
845.937439	177.800000
845.971497	185.400000
846.005493	178.400000
846.039429	185.300000
846.073486	189.000000
846.107483	180.400000
846.141418	179.100000
846.175476	182.600000
846.209473	186.400000
846.243408	179.800000
846.277405	182.100000
846.311401	179.800000
846.345337	180.800000
846.379395	185.500000
846.413330	180.000000
846.447327	189.000000
846.481323	180.100000
846.515259	180.000000
846.549255	181.400000
846.583252	185.000000
846.617187	179.000000
846.651184	182.000000
846.685120	180.600000
846.719055	188.100000
846.753052	184.500000
846.786987	185.300000
846.820984	177.900000
846.854980	186.800000
846.888916	179.200000
846.922852	183.200000
846.956848	187.800000
846.990723	180.300000
847.024719	183.600000
847.058716	179.600000
847.092590	187.700000
847.126587	182.500000
847.160522	180.200000
847.194458	185.200000
847.228455	178.700000
847.262390	177.200000
847.296265	181.200000
847.330261	184.200000
847.364136	180.100000
847.398132	180.200000
847.432068	182.700000
847.466003	179.700000
847.499939	181.700000
847.533875	184.100000
847.567749	181.600000
847.601746	181.200000
847.635681	184.400000
847.669556	175.200000
847.703491	186.800000
847.737427	190.400000
847.771301	179.600000
847.805237	183.400000
847.839233	183.200000
847.873108	180.500000
847.907043	181.300000
847.940918	186.900000
847.974854	183.800000
848.008789	184.300000
848.042664	181.600000
848.076538	182.600000
848.110474	182.300000
848.144348	182.700000
848.178284	177.200000
848.212219	184.200000
848.246094	181.100000
848.279968	182.500000
848.313904	183.500000
848.347778	182.300000
848.381653	180.400000
848.415588	180.900000
848.449463	179.400000
848.483337	183.500000
848.517212	187.000000
848.551086	182.600000
848.585022	177.600000
848.618835	191.600000
848.652771	180.700000
848.686646	179.100000
848.720520	186.600000
848.754395	181.900000
848.788330	183.400000
848.822144	186.600000
848.856018	180.100000
848.889954	188.900000
848.923767	177.700000
848.957642	179.500000
848.991577	181.800000
849.025391	181.200000
849.059265	181.700000
849.093079	178.300000
849.126953	177.400000
849.160828	186.000000
849.194641	180.800000
849.228577	180.100000
849.262451	181.100000
849.296265	180.900000
849.330139	179.000000
849.364014	183.200000
849.397827	183.500000
849.431702	184.000000
849.465515	185.600000
849.499329	176.000000
849.533203	178.800000
849.567078	175.400000
849.600891	183.200000
849.634766	182.000000
849.668518	184.000000
849.702393	182.400000
849.736267	178.000000
849.770020	188.600000
849.803894	184.000000
849.837769	183.900000
849.871521	181.300000
849.905396	185.300000
849.939270	181.100000
849.973022	180.700000
850.006897	184.900000
850.040710	184.700000
850.074524	185.800000
850.108337	179.900000
850.142151	186.300000
850.175964	186.800000
850.209778	181.800000
850.243530	174.200000
850.277405	185.700000
850.311218	181.400000
850.344971	180.500000
850.378845	187.200000
850.412659	179.800000
850.446411	183.100000
850.480225	181.000000
850.514038	185.000000
850.547791	186.600000
850.581665	181.500000
850.615417	178.900000
850.649231	181.700000
850.683044	179.800000
850.716858	179.400000
850.750610	182.400000
850.784424	184.200000
850.818176	178.400000
850.851929	181.100000
850.885742	180.100000
850.919495	180.200000
850.953308	188.900000
850.987122	187.200000
851.020874	177.900000
851.054626	177.200000
851.088440	184.900000
851.122192	185.100000
851.156006	182.600000
851.189697	181.300000
851.223511	178.800000
851.257263	185.700000
851.291077	184.200000
851.324829	180.500000
851.358582	182.000000
851.392334	181.700000
851.426086	179.000000
851.459900	187.700000
851.493591	182.300000
851.527344	182.300000
851.561157	181.600000
851.594849	183.700000
851.628662	182.500000
851.662415	190.000000
851.696106	183.500000
851.729858	185.900000
851.763611	177.600000
851.797363	182.900000
851.831116	179.000000
851.864868	184.800000
851.898560	186.000000
851.932312	181.300000
851.966064	183.200000
851.999817	182.100000
852.033569	180.600000
852.067261	187.700000
852.101013	180.300000
852.134766	180.900000
852.168457	174.400000
852.202209	187.200000
852.235901	178.100000
852.269592	185.300000
852.303345	187.000000
852.337036	184.600000
852.370789	181.500000
852.404541	185.800000
852.438171	178.300000
852.471924	182.600000
852.505676	177.900000
852.539307	183.300000
852.573059	179.100000
852.606812	181.200000
852.640442	180.500000
852.674194	186.700000
852.707886	189.500000
852.741577	187.300000
852.775269	178.900000
852.809021	182.200000
852.842651	183.400000
852.876404	186.400000
852.910034	183.600000
852.943787	184.900000
852.977478	184.300000
853.011108	178.600000
853.044861	182.400000
853.078552	186.200000
853.112183	183.300000
853.145874	182.800000
853.179626	176.900000
853.213257	183.000000
853.246948	179.400000
853.280640	189.500000
853.314270	181.900000
853.347961	186.600000
853.381653	184.500000
853.415283	186.800000
853.448975	178.900000
853.482605	183.200000
853.516296	181.300000
853.549988	178.400000
853.583618	183.300000
853.617310	183.200000
853.651001	184.300000
853.684631	178.500000
853.718323	179.900000
853.751953	186.300000
853.785583	176.200000
853.819275	183.700000
853.852966	184.000000
853.886536	176.500000
853.920227	178.200000
853.953918	185.600000
853.987488	181.000000
854.021179	184.400000
854.054749	188.600000
854.088440	183.400000
854.122131	178.400000
854.155701	182.900000
854.189331	180.100000
854.223022	183.700000
854.256592	182.200000
854.290283	179.300000
854.323914	183.900000
854.357483	180.800000
854.391174	184.100000
854.424744	189.400000
854.458374	182.600000
854.492065	191.400000
854.525696	185.100000
854.559265	187.200000
854.592896	192.000000
854.626465	183.400000
854.660095	181.600000
854.693787	184.600000
854.727356	180.900000
854.760986	185.800000
854.794617	183.000000
854.828186	180.100000
854.861816	184.800000
854.895447	184.400000
854.929016	183.200000
854.962585	183.900000
854.996155	189.400000
855.029785	185.400000
855.063416	181.700000
855.097046	186.200000
855.130615	179.200000
855.164185	186.600000
855.197754	181.000000
855.231384	183.900000
855.264954	180.700000
855.298523	184.800000
855.332153	182.900000
855.365723	186.800000
855.399292	179.600000
855.432922	180.500000
855.466492	183.400000
855.500061	179.200000
855.533630	178.700000
855.567200	184.600000
855.600769	184.400000
855.634338	186.900000
855.667969	182.600000
855.701477	179.300000
855.735046	179.100000
855.768616	175.600000
855.802185	183.900000
855.835754	194.200000
855.869324	175.700000
855.902893	181.800000
855.936401	185.300000
855.969971	182.600000
856.003540	178.900000
856.037109	184.900000
856.070618	181.200000
856.104187	179.400000
856.137695	180.300000
856.171265	175.300000
856.204834	183.800000
856.238403	184.400000
856.271912	180.500000
856.305481	183.300000
856.338989	179.100000
856.372559	184.900000
856.406128	185.700000
856.439636	185.000000
856.473145	181.000000
856.506653	188.200000
856.540222	181.800000
856.573792	187.000000
856.607300	186.000000
856.640808	180.100000
856.674377	182.500000
856.707825	214.200000
856.741394	189.000000
856.774902	178.700000
856.808472	177.200000
856.841980	184.400000
856.875488	185.700000
856.908936	175.800000
856.942505	181.700000
856.976013	181.200000
857.009521	180.000000
857.043030	181.700000
857.076477	182.100000
857.110046	187.600000
857.143555	182.600000
857.177063	184.700000
857.210571	181.700000
857.244080	176.500000
857.277527	184.500000
857.311035	182.200000
857.344543	185.100000
857.378052	180.100000
857.411499	187.200000
857.445068	187.700000
857.478516	179.500000
857.512024	178.400000
857.545532	181.600000
857.578979	183.400000
857.612427	183.000000
857.645874	179.300000
857.679382	183.300000
857.712891	187.000000
857.746399	182.300000
857.779846	186.400000
857.813354	186.600000
857.846741	182.900000
857.880249	179.400000
857.913757	184.800000
857.947266	183.100000
857.980652	185.500000
858.014160	180.900000
858.047546	181.300000
858.081055	180.100000
858.114563	191.600000
858.147949	178.100000
858.181458	183.600000
858.214844	181.300000
858.248352	177.900000
858.281799	185.000000
858.315308	192.600000
858.348694	184.000000
858.382141	189.900000
858.415588	184.100000
858.449036	184.800000
858.482483	182.900000
858.515930	181.600000
858.549377	182.100000
858.582825	187.600000
858.616211	182.700000
858.649658	184.200000
858.683105	178.500000
858.716553	181.400000
858.750000	177.800000
858.783386	180.600000
858.816833	175.600000
858.850281	183.000000
858.883728	183.300000
858.917114	183.700000
858.950562	187.600000
858.983948	188.100000
859.017395	185.300000
859.050781	180.700000
859.084167	179.000000
859.117615	179.400000
859.151062	183.700000
859.184448	180.500000
859.217834	181.700000
859.251282	180.800000
859.284668	178.400000
859.318054	177.500000
859.351440	182.300000
859.384888	187.700000
859.418274	177.900000
859.451721	176.700000
859.485046	184.300000
859.518494	183.800000
859.551819	179.500000
859.585266	184.800000
859.618652	187.200000
859.652039	178.300000
859.685425	178.500000
859.718811	177.500000
859.752197	174.800000
859.785583	186.700000
859.819031	187.200000
859.852356	183.000000
859.885742	180.400000
859.919067	181.900000
859.952454	181.900000
859.985901	186.200000
860.019287	182.900000
860.052612	0.000000
860.085999	0.000000
860.119324	0.000000
860.152710	0.000000
860.186096	0.000000
860.219421	0.000000
860.252808	0.000000
860.286133	0.000000
860.319519	0.000000
860.352905	0.000000
860.386292	0.000000
860.419617	0.000000
860.452942	0.000000
860.486267	0.000000
860.519653	0.000000
860.553040	0.000000
860.586365	0.000000
860.619690	0.000000
860.653076	0.000000
860.686340	0.000000
860.719727	0.000000
860.753113	0.000000
860.786377	0.000000
860.819763	0.000000
860.853027	0.000000
860.886414	0.000000
860.919739	0.000000
860.953125	0.000000
860.986389	0.000000
861.019714	0.000000
861.053040	0.000000
861.086365	0.000000
861.119690	0.000000
861.153076	0.000000
861.186340	0.000000
861.219666	0.000000
861.252930	0.000000
861.286316	0.000000
861.319641	0.000000
861.352905	0.000000
861.386230	0.000000
861.419495	0.000000
861.452820	0.000000
861.486145	0.000000
861.519470	0.000000
861.552734	0.000000
861.586060	0.000000
861.619324	0.000000
861.652649	0.000000
861.685974	0.000000
861.719238	0.000000
861.752563	0.000000
861.785828	0.000000
861.819092	0.000000
861.852417	0.000000
861.885742	0.000000
861.918945	0.000000
861.952271	0.000000
861.985535	0.000000
862.018799	0.000000
862.052124	0.000000
862.085449	0.000000
862.118652	0.000000
862.151978	0.000000
862.185181	0.000000
862.218506	0.000000
862.251770	0.000000
862.285034	0.000000
862.318298	0.000000
862.351562	0.000000
862.384827	0.000000
862.418091	0.000000
862.451355	0.000000
862.484619	0.000000
862.517883	0.000000
862.551086	0.000000
862.584351	0.000000
862.617676	0.000000
862.650940	0.000000
862.684143	0.000000
862.717407	0.000000
862.750610	0.000000
862.783875	0.000000
862.817139	0.000000
862.850342	0.000000
862.883606	0.000000
862.916870	0.000000
862.950073	0.000000
862.983337	0.000000
863.016602	0.000000
863.049805	0.000000
863.083069	0.000000
863.116211	0.000000
863.149475	0.000000
863.182739	0.000000
863.216003	0.000000
863.249146	0.000000
863.282410	0.000000
863.315613	0.000000
863.348816	0.000000
863.382080	0.000000
863.415222	0.000000
863.448486	0.000000
863.481689	0.000000
863.514893	0.000000
863.548157	0.000000
863.581360	0.000000
863.614502	0.000000
863.647766	0.000000
863.680908	0.000000
863.714172	0.000000
863.747375	0.000000
863.780579	0.000000
863.813721	0.000000
863.846985	0.000000
863.880127	0.000000
863.913330	0.000000
863.946533	0.000000
863.979675	0.000000
864.012939	0.000000
