Model Number: SPM-001-M   
Serial Number: 10090201
Firmware Version: 004.17.6
Exposure Time: 300000.000000us
Data Taken on: 28-01-2021 10:16:07.690
Wavelength	Amplitude
733.770752	0.000000
733.808716	0.000000
733.846619	0.000000
733.884583	0.000000
733.922546	0.000000
733.960449	0.000000
733.998413	0.000000
734.036377	0.000000
734.074219	0.000000
734.112183	0.000000
734.150085	0.000000
734.188049	0.000000
734.226013	0.000000
734.263916	0.000000
734.301819	0.000000
734.339783	0.000000
734.377686	0.000000
734.415588	0.000000
734.453552	0.000000
734.491455	0.000000
734.529419	0.000000
734.567322	0.000000
734.605225	0.000000
734.643127	0.000000
734.681091	0.000000
734.718994	0.000000
734.756897	0.000000
734.794800	0.000000
734.832703	0.000000
734.870667	0.000000
734.908508	0.000000
734.946472	0.000000
734.984375	0.000000
735.022278	0.000000
735.060181	0.000000
735.098083	0.000000
735.135986	0.000000
735.173889	0.000000
735.211792	0.000000
735.249695	0.000000
735.287598	0.000000
735.325439	0.000000
735.363403	0.000000
735.401306	0.000000
735.439148	0.000000
735.477051	0.000000
735.515015	0.000000
735.552856	0.000000
735.590759	0.000000
735.628662	0.000000
735.666504	0.000000
735.704407	0.000000
735.742310	0.000000
735.780212	0.000000
735.818115	0.000000
735.856018	0.000000
735.893860	0.000000
735.931763	0.000000
735.969604	0.000000
736.007507	0.000000
736.045410	0.000000
736.083252	0.000000
736.121094	0.000000
736.158997	0.000000
736.196838	0.000000
736.234741	0.000000
736.272644	0.000000
736.310486	0.000000
736.348389	0.000000
736.386230	0.000000
736.424072	0.000000
736.461975	0.000000
736.499878	0.000000
736.537720	0.000000
736.575562	0.000000
736.613403	0.000000
736.651306	0.000000
736.689148	0.000000
736.726990	0.000000
736.764893	0.000000
736.802734	0.000000
736.840576	0.000000
736.878418	0.000000
736.916321	0.000000
736.954102	0.000000
736.992004	0.000000
737.029846	0.000000
737.067688	0.000000
737.105530	0.000000
737.143372	0.000000
737.181213	0.000000
737.219116	0.000000
737.256897	0.000000
737.294739	0.000000
737.332642	0.000000
737.370422	0.000000
737.408325	0.000000
737.446167	0.000000
737.483948	0.000000
737.521790	0.000000
737.559692	0.000000
737.597473	0.000000
737.635315	0.000000
737.673157	0.000000
737.710999	0.000000
737.748840	0.000000
737.786621	0.000000
737.824463	0.000000
737.862305	0.000000
737.900085	0.000000
737.937927	0.000000
737.975769	0.000000
738.013550	0.000000
738.051392	0.000000
738.089233	0.000000
738.127014	0.000000
738.164856	0.000000
738.202698	0.000000
738.240479	0.000000
738.278320	0.000000
738.316162	0.000000
738.353943	0.000000
738.391785	0.000000
738.429565	0.000000
738.467407	0.000000
738.505188	0.000000
738.542969	0.000000
738.580811	0.000000
738.618652	0.000000
738.656372	0.000000
738.694214	0.000000
738.732056	0.000000
738.769836	0.000000
738.807617	0.000000
738.845459	0.000000
738.883240	0.000000
738.921021	0.000000
738.958862	0.000000
738.996582	0.000000
739.034424	0.000000
739.072205	0.000000
739.109985	0.000000
739.147827	0.000000
739.185547	0.000000
739.223389	0.000000
739.261169	0.000000
739.298889	0.000000
739.336731	0.000000
739.374512	0.000000
739.412292	0.000000
739.450073	0.000000
739.487854	0.000000
739.525635	0.000000
739.563416	0.000000
739.601135	0.000000
739.638977	0.000000
739.676758	0.000000
739.714478	0.000000
739.752258	0.000000
739.790100	0.000000
739.827820	0.000000
739.865601	0.000000
739.903381	0.000000
739.941101	0.000000
739.978882	184.500000
740.016724	180.600000
740.054443	184.800000
740.092224	179.000000
740.130005	179.400000
740.167725	178.600000
740.205505	180.200000
740.243225	184.800000
740.281006	181.700000
740.318787	176.400000
740.356506	185.800000
740.394287	184.100000
740.432068	180.200000
740.469727	176.400000
740.507507	183.800000
740.545288	180.700000
740.583008	182.400000
740.620789	180.900000
740.658569	177.200000
740.696228	181.300000
740.734009	184.600000
740.771790	173.500000
740.809509	184.300000
740.847229	177.500000
740.884949	178.800000
740.922729	176.500000
740.960449	179.900000
740.998169	177.000000
741.035950	178.000000
741.073669	180.900000
741.111389	181.300000
741.149170	186.900000
741.186890	187.400000
741.224609	183.900000
741.262329	182.900000
741.300110	187.900000
741.337769	178.200000
741.375549	177.300000
741.413208	181.500000
741.450989	178.800000
741.488708	179.700000
741.526367	178.900000
741.564148	184.500000
741.601868	184.100000
741.639526	179.600000
741.677307	182.700000
741.715027	182.100000
741.752686	177.600000
741.790466	187.800000
741.828186	182.700000
741.865845	177.700000
741.903564	177.200000
741.941345	182.000000
741.979004	178.300000
742.016724	184.600000
742.054382	181.400000
742.092102	184.600000
742.129822	178.000000
742.167480	178.200000
742.205200	181.400000
742.242920	182.200000
742.280640	185.300000
742.318359	178.400000
742.356079	182.100000
742.393738	182.900000
742.431396	180.600000
742.469116	183.800000
742.506775	174.900000
742.544495	182.600000
742.582214	184.100000
742.619873	180.700000
742.657593	185.100000
742.695251	185.600000
742.732971	180.600000
742.770630	182.200000
742.808289	182.100000
742.846008	180.000000
742.883728	181.900000
742.921326	183.100000
742.959045	180.000000
742.996765	180.800000
743.034424	180.600000
743.072083	179.200000
743.109802	179.400000
743.147400	178.000000
743.185120	181.300000
743.222839	181.300000
743.260437	185.900000
743.298157	183.000000
743.335754	175.300000
743.373474	181.200000
743.411133	177.500000
743.448792	181.700000
743.486450	179.500000
743.524170	175.900000
743.561768	180.500000
743.599487	185.800000
743.637146	188.000000
743.674744	181.700000
743.712463	179.600000
743.750122	181.900000
743.787720	182.100000
743.825439	180.500000
743.863037	179.700000
743.900696	180.500000
743.938416	204.100000
743.976013	181.000000
744.013672	187.500000
744.051331	184.900000
744.088928	186.900000
744.126587	186.300000
744.164307	183.900000
744.201904	179.900000
744.239563	182.900000
744.277222	183.200000
744.314819	180.900000
744.352478	186.700000
744.390137	182.400000
744.427734	183.800000
744.465393	177.900000
744.502991	177.900000
744.540649	182.000000
744.578308	182.400000
744.615906	177.400000
744.653564	174.300000
744.691223	183.900000
744.728821	176.300000
744.766418	181.500000
744.804077	182.500000
744.841675	179.200000
744.879333	176.800000
744.916992	178.500000
744.954529	180.500000
744.992187	184.500000
745.029785	180.000000
745.067444	178.800000
745.105042	181.000000
745.142639	182.300000
745.180298	189.000000
745.217896	181.100000
745.255493	180.500000
745.293152	184.000000
745.330750	185.000000
745.368347	186.600000
745.405945	183.700000
745.443604	181.900000
745.481140	183.200000
745.518799	182.300000
745.556396	183.000000
745.593994	183.900000
745.631592	181.500000
745.669189	179.500000
745.706787	181.100000
745.744385	179.000000
745.781982	182.900000
745.819580	180.800000
745.857178	179.400000
745.894775	182.100000
745.932373	182.800000
745.969971	183.200000
746.007568	175.200000
746.045166	188.000000
746.082764	185.600000
746.120300	183.700000
746.157898	182.000000
746.195557	181.500000
746.233093	177.800000
746.270691	184.100000
746.308228	183.400000
746.345825	185.000000
746.383423	182.800000
746.420959	178.900000
746.458557	180.600000
746.496155	179.000000
746.533691	181.900000
746.571289	178.400000
746.608887	179.900000
746.646423	181.600000
746.684021	180.800000
746.721619	178.400000
746.759155	182.100000
746.796753	176.300000
746.834351	178.600000
746.871826	179.000000
746.909424	186.100000
746.946960	180.600000
746.984558	180.500000
747.022156	180.500000
747.059631	187.400000
747.097229	182.600000
747.134827	180.400000
747.172363	183.500000
747.209900	184.800000
747.247498	177.700000
747.285034	187.000000
747.322571	186.100000
747.360168	180.700000
747.397644	176.400000
747.435242	183.800000
747.472778	184.800000
747.510315	180.800000
747.547913	180.100000
747.585388	183.500000
747.622925	179.400000
747.660522	177.400000
747.697998	178.600000
747.735596	180.200000
747.773132	179.000000
747.810669	181.600000
747.848206	182.400000
747.885742	177.500000
747.923279	177.200000
747.960815	182.400000
747.998352	182.300000
748.035889	184.800000
748.073425	183.000000
748.110901	180.000000
748.148437	179.600000
748.185974	181.700000
748.223511	187.400000
748.261047	184.600000
748.298584	180.900000
748.336060	180.700000
748.373596	182.600000
748.411133	208.100000
748.448608	178.300000
748.486145	184.200000
748.523682	184.400000
748.561218	188.400000
748.598755	181.700000
748.636292	182.800000
748.673706	179.900000
748.711243	186.800000
748.748718	182.500000
748.786255	181.000000
748.823792	181.200000
748.861267	178.200000
748.898804	183.700000
748.936340	182.600000
748.973816	179.700000
749.011292	185.700000
749.048828	183.000000
749.086304	183.000000
749.123840	190.700000
749.161316	177.700000
749.198792	188.200000
749.236328	185.400000
749.273743	182.100000
749.311279	180.900000
749.348816	183.500000
749.386230	180.200000
749.423767	174.600000
749.461304	184.700000
749.498718	183.000000
749.536255	184.100000
749.573730	190.100000
749.611206	185.700000
749.648682	181.300000
749.686218	180.200000
749.723633	183.300000
749.761169	180.500000
749.798645	179.500000
749.836060	180.600000
749.873596	178.600000
749.911011	183.000000
749.948547	186.000000
749.986023	180.400000
750.023437	181.900000
750.060913	177.800000
750.098450	177.600000
750.135864	180.000000
750.173340	182.500000
750.210815	186.100000
750.248291	178.200000
750.285767	181.900000
750.323242	184.100000
750.360657	183.900000
750.398132	178.500000
750.435608	182.700000
750.473022	178.500000
750.510498	179.400000
750.547974	178.500000
750.585449	180.800000
750.622925	174.500000
750.660339	191.400000
750.697815	183.200000
750.735291	181.500000
750.772644	181.900000
750.810120	183.800000
750.847595	182.700000
750.885010	179.800000
750.922485	186.800000
750.959961	180.700000
750.997375	185.800000
751.034851	185.200000
751.072266	184.000000
751.109680	178.200000
751.147156	184.800000
751.184570	183.600000
751.221985	181.800000
751.259460	176.200000
751.296875	180.900000
751.334290	182.500000
751.371765	184.900000
751.409180	183.900000
751.446594	185.200000
751.484070	182.800000
751.521423	182.200000
751.558899	183.900000
751.596375	188.400000
751.633728	187.300000
751.671204	188.700000
751.708618	178.900000
751.746033	181.500000
751.783447	177.100000
751.820801	179.000000
751.858276	184.100000
751.895691	180.300000
751.933105	179.400000
751.970520	177.400000
752.007935	179.800000
752.045349	185.700000
752.082764	182.200000
752.120178	179.900000
752.157532	179.900000
752.195007	180.700000
752.232422	183.000000
752.269775	185.300000
752.307190	183.200000
752.344543	178.800000
752.382019	181.100000
752.419434	181.700000
752.456787	184.300000
752.494202	185.200000
752.531616	183.800000
752.568970	183.200000
752.606384	183.400000
752.643799	182.800000
752.681152	185.400000
752.718567	184.000000
752.755981	177.500000
752.793335	184.300000
752.830750	177.200000
752.868164	185.200000
752.905518	178.900000
752.942932	185.900000
752.980225	178.300000
753.017639	184.300000
753.055054	183.200000
753.092407	183.100000
753.129822	185.300000
753.167175	188.300000
753.204529	181.000000
753.241943	180.100000
753.279358	177.700000
753.316650	184.400000
753.354065	183.000000
753.391479	184.800000
753.428772	187.100000
753.466187	181.800000
753.503479	179.100000
753.540894	181.100000
753.578308	176.800000
753.615601	177.900000
753.653015	180.800000
753.690369	180.200000
753.727722	179.200000
753.765076	177.100000
753.802490	177.300000
753.839783	178.000000
753.877136	181.000000
753.914551	189.600000
753.951843	179.600000
753.989258	184.400000
754.026611	183.300000
754.063904	183.300000
754.101257	178.300000
754.138611	176.800000
754.175964	183.900000
754.213318	188.400000
754.250610	177.600000
754.288025	180.800000
754.325378	178.100000
754.362671	184.100000
754.400024	182.500000
754.437378	187.500000
754.474670	187.700000
754.512085	178.700000
754.549438	182.500000
754.586731	179.600000
754.624084	182.800000
754.661438	177.900000
754.698730	187.900000
754.736084	181.300000
754.773376	181.600000
754.810730	183.300000
754.848083	181.600000
754.885315	184.000000
754.922668	178.500000
754.960022	179.500000
754.997314	186.200000
755.034668	181.900000
755.072021	183.700000
755.109253	181.500000
755.146606	186.300000
755.183960	181.400000
755.221252	188.600000
755.258545	185.400000
755.295898	187.300000
755.333191	186.900000
755.370544	184.300000
755.407776	182.100000
755.445129	183.100000
755.482422	185.400000
755.519714	180.700000
755.557068	177.100000
755.594360	178.500000
755.631653	185.600000
755.668945	188.600000
755.706299	183.900000
755.743530	191.400000
755.780884	188.000000
755.818176	186.100000
755.855408	185.500000
755.892761	184.800000
755.930054	182.200000
755.967346	186.100000
756.004639	185.300000
756.041870	184.000000
756.079224	189.300000
756.116516	180.200000
756.153748	185.600000
756.191040	189.100000
756.228394	184.200000
756.265625	180.100000
756.302917	185.500000
756.340210	180.900000
756.377441	188.800000
756.414795	189.000000
756.452087	184.100000
756.489319	179.300000
756.526611	187.400000
756.563843	184.100000
756.601135	190.200000
756.638428	190.500000
756.675659	184.700000
756.712952	186.100000
756.750244	188.000000
756.787476	184.600000
756.824768	189.900000
756.862061	185.900000
756.899292	229.900000
756.936584	187.600000
756.973816	193.400000
757.011047	191.700000
757.048340	184.600000
757.085632	185.500000
757.122864	197.800000
757.160156	184.400000
757.197327	187.900000
757.234619	189.600000
757.271912	184.300000
757.309082	189.500000
757.346375	186.100000
757.383667	188.900000
757.420837	186.900000
757.458130	186.500000
757.495422	185.800000
757.532593	187.700000
757.569885	181.900000
757.607117	183.400000
757.644348	187.500000
757.681580	197.000000
757.718811	179.400000
757.756042	187.000000
757.793335	184.700000
757.830505	191.900000
757.867798	185.100000
757.905029	184.500000
757.942200	186.800000
757.979492	186.600000
758.016724	184.600000
758.053894	186.900000
758.091187	198.800000
758.128418	188.400000
758.165588	186.500000
758.202820	196.200000
758.240112	187.300000
758.277283	195.900000
758.314514	189.900000
758.351685	187.000000
758.388916	194.000000
758.426147	193.900000
758.463379	194.800000
758.500610	191.600000
758.537842	188.900000
758.575012	194.400000
758.612244	186.500000
758.649475	199.800000
758.686646	184.600000
758.723877	195.300000
758.761108	194.900000
758.798279	190.700000
758.835510	192.100000
758.872742	195.400000
758.909851	190.500000
758.947083	193.900000
758.984253	191.600000
759.021484	194.700000
759.058716	193.800000
759.095886	195.100000
759.133057	190.400000
759.170288	193.500000
759.207458	190.800000
759.244690	199.600000
759.281860	197.900000
759.319031	192.400000
759.356262	190.900000
759.393433	190.900000
759.430603	192.300000
759.467773	191.800000
759.505005	197.400000
759.542175	198.500000
759.579346	192.800000
759.616516	193.500000
759.653687	197.400000
759.690918	190.700000
759.728027	194.200000
759.765259	195.100000
759.802429	197.100000
759.839539	194.900000
759.876770	198.700000
759.913940	201.000000
759.951111	195.100000
759.988281	195.500000
760.025452	193.200000
760.062561	191.600000
760.099792	202.600000
760.136963	197.100000
760.174072	195.800000
760.211243	192.100000
760.248413	193.000000
760.285583	191.600000
760.322754	202.700000
760.359863	199.500000
760.397034	202.100000
760.434204	195.500000
760.471375	196.600000
760.508545	194.200000
760.545715	196.100000
760.582825	193.000000
760.619995	198.700000
760.657166	192.300000
760.694275	202.200000
760.731445	197.000000
760.768555	199.700000
760.805664	200.200000
760.842834	198.800000
760.879944	200.700000
760.917114	199.200000
760.954285	196.300000
760.991394	194.500000
761.028564	201.600000
761.065674	201.200000
761.102783	197.700000
761.139954	202.600000
761.177124	202.300000
761.214172	203.000000
761.251343	199.000000
761.288452	199.100000
761.325562	203.500000
761.362732	198.400000
761.399841	199.700000
761.436951	201.300000
761.474121	197.900000
761.511169	199.700000
761.548340	204.500000
761.585449	202.500000
761.622559	204.200000
761.659668	202.400000
761.696838	205.200000
761.733887	203.000000
761.771057	202.400000
761.808167	200.800000
761.845276	204.700000
761.882385	210.300000
761.919434	204.100000
761.956604	215.100000
761.993713	201.200000
762.030762	206.600000
762.067871	203.200000
762.105042	202.900000
762.142090	209.000000
762.179199	203.900000
762.216309	207.900000
762.253418	215.300000
762.290527	212.000000
762.327637	207.800000
762.364685	201.900000
762.401794	208.400000
762.438904	207.300000
762.475952	202.800000
762.513062	202.300000
762.550110	202.900000
762.587219	214.800000
762.624329	212.200000
762.661377	210.300000
762.698486	207.600000
762.735596	207.600000
762.772644	203.600000
762.809753	202.900000
762.846863	206.100000
762.883911	211.400000
762.921021	209.100000
762.958069	209.700000
762.995117	215.600000
763.032227	215.000000
763.069336	208.100000
763.106323	207.400000
763.143433	204.300000
763.180481	210.400000
763.217590	211.600000
763.254639	207.900000
763.291687	209.400000
763.328735	215.900000
763.365845	211.500000
763.402893	209.500000
763.439941	213.400000
763.477051	213.300000
763.514038	215.700000
763.551147	210.600000
763.588196	214.200000
763.625244	212.600000
763.662292	219.100000
763.699402	220.900000
763.736389	217.700000
763.773499	222.400000
763.810486	219.400000
763.847534	215.400000
763.884644	217.900000
763.921631	215.800000
763.958679	224.900000
763.995728	216.300000
764.032776	222.500000
764.069824	213.900000
764.106873	221.300000
764.143860	225.100000
764.180969	218.900000
764.218018	225.200000
764.255005	218.900000
764.292053	218.400000
764.329102	226.600000
764.366089	227.300000
764.403137	225.000000
764.440125	221.300000
764.477173	222.300000
764.514221	224.300000
764.551208	224.000000
764.588257	220.800000
764.625305	225.900000
764.662292	230.500000
764.699341	232.600000
764.736389	226.600000
764.773376	238.900000
764.810425	229.500000
764.847473	234.500000
764.884399	233.100000
764.921448	235.800000
764.958435	235.600000
764.995483	229.400000
765.032532	239.800000
765.069458	230.900000
765.106506	234.000000
765.143555	230.000000
765.180481	233.800000
765.217529	240.500000
765.254578	229.600000
765.291504	236.500000
765.328552	234.300000
765.365540	229.600000
765.402527	245.000000
765.439575	231.600000
765.476501	230.700000
765.513550	230.200000
765.550537	236.400000
765.587463	239.400000
765.624512	234.600000
765.661499	230.900000
765.698486	240.900000
765.735474	232.900000
765.772461	237.600000
765.809448	240.700000
765.846436	242.400000
765.883423	243.200000
765.920410	241.200000
765.957397	236.500000
765.994385	240.400000
766.031311	245.800000
766.068359	241.300000
766.105286	242.800000
766.142273	248.300000
766.179260	244.500000
766.216187	241.500000
766.253174	239.300000
766.290161	243.500000
766.327148	249.300000
766.364136	246.600000
766.401123	255.900000
766.438049	244.000000
766.475037	251.700000
766.512024	248.800000
766.548950	260.300000
766.585937	254.700000
766.622864	251.700000
766.659790	251.400000
766.696777	246.500000
766.733704	254.200000
766.770691	249.200000
766.807678	257.400000
766.844604	254.700000
766.881531	255.200000
766.918518	256.900000
766.955444	258.900000
766.992432	255.100000
767.029358	255.500000
767.066284	259.300000
767.103271	258.400000
767.140198	289.000000
767.177124	266.800000
767.214050	260.400000
767.251038	259.100000
767.287964	258.500000
767.324890	257.700000
767.361816	261.700000
767.398743	264.900000
767.435730	260.200000
767.472595	260.700000
767.509583	267.700000
767.546509	258.200000
767.583374	261.700000
767.620361	255.400000
767.657288	262.800000
767.694214	262.500000
767.731140	262.400000
767.768066	261.000000
767.804993	265.900000
767.841919	259.500000
767.878845	264.400000
767.915710	270.200000
767.952698	264.700000
767.989563	266.400000
768.026489	267.600000
768.063416	263.700000
768.100281	263.700000
768.137207	272.400000
768.174133	271.100000
768.211060	270.900000
768.247986	268.300000
768.284912	268.700000
768.321777	271.700000
768.358704	266.600000
768.395630	269.800000
768.432495	266.700000
768.469421	270.700000
768.506348	273.500000
768.543152	278.900000
768.580078	275.500000
768.616943	276.700000
768.653870	278.600000
768.690796	274.800000
768.727661	277.000000
768.764587	277.100000
768.801453	273.700000
768.838318	279.900000
768.875244	280.500000
768.912109	284.200000
768.948975	278.000000
768.985901	279.200000
769.022766	278.800000
769.059631	283.300000
769.096558	281.200000
769.133362	281.200000
769.170288	283.700000
769.207214	283.000000
769.244019	288.500000
769.280945	285.300000
769.317810	291.900000
769.354675	286.800000
769.391541	293.500000
769.428406	291.900000
769.465271	301.400000
769.502136	290.300000
769.539062	294.200000
769.575867	295.300000
769.612732	295.100000
769.649597	297.100000
769.686462	301.000000
769.723328	297.400000
769.760193	298.600000
769.797058	298.100000
769.833923	304.600000
769.870728	303.900000
769.907593	302.900000
769.944519	305.000000
769.981323	306.700000
770.018188	309.000000
770.055054	304.900000
770.091858	306.600000
770.128723	312.300000
770.165588	317.800000
770.202393	307.200000
770.239258	315.100000
770.276062	312.900000
770.312927	314.300000
770.349792	319.400000
770.386597	319.600000
770.423462	324.600000
770.460327	331.700000
770.497131	321.900000
770.533997	316.500000
770.570862	326.600000
770.607605	328.800000
770.644470	327.300000
770.681335	326.600000
770.718140	326.100000
770.754944	324.900000
770.791809	320.700000
770.828613	325.300000
770.865479	325.900000
770.902222	332.300000
770.939087	328.400000
770.975952	322.700000
771.012695	327.800000
771.049561	338.300000
771.086365	331.200000
771.123169	329.300000
771.159973	331.700000
771.196838	335.000000
771.233582	335.800000
771.270447	336.400000
771.307251	339.600000
771.344055	336.700000
771.380859	338.300000
771.417664	335.800000
771.454468	344.500000
771.491272	342.300000
771.528076	344.200000
771.564880	342.400000
771.601685	346.900000
771.638428	341.700000
771.675293	347.000000
771.712097	339.900000
771.748840	351.900000
771.785645	346.400000
771.822449	350.600000
771.859253	350.200000
771.896057	351.500000
771.932861	358.500000
771.969604	352.700000
772.006409	347.800000
772.043213	358.300000
772.079956	355.200000
772.116760	351.000000
772.153503	351.600000
772.190308	362.500000
772.227112	355.600000
772.263855	356.300000
772.300659	359.000000
772.337463	362.000000
772.374207	354.400000
772.411011	354.400000
772.447754	356.800000
772.484497	371.500000
772.521301	364.600000
772.558105	363.200000
772.594849	362.700000
772.631592	368.800000
772.668396	362.600000
772.705139	370.200000
772.741882	368.200000
772.778625	375.900000
772.815430	374.300000
772.852173	374.500000
772.888916	375.100000
772.925720	380.700000
772.962463	386.100000
772.999207	379.400000
773.035950	377.800000
773.072754	378.700000
773.109436	375.100000
773.146240	377.100000
773.182922	377.900000
773.219727	384.900000
773.256470	378.300000
773.293152	374.200000
773.329956	376.800000
773.366699	377.700000
773.403381	375.800000
773.440186	385.100000
773.476929	385.000000
773.513611	381.600000
773.550354	379.300000
773.587158	382.400000
773.623840	382.000000
773.660583	389.500000
773.697327	394.800000
773.734009	385.200000
773.770813	384.500000
773.807495	382.000000
773.844238	387.500000
773.880981	396.300000
773.917664	393.200000
773.954407	398.500000
773.991150	391.100000
774.027832	397.500000
774.064575	392.000000
774.101318	395.600000
774.138000	401.300000
774.174744	399.100000
774.211487	400.200000
774.248108	393.800000
774.284851	393.700000
774.321594	401.100000
774.358276	403.400000
774.395020	407.200000
774.431702	401.000000
774.468384	397.100000
774.505127	397.400000
774.541809	405.200000
774.578491	410.900000
774.615234	410.500000
774.651917	402.100000
774.688599	406.000000
774.725342	412.200000
774.762024	414.100000
774.798706	419.600000
774.835449	420.700000
774.872070	421.900000
774.908813	416.200000
774.945496	419.600000
774.982178	419.900000
775.018860	426.100000
775.055542	425.200000
775.092224	424.800000
775.128967	426.400000
775.165588	429.900000
775.202271	425.800000
775.239014	435.400000
775.275635	433.500000
775.312317	430.600000
775.349060	437.500000
775.385681	437.200000
775.422363	435.600000
775.459045	439.500000
775.495667	444.300000
775.532410	443.200000
775.569092	441.300000
775.605713	443.500000
775.642395	444.100000
775.679016	444.300000
775.715698	452.700000
775.752380	453.000000
775.789001	447.900000
775.825684	446.500000
775.862366	451.500000
775.898987	459.600000
775.935669	455.600000
775.972351	468.900000
776.008972	467.500000
776.045654	462.900000
776.082336	460.000000
776.118958	463.600000
776.155640	467.300000
776.192322	471.900000
776.228882	478.000000
776.265564	477.600000
776.302185	473.500000
776.338867	477.600000
776.375488	472.500000
776.412109	481.000000
776.448792	483.000000
776.485413	489.000000
776.522034	485.800000
776.558716	479.900000
776.595337	481.400000
776.631958	488.700000
776.668579	489.100000
776.705261	496.800000
776.741882	489.600000
776.778503	488.500000
776.815186	495.400000
776.851746	499.400000
776.888367	497.400000
776.924988	507.600000
776.961609	498.300000
776.998291	499.500000
777.034851	495.100000
777.071472	505.600000
777.108154	498.400000
777.144714	509.900000
777.181335	511.600000
777.218018	503.600000
777.254578	511.700000
777.291199	511.100000
777.327759	515.200000
777.364380	523.100000
777.401062	526.000000
777.437622	531.600000
777.474243	524.000000
777.510864	527.000000
777.547424	524.600000
777.584045	528.200000
777.620667	526.500000
777.657227	531.800000
777.693848	534.900000
777.730469	542.100000
777.767029	533.000000
777.803650	537.500000
777.840271	534.200000
777.876831	536.600000
777.913452	540.400000
777.950012	526.300000
777.986633	529.300000
778.023193	531.700000
778.059753	529.200000
778.096375	530.400000
778.132996	540.700000
778.169556	536.000000
778.206116	536.300000
778.242737	536.800000
778.279297	542.100000
778.315857	534.900000
778.352478	539.500000
778.389038	544.200000
778.425598	542.200000
778.462219	551.500000
778.498718	550.800000
778.535339	553.300000
778.571838	553.500000
778.608459	558.800000
778.645020	548.800000
778.681580	556.300000
778.718140	550.700000
778.754761	546.200000
778.791260	553.000000
778.827881	559.900000
778.864441	565.700000
778.900940	565.500000
778.937561	562.800000
778.974121	558.700000
779.010620	560.900000
779.047241	563.300000
779.083801	565.400000
779.120300	563.500000
779.156860	565.200000
779.193359	567.000000
779.229980	569.400000
779.266541	572.100000
779.303040	577.300000
779.339600	568.100000
779.376160	563.600000
779.412659	565.200000
779.449219	561.100000
779.485779	569.100000
779.522278	567.300000
779.558838	573.400000
779.595398	571.900000
779.631897	573.800000
779.668457	568.800000
779.705017	571.900000
779.741516	569.000000
779.778076	569.900000
779.814575	571.100000
779.851074	572.200000
779.887634	571.200000
779.924133	574.600000
779.960693	568.200000
779.997253	579.800000
780.033691	584.700000
780.070251	584.600000
780.106812	592.900000
780.143250	589.500000
780.179810	583.000000
780.216370	589.500000
780.252808	594.800000
780.289368	597.900000
780.325867	595.900000
780.362366	595.000000
780.398865	600.200000
780.435364	599.100000
780.471863	604.800000
780.508423	599.500000
780.544861	605.200000
780.581421	603.700000
780.617920	594.500000
780.654419	596.300000
780.690918	605.400000
780.727417	610.900000
780.763916	610.200000
780.800415	612.500000
780.836914	597.700000
780.873352	611.200000
780.909912	606.600000
780.946411	614.700000
780.982849	621.900000
781.019348	629.300000
781.055786	620.900000
781.092346	620.200000
781.128845	630.000000
781.165283	635.300000
781.201782	646.700000
781.238281	645.900000
781.274719	644.600000
781.311218	640.600000
781.347717	649.500000
781.384155	641.600000
781.420654	642.200000
781.457092	652.700000
781.493591	645.000000
781.530090	635.400000
781.566528	638.100000
781.602966	646.600000
781.639465	644.300000
781.675903	644.100000
781.712402	651.500000
781.748901	654.400000
781.785278	645.000000
781.821777	656.500000
781.858276	653.000000
781.894714	666.100000
781.931152	657.700000
781.967651	668.200000
782.004089	662.300000
782.040527	668.000000
782.076965	679.100000
782.113403	675.400000
782.149902	676.600000
782.186340	676.500000
782.222778	688.700000
782.259277	678.700000
782.295654	683.700000
782.332092	688.200000
782.368591	686.400000
782.404968	687.800000
782.441467	688.400000
782.477905	692.900000
782.514282	694.100000
782.550781	702.000000
782.587219	699.400000
782.623596	705.300000
782.660095	710.000000
782.696472	710.200000
782.732910	713.700000
782.769348	714.600000
782.805786	737.100000
782.842224	731.900000
782.878662	730.200000
782.915039	729.500000
782.951477	730.900000
782.987915	725.000000
783.024292	733.300000
783.060730	731.000000
783.097168	725.400000
783.133545	720.300000
783.169983	717.800000
783.206421	707.400000
783.242798	713.400000
783.279236	706.000000
783.315613	700.000000
783.352051	699.500000
783.388489	703.500000
783.424866	695.500000
783.461304	699.100000
783.497681	703.800000
783.534058	699.100000
783.570496	693.300000
783.606934	696.200000
783.643250	701.200000
783.679687	711.900000
783.716125	710.700000
783.752441	715.000000
783.788879	725.100000
783.825317	734.400000
783.861633	729.100000
783.898071	731.900000
783.934448	735.600000
783.970825	721.500000
784.007263	704.000000
784.043579	689.500000
784.080017	669.000000
784.116394	632.000000
784.152710	601.000000
784.189148	568.300000
784.225525	534.000000
784.261902	502.200000
784.298279	482.100000
784.334656	463.200000
784.371033	456.800000
784.407410	460.200000
784.443787	464.300000
784.480164	472.700000
784.516541	492.300000
784.552856	525.200000
784.589233	554.000000
784.625610	582.500000
784.661987	625.200000
784.698364	642.200000
784.734741	664.000000
784.771057	690.900000
784.807434	715.000000
784.843811	735.500000
784.880127	740.400000
784.916504	763.300000
784.952881	769.900000
784.989197	766.000000
785.025574	768.900000
785.061951	778.000000
785.098267	793.400000
785.134644	790.600000
785.170959	781.900000
785.207275	778.300000
785.243652	776.400000
785.279968	765.900000
785.316345	770.600000
785.352722	764.400000
785.388977	754.300000
785.425354	739.000000
785.461731	729.300000
785.498047	731.800000
785.534363	733.000000
785.570679	730.500000
785.606995	727.800000
785.643372	731.600000
785.679687	731.400000
785.716003	724.700000
785.752380	727.900000
785.788635	735.300000
785.825012	750.900000
785.861328	751.400000
785.897644	748.300000
785.933960	762.100000
785.970337	765.600000
786.006592	792.800000
786.042908	797.400000
786.079285	806.200000
786.115540	811.400000
786.151855	804.000000
786.188171	793.500000
786.224487	800.300000
786.260803	797.200000
786.297119	804.000000
786.333435	794.800000
786.369751	784.600000
786.406006	787.300000
786.442322	775.700000
786.478638	766.000000
786.514954	776.800000
786.551270	765.300000
786.587585	767.700000
786.623840	756.700000
786.660156	760.300000
786.696472	747.800000
786.732727	751.400000
786.769043	759.100000
786.805298	752.300000
786.841614	756.100000
786.877930	760.200000
786.914124	757.100000
786.950439	774.300000
786.986755	783.400000
787.023010	800.800000
787.059326	804.200000
787.095642	805.300000
787.131836	818.700000
787.168152	818.300000
787.204468	821.100000
787.240723	839.000000
787.276978	838.300000
787.313293	846.300000
787.349548	839.400000
787.385803	835.000000
787.422058	829.500000
787.458313	830.800000
787.494629	833.000000
787.530823	828.200000
787.567139	810.000000
787.603455	806.200000
787.639648	796.300000
787.675903	800.600000
787.712219	791.100000
787.748413	796.200000
787.784729	802.400000
787.820984	795.400000
787.857178	792.700000
787.893494	790.200000
787.929749	794.100000
787.965942	808.800000
788.002258	813.800000
788.038452	828.700000
788.074707	820.100000
788.110962	822.700000
788.147217	822.800000
788.183472	837.000000
788.219727	850.800000
788.255920	862.300000
788.292175	865.800000
788.328430	852.800000
788.364624	847.700000
788.400879	848.200000
788.437134	856.700000
788.473328	857.300000
788.509583	861.500000
788.545837	857.500000
788.582031	853.600000
788.618286	846.300000
788.654480	849.900000
788.690735	862.900000
788.726990	873.000000
788.763184	870.800000
788.799377	877.200000
788.835632	869.000000
788.871826	882.400000
788.908081	879.000000
788.944336	877.300000
788.980469	890.800000
789.016724	887.600000
789.052979	886.800000
789.089111	868.400000
789.125366	877.000000
789.161621	871.300000
789.197754	880.200000
789.234009	873.300000
789.270142	867.200000
789.306396	859.000000
789.342590	855.000000
789.378784	844.100000
789.414978	848.200000
789.451233	856.000000
789.487366	853.500000
789.523621	854.400000
789.559814	846.500000
789.595947	850.800000
789.632202	862.300000
789.668335	870.900000
789.704529	886.500000
789.740784	896.900000
789.776917	899.600000
789.813110	889.800000
789.849304	903.000000
789.885498	907.500000
789.921692	921.500000
789.957886	923.800000
789.994019	924.800000
790.030212	921.100000
790.066406	923.900000
790.102539	928.400000
790.138733	942.100000
790.174927	938.400000
790.211060	942.900000
790.247253	935.400000
790.283386	926.200000
790.319580	911.500000
790.355774	909.100000
790.391907	914.300000
790.428101	929.900000
790.464294	922.500000
790.500427	918.800000
790.536621	903.100000
790.572754	891.100000
790.608887	899.200000
790.645081	901.000000
790.681274	909.000000
790.717346	897.400000
790.753540	886.600000
790.789734	878.900000
790.825867	872.000000
790.862000	873.900000
790.898132	891.100000
790.934265	893.700000
790.970459	883.700000
791.006592	874.400000
791.042725	875.500000
791.078918	870.700000
791.114990	876.300000
791.151184	889.800000
791.187317	898.800000
791.223389	890.000000
791.259583	870.800000
791.295715	875.500000
791.331848	885.300000
791.367981	899.300000
791.404114	901.300000
791.440247	901.400000
791.476379	897.600000
791.512451	878.300000
791.548584	877.200000
791.584778	869.500000
791.620850	883.500000
791.656982	889.600000
791.693115	886.400000
791.729187	883.500000
791.765381	881.100000
791.801514	877.800000
791.837585	886.900000
791.873718	898.300000
791.909851	907.400000
791.945923	907.900000
791.982056	877.600000
792.018188	873.100000
792.054260	875.000000
792.090393	885.600000
792.126465	875.600000
792.162598	878.000000
792.198669	869.900000
792.234741	861.200000
792.270874	850.000000
792.307007	850.100000
792.343079	856.000000
792.379150	861.900000
792.415283	849.000000
792.451355	854.000000
792.487488	832.800000
792.523560	825.300000
792.559631	800.400000
792.595764	757.800000
792.631836	726.200000
792.667908	720.800000
792.703979	719.700000
792.740051	749.200000
792.776184	777.200000
792.812256	787.600000
792.848328	795.800000
792.884399	807.600000
792.920471	804.300000
792.956543	803.800000
792.992615	798.200000
793.028748	797.500000
793.064758	812.000000
793.100830	826.800000
793.136963	836.500000
793.172974	837.400000
793.209045	828.400000
793.245178	831.200000
793.281189	821.300000
793.317261	824.700000
793.353271	827.900000
793.389404	836.100000
793.425476	827.500000
793.461487	811.100000
793.497559	810.400000
793.533630	819.900000
793.569641	820.700000
793.605713	824.400000
793.641785	828.500000
793.677795	833.900000
793.713867	823.600000
793.749878	829.600000
793.785950	839.100000
793.822021	850.000000
793.858032	843.700000
793.894104	846.800000
793.930176	841.700000
793.966187	844.100000
794.002258	833.300000
794.038269	842.900000
794.074280	849.100000
794.110352	870.600000
794.146423	851.300000
794.182373	846.100000
794.218445	833.900000
794.254517	835.500000
794.290466	829.900000
794.326538	825.500000
794.362549	823.000000
794.398560	827.200000
794.434631	830.400000
794.470581	810.300000
794.506653	805.000000
794.542664	808.800000
794.578674	815.400000
794.614685	819.600000
794.650757	825.300000
794.686707	820.400000
794.722778	813.400000
794.758789	822.300000
794.794739	836.300000
794.830811	857.600000
794.866821	872.900000
794.902771	869.200000
794.938843	858.000000
794.974792	856.800000
795.010803	859.700000
795.046814	863.600000
795.082825	852.300000
795.118835	860.100000
795.154846	843.100000
795.190796	842.200000
795.226807	831.200000
795.262817	839.800000
795.298767	845.900000
795.334778	849.300000
795.370850	838.800000
795.406799	840.300000
795.442810	822.300000
795.478821	816.800000
795.514709	819.500000
795.550720	854.500000
795.586670	833.800000
795.622681	838.100000
795.658691	830.400000
795.694641	834.500000
795.730652	827.400000
795.766663	840.900000
795.802551	844.000000
795.838562	858.800000
795.874573	846.600000
795.910522	840.000000
795.946472	829.700000
795.982483	840.400000
796.018433	838.300000
796.054382	839.200000
796.090393	834.700000
796.126282	828.400000
796.162292	818.500000
796.198242	814.100000
796.234192	812.100000
796.270203	816.200000
796.306091	827.900000
796.342041	835.900000
796.378052	814.800000
796.413940	819.700000
796.449951	822.400000
796.485901	825.800000
796.521790	836.200000
796.557800	847.100000
796.593689	847.000000
796.629639	835.600000
796.665649	831.600000
796.701599	830.600000
796.737488	831.700000
796.773437	838.400000
796.809387	838.200000
796.845337	841.200000
796.881287	827.600000
796.917175	816.400000
796.953125	811.700000
796.989075	824.500000
797.024963	829.900000
797.060913	825.200000
797.096863	820.100000
797.132751	809.700000
797.168701	803.100000
797.204590	809.400000
797.240540	806.300000
797.276489	817.700000
797.312439	821.400000
797.348328	813.900000
797.384277	809.200000
797.420166	796.800000
797.456055	805.900000
797.492004	803.300000
797.527893	811.300000
797.563843	813.000000
797.599731	803.000000
797.635620	797.300000
797.671570	801.100000
797.707520	806.200000
797.743347	811.800000
797.779297	813.100000
797.815125	804.200000
797.851074	796.800000
797.887024	782.900000
797.922913	780.800000
797.958801	790.700000
797.994690	789.500000
798.030579	792.900000
798.066467	788.500000
798.102356	775.500000
798.138245	772.200000
798.174133	772.900000
798.210083	780.900000
798.245911	788.700000
798.281799	792.300000
798.317749	785.300000
798.353577	781.000000
798.389465	777.400000
798.425293	778.400000
798.461243	780.200000
798.497131	780.200000
798.532959	784.500000
798.568848	787.800000
798.604736	776.300000
798.640564	763.500000
798.676453	764.300000
798.712402	770.300000
798.748230	774.900000
798.784119	776.900000
798.820007	772.800000
798.855835	764.900000
798.891724	762.100000
798.927551	760.000000
798.963379	763.800000
798.999268	761.500000
799.035095	752.000000
799.070984	746.300000
799.106873	739.900000
799.142700	747.900000
799.178528	739.500000
799.214417	747.000000
799.250244	756.000000
799.286133	743.700000
799.321960	744.000000
799.357788	742.900000
799.393677	737.500000
799.429504	741.700000
799.465332	743.200000
799.501221	746.400000
799.537048	745.700000
799.572876	738.900000
799.608704	738.900000
799.644531	753.700000
799.680359	752.100000
799.716248	760.700000
799.752014	766.000000
799.787903	756.900000
799.823730	750.300000
799.859558	746.400000
799.895386	750.200000
799.931213	752.400000
799.967041	744.600000
800.002869	740.300000
800.038696	750.900000
800.074463	736.700000
800.110352	742.400000
800.146179	734.300000
800.181946	746.600000
800.217773	739.900000
800.253540	736.000000
800.289429	730.700000
800.325256	724.000000
800.361023	723.100000
800.396851	730.900000
800.432678	732.900000
800.468445	729.300000
800.504272	731.300000
800.540100	716.400000
800.575867	715.700000
800.611694	723.600000
800.647461	718.200000
800.683289	720.500000
800.719116	722.000000
800.754883	713.000000
800.790649	710.400000
800.826477	708.100000
800.862244	721.500000
800.898071	708.500000
800.933838	715.400000
800.969604	710.700000
801.005432	705.400000
801.041199	698.500000
801.076965	698.900000
801.112793	697.700000
801.148560	692.400000
801.184326	694.200000
801.220154	693.000000
801.255859	689.100000
801.291687	687.000000
801.327454	683.300000
801.363281	685.900000
801.398987	685.300000
801.434814	681.300000
801.470520	687.900000
801.506287	677.200000
801.542114	668.100000
801.577820	672.100000
801.613647	676.300000
801.649414	674.700000
801.685120	674.800000
801.720886	674.400000
801.756714	665.200000
801.792419	663.400000
801.828186	658.100000
801.863892	662.200000
801.899719	662.500000
801.935486	653.500000
801.971252	664.600000
802.006958	660.800000
802.042725	655.900000
802.078430	653.900000
802.114197	652.900000
802.149963	663.000000
802.185669	654.000000
802.221436	651.600000
802.257202	657.000000
802.292908	649.300000
802.328674	660.500000
802.364441	661.600000
802.400146	657.000000
802.435913	659.000000
802.471558	655.600000
802.507324	650.400000
802.543091	645.900000
802.578796	655.200000
802.614502	656.900000
802.650269	663.600000
802.685974	647.800000
802.721741	649.900000
802.757446	649.200000
802.793152	652.800000
802.828918	662.400000
802.864624	656.000000
802.900330	653.500000
802.936035	649.600000
802.971802	647.000000
803.007446	643.900000
803.043213	636.600000
803.078857	647.700000
803.114624	632.800000
803.150330	635.000000
803.185974	631.100000
803.221741	630.900000
803.257446	639.800000
803.293152	640.800000
803.328857	633.600000
803.364563	630.500000
803.400208	626.200000
803.435974	629.600000
803.471680	629.200000
803.507324	626.100000
803.543030	631.600000
803.578735	632.600000
803.614441	630.600000
803.650146	634.800000
803.685791	623.300000
803.721497	618.100000
803.757202	611.500000
803.792847	619.600000
803.828552	613.800000
803.864258	612.300000
803.899902	607.700000
803.935608	600.200000
803.971313	600.400000
804.006958	605.500000
804.042664	604.200000
804.078308	610.600000
804.113953	601.000000
804.149658	606.500000
804.185364	594.700000
804.221008	607.000000
804.256714	594.800000
804.292297	593.500000
804.328003	592.100000
804.363708	589.300000
804.399292	587.900000
804.434998	589.100000
804.470703	583.500000
804.506287	596.200000
804.541992	586.100000
804.577637	587.900000
804.613281	576.100000
804.648926	568.600000
804.684570	575.100000
804.720215	570.900000
804.755920	572.300000
804.791565	571.400000
804.827209	576.000000
804.862854	568.900000
804.898437	567.600000
804.934143	566.100000
804.969788	564.200000
805.005371	566.000000
805.041077	567.300000
805.076721	564.500000
805.112305	556.900000
805.147949	556.200000
805.183655	553.300000
805.219238	557.300000
805.254883	553.200000
805.290466	560.900000
805.326111	556.500000
805.361755	547.600000
805.397400	550.400000
805.432983	548.900000
805.468628	547.500000
805.504211	551.600000
805.539856	554.100000
805.575500	552.000000
805.611084	546.800000
805.646729	538.200000
805.682373	542.700000
805.717957	550.600000
805.753601	551.700000
805.789246	540.400000
805.824768	548.100000
805.860413	545.400000
805.895996	533.400000
805.931641	534.500000
805.967224	541.000000
806.002869	536.100000
806.038452	546.800000
806.074036	545.200000
806.109619	534.700000
806.145264	533.600000
806.180847	532.400000
806.216431	533.500000
806.252014	531.000000
806.287659	533.400000
806.323181	540.000000
806.358826	534.900000
806.394409	519.200000
806.429993	528.000000
806.465576	532.700000
806.501160	525.400000
806.536743	513.300000
806.572327	521.100000
806.607910	519.600000
806.643494	518.800000
806.679077	516.300000
806.714661	516.500000
806.750244	515.000000
806.785828	509.800000
806.821350	510.800000
806.856934	511.700000
806.892517	506.500000
806.928101	501.900000
806.963684	503.100000
806.999268	514.600000
807.034790	497.500000
807.070374	501.800000
807.105896	493.300000
807.141479	493.100000
807.177063	500.900000
807.212585	494.100000
807.248169	495.300000
807.283752	500.800000
807.319275	495.500000
807.354858	493.400000
807.390381	490.900000
807.425903	488.200000
807.461487	487.300000
807.497070	480.800000
807.532593	480.800000
807.568115	484.300000
807.603699	480.000000
807.639221	477.700000
807.674744	480.800000
807.710266	481.200000
807.745850	481.200000
807.781372	478.800000
807.816895	474.500000
807.852417	475.300000
807.888000	477.300000
807.923523	473.300000
807.959045	476.600000
807.994629	474.800000
808.030090	474.500000
808.065613	476.500000
808.101135	474.000000
808.136658	469.700000
808.172241	472.900000
808.207764	472.900000
808.243225	465.000000
808.278809	460.900000
808.314270	469.500000
808.349792	459.700000
808.385315	457.400000
808.420837	460.000000
808.456360	466.200000
808.491882	467.800000
808.527344	461.800000
808.562866	464.200000
808.598389	459.700000
808.633850	458.600000
808.669434	452.200000
808.704895	457.700000
808.740417	461.700000
808.775940	456.900000
808.811462	452.400000
808.846924	447.800000
808.882385	446.800000
808.917847	446.900000
808.953369	448.900000
808.988892	443.300000
809.024353	449.500000
809.059875	449.600000
809.095398	449.400000
809.130798	440.400000
809.166321	442.900000
809.201843	440.800000
809.237305	440.300000
809.272766	443.300000
809.308228	432.900000
809.343750	434.500000
809.379211	434.200000
809.414734	431.800000
809.450134	440.100000
809.485657	428.600000
809.521118	434.300000
809.556580	428.600000
809.592102	428.700000
809.627502	427.700000
809.663025	424.300000
809.698486	425.500000
809.733887	422.500000
809.769409	425.200000
809.804871	415.700000
809.840271	417.900000
809.875793	416.000000
809.911194	421.100000
809.946655	414.100000
809.982178	411.700000
810.017639	412.500000
810.053040	412.600000
810.088501	408.100000
810.123901	411.100000
810.159424	408.000000
810.194885	403.200000
810.230286	407.400000
810.265747	399.600000
810.301208	400.700000
810.336609	402.600000
810.372070	395.100000
810.407532	395.300000
810.442932	397.800000
810.478394	401.100000
810.513794	395.600000
810.549255	395.700000
810.584717	393.000000
810.620117	388.900000
810.655518	396.300000
810.690979	390.300000
810.726379	387.800000
810.761841	380.100000
810.797302	383.200000
810.832642	380.500000
810.868103	388.400000
810.903564	379.300000
810.938904	385.800000
810.974365	375.400000
811.009827	377.300000
811.045166	371.700000
811.080627	368.500000
811.115967	370.100000
811.151428	378.500000
811.186829	373.400000
811.222229	373.400000
811.257629	366.500000
811.293091	371.300000
811.328430	377.300000
811.363892	369.400000
811.399292	371.800000
811.434631	368.700000
811.470093	374.200000
811.505493	364.600000
811.540833	364.400000
811.576294	365.600000
811.611694	363.600000
811.647034	361.500000
811.682434	362.800000
811.717773	362.600000
811.753235	368.700000
811.788635	361.600000
811.823975	361.400000
811.859375	366.500000
811.894775	355.300000
811.930115	357.300000
811.965515	353.600000
812.000916	358.800000
812.036255	354.800000
812.071655	356.100000
812.106995	351.800000
812.142395	352.800000
812.177795	360.800000
812.213196	354.700000
812.248474	354.600000
812.283875	348.000000
812.319214	348.600000
812.354614	349.200000
812.390015	345.300000
812.425293	345.400000
812.460693	346.500000
812.496094	343.600000
812.531433	338.400000
812.566772	338.700000
812.602173	340.200000
812.637451	339.600000
812.672852	336.700000
812.708191	337.400000
812.743530	330.900000
812.778931	327.900000
812.814270	329.400000
812.849609	332.100000
812.884949	333.100000
812.920227	326.700000
812.955627	336.300000
812.990967	330.600000
813.026306	327.100000
813.061646	318.400000
813.096985	319.000000
813.132324	314.500000
813.167664	319.000000
813.203003	321.200000
813.238281	311.400000
813.273682	309.400000
813.308960	309.800000
813.344299	308.500000
813.379639	314.900000
813.414978	311.800000
813.450256	311.200000
813.485596	309.400000
813.520874	305.600000
813.556213	304.900000
813.591614	310.400000
813.626831	304.500000
813.662170	308.600000
813.697510	314.500000
813.732788	302.400000
813.768127	302.900000
813.803467	303.800000
813.838745	303.000000
813.874084	306.600000
813.909363	302.700000
813.944641	302.800000
813.979980	293.700000
814.015320	298.400000
814.050598	296.100000
814.085876	297.200000
814.121155	296.600000
814.156494	296.000000
814.191772	296.600000
814.227051	293.100000
814.262390	293.400000
814.297668	293.500000
814.332947	293.700000
814.368225	289.300000
814.403564	291.900000
814.438782	288.000000
814.474121	288.800000
814.509338	288.900000
814.544617	293.500000
814.579956	286.100000
814.615173	295.400000
814.650513	290.200000
814.685791	283.600000
814.721008	286.200000
814.756348	285.700000
814.791626	284.600000
814.826843	283.700000
814.862122	284.000000
814.897400	282.500000
814.932678	281.100000
814.967957	281.600000
815.003235	282.100000
815.038452	277.400000
815.073730	274.500000
815.108948	283.100000
815.144226	280.800000
815.179504	283.600000
815.214722	273.600000
815.250000	271.700000
815.285278	275.400000
815.320496	272.500000
815.355774	273.200000
815.391052	275.200000
815.426270	273.600000
815.461487	271.900000
815.496765	266.100000
815.531982	264.100000
815.567261	268.000000
815.602539	275.200000
815.637695	270.600000
815.672974	269.800000
815.708191	271.200000
815.743408	273.500000
815.778687	265.600000
815.813904	272.900000
815.849121	261.600000
815.884399	260.400000
815.919556	260.600000
815.954834	263.200000
815.990051	264.400000
816.025269	267.300000
816.060486	259.200000
816.095703	258.900000
816.130920	262.500000
816.166199	257.900000
816.201416	258.500000
816.236572	260.300000
816.271851	256.600000
816.307007	258.800000
816.342224	252.300000
816.377441	256.800000
816.412659	250.700000
816.447876	255.700000
816.483093	252.300000
816.518250	251.700000
816.553467	248.700000
816.588745	254.300000
816.623901	247.900000
816.659119	241.400000
816.694275	247.700000
816.729492	245.300000
816.764709	272.800000
816.799927	243.100000
816.835083	246.800000
816.870300	240.000000
816.905457	243.900000
816.940674	243.700000
816.975830	239.800000
817.010986	237.500000
817.046204	237.200000
817.081421	235.300000
817.116577	237.500000
817.151733	242.500000
817.186951	241.200000
817.222107	238.600000
817.257324	241.300000
817.292419	240.200000
817.327637	234.200000
817.362854	235.100000
817.398010	232.100000
817.433167	234.600000
817.468323	232.600000
817.503479	233.300000
817.538635	240.000000
817.573853	234.400000
817.608948	231.800000
817.644165	231.500000
817.679321	229.500000
817.714478	227.900000
817.749634	232.300000
817.784790	236.200000
817.819946	235.100000
817.855103	224.000000
817.890198	227.400000
817.925415	224.900000
817.960571	229.900000
817.995667	227.300000
818.030823	229.200000
818.066040	225.800000
818.101135	228.100000
818.136292	225.200000
818.171448	222.300000
818.206543	223.400000
818.241699	225.400000
818.276855	224.600000
818.311951	222.700000
818.347107	220.000000
818.382263	225.700000
818.417358	228.700000
818.452515	226.600000
818.487610	227.500000
818.522766	218.600000
818.557922	226.100000
818.593018	223.500000
818.628113	220.600000
818.663269	217.200000
818.698364	220.700000
818.733521	216.800000
818.768677	221.200000
818.803711	215.600000
818.838867	215.900000
818.874023	216.200000
818.909058	214.300000
818.944214	214.000000
818.979370	217.300000
819.014404	215.700000
819.049561	212.100000
819.084595	216.900000
819.119751	210.700000
819.154846	214.900000
819.189941	211.900000
819.225037	208.900000
819.260193	207.300000
819.295227	206.500000
819.330322	206.000000
819.365479	203.800000
819.400513	239.000000
819.435608	203.200000
819.470764	202.000000
819.505798	203.400000
819.540894	204.700000
819.575989	203.100000
819.611084	208.100000
819.646179	210.700000
819.681213	204.600000
819.716309	205.300000
819.751404	203.800000
819.786438	208.400000
819.821533	200.000000
819.856628	203.700000
819.891663	205.700000
819.926758	211.900000
819.961853	208.500000
819.996887	201.600000
820.031982	203.800000
820.067017	201.400000
820.102112	234.500000
820.137207	200.300000
820.172302	209.500000
820.207275	199.000000
820.242371	197.900000
820.277405	198.000000
820.312500	198.500000
820.347534	199.700000
820.382568	202.700000
820.417664	198.600000
820.452759	196.400000
820.487732	195.500000
820.522827	196.700000
820.557861	195.300000
820.592896	197.100000
820.627930	196.800000
820.662964	194.800000
820.698059	198.800000
820.733093	195.200000
820.768127	198.900000
820.803162	196.000000
820.838196	193.200000
820.873230	195.300000
820.908264	197.800000
820.943298	192.600000
820.978333	198.900000
821.013367	195.400000
821.048401	199.700000
821.083435	198.000000
821.118469	190.300000
821.153503	198.900000
821.188477	195.400000
821.223511	189.900000
821.258484	194.000000
821.293579	194.300000
821.328613	190.800000
821.363647	193.600000
821.398621	189.400000
821.433655	191.200000
821.468628	202.700000
821.503662	193.300000
821.538696	195.300000
821.573669	189.700000
821.608704	195.600000
821.643677	193.200000
821.678650	194.100000
821.713684	199.000000
821.748718	191.800000
821.783691	192.300000
821.818726	191.300000
821.853638	193.300000
821.888672	190.600000
821.923706	191.800000
821.958618	192.300000
821.993652	190.900000
822.028687	194.700000
822.063599	197.400000
822.098633	190.900000
822.133667	188.400000
822.168579	190.700000
822.203613	193.200000
822.238586	189.000000
822.273560	192.100000
822.308533	189.700000
822.343567	188.700000
822.378479	189.600000
822.413452	189.600000
822.448425	187.000000
822.483398	193.500000
822.518372	192.400000
822.553345	187.800000
822.588318	197.100000
822.623291	189.700000
822.658203	188.700000
822.693237	189.200000
822.728210	188.100000
822.763123	189.900000
822.798096	187.100000
822.833069	189.600000
822.867981	189.000000
822.902954	190.700000
822.937927	191.800000
822.972900	196.500000
823.007874	185.000000
823.042725	194.400000
823.077698	196.900000
823.112671	187.300000
823.147583	188.700000
823.182556	191.600000
823.217529	193.100000
823.252441	187.200000
823.287415	197.700000
823.322388	191.800000
823.357239	189.600000
823.392212	194.000000
823.427185	195.200000
823.462097	186.100000
823.497009	191.100000
823.531982	188.000000
823.566895	189.900000
823.601807	185.000000
823.636719	188.200000
823.671631	189.500000
823.706604	187.600000
823.741455	190.700000
823.776428	184.500000
823.811340	191.700000
823.846252	192.400000
823.881165	193.100000
823.916138	189.300000
823.950989	194.800000
823.985901	185.900000
824.020813	188.300000
824.055725	188.100000
824.090637	182.900000
824.125610	190.700000
824.160461	190.800000
824.195374	189.200000
824.230225	190.000000
824.265198	184.200000
824.300110	186.200000
824.334961	193.700000
824.369873	181.100000
824.404785	189.500000
824.439636	190.500000
824.474548	182.200000
824.509460	179.900000
824.544312	190.900000
824.579224	189.000000
824.614075	189.000000
824.648987	185.300000
824.683899	188.200000
824.718811	185.600000
824.753662	191.200000
824.788574	191.400000
824.823364	189.400000
824.858276	185.000000
824.893188	189.100000
824.928040	189.300000
824.962952	188.500000
824.997803	191.400000
825.032654	187.800000
825.067566	189.200000
825.102417	184.400000
825.137268	185.800000
825.172119	185.900000
825.206970	184.500000
825.241882	183.800000
825.276733	183.800000
825.311646	185.500000
825.346436	182.500000
825.381348	180.700000
825.416138	184.800000
825.450989	182.400000
825.485901	178.700000
825.520691	178.900000
825.555542	180.200000
825.590454	184.000000
825.625244	180.200000
825.660095	188.500000
825.695007	185.900000
825.729797	183.100000
825.764648	182.100000
825.799438	182.400000
825.834290	184.200000
825.869202	177.900000
825.903992	183.100000
825.938843	181.900000
825.973694	179.800000
826.008484	190.700000
826.043335	180.800000
826.078186	177.900000
826.112976	185.800000
826.147827	185.700000
826.182678	187.800000
826.217468	176.400000
826.252319	188.200000
826.287109	179.900000
826.321899	185.700000
826.356750	181.700000
826.391541	178.600000
826.426392	184.600000
826.461182	181.600000
826.495972	177.700000
826.530823	175.300000
826.565613	183.100000
826.600403	177.000000
826.635254	184.500000
826.670044	176.400000
826.704834	176.200000
826.739685	177.100000
826.774475	182.700000
826.809265	179.800000
826.844055	179.900000
826.878906	185.500000
826.913635	182.500000
826.948425	182.400000
826.983215	183.800000
827.018005	182.300000
827.052856	180.100000
827.087585	183.200000
827.122375	175.500000
827.157227	178.600000
827.191956	190.700000
827.226746	177.100000
827.261536	183.400000
827.296265	177.500000
827.331116	180.100000
827.365906	181.600000
827.400635	178.700000
827.435425	175.600000
827.470215	184.800000
827.504944	180.700000
827.539734	184.700000
827.574463	179.200000
827.609253	185.800000
827.644043	180.800000
827.678772	184.100000
827.713562	180.400000
827.748352	180.900000
827.783081	178.700000
827.817871	182.400000
827.852600	178.300000
827.887329	181.100000
827.922119	174.000000
827.956848	182.200000
827.991638	191.100000
828.026367	182.200000
828.061157	180.900000
828.095886	180.900000
828.130615	193.700000
828.165344	175.700000
828.200073	180.000000
828.234863	179.800000
828.269592	180.200000
828.304321	184.400000
828.339111	180.400000
828.373779	177.500000
828.408569	182.700000
828.443298	183.300000
828.477966	179.100000
828.512756	180.600000
828.547424	178.900000
828.582214	179.000000
828.616943	179.600000
828.651672	179.600000
828.686340	182.300000
828.721130	177.900000
828.755798	181.800000
828.790527	180.600000
828.825256	182.100000
828.859924	180.100000
828.894714	184.000000
828.929443	185.900000
828.964111	177.700000
828.998840	183.500000
829.033569	179.000000
829.068237	179.300000
829.102966	179.800000
829.137634	180.300000
829.172363	183.500000
829.207092	181.300000
829.241821	178.500000
829.276489	176.100000
829.311157	180.600000
829.345825	178.300000
829.380554	183.600000
829.415283	177.400000
829.449951	174.900000
829.484619	187.300000
829.519348	185.200000
829.554016	180.900000
829.588745	180.800000
829.623413	178.400000
829.658081	188.500000
829.692749	178.000000
829.727417	182.200000
829.762146	181.500000
829.796814	177.800000
829.831482	179.400000
829.866150	180.500000
829.900879	178.800000
829.935486	181.600000
829.970154	178.300000
830.004883	189.200000
830.039490	181.500000
830.074219	177.100000
830.108887	180.300000
830.143494	180.700000
830.178223	176.400000
830.212891	179.700000
830.247498	181.600000
830.282166	185.600000
830.316772	183.400000
830.351501	177.200000
830.386169	180.400000
830.420776	178.600000
830.455444	180.800000
830.490112	178.500000
830.524719	175.800000
830.559387	180.500000
830.594055	182.900000
830.628662	181.200000
830.663330	179.800000
830.697998	185.500000
830.732605	180.200000
830.767273	182.600000
830.801941	180.400000
830.836487	186.400000
830.871155	180.900000
830.905762	182.100000
830.940430	176.800000
830.975098	179.200000
831.009644	181.500000
831.044312	187.300000
831.078979	182.600000
831.113525	176.000000
831.148193	181.200000
831.182861	180.400000
831.217407	182.600000
831.252075	190.100000
831.286621	178.400000
831.321289	177.700000
831.355896	181.200000
831.390564	185.300000
831.425110	182.000000
831.459778	185.500000
831.494324	189.200000
831.528931	182.500000
831.563599	185.200000
831.598145	178.400000
831.632751	180.400000
831.667419	180.500000
831.701965	181.600000
831.736572	182.400000
831.771179	176.800000
831.805786	178.700000
831.840393	185.300000
831.874939	174.700000
831.909546	182.800000
831.944153	175.100000
831.978760	180.000000
832.013306	178.100000
832.047913	184.700000
832.082458	188.200000
832.117065	178.200000
832.151672	188.600000
832.186218	182.000000
832.220825	183.800000
832.255432	175.400000
832.289978	178.700000
832.324585	181.600000
832.359192	182.100000
832.393677	178.500000
832.428284	181.200000
832.462830	178.700000
832.497437	179.900000
832.531982	183.200000
832.566589	178.700000
832.601135	182.400000
832.635681	175.500000
832.670227	181.400000
832.704773	186.200000
832.739380	182.200000
832.773926	180.400000
832.808472	179.300000
832.843079	180.700000
832.877563	182.400000
832.912170	179.500000
832.946716	175.800000
832.981201	184.700000
833.015808	183.300000
833.050293	180.800000
833.084839	177.500000
833.119446	179.700000
833.153992	182.700000
833.188477	180.200000
833.223022	177.600000
833.257568	182.000000
833.292114	186.200000
833.326660	189.300000
833.361145	178.100000
833.395691	175.000000
833.430237	182.000000
833.464783	182.300000
833.499329	177.900000
833.533875	177.900000
833.568359	183.500000
833.602905	183.600000
833.637390	185.800000
833.671875	177.700000
833.706421	180.500000
833.740906	178.500000
833.775452	174.100000
833.809998	177.900000
833.844482	186.000000
833.879028	180.300000
833.913513	179.200000
833.947998	182.800000
833.982544	178.900000
834.017090	178.100000
834.051514	174.100000
834.086060	182.400000
834.120544	180.600000
834.155029	181.500000
834.189575	180.100000
834.223999	182.400000
834.258545	181.800000
834.293030	181.400000
834.327515	180.700000
834.362000	178.900000
834.396545	183.200000
834.430969	180.500000
834.465454	184.200000
834.500000	175.200000
834.534424	181.800000
834.568970	174.400000
834.603455	174.900000
834.637878	178.700000
834.672363	182.500000
834.706909	182.400000
834.741333	181.500000
834.775818	176.400000
834.810242	178.700000
834.844727	181.500000
834.879211	179.900000
834.913635	181.300000
834.948181	181.600000
834.982666	181.500000
835.017090	179.100000
835.051575	182.500000
835.086060	179.100000
835.120483	183.400000
835.154907	183.100000
835.189331	180.000000
835.223816	183.000000
835.258301	176.300000
835.292786	177.800000
835.327209	182.600000
835.361694	177.800000
835.396057	178.800000
835.430542	181.600000
835.465027	180.300000
835.499390	177.800000
835.533875	208.300000
835.568359	178.500000
835.602722	176.500000
835.637207	182.200000
835.671692	177.100000
835.706055	194.200000
835.740540	183.100000
835.774902	181.000000
835.809387	182.200000
835.843811	176.400000
835.878235	185.200000
835.912659	177.200000
835.947083	178.900000
835.981506	180.300000
836.015930	176.100000
836.050354	183.600000
836.084778	186.800000
836.119202	184.700000
836.153625	193.100000
836.187988	178.300000
836.222473	180.100000
836.256897	182.800000
836.291260	180.500000
836.325684	183.600000
836.360046	179.000000
836.394470	181.400000
836.428894	185.800000
836.463318	176.900000
836.497681	182.200000
836.532104	186.400000
836.566467	180.900000
836.600891	179.900000
836.635315	184.900000
836.669678	182.500000
836.704102	183.600000
836.738525	182.700000
836.772888	174.200000
836.807251	178.500000
836.841675	182.800000
836.876038	177.100000
836.910461	176.900000
836.944763	183.800000
836.979187	177.600000
837.013611	184.700000
837.047974	176.700000
837.082336	189.700000
837.116699	182.600000
837.151062	181.300000
837.185486	177.300000
837.219849	178.600000
837.254211	183.900000
837.288574	181.000000
837.322937	178.000000
837.357300	172.800000
837.391663	189.500000
837.426086	183.800000
837.460388	182.200000
837.494751	184.300000
837.529114	178.100000
837.563477	185.900000
837.597839	180.300000
837.632141	178.900000
837.666565	178.700000
837.700928	184.100000
837.735229	184.200000
837.769592	184.000000
837.803955	183.000000
837.838257	179.900000
837.872620	178.700000
837.906982	186.100000
837.941284	181.400000
837.975647	182.300000
838.010010	186.700000
838.044312	179.700000
838.078674	179.800000
838.112976	181.000000
838.147339	183.300000
838.181702	182.300000
838.216003	185.500000
838.250366	182.000000
838.284668	183.500000
838.318970	176.200000
838.353333	179.900000
838.387634	180.900000
838.421936	180.800000
838.456299	182.700000
838.490601	185.000000
838.524902	183.500000
838.559265	185.100000
838.593567	184.100000
838.627869	176.900000
838.662170	183.000000
838.696472	176.400000
838.730774	177.300000
838.765137	184.800000
838.799377	170.900000
838.833740	182.100000
838.868042	185.300000
838.902283	176.000000
838.936646	185.500000
838.970947	181.600000
839.005188	185.600000
839.039551	176.600000
839.073792	185.300000
839.108093	179.400000
839.142395	188.400000
839.176697	176.000000
839.210937	182.300000
839.245300	188.500000
839.279541	177.500000
839.313843	180.100000
839.348145	182.500000
839.382385	184.000000
839.416687	185.100000
839.450989	182.500000
839.485229	180.500000
839.519531	179.000000
839.553833	185.800000
839.588013	181.000000
839.622314	182.800000
839.656555	181.600000
839.690857	180.500000
839.725159	177.200000
839.759460	179.200000
839.793640	177.300000
839.827942	180.800000
839.862183	176.100000
839.896423	182.000000
839.930725	191.300000
839.964966	188.100000
839.999207	183.400000
840.033508	186.700000
840.067688	178.200000
840.101990	186.700000
840.136230	181.700000
840.170471	187.100000
840.204712	179.300000
840.238953	178.100000
840.273193	180.800000
840.307434	184.700000
840.341736	178.200000
840.375916	177.800000
840.410217	178.900000
840.444397	183.900000
840.478638	182.500000
840.512878	186.500000
840.547119	181.000000
840.581360	184.500000
840.615601	187.700000
840.649780	190.500000
840.684021	180.000000
840.718262	188.100000
840.752441	187.900000
840.786682	183.100000
840.820862	180.900000
840.855103	188.100000
840.889343	181.000000
840.923584	184.500000
840.957764	183.600000
840.992004	182.800000
841.026184	192.100000
841.060425	180.600000
841.094666	179.600000
841.128845	183.100000
841.163025	184.300000
841.197266	182.900000
841.231445	181.000000
841.265686	184.200000
841.299866	178.600000
841.334045	185.600000
841.368286	181.700000
841.402405	187.100000
841.436646	184.400000
841.470825	179.300000
841.505005	181.400000
841.539185	178.200000
841.573425	178.000000
841.607544	181.200000
841.641785	181.300000
841.675964	178.700000
841.710144	181.100000
841.744324	179.700000
841.778503	180.900000
841.812683	178.600000
841.846863	186.700000
841.881042	185.900000
841.915222	179.500000
841.949402	191.600000
841.983521	176.300000
842.017700	180.800000
842.051880	182.000000
842.086060	182.800000
842.120239	182.400000
842.154419	179.200000
842.188538	181.400000
842.222717	179.200000
842.256897	187.600000
842.291016	180.600000
842.325195	182.900000
842.359375	188.600000
842.393494	186.600000
842.427673	182.400000
842.461853	182.200000
842.495911	188.600000
842.530090	183.700000
842.564209	180.400000
842.598389	183.500000
842.632568	182.500000
842.666626	182.900000
842.700806	180.100000
842.734985	178.800000
842.769043	183.800000
842.803223	180.900000
842.837402	181.000000
842.871460	178.700000
842.905640	190.500000
842.939697	179.900000
842.973877	182.200000
843.007996	186.300000
843.042175	188.600000
843.076233	179.200000
843.110413	184.500000
843.144470	187.200000
843.178589	185.100000
843.212769	180.000000
843.246826	185.000000
843.280945	179.700000
843.315125	181.100000
843.349182	178.100000
843.383301	185.900000
843.417419	191.100000
843.451538	182.200000
843.485657	180.500000
843.519714	180.700000
843.553833	182.500000
843.587952	180.500000
843.622070	179.900000
843.656128	183.000000
843.690247	179.200000
843.724304	181.500000
843.758423	183.100000
843.792542	179.200000
843.826599	181.600000
843.860718	180.000000
843.894836	177.600000
843.928894	183.500000
843.963013	181.900000
843.997070	178.900000
844.031128	177.300000
844.065247	185.900000
844.099304	184.700000
844.133362	183.400000
844.167480	184.300000
844.201599	185.100000
844.235596	183.200000
844.269714	184.600000
844.303711	182.800000
844.337830	177.600000
844.371948	184.000000
844.405945	182.000000
844.440063	178.100000
844.474121	191.400000
844.508118	182.400000
844.542236	182.300000
844.576294	182.600000
844.610352	178.200000
844.644409	182.100000
844.678406	176.400000
844.712524	186.300000
844.746582	186.300000
844.780640	181.100000
844.814636	181.500000
844.848755	191.700000
844.882751	180.700000
844.916809	185.200000
844.950867	183.000000
844.984863	188.300000
845.018921	181.000000
845.052979	180.400000
845.086975	182.400000
845.121033	177.500000
845.155090	178.400000
845.189087	187.000000
845.223145	180.800000
845.257141	182.900000
845.291199	184.100000
845.325256	186.900000
845.359253	182.300000
845.393250	193.700000
845.427307	181.000000
845.461304	183.000000
845.495361	182.700000
845.529358	189.300000
845.563354	182.100000
845.597412	179.500000
845.631409	188.500000
845.665405	186.800000
845.699463	184.800000
845.733459	181.100000
845.767456	190.200000
845.801453	182.600000
845.835449	185.600000
845.869446	185.100000
845.903503	184.200000
845.937439	179.300000
845.971497	186.900000
846.005493	178.500000
846.039429	186.700000
846.073486	189.300000
846.107483	181.900000
846.141418	182.300000
846.175476	182.400000
846.209473	185.900000
846.243408	179.000000
846.277405	183.500000
846.311401	180.500000
846.345337	182.500000
846.379395	186.300000
846.413330	180.100000
846.447327	190.100000
846.481323	179.800000
846.515259	180.100000
846.549255	181.600000
846.583252	185.000000
846.617187	178.700000
846.651184	184.300000
846.685120	180.500000
846.719055	188.400000
846.753052	185.700000
846.786987	185.700000
846.820984	178.700000
846.854980	188.700000
846.888916	177.700000
846.922852	183.600000
846.956848	186.800000
846.990723	179.900000
847.024719	183.800000
847.058716	181.000000
847.092590	187.000000
847.126587	184.300000
847.160522	180.100000
847.194458	185.000000
847.228455	179.900000
847.262390	179.300000
847.296265	180.300000
847.330261	185.900000
847.364136	179.000000
847.398132	182.100000
847.432068	183.000000
847.466003	181.700000
847.499939	182.600000
847.533875	184.300000
847.567749	180.100000
847.601746	181.100000
847.635681	184.600000
847.669556	176.900000
847.703491	187.200000
847.737427	192.200000
847.771301	178.700000
847.805237	184.300000
847.839233	182.100000
847.873108	182.200000
847.907043	181.900000
847.940918	187.500000
847.974854	184.300000
848.008789	187.000000
848.042664	181.200000
848.076538	183.300000
848.110474	182.300000
848.144348	183.500000
848.178284	177.800000
848.212219	184.700000
848.246094	180.800000
848.279968	182.100000
848.313904	185.000000
848.347778	182.800000
848.381653	181.600000
848.415588	179.300000
848.449463	179.900000
848.483337	184.000000
848.517212	187.100000
848.551086	181.800000
848.585022	178.700000
848.618835	191.100000
848.652771	180.100000
848.686646	178.000000
848.720520	187.200000
848.754395	182.100000
848.788330	184.800000
848.822144	185.100000
848.856018	181.200000
848.889954	189.900000
848.923767	180.800000
848.957642	179.700000
848.991577	184.100000
849.025391	181.900000
849.059265	182.600000
849.093079	178.600000
849.126953	177.400000
849.160828	186.100000
849.194641	182.600000
849.228577	181.600000
849.262451	181.300000
849.296265	181.200000
849.330139	179.900000
849.364014	182.800000
849.397827	184.400000
849.431702	183.500000
849.465515	185.700000
849.499329	177.300000
849.533203	179.100000
849.567078	176.300000
849.600891	184.000000
849.634766	181.500000
849.668518	183.400000
849.702393	183.000000
849.736267	178.100000
849.770020	189.100000
849.803894	183.700000
849.837769	184.300000
849.871521	182.600000
849.905396	186.600000
849.939270	179.600000
849.973022	180.100000
850.006897	183.400000
850.040710	185.700000
850.074524	185.400000
850.108337	182.400000
850.142151	185.700000
850.175964	187.600000
850.209778	182.300000
850.243530	174.600000
850.277405	185.500000
850.311218	182.900000
850.344971	180.900000
850.378845	188.500000
850.412659	179.200000
850.446411	185.000000
850.480225	181.900000
850.514038	185.800000
850.547791	185.800000
850.581665	182.700000
850.615417	179.400000
850.649231	182.700000
850.683044	181.400000
850.716858	181.300000
850.750610	182.800000
850.784424	185.500000
850.818176	178.900000
850.851929	182.100000
850.885742	180.800000
850.919495	181.800000
850.953308	187.600000
850.987122	188.100000
851.020874	178.900000
851.054626	178.400000
851.088440	185.000000
851.122192	185.500000
851.156006	183.200000
851.189697	182.600000
851.223511	178.300000
851.257263	186.200000
851.291077	184.700000
851.324829	180.700000
851.358582	181.000000
851.392334	180.800000
851.426086	181.100000
851.459900	188.300000
851.493591	183.300000
851.527344	180.600000
851.561157	181.800000
851.594849	183.600000
851.628662	182.700000
851.662415	187.500000
851.696106	183.200000
851.729858	184.700000
851.763611	178.000000
851.797363	182.400000
851.831116	179.800000
851.864868	185.300000
851.898560	186.800000
851.932312	180.200000
851.966064	184.500000
851.999817	182.200000
852.033569	180.700000
852.067261	187.400000
852.101013	179.900000
852.134766	180.500000
852.168457	175.400000
852.202209	186.400000
852.235901	178.300000
852.269592	185.900000
852.303345	188.800000
852.337036	183.800000
852.370789	182.400000
852.404541	185.200000
852.438171	179.300000
852.471924	182.600000
852.505676	177.900000
852.539307	184.300000
852.573059	179.500000
852.606812	181.000000
852.640442	181.500000
852.674194	186.200000
852.707886	189.300000
852.741577	187.900000
852.775269	178.500000
852.809021	183.200000
852.842651	184.300000
852.876404	188.700000
852.910034	182.400000
852.943787	186.900000
852.977478	183.700000
853.011108	180.500000
853.044861	180.600000
853.078552	187.300000
853.112183	183.000000
853.145874	183.000000
853.179626	174.800000
853.213257	183.600000
853.246948	179.700000
853.280640	189.600000
853.314270	181.000000
853.347961	186.400000
853.381653	184.100000
853.415283	187.100000
853.448975	179.100000
853.482605	183.400000
853.516296	182.000000
853.549988	178.900000
853.583618	184.000000
853.617310	184.000000
853.651001	183.400000
853.684631	180.600000
853.718323	181.100000
853.751953	186.200000
853.785583	176.800000
853.819275	185.200000
853.852966	184.000000
853.886536	178.300000
853.920227	179.200000
853.953918	184.800000
853.987488	181.700000
854.021179	185.700000
854.054749	187.600000
854.088440	183.300000
854.122131	178.300000
854.155701	183.800000
854.189331	180.500000
854.223022	184.300000
854.256592	183.500000
854.290283	181.100000
854.323914	184.100000
854.357483	182.200000
854.391174	184.300000
854.424744	188.000000
854.458374	184.200000
854.492065	192.300000
854.525696	181.600000
854.559265	186.300000
854.592896	190.800000
854.626465	181.900000
854.660095	182.000000
854.693787	183.700000
854.727356	182.300000
854.760986	185.800000
854.794617	183.300000
854.828186	181.900000
854.861816	185.000000
854.895447	183.900000
854.929016	182.900000
854.962585	183.500000
854.996155	190.300000
855.029785	184.600000
855.063416	184.000000
855.097046	184.900000
855.130615	178.700000
855.164185	187.600000
855.197754	182.400000
855.231384	184.800000
855.264954	181.500000
855.298523	184.900000
855.332153	182.800000
855.365723	188.100000
855.399292	179.800000
855.432922	182.000000
855.466492	183.300000
855.500061	180.000000
855.533630	178.300000
855.567200	185.100000
855.600769	186.100000
855.634338	186.800000
855.667969	183.600000
855.701477	180.200000
855.735046	180.700000
855.768616	176.000000
855.802185	183.900000
855.835754	194.100000
855.869324	176.000000
855.902893	183.400000
855.936401	186.400000
855.969971	183.800000
856.003540	177.700000
856.037109	183.100000
856.070618	181.400000
856.104187	179.700000
856.137695	180.800000
856.171265	177.600000
856.204834	183.400000
856.238403	185.800000
856.271912	181.400000
856.305481	184.300000
856.338989	177.200000
856.372559	183.700000
856.406128	184.300000
856.439636	186.100000
856.473145	181.500000
856.506653	187.400000
856.540222	182.600000
856.573792	185.600000
856.607300	185.700000
856.640808	179.600000
856.674377	182.500000
856.707825	216.000000
856.741394	185.800000
856.774902	179.600000
856.808472	175.700000
856.841980	184.800000
856.875488	186.200000
856.908936	178.100000
856.942505	181.900000
856.976013	181.300000
857.009521	179.300000
857.043030	183.100000
857.076477	181.800000
857.110046	188.400000
857.143555	182.900000
857.177063	185.500000
857.210571	181.000000
857.244080	178.200000
857.277527	186.000000
857.311035	183.100000
857.344543	186.700000
857.378052	182.200000
857.411499	188.000000
857.445068	187.900000
857.478516	181.800000
857.512024	179.300000
857.545532	180.200000
857.578979	184.400000
857.612427	183.100000
857.645874	180.000000
857.679382	183.000000
857.712891	185.900000
857.746399	181.800000
857.779846	185.700000
857.813354	186.000000
857.846741	182.900000
857.880249	178.400000
857.913757	183.900000
857.947266	183.000000
857.980652	185.100000
858.014160	180.500000
858.047546	180.100000
858.081055	181.400000
858.114563	190.400000
858.147949	178.300000
858.181458	184.000000
858.214844	181.900000
858.248352	176.300000
858.281799	183.800000
858.315308	188.700000
858.348694	186.900000
858.382141	189.600000
858.415588	185.300000
858.449036	184.400000
858.482483	184.200000
858.515930	180.500000
858.549377	181.700000
858.582825	187.100000
858.616211	184.000000
858.649658	184.500000
858.683105	179.400000
858.716553	179.800000
858.750000	178.500000
858.783386	181.300000
858.816833	178.700000
858.850281	183.200000
858.883728	183.700000
858.917114	183.400000
858.950562	189.000000
858.983948	188.800000
859.017395	187.000000
859.050781	182.200000
859.084167	179.600000
859.117615	180.000000
859.151062	185.000000
859.184448	180.000000
859.217834	181.600000
859.251282	182.800000
859.284668	179.100000
859.318054	177.500000
859.351440	181.200000
859.384888	187.500000
859.418274	177.200000
859.451721	177.700000
859.485046	183.700000
859.518494	184.700000
859.551819	178.600000
859.585266	184.800000
859.618652	186.300000
859.652039	177.100000
859.685425	177.300000
859.718811	178.200000
859.752197	174.500000
859.785583	186.800000
859.819031	187.200000
859.852356	184.700000
859.885742	179.100000
859.919067	181.800000
859.952454	180.800000
859.985901	186.400000
860.019287	182.200000
860.052612	0.000000
860.085999	0.000000
860.119324	0.000000
860.152710	0.000000
860.186096	0.000000
860.219421	0.000000
860.252808	0.000000
860.286133	0.000000
860.319519	0.000000
860.352905	0.000000
860.386292	0.000000
860.419617	0.000000
860.452942	0.000000
860.486267	0.000000
860.519653	0.000000
860.553040	0.000000
860.586365	0.000000
860.619690	0.000000
860.653076	0.000000
860.686340	0.000000
860.719727	0.000000
860.753113	0.000000
860.786377	0.000000
860.819763	0.000000
860.853027	0.000000
860.886414	0.000000
860.919739	0.000000
860.953125	0.000000
860.986389	0.000000
861.019714	0.000000
861.053040	0.000000
861.086365	0.000000
861.119690	0.000000
861.153076	0.000000
861.186340	0.000000
861.219666	0.000000
861.252930	0.000000
861.286316	0.000000
861.319641	0.000000
861.352905	0.000000
861.386230	0.000000
861.419495	0.000000
861.452820	0.000000
861.486145	0.000000
861.519470	0.000000
861.552734	0.000000
861.586060	0.000000
861.619324	0.000000
861.652649	0.000000
861.685974	0.000000
861.719238	0.000000
861.752563	0.000000
861.785828	0.000000
861.819092	0.000000
861.852417	0.000000
861.885742	0.000000
861.918945	0.000000
861.952271	0.000000
861.985535	0.000000
862.018799	0.000000
862.052124	0.000000
862.085449	0.000000
862.118652	0.000000
862.151978	0.000000
862.185181	0.000000
862.218506	0.000000
862.251770	0.000000
862.285034	0.000000
862.318298	0.000000
862.351562	0.000000
862.384827	0.000000
862.418091	0.000000
862.451355	0.000000
862.484619	0.000000
862.517883	0.000000
862.551086	0.000000
862.584351	0.000000
862.617676	0.000000
862.650940	0.000000
862.684143	0.000000
862.717407	0.000000
862.750610	0.000000
862.783875	0.000000
862.817139	0.000000
862.850342	0.000000
862.883606	0.000000
862.916870	0.000000
862.950073	0.000000
862.983337	0.000000
863.016602	0.000000
863.049805	0.000000
863.083069	0.000000
863.116211	0.000000
863.149475	0.000000
863.182739	0.000000
863.216003	0.000000
863.249146	0.000000
863.282410	0.000000
863.315613	0.000000
863.348816	0.000000
863.382080	0.000000
863.415222	0.000000
863.448486	0.000000
863.481689	0.000000
863.514893	0.000000
863.548157	0.000000
863.581360	0.000000
863.614502	0.000000
863.647766	0.000000
863.680908	0.000000
863.714172	0.000000
863.747375	0.000000
863.780579	0.000000
863.813721	0.000000
863.846985	0.000000
863.880127	0.000000
863.913330	0.000000
863.946533	0.000000
863.979675	0.000000
864.012939	0.000000
