Model Number: SPM-001-M   
Serial Number: 10090201
Firmware Version: 004.17.6
Exposure Time: 500000.000000us
Data Taken on: 20-03-2021 09:16:27.659
Wavelength	Amplitude
733.770752	0.000000
733.808716	0.000000
733.846619	0.000000
733.884583	0.000000
733.922546	0.000000
733.960449	0.000000
733.998413	0.000000
734.036377	0.000000
734.074219	0.000000
734.112183	0.000000
734.150085	0.000000
734.188049	0.000000
734.226013	0.000000
734.263916	0.000000
734.301819	0.000000
734.339783	0.000000
734.377686	0.000000
734.415588	0.000000
734.453552	0.000000
734.491455	0.000000
734.529419	0.000000
734.567322	0.000000
734.605225	0.000000
734.643127	0.000000
734.681091	0.000000
734.718994	0.000000
734.756897	0.000000
734.794800	0.000000
734.832703	0.000000
734.870667	0.000000
734.908508	0.000000
734.946472	0.000000
734.984375	0.000000
735.022278	0.000000
735.060181	0.000000
735.098083	0.000000
735.135986	0.000000
735.173889	0.000000
735.211792	0.000000
735.249695	0.000000
735.287598	0.000000
735.325439	0.000000
735.363403	0.000000
735.401306	0.000000
735.439148	0.000000
735.477051	0.000000
735.515015	0.000000
735.552856	0.000000
735.590759	0.000000
735.628662	0.000000
735.666504	0.000000
735.704407	0.000000
735.742310	0.000000
735.780212	0.000000
735.818115	0.000000
735.856018	0.000000
735.893860	0.000000
735.931763	0.000000
735.969604	0.000000
736.007507	0.000000
736.045410	0.000000
736.083252	0.000000
736.121094	0.000000
736.158997	0.000000
736.196838	0.000000
736.234741	0.000000
736.272644	0.000000
736.310486	0.000000
736.348389	0.000000
736.386230	0.000000
736.424072	0.000000
736.461975	0.000000
736.499878	0.000000
736.537720	0.000000
736.575562	0.000000
736.613403	0.000000
736.651306	0.000000
736.689148	0.000000
736.726990	0.000000
736.764893	0.000000
736.802734	0.000000
736.840576	0.000000
736.878418	0.000000
736.916321	0.000000
736.954102	0.000000
736.992004	0.000000
737.029846	0.000000
737.067688	0.000000
737.105530	0.000000
737.143372	0.000000
737.181213	0.000000
737.219116	0.000000
737.256897	0.000000
737.294739	0.000000
737.332642	0.000000
737.370422	0.000000
737.408325	0.000000
737.446167	0.000000
737.483948	0.000000
737.521790	0.000000
737.559692	0.000000
737.597473	0.000000
737.635315	0.000000
737.673157	0.000000
737.710999	0.000000
737.748840	0.000000
737.786621	0.000000
737.824463	0.000000
737.862305	0.000000
737.900085	0.000000
737.937927	0.000000
737.975769	0.000000
738.013550	0.000000
738.051392	0.000000
738.089233	0.000000
738.127014	0.000000
738.164856	0.000000
738.202698	0.000000
738.240479	0.000000
738.278320	0.000000
738.316162	0.000000
738.353943	0.000000
738.391785	0.000000
738.429565	0.000000
738.467407	0.000000
738.505188	0.000000
738.542969	0.000000
738.580811	0.000000
738.618652	0.000000
738.656372	0.000000
738.694214	0.000000
738.732056	0.000000
738.769836	0.000000
738.807617	0.000000
738.845459	0.000000
738.883240	0.000000
738.921021	0.000000
738.958862	0.000000
738.996582	0.000000
739.034424	0.000000
739.072205	0.000000
739.109985	0.000000
739.147827	0.000000
739.185547	0.000000
739.223389	0.000000
739.261169	0.000000
739.298889	0.000000
739.336731	0.000000
739.374512	0.000000
739.412292	0.000000
739.450073	0.000000
739.487854	0.000000
739.525635	0.000000
739.563416	0.000000
739.601135	0.000000
739.638977	0.000000
739.676758	0.000000
739.714478	0.000000
739.752258	0.000000
739.790100	0.000000
739.827820	0.000000
739.865601	0.000000
739.903381	0.000000
739.941101	0.000000
739.978882	192.500000
740.016724	186.400000
740.054443	194.100000
740.092224	185.900000
740.130005	185.500000
740.167725	186.000000
740.205505	185.100000
740.243225	196.100000
740.281006	189.700000
740.318787	180.500000
740.356506	193.400000
740.394287	193.500000
740.432068	185.000000
740.469727	180.600000
740.507507	193.000000
740.545288	187.400000
740.583008	190.700000
740.620789	188.500000
740.658569	180.500000
740.696228	188.400000
740.734009	193.600000
740.771790	177.400000
740.809509	191.300000
740.847229	185.000000
740.884949	184.500000
740.922729	182.200000
740.960449	187.200000
740.998169	183.100000
741.035950	185.200000
741.073669	190.200000
741.111389	190.100000
741.149170	198.300000
741.186890	198.800000
741.224609	193.600000
741.262329	191.700000
741.300110	199.900000
741.337769	182.900000
741.375549	183.900000
741.413208	190.400000
741.450989	185.300000
741.488708	187.000000
741.526367	187.200000
741.564148	191.900000
741.601868	192.900000
741.639526	188.700000
741.677307	190.700000
741.715027	191.300000
741.752686	184.900000
741.790466	194.600000
741.828186	192.800000
741.865845	183.200000
741.903564	180.800000
741.941345	188.600000
741.979004	185.600000
742.016724	192.200000
742.054382	190.900000
742.092102	193.300000
742.129822	181.100000
742.167480	187.000000
742.205200	187.400000
742.242920	190.600000
742.280640	193.500000
742.318359	184.200000
742.356079	186.200000
742.393738	192.000000
742.431396	187.700000
742.469116	192.500000
742.506775	178.500000
742.544495	191.100000
742.582214	191.600000
742.619873	185.400000
742.657593	195.200000
742.695251	192.200000
742.732971	188.800000
742.770630	190.800000
742.808289	188.900000
742.846008	188.700000
742.883728	191.300000
742.921326	189.700000
742.959045	185.600000
742.996765	189.200000
743.034424	187.500000
743.072083	187.300000
743.109802	188.700000
743.147400	182.800000
743.185120	190.400000
743.222839	188.700000
743.260437	194.500000
743.298157	190.300000
743.335754	182.400000
743.373474	188.000000
743.411133	180.500000
743.448792	188.200000
743.486450	188.100000
743.524170	181.500000
743.561768	190.100000
743.599487	196.100000
743.637146	200.000000
743.674744	188.000000
743.712463	186.200000
743.750122	191.200000
743.787720	191.400000
743.825439	186.200000
743.863037	186.400000
743.900696	189.200000
743.938416	214.300000
743.976013	188.600000
744.013672	197.600000
744.051331	193.300000
744.088928	197.700000
744.126587	195.000000
744.164307	188.600000
744.201904	186.400000
744.239563	191.600000
744.277222	190.900000
744.314819	189.100000
744.352478	195.800000
744.390137	190.400000
744.427734	190.800000
744.465393	185.600000
744.502991	186.000000
744.540649	191.600000
744.578308	189.700000
744.615906	183.200000
744.653564	178.100000
744.691223	192.400000
744.728821	181.600000
744.766418	189.200000
744.804077	190.800000
744.841675	185.600000
744.879333	183.100000
744.916992	187.200000
744.954529	186.600000
744.992187	194.100000
745.029785	187.800000
745.067444	185.400000
745.105042	188.600000
745.142639	192.000000
745.180298	198.600000
745.217896	187.700000
745.255493	187.500000
745.293152	194.300000
745.330750	193.500000
745.368347	197.000000
745.405945	192.200000
745.443604	190.000000
745.481140	192.300000
745.518799	188.000000
745.556396	192.300000
745.593994	193.500000
745.631592	188.600000
745.669189	184.800000
745.706787	191.200000
745.744385	186.300000
745.781982	190.800000
745.819580	187.200000
745.857178	189.400000
745.894775	190.100000
745.932373	190.000000
745.969971	189.800000
746.007568	180.900000
746.045166	197.400000
746.082764	193.900000
746.120300	191.400000
746.157898	191.200000
746.195557	187.200000
746.233093	183.500000
746.270691	190.600000
746.308228	190.100000
746.345825	192.500000
746.383423	192.300000
746.420959	185.000000
746.458557	186.300000
746.496155	187.100000
746.533691	188.900000
746.571289	184.100000
746.608887	189.400000
746.646423	189.800000
746.684021	188.500000
746.721619	186.600000
746.759155	189.200000
746.796753	183.000000
746.834351	182.400000
746.871826	184.900000
746.909424	196.300000
746.946960	191.800000
746.984558	187.200000
747.022156	187.100000
747.059631	196.400000
747.097229	190.600000
747.134827	187.500000
747.172363	196.900000
747.209900	192.600000
747.247498	185.900000
747.285034	196.200000
747.322571	197.000000
747.360168	188.500000
747.397644	183.200000
747.435242	193.200000
747.472778	195.400000
747.510315	187.300000
747.547913	186.700000
747.585388	195.800000
747.622925	188.600000
747.660522	181.400000
747.697998	185.400000
747.735596	188.900000
747.773132	186.700000
747.810669	190.000000
747.848206	193.400000
747.885742	183.900000
747.923279	183.300000
747.960815	191.400000
747.998352	188.500000
748.035889	194.300000
748.073425	191.500000
748.110901	185.700000
748.148437	184.700000
748.185974	190.200000
748.223511	199.100000
748.261047	191.100000
748.298584	191.700000
748.336060	187.600000
748.373596	191.700000
748.411133	209.000000
748.448608	185.900000
748.486145	192.600000
748.523682	196.500000
748.561218	195.400000
748.598755	189.800000
748.636292	192.800000
748.673706	187.700000
748.711243	196.300000
748.748718	191.600000
748.786255	188.700000
748.823792	188.700000
748.861267	184.600000
748.898804	192.400000
748.936340	192.200000
748.973816	188.400000
749.011292	194.600000
749.048828	190.700000
749.086304	193.300000
749.123840	202.000000
749.161316	185.500000
749.198792	200.600000
749.236328	196.000000
749.273743	190.800000
749.311279	188.300000
749.348816	191.300000
749.386230	189.800000
749.423767	178.000000
749.461304	191.700000
749.498718	190.400000
749.536255	195.000000
749.573730	203.200000
749.611206	195.400000
749.648682	188.300000
749.686218	189.600000
749.723633	193.200000
749.761169	186.400000
749.798645	184.900000
749.836060	188.000000
749.873596	186.900000
749.911011	189.500000
749.948547	195.200000
749.986023	188.700000
750.023437	188.800000
750.060913	182.700000
750.098450	183.300000
750.135864	187.000000
750.173340	189.700000
750.210815	192.100000
750.248291	183.100000
750.285767	189.600000
750.323242	195.700000
750.360657	190.300000
750.398132	184.700000
750.435608	194.200000
750.473022	184.500000
750.510498	184.900000
750.547974	185.700000
750.585449	186.000000
750.622925	178.300000
750.660339	198.700000
750.697815	190.400000
750.735291	189.900000
750.772644	191.100000
750.810120	189.800000
750.847595	192.600000
750.885010	185.400000
750.922485	197.700000
750.959961	187.900000
750.997375	195.900000
751.034851	194.400000
751.072266	193.500000
751.109680	182.500000
751.147156	195.500000
751.184570	192.000000
751.221985	190.900000
751.259460	182.000000
751.296875	189.400000
751.334290	189.400000
751.371765	192.200000
751.409180	192.900000
751.446594	195.900000
751.484070	192.100000
751.521423	190.700000
751.558899	191.600000
751.596375	196.000000
751.633728	196.100000
751.671204	200.800000
751.708618	184.300000
751.746033	190.000000
751.783447	184.000000
751.820801	185.500000
751.858276	192.000000
751.895691	189.100000
751.933105	187.100000
751.970520	183.100000
752.007935	186.800000
752.045349	194.100000
752.082764	189.100000
752.120178	187.000000
752.157532	185.700000
752.195007	186.700000
752.232422	191.300000
752.269775	195.100000
752.307190	192.900000
752.344543	185.300000
752.382019	186.800000
752.419434	187.700000
752.456787	191.200000
752.494202	193.600000
752.531616	190.400000
752.568970	193.400000
752.606384	189.900000
752.643799	189.700000
752.681152	199.100000
752.718567	193.000000
752.755981	182.100000
752.793335	193.000000
752.830750	181.500000
752.868164	196.900000
752.905518	184.600000
752.942932	194.600000
752.980225	185.600000
753.017639	193.100000
753.055054	187.400000
753.092407	192.900000
753.129822	195.800000
753.167175	199.200000
753.204529	189.400000
753.241943	186.900000
753.279358	184.300000
753.316650	194.800000
753.354065	192.100000
753.391479	193.500000
753.428772	197.500000
753.466187	193.400000
753.503479	183.300000
753.540894	188.800000
753.578308	183.700000
753.615601	185.700000
753.653015	190.200000
753.690369	188.100000
753.727722	184.900000
753.765076	183.000000
753.802490	185.100000
753.839783	180.000000
753.877136	186.400000
753.914551	205.400000
753.951843	183.500000
753.989258	192.900000
754.026611	189.000000
754.063904	192.500000
754.101257	184.200000
754.138611	182.200000
754.175964	189.700000
754.213318	201.400000
754.250610	182.400000
754.288025	186.600000
754.325378	183.100000
754.362671	195.600000
754.400024	187.300000
754.437378	199.400000
754.474670	197.600000
754.512085	186.000000
754.549438	190.200000
754.586731	188.200000
754.624084	187.800000
754.661438	185.000000
754.698730	198.600000
754.736084	187.500000
754.773376	187.900000
754.810730	192.400000
754.848083	188.400000
754.885315	193.800000
754.922668	182.800000
754.960022	184.500000
754.997314	194.400000
755.034668	189.900000
755.072021	191.400000
755.109253	188.300000
755.146606	197.700000
755.183960	188.000000
755.221252	198.400000
755.258545	194.700000
755.295898	196.000000
755.333191	196.300000
755.370544	193.700000
755.407776	190.600000
755.445129	191.400000
755.482422	195.100000
755.519714	187.700000
755.557068	183.200000
755.594360	182.900000
755.631653	195.700000
755.668945	200.100000
755.706299	192.500000
755.743530	202.400000
755.780884	198.500000
755.818176	196.200000
755.855408	194.900000
755.892761	194.100000
755.930054	192.700000
755.967346	193.000000
756.004639	195.700000
756.041870	192.400000
756.079224	196.000000
756.116516	188.400000
756.153748	196.100000
756.191040	199.500000
756.228394	195.700000
756.265625	188.500000
756.302917	192.900000
756.340210	189.700000
756.377441	198.500000
756.414795	199.900000
756.452087	193.000000
756.489319	188.000000
756.526611	195.700000
756.563843	194.800000
756.601135	204.200000
756.638428	201.800000
756.675659	194.100000
756.712952	198.800000
756.750244	197.000000
756.787476	195.200000
756.824768	203.900000
756.862061	191.700000
756.899292	241.100000
756.936584	199.500000
756.973816	206.700000
757.011047	206.900000
757.048340	197.300000
757.085632	195.600000
757.122864	213.100000
757.160156	194.500000
757.197327	198.400000
757.234619	200.800000
757.271912	196.200000
757.309082	202.000000
757.346375	193.500000
757.383667	202.600000
757.420837	198.200000
757.458130	197.600000
757.495422	195.600000
757.532593	198.600000
757.569885	189.900000
757.607117	193.800000
757.644348	200.600000
757.681580	210.900000
757.718811	186.100000
757.756042	197.300000
757.793335	193.400000
757.830505	200.000000
757.867798	196.000000
757.905029	195.000000
757.942200	200.500000
757.979492	193.400000
758.016724	197.100000
758.053894	196.800000
758.091187	217.500000
758.128418	199.800000
758.165588	198.900000
758.202820	210.000000
758.240112	201.300000
758.277283	211.600000
758.314514	201.000000
758.351685	198.600000
758.388916	209.600000
758.426147	209.000000
758.463379	210.700000
758.500610	204.900000
758.537842	202.400000
758.575012	209.300000
758.612244	198.800000
758.649475	214.800000
758.686646	196.300000
758.723877	211.100000
758.761108	211.300000
758.798279	203.500000
758.835510	205.400000
758.872742	210.400000
758.909851	205.800000
758.947083	205.900000
758.984253	206.700000
759.021484	209.900000
759.058716	209.500000
759.095886	209.900000
759.133057	204.100000
759.170288	208.100000
759.207458	201.400000
759.244690	217.300000
759.281860	214.700000
759.319031	206.300000
759.356262	204.100000
759.393433	203.800000
759.430603	205.000000
759.467773	205.500000
759.505005	211.900000
759.542175	211.300000
759.579346	205.100000
759.616516	207.500000
759.653687	209.100000
759.690918	201.900000
759.728027	207.000000
759.765259	208.400000
759.802429	210.500000
759.839539	211.600000
759.876770	215.000000
759.913940	217.600000
759.951111	211.100000
759.988281	209.500000
760.025452	205.000000
760.062561	205.300000
760.099792	217.000000
760.136963	212.300000
760.174072	207.800000
760.211243	203.300000
760.248413	204.800000
760.285583	205.700000
760.322754	219.900000
760.359863	216.900000
760.397034	217.300000
760.434204	208.900000
760.471375	210.600000
760.508545	209.200000
760.545715	209.300000
760.582825	206.900000
760.619995	216.900000
760.657166	205.400000
760.694275	218.100000
760.731445	213.700000
760.768555	214.500000
760.805664	215.800000
760.842834	215.200000
760.879944	216.700000
760.917114	216.100000
760.954285	211.800000
760.991394	207.700000
761.028564	218.800000
761.065674	218.100000
761.102783	210.800000
761.139954	218.800000
761.177124	218.700000
761.214172	220.500000
761.251343	212.000000
761.288452	214.700000
761.325562	218.400000
761.362732	212.800000
761.399841	213.000000
761.436951	216.800000
761.474121	213.500000
761.511169	217.000000
761.548340	219.800000
761.585449	219.700000
761.622559	221.500000
761.659668	219.200000
761.696838	225.500000
761.733887	221.200000
761.771057	217.400000
761.808167	219.800000
761.845276	225.300000
761.882385	233.700000
761.919434	221.600000
761.956604	241.400000
761.993713	217.200000
762.030762	229.300000
762.067871	223.100000
762.105042	220.600000
762.142090	230.900000
762.179199	226.400000
762.216309	229.200000
762.253418	241.400000
762.290527	235.600000
762.327637	233.100000
762.364685	222.300000
762.401794	231.400000
762.438904	230.800000
762.475952	224.400000
762.513062	222.900000
762.550110	224.700000
762.587219	240.900000
762.624329	238.400000
762.661377	231.600000
762.698486	233.300000
762.735596	232.600000
762.772644	226.500000
762.809753	225.100000
762.846863	230.700000
762.883911	237.800000
762.921021	234.600000
762.958069	233.600000
762.995117	240.500000
763.032227	243.800000
763.069336	232.900000
763.106323	231.300000
763.143433	227.500000
763.180481	237.200000
763.217590	237.200000
763.254639	234.100000
763.291687	235.600000
763.328735	244.300000
763.365845	235.600000
763.402893	235.500000
763.439941	239.700000
763.477051	243.700000
763.514038	244.300000
763.551147	236.000000
763.588196	240.900000
763.625244	239.000000
763.662292	246.000000
763.699402	248.200000
763.736389	244.800000
763.773499	253.400000
763.810486	247.000000
763.847534	245.800000
763.884644	246.500000
763.921631	242.100000
763.958679	255.500000
763.995728	246.700000
764.032776	253.300000
764.069824	241.300000
764.106873	249.600000
764.143860	255.900000
764.180969	247.900000
764.218018	257.100000
764.255005	246.600000
764.292053	250.900000
764.329102	260.200000
764.366089	260.000000
764.403137	257.400000
764.440125	250.100000
764.477173	253.900000
764.514221	256.900000
764.551208	253.500000
764.588257	249.800000
764.625305	260.300000
764.662292	264.300000
764.699341	268.500000
764.736389	259.000000
764.773376	275.600000
764.810425	262.100000
764.847473	270.200000
764.884399	266.300000
764.921448	274.900000
764.958435	271.900000
764.995483	262.200000
765.032532	276.400000
765.069458	263.000000
765.106506	264.800000
765.143555	262.400000
765.180481	268.100000
765.217529	276.100000
765.254578	262.000000
765.291504	270.600000
765.328552	267.600000
765.365540	265.000000
765.402527	280.200000
765.439575	265.500000
765.476501	263.000000
765.513550	263.200000
765.550537	267.600000
765.587463	276.200000
765.624512	265.700000
765.661499	259.600000
765.698486	276.700000
765.735474	267.700000
765.772461	268.100000
765.809448	275.800000
765.846436	275.200000
765.883423	277.700000
765.920410	272.900000
765.957397	270.000000
765.994385	273.700000
766.031311	283.900000
766.068359	277.300000
766.105286	277.900000
766.142273	283.800000
766.179260	278.400000
766.216187	273.600000
766.253174	270.300000
766.290161	279.800000
766.327148	282.200000
766.364136	283.200000
766.401123	295.700000
766.438049	277.100000
766.475037	292.000000
766.512024	288.400000
766.548950	300.000000
766.585937	294.500000
766.622864	287.500000
766.659790	289.800000
766.696777	277.700000
766.733704	293.700000
766.770691	284.100000
766.807678	300.300000
766.844604	294.000000
766.881531	294.400000
766.918518	300.000000
766.955444	300.600000
766.992432	292.600000
767.029358	296.300000
767.066284	300.900000
767.103271	297.600000
767.140198	326.000000
767.177124	313.800000
767.214050	304.600000
767.251038	305.000000
767.287964	300.500000
767.324890	300.100000
767.361816	304.100000
767.398743	310.700000
767.435730	304.900000
767.472595	308.300000
767.509583	315.500000
767.546509	301.900000
767.583374	310.100000
767.620361	303.100000
767.657288	307.700000
767.694214	310.100000
767.731140	307.900000
767.768066	307.000000
767.804993	315.300000
767.841919	305.500000
767.878845	314.000000
767.915710	320.900000
767.952698	315.400000
767.989563	317.900000
768.026489	321.500000
768.063416	314.400000
768.100281	314.300000
768.137207	329.000000
768.174133	326.800000
768.211060	327.500000
768.247986	324.000000
768.284912	323.100000
768.321777	323.900000
768.358704	323.400000
768.395630	329.600000
768.432495	321.800000
768.469421	331.200000
768.506348	333.800000
768.543152	341.100000
768.580078	337.900000
768.616943	339.200000
768.653870	340.400000
768.690796	339.900000
768.727661	336.200000
768.764587	338.600000
768.801453	334.500000
768.838318	345.800000
768.875244	345.300000
768.912109	351.700000
768.948975	341.800000
768.985901	344.400000
769.022766	344.300000
769.059631	349.900000
769.096558	345.600000
769.133362	347.400000
769.170288	348.400000
769.207214	348.500000
769.244019	354.000000
769.280945	355.300000
769.317810	363.300000
769.354675	358.900000
769.391541	368.800000
769.428406	363.500000
769.465271	372.700000
769.502136	363.200000
769.539062	366.900000
769.575867	366.800000
769.612732	366.700000
769.649597	375.100000
769.686462	378.000000
769.723328	372.100000
769.760193	372.000000
769.797058	373.100000
769.833923	382.300000
769.870728	378.200000
769.907593	383.700000
769.944519	384.100000
769.981323	385.400000
770.018188	385.500000
770.055054	384.000000
770.091858	381.900000
770.128723	393.700000
770.165588	400.600000
770.202393	385.500000
770.239258	397.600000
770.276062	395.200000
770.312927	394.600000
770.349792	400.400000
770.386597	400.000000
770.423462	407.800000
770.460327	416.800000
770.497131	400.600000
770.533997	395.000000
770.570862	410.000000
770.607605	410.600000
770.644470	404.900000
770.681335	408.500000
770.718140	406.900000
770.754944	402.000000
770.791809	402.300000
770.828613	404.800000
770.865479	406.200000
770.902222	417.400000
770.939087	410.200000
770.975952	401.500000
771.012695	406.800000
771.049561	423.700000
771.086365	412.200000
771.123169	409.100000
771.159973	411.600000
771.196838	411.800000
771.233582	416.400000
771.270447	416.400000
771.307251	415.700000
771.344055	414.400000
771.380859	417.500000
771.417664	411.500000
771.454468	421.700000
771.491272	423.000000
771.528076	422.800000
771.564880	420.100000
771.601685	429.400000
771.638428	420.400000
771.675293	427.100000
771.712097	415.500000
771.748840	433.800000
771.785645	424.200000
771.822449	427.500000
771.859253	430.000000
771.896057	428.700000
771.932861	441.200000
771.969604	429.100000
772.006409	425.400000
772.043213	437.300000
772.079956	437.500000
772.116760	428.200000
772.153503	434.700000
772.190308	442.300000
772.227112	435.800000
772.263855	432.500000
772.300659	439.500000
772.337463	447.400000
772.374207	439.700000
772.411011	435.200000
772.447754	439.700000
772.484497	456.500000
772.521301	447.300000
772.558105	447.900000
772.594849	449.300000
772.631592	455.000000
772.668396	453.500000
772.705139	458.500000
772.741882	454.700000
772.778625	466.400000
772.815430	468.800000
772.852173	462.800000
772.888916	473.700000
772.925720	476.100000
772.962463	481.700000
772.999207	472.300000
773.035950	481.500000
773.072754	480.300000
773.109436	475.600000
773.146240	480.800000
773.182922	477.800000
773.219727	488.100000
773.256470	487.600000
773.293152	476.600000
773.329956	482.900000
773.366699	491.300000
773.403381	480.000000
773.440186	491.200000
773.476929	496.700000
773.513611	486.700000
773.550354	490.700000
773.587158	489.900000
773.623840	485.900000
773.660583	495.400000
773.697327	510.200000
773.734009	499.400000
773.770813	501.100000
773.807495	498.700000
773.844238	500.200000
773.880981	516.100000
773.917664	514.400000
773.954407	523.400000
773.991150	511.300000
774.027832	522.200000
774.064575	512.600000
774.101318	522.100000
774.138000	528.800000
774.174744	525.000000
774.211487	526.800000
774.248108	517.100000
774.284851	515.200000
774.321594	528.600000
774.358276	529.900000
774.395020	542.600000
774.431702	538.900000
774.468384	528.200000
774.505127	526.200000
774.541809	542.000000
774.578491	549.200000
774.615234	553.600000
774.651917	542.800000
774.688599	551.800000
774.725342	556.800000
774.762024	554.400000
774.798706	560.200000
774.835449	560.200000
774.872070	570.800000
774.908813	569.000000
774.945496	564.100000
774.982178	564.700000
775.018860	569.000000
775.055542	573.700000
775.092224	576.700000
775.128967	587.600000
775.165588	578.800000
775.202271	572.800000
775.239014	585.000000
775.275635	589.400000
775.312317	585.700000
775.349060	591.700000
775.385681	591.700000
775.422363	583.200000
775.459045	591.800000
775.495667	595.700000
775.532410	603.100000
775.569092	604.500000
775.605713	605.400000
775.642395	601.600000
775.679016	606.400000
775.715698	606.500000
775.752380	613.000000
775.789001	608.200000
775.825684	608.900000
775.862366	614.800000
775.898987	628.800000
775.935669	611.800000
775.972351	635.200000
776.008972	631.200000
776.045654	631.100000
776.082336	626.500000
776.118958	623.200000
776.155640	628.800000
776.192322	640.500000
776.228882	641.000000
776.265564	642.400000
776.302185	638.300000
776.338867	643.400000
776.375488	628.400000
776.412109	641.400000
776.448792	643.400000
776.485413	657.000000
776.522034	644.800000
776.558716	636.800000
776.595337	637.200000
776.631958	644.500000
776.668579	647.400000
776.705261	655.300000
776.741882	649.300000
776.778503	650.200000
776.815186	643.300000
776.851746	655.300000
776.888367	652.100000
776.924988	664.500000
776.961609	656.800000
776.998291	657.200000
777.034851	649.300000
777.071472	660.200000
777.108154	657.300000
777.144714	669.000000
777.181335	670.500000
777.218018	663.200000
777.254578	666.700000
777.291199	662.000000
777.327759	668.500000
777.364380	678.700000
777.401062	680.600000
777.437622	692.900000
777.474243	678.800000
777.510864	684.300000
777.547424	679.200000
777.584045	684.100000
777.620667	683.300000
777.657227	684.400000
777.693848	690.600000
777.730469	706.200000
777.767029	693.300000
777.803650	698.000000
777.840271	694.700000
777.876831	693.200000
777.913452	700.400000
777.950012	680.900000
777.986633	685.700000
778.023193	681.900000
778.059753	682.900000
778.096375	680.500000
778.132996	697.700000
778.169556	690.800000
778.206116	693.500000
778.242737	689.300000
778.279297	699.300000
778.315857	692.000000
778.352478	701.200000
778.389038	715.600000
778.425598	715.400000
778.462219	718.200000
778.498718	718.600000
778.535339	724.200000
778.571838	728.700000
778.608459	733.900000
778.645020	720.700000
778.681580	730.400000
778.718140	737.600000
778.754761	726.700000
778.791260	733.600000
778.827881	744.400000
778.864441	738.800000
778.900940	746.800000
778.937561	748.800000
778.974121	747.400000
779.010620	735.300000
779.047241	741.200000
779.083801	753.500000
779.120300	748.900000
779.156860	754.500000
779.193359	756.100000
779.229980	757.800000
779.266541	764.400000
779.303040	763.700000
779.339600	755.000000
779.376160	751.300000
779.412659	762.200000
779.449219	758.200000
779.485779	768.700000
779.522278	764.100000
779.558838	771.800000
779.595398	775.400000
779.631897	773.500000
779.668457	763.700000
779.705017	775.400000
779.741516	767.300000
779.778076	766.000000
779.814575	771.800000
779.851074	784.800000
779.887634	781.800000
779.924133	787.100000
779.960693	775.500000
779.997253	788.600000
780.033691	794.000000
780.070251	800.300000
780.106812	813.100000
780.143250	812.000000
780.179810	804.100000
780.216370	806.100000
780.252808	818.500000
780.289368	823.500000
780.325867	830.200000
780.362366	830.300000
780.398865	839.700000
780.435364	833.100000
780.471863	840.100000
780.508423	838.500000
780.544861	844.100000
780.581421	848.200000
780.617920	839.600000
780.654419	836.500000
780.690918	849.900000
780.727417	850.700000
780.763916	846.500000
780.800415	856.500000
780.836914	843.500000
780.873352	854.100000
780.909912	842.100000
780.946411	855.900000
780.982849	862.100000
781.019348	881.500000
781.055786	872.100000
781.092346	870.400000
781.128845	877.700000
781.165283	884.500000
781.201782	890.400000
781.238281	894.900000
781.274719	905.400000
781.311218	896.200000
781.347717	908.900000
781.384155	896.700000
781.420654	904.000000
781.457092	914.000000
781.493591	917.100000
781.530090	909.100000
781.566528	911.300000
781.602966	913.800000
781.639465	909.400000
781.675903	909.100000
781.712402	916.300000
781.748901	922.300000
781.785278	918.800000
781.821777	918.300000
781.858276	919.100000
781.894714	936.800000
781.931152	925.200000
781.967651	936.400000
782.004089	928.000000
782.040527	938.700000
782.076965	940.300000
782.113403	937.800000
782.149902	936.000000
782.186340	928.600000
782.222778	946.000000
782.259277	933.600000
782.295654	933.900000
782.332092	941.800000
782.368591	938.700000
782.404968	934.900000
782.441467	944.600000
782.477905	949.500000
782.514282	933.700000
782.550781	954.300000
782.587219	953.100000
782.623596	961.700000
782.660095	958.700000
782.696472	967.400000
782.732910	964.900000
782.769348	967.500000
782.805786	989.100000
782.842224	979.200000
782.878662	973.600000
782.915039	982.600000
782.951477	979.800000
782.987915	978.700000
783.024292	989.200000
783.060730	984.700000
783.097168	974.100000
783.133545	968.500000
783.169983	962.200000
783.206421	957.200000
783.242798	953.800000
783.279236	945.200000
783.315613	945.900000
783.352051	943.000000
783.388489	937.500000
783.424866	928.900000
783.461304	930.800000
783.497681	935.800000
783.534058	935.800000
783.570496	929.200000
783.606934	925.500000
783.643250	931.300000
783.679687	945.900000
783.716125	937.200000
783.752441	949.200000
783.788879	971.300000
783.825317	975.800000
783.861633	979.700000
783.898071	981.900000
783.934448	1002.900000
783.970825	1016.500000
784.007263	1016.600000
784.043579	1014.000000
784.080017	1023.800000
784.116394	1025.300000
784.152710	1021.100000
784.189148	1028.500000
784.225525	1036.300000
784.261902	1018.500000
784.298279	1017.300000
784.334656	1012.300000
784.371033	1002.700000
784.407410	1007.500000
784.443787	993.900000
784.480164	980.400000
784.516541	963.500000
784.552856	970.000000
784.589233	963.600000
784.625610	963.200000
784.661987	998.200000
784.698364	984.700000
784.734741	980.800000
784.771057	979.300000
784.807434	981.700000
784.843811	1003.800000
784.880127	999.300000
784.916504	1033.300000
784.952881	1041.100000
784.989197	1039.700000
785.025574	1037.200000
785.061951	1042.600000
785.098267	1065.300000
785.134644	1062.600000
785.170959	1069.200000
785.207275	1071.200000
785.243652	1061.300000
785.279968	1048.100000
785.316345	1052.600000
785.352722	1052.300000
785.388977	1048.700000
785.425354	1031.900000
785.461731	1011.400000
785.498047	1002.900000
785.534363	993.000000
785.570679	993.600000
785.606995	999.400000
785.643372	1005.400000
785.679687	997.400000
785.716003	985.300000
785.752380	984.400000
785.788635	997.900000
785.825012	1016.300000
785.861328	1033.600000
785.897644	1023.300000
785.933960	1041.300000
785.970337	1052.600000
786.006592	1063.300000
786.042908	1074.600000
786.079285	1089.600000
786.115540	1102.800000
786.151855	1105.600000
786.188171	1103.400000
786.224487	1095.300000
786.260803	1092.800000
786.297119	1108.700000
786.333435	1110.700000
786.369751	1100.300000
786.406006	1109.400000
786.442322	1087.300000
786.478638	1071.000000
786.514954	1081.900000
786.551270	1082.200000
786.587585	1094.400000
786.623840	1084.200000
786.660156	1075.000000
786.696472	1062.400000
786.732727	1049.800000
786.769043	1062.100000
786.805298	1059.100000
786.841614	1066.900000
786.877930	1080.200000
786.914124	1067.500000
786.950439	1083.500000
786.986755	1094.900000
787.023010	1108.700000
787.059326	1124.500000
787.095642	1133.400000
787.131836	1150.800000
787.168152	1132.300000
787.204468	1133.700000
787.240723	1152.300000
787.276978	1171.400000
787.313293	1183.600000
787.349548	1180.400000
787.385803	1166.600000
787.422058	1165.900000
787.458313	1158.800000
787.494629	1159.100000
787.530823	1163.600000
787.567139	1153.900000
787.603455	1149.000000
787.639648	1135.300000
787.675903	1121.400000
787.712219	1127.300000
787.748413	1127.500000
787.784729	1143.900000
787.820984	1129.600000
787.857178	1121.000000
787.893494	1114.500000
787.929749	1112.200000
787.965942	1124.000000
788.002258	1142.600000
788.038452	1149.200000
788.074707	1140.500000
788.110962	1153.500000
788.147217	1146.800000
788.183472	1156.500000
788.219727	1168.000000
788.255920	1193.800000
788.292175	1193.100000
788.328430	1188.700000
788.364624	1168.200000
788.400879	1156.100000
788.437134	1167.200000
788.473328	1172.300000
788.509583	1172.800000
788.545837	1164.200000
788.582031	1160.200000
788.618286	1151.200000
788.654480	1140.800000
788.690735	1157.500000
788.726990	1182.300000
788.763184	1181.700000
788.799377	1192.400000
788.835632	1175.800000
788.871826	1192.900000
788.908081	1182.800000
788.944336	1178.500000
788.980469	1201.300000
789.016724	1196.800000
789.052979	1191.500000
789.089111	1170.700000
789.125366	1169.300000
789.161621	1156.200000
789.197754	1175.700000
789.234009	1166.400000
789.270142	1153.100000
789.306396	1149.800000
789.342590	1141.100000
789.378784	1111.600000
789.414978	1113.700000
789.451233	1133.700000
789.487366	1138.200000
789.523621	1145.900000
789.559814	1140.700000
789.595947	1119.400000
789.632202	1126.800000
789.668335	1137.900000
789.704529	1158.800000
789.740784	1190.500000
789.776917	1194.200000
789.813110	1178.800000
789.849304	1192.400000
789.885498	1184.800000
789.921692	1203.000000
789.957886	1210.200000
789.994019	1216.900000
790.030212	1210.900000
790.066406	1208.400000
790.102539	1204.400000
790.138733	1214.200000
790.174927	1209.700000
790.211060	1227.000000
790.247253	1219.800000
790.283386	1203.600000
790.319580	1185.000000
790.355774	1168.800000
790.391907	1170.600000
790.428101	1194.600000
790.464294	1194.900000
790.500427	1196.200000
790.536621	1177.800000
790.572754	1161.000000
790.608887	1159.700000
790.645081	1167.300000
790.681274	1185.000000
790.717346	1188.200000
790.753540	1178.600000
790.789734	1146.500000
790.825867	1124.000000
790.862000	1097.300000
790.898132	1069.700000
790.934265	1050.100000
790.970459	1067.200000
791.006592	1106.100000
791.042725	1165.500000
791.078918	1199.000000
791.114990	1214.300000
791.151184	1232.100000
791.187317	1265.300000
791.223389	1263.900000
791.259583	1247.400000
791.295715	1252.700000
791.331848	1255.900000
791.367981	1263.600000
791.404114	1275.500000
791.440247	1274.400000
791.476379	1274.500000
791.512451	1252.600000
791.548584	1252.400000
791.584778	1246.700000
791.620850	1267.800000
791.656982	1272.900000
791.693115	1273.700000
791.729187	1268.300000
791.765381	1261.300000
791.801514	1265.100000
791.837585	1270.100000
791.873718	1274.600000
791.909851	1294.500000
791.945923	1305.800000
791.982056	1272.400000
792.018188	1271.800000
792.054260	1269.200000
792.090393	1265.400000
792.126465	1263.900000
792.162598	1275.000000
792.198669	1264.500000
792.234741	1260.400000
792.270874	1248.100000
792.307007	1235.300000
792.343079	1240.000000
792.379150	1258.500000
792.415283	1245.000000
792.451355	1249.600000
792.487488	1224.200000
792.523560	1219.200000
792.559631	1217.700000
792.595764	1212.100000
792.631836	1222.000000
792.667908	1237.200000
792.703979	1221.500000
792.740051	1217.800000
792.776184	1219.900000
792.812256	1218.900000
792.848328	1226.600000
792.884399	1239.800000
792.920471	1241.800000
792.956543	1237.600000
792.992615	1235.100000
793.028748	1227.300000
793.064758	1228.700000
793.100830	1251.000000
793.136963	1278.100000
793.172974	1271.400000
793.209045	1265.800000
793.245178	1278.700000
793.281189	1257.700000
793.317261	1269.800000
793.353271	1277.500000
793.389404	1291.900000
793.425476	1287.300000
793.461487	1278.000000
793.497559	1258.100000
793.533630	1257.300000
793.569641	1257.300000
793.605713	1263.200000
793.641785	1271.800000
793.677795	1280.000000
793.713867	1274.200000
793.749878	1269.600000
793.785950	1284.200000
793.822021	1291.200000
793.858032	1275.600000
793.894104	1290.200000
793.930176	1279.800000
793.966187	1289.100000
794.002258	1271.800000
794.038269	1268.900000
794.074280	1264.600000
794.110352	1292.500000
794.146423	1270.000000
794.182373	1272.100000
794.218445	1268.800000
794.254517	1251.400000
794.290466	1231.300000
794.326538	1243.200000
794.362549	1250.900000
794.398560	1250.400000
794.434631	1263.900000
794.470581	1230.300000
794.506653	1224.800000
794.542664	1223.100000
794.578674	1224.500000
794.614685	1219.800000
794.650757	1219.400000
794.686707	1214.300000
794.722778	1204.900000
794.758789	1205.200000
794.794739	1211.400000
794.830811	1244.300000
794.866821	1272.200000
794.902771	1266.400000
794.938843	1259.200000
794.974792	1257.300000
795.010803	1250.400000
795.046814	1255.800000
795.082825	1241.000000
795.118835	1260.900000
795.154846	1237.300000
795.190796	1243.700000
795.226807	1214.600000
795.262817	1221.800000
795.298767	1218.400000
795.334778	1230.000000
795.370850	1225.400000
795.406799	1226.200000
795.442810	1203.500000
795.478821	1194.000000
795.514709	1188.400000
795.550720	1205.000000
795.586670	1194.600000
795.622681	1209.000000
795.658691	1208.900000
795.694641	1205.100000
795.730652	1186.500000
795.766663	1193.600000
795.802551	1198.700000
795.838562	1219.100000
795.874573	1209.600000
795.910522	1201.200000
795.946472	1189.100000
795.982483	1193.000000
796.018433	1190.100000
796.054382	1202.600000
796.090393	1196.200000
796.126282	1191.800000
796.162292	1180.400000
796.198242	1170.400000
796.234192	1162.900000
796.270203	1158.300000
796.306091	1172.400000
796.342041	1189.700000
796.378052	1180.600000
796.413940	1174.100000
796.449951	1172.700000
796.485901	1175.700000
796.521790	1183.400000
796.557800	1204.000000
796.593689	1205.900000
796.629639	1194.700000
796.665649	1185.700000
796.701599	1176.700000
796.737488	1167.200000
796.773437	1175.500000
796.809387	1177.800000
796.845337	1185.900000
796.881287	1173.800000
796.917175	1155.500000
796.953125	1152.800000
796.989075	1159.800000
797.024963	1160.100000
797.060913	1163.500000
797.096863	1162.900000
797.132751	1157.800000
797.168701	1133.100000
797.204590	1132.200000
797.240540	1134.700000
797.276489	1149.700000
797.312439	1160.800000
797.348328	1156.300000
797.384277	1140.700000
797.420166	1123.200000
797.456055	1124.400000
797.492004	1120.500000
797.527893	1136.700000
797.563843	1143.300000
797.599731	1134.700000
797.635620	1119.600000
797.671570	1128.200000
797.707520	1121.200000
797.743347	1122.800000
797.779297	1137.300000
797.815125	1139.300000
797.851074	1125.000000
797.887024	1111.200000
797.922913	1093.600000
797.958801	1106.400000
797.994690	1107.600000
798.030579	1118.500000
798.066467	1119.400000
798.102356	1108.100000
798.138245	1096.900000
798.174133	1085.400000
798.210083	1089.800000
798.245911	1111.200000
798.281799	1112.100000
798.317749	1107.300000
798.353577	1102.900000
798.389465	1090.200000
798.425293	1087.000000
798.461243	1085.800000
798.497131	1093.500000
798.532959	1102.700000
798.568848	1106.200000
798.604736	1092.100000
798.640564	1072.100000
798.676453	1069.300000
798.712402	1075.100000
798.748230	1080.300000
798.784119	1080.900000
798.820007	1090.200000
798.855835	1079.100000
798.891724	1072.800000
798.927551	1064.700000
798.963379	1071.700000
798.999268	1071.200000
799.035095	1068.700000
799.070984	1054.400000
799.106873	1046.800000
799.142700	1052.400000
799.178528	1044.100000
799.214417	1043.200000
799.250244	1063.900000
799.286133	1052.100000
799.321960	1048.300000
799.357788	1042.800000
799.393677	1039.600000
799.429504	1037.300000
799.465332	1037.400000
799.501221	1048.000000
799.537048	1050.100000
799.572876	1037.600000
799.608704	1039.300000
799.644531	1043.300000
799.680359	1047.500000
799.716248	1063.500000
799.752014	1069.900000
799.787903	1060.400000
799.823730	1055.400000
799.859558	1039.900000
799.895386	1044.100000
799.931213	1044.500000
799.967041	1038.800000
800.002869	1048.500000
800.038696	1057.700000
800.074463	1035.400000
800.110352	1030.200000
800.146179	1022.300000
800.181946	1030.200000
800.217773	1034.300000
800.253540	1029.500000
800.289429	1024.900000
800.325256	1012.700000
800.361023	1006.700000
800.396851	1011.100000
800.432678	1010.300000
800.468445	1005.800000
800.504272	1004.300000
800.540100	985.000000
800.575867	986.600000
800.611694	993.800000
800.647461	986.300000
800.683289	987.000000
800.719116	995.000000
800.754883	989.500000
800.790649	968.600000
800.826477	962.100000
800.862244	983.000000
800.898071	967.600000
800.933838	971.000000
800.969604	973.900000
801.005432	971.100000
801.041199	968.100000
801.076965	953.500000
801.112793	943.400000
801.148560	933.300000
801.184326	939.200000
801.220154	943.800000
801.255859	929.400000
801.291687	926.400000
801.327454	918.400000
801.363281	916.100000
801.398987	915.300000
801.434814	917.500000
801.470520	927.800000
801.506287	918.100000
801.542114	909.200000
801.577820	907.700000
801.613647	910.100000
801.649414	907.600000
801.685120	904.600000
801.720886	914.500000
801.756714	900.700000
801.792419	882.800000
801.828186	878.700000
801.863892	891.500000
801.899719	884.900000
801.935486	879.000000
801.971252	882.400000
802.006958	879.300000
802.042725	872.700000
802.078430	869.200000
802.114197	863.700000
802.149963	881.600000
802.185669	866.700000
802.221436	861.400000
802.257202	865.200000
802.292908	861.600000
802.328674	865.500000
802.364441	867.400000
802.400146	862.900000
802.435913	864.700000
802.471558	853.900000
802.507324	849.100000
802.543091	845.300000
802.578796	857.300000
802.614502	857.700000
802.650269	858.800000
802.685974	846.300000
802.721741	851.500000
802.757446	849.200000
802.793152	843.100000
802.828918	854.400000
802.864624	849.800000
802.900330	851.600000
802.936035	848.000000
802.971802	840.300000
803.007446	833.800000
803.043213	823.800000
803.078857	833.600000
803.114624	818.900000
803.150330	824.400000
803.185974	811.700000
803.221741	813.000000
803.257446	822.300000
803.293152	819.400000
803.328857	816.100000
803.364563	814.100000
803.400208	804.500000
803.435974	810.000000
803.471680	801.700000
803.507324	796.800000
803.543030	801.100000
803.578735	806.000000
803.614441	797.100000
803.650146	807.400000
803.685791	790.500000
803.721497	791.800000
803.757202	778.200000
803.792847	790.800000
803.828552	784.400000
803.864258	782.600000
803.899902	778.500000
803.935608	760.900000
803.971313	769.000000
804.006958	769.100000
804.042664	763.400000
804.078308	773.000000
804.113953	764.700000
804.149658	772.000000
804.185364	754.800000
804.221008	768.000000
804.256714	756.500000
804.292297	749.800000
804.328003	750.100000
804.363708	744.200000
804.399292	740.100000
804.434998	743.200000
804.470703	731.200000
804.506287	746.400000
804.541992	739.800000
804.577637	740.300000
804.613281	727.000000
804.648926	724.100000
804.684570	726.500000
804.720215	720.600000
804.755920	718.900000
804.791565	715.200000
804.827209	721.200000
804.862854	715.100000
804.898437	709.600000
804.934143	714.800000
804.969788	707.100000
805.005371	712.700000
805.041077	716.800000
805.076721	715.300000
805.112305	699.900000
805.147949	698.600000
805.183655	696.600000
805.219238	697.400000
805.254883	693.700000
805.290466	706.100000
805.326111	700.300000
805.361755	690.100000
805.397400	692.200000
805.432983	691.700000
805.468628	696.300000
805.504211	695.900000
805.539856	697.500000
805.575500	698.700000
805.611084	690.600000
805.646729	672.400000
805.682373	679.000000
805.717957	689.100000
805.753601	688.800000
805.789246	674.100000
805.824768	685.600000
805.860413	687.400000
805.895996	672.900000
805.931641	674.200000
805.967224	680.700000
806.002869	676.700000
806.038452	686.400000
806.074036	681.700000
806.109619	666.800000
806.145264	664.000000
806.180847	664.700000
806.216431	660.700000
806.252014	667.400000
806.287659	663.900000
806.323181	674.200000
806.358826	669.500000
806.394409	648.200000
806.429993	649.800000
806.465576	664.200000
806.501160	648.000000
806.536743	635.300000
806.572327	649.600000
806.607910	641.100000
806.643494	644.900000
806.679077	641.600000
806.714661	638.800000
806.750244	639.100000
806.785828	630.900000
806.821350	629.100000
806.856934	637.500000
806.892517	629.200000
806.928101	625.600000
806.963684	628.000000
806.999268	637.900000
807.034790	614.900000
807.070374	620.500000
807.105896	611.300000
807.141479	609.800000
807.177063	614.800000
807.212585	608.900000
807.248169	605.800000
807.283752	615.800000
807.319275	602.800000
807.354858	602.100000
807.390381	602.900000
807.425903	598.400000
807.461487	595.200000
807.497070	588.700000
807.532593	587.300000
807.568115	586.200000
807.603699	580.500000
807.639221	574.600000
807.674744	579.800000
807.710266	581.700000
807.745850	586.400000
807.781372	577.000000
807.816895	572.900000
807.852417	573.400000
807.888000	570.000000
807.923523	568.400000
807.959045	573.200000
807.994629	563.100000
808.030090	559.600000
808.065613	568.100000
808.101135	569.300000
808.136658	563.100000
808.172241	559.100000
808.207764	554.200000
808.243225	551.600000
808.278809	548.200000
808.314270	555.200000
808.349792	540.600000
808.385315	541.300000
808.420837	544.900000
808.456360	550.400000
808.491882	548.800000
808.527344	544.100000
808.562866	550.500000
808.598389	544.000000
808.633850	536.400000
808.669434	532.000000
808.704895	541.600000
808.740417	546.100000
808.775940	535.200000
808.811462	537.400000
808.846924	525.000000
808.882385	523.400000
808.917847	522.000000
808.953369	520.600000
808.988892	518.600000
809.024353	529.600000
809.059875	525.100000
809.095398	520.800000
809.130798	508.000000
809.166321	509.100000
809.201843	506.300000
809.237305	509.400000
809.272766	513.400000
809.308228	502.500000
809.343750	501.500000
809.379211	503.700000
809.414734	503.500000
809.450134	511.000000
809.485657	492.700000
809.521118	501.200000
809.556580	496.400000
809.592102	495.200000
809.627502	492.300000
809.663025	490.100000
809.698486	484.500000
809.733887	481.700000
809.769409	482.400000
809.804871	468.700000
809.840271	474.100000
809.875793	479.300000
809.911194	482.900000
809.946655	471.400000
809.982178	470.000000
810.017639	474.700000
810.053040	465.500000
810.088501	468.000000
810.123901	464.100000
810.159424	461.400000
810.194885	455.900000
810.230286	458.700000
810.265747	453.400000
810.301208	451.900000
810.336609	450.000000
810.372070	443.700000
810.407532	448.900000
810.442932	448.500000
810.478394	455.500000
810.513794	449.800000
810.549255	444.100000
810.584717	441.200000
810.620117	435.400000
810.655518	443.700000
810.690979	439.200000
810.726379	436.700000
810.761841	427.500000
810.797302	428.200000
810.832642	424.000000
810.868103	436.100000
810.903564	424.300000
810.938904	431.300000
810.974365	418.600000
811.009827	421.100000
811.045166	417.000000
811.080627	407.600000
811.115967	416.100000
811.151428	420.600000
811.186829	413.700000
811.222229	414.900000
811.257629	406.200000
811.293091	413.700000
811.328430	419.300000
811.363892	411.100000
811.399292	414.700000
811.434631	407.400000
811.470093	412.300000
811.505493	403.600000
811.540833	403.100000
811.576294	409.400000
811.611694	401.900000
811.647034	397.200000
811.682434	402.000000
811.717773	400.400000
811.753235	406.400000
811.788635	400.500000
811.823975	399.400000
811.859375	408.700000
811.894775	393.100000
811.930115	395.000000
811.965515	392.900000
812.000916	396.900000
812.036255	390.400000
812.071655	397.100000
812.106995	386.700000
812.142395	387.800000
812.177795	393.100000
812.213196	390.400000
812.248474	389.300000
812.283875	383.500000
812.319214	385.100000
812.354614	384.500000
812.390015	381.400000
812.425293	381.500000
812.460693	379.000000
812.496094	375.400000
812.531433	370.200000
812.566772	367.500000
812.602173	371.500000
812.637451	373.100000
812.672852	366.500000
812.708191	371.400000
812.743530	366.200000
812.778931	358.400000
812.814270	360.000000
812.849609	368.000000
812.884949	360.800000
812.920227	355.700000
812.955627	371.300000
812.990967	363.600000
813.026306	356.000000
813.061646	344.800000
813.096985	342.300000
813.132324	339.800000
813.167664	344.700000
813.203003	350.000000
813.238281	337.500000
813.273682	338.400000
813.308960	332.700000
813.344299	336.000000
813.379639	344.200000
813.414978	336.600000
813.450256	333.200000
813.485596	338.300000
813.520874	330.200000
813.556213	332.700000
813.591614	336.900000
813.626831	328.300000
813.662170	333.300000
813.697510	344.000000
813.732788	324.600000
813.768127	331.600000
813.803467	334.000000
813.838745	324.300000
813.874084	329.800000
813.909363	328.300000
813.944641	327.700000
813.979980	318.800000
814.015320	323.200000
814.050598	317.900000
814.085876	322.400000
814.121155	320.600000
814.156494	317.300000
814.191772	317.900000
814.227051	315.900000
814.262390	316.900000
814.297668	316.500000
814.332947	317.800000
814.368225	311.800000
814.403564	313.400000
814.438782	308.900000
814.474121	311.000000
814.509338	307.300000
814.544617	317.700000
814.579956	305.900000
814.615173	316.400000
814.650513	312.700000
814.685791	303.700000
814.721008	306.700000
814.756348	305.200000
814.791626	301.300000
814.826843	299.100000
814.862122	300.700000
814.897400	297.600000
814.932678	302.800000
814.967957	300.100000
815.003235	298.900000
815.038452	292.900000
815.073730	289.800000
815.108948	301.800000
815.144226	298.600000
815.179504	301.500000
815.214722	285.100000
815.250000	285.400000
815.285278	291.600000
815.320496	284.800000
815.355774	288.600000
815.391052	291.800000
815.426270	287.900000
815.461487	286.300000
815.496765	280.000000
815.531982	274.800000
815.567261	282.000000
815.602539	289.200000
815.637695	283.700000
815.672974	286.700000
815.708191	289.100000
815.743408	286.800000
815.778687	279.300000
815.813904	289.200000
815.849121	272.000000
815.884399	274.300000
815.919556	274.100000
815.954834	273.700000
815.990051	276.700000
816.025269	279.100000
816.060486	271.400000
816.095703	269.600000
816.130920	272.200000
816.166199	268.000000
816.201416	271.400000
816.236572	275.800000
816.271851	266.000000
816.307007	272.600000
816.342224	261.000000
816.377441	265.300000
816.412659	258.500000
816.447876	269.200000
816.483093	262.300000
816.518250	262.500000
816.553467	258.900000
816.588745	265.400000
816.623901	256.900000
816.659119	251.600000
816.694275	256.700000
816.729492	256.200000
816.764709	288.500000
816.799927	252.200000
816.835083	255.400000
816.870300	247.900000
816.905457	253.400000
816.940674	253.300000
816.975830	249.600000
817.010986	246.100000
817.046204	247.400000
817.081421	243.300000
817.116577	243.600000
817.151733	252.500000
817.186951	252.700000
817.222107	247.400000
817.257324	250.700000
817.292419	248.500000
817.327637	238.900000
817.362854	244.800000
817.398010	239.000000
817.433167	242.400000
817.468323	240.000000
817.503479	242.500000
817.538635	250.100000
817.573853	244.900000
817.608948	241.700000
817.644165	238.000000
817.679321	237.600000
817.714478	236.200000
817.749634	239.100000
817.784790	250.300000
817.819946	245.300000
817.855103	227.100000
817.890198	237.800000
817.925415	228.300000
817.960571	238.500000
817.995667	235.800000
818.030823	238.600000
818.066040	231.600000
818.101135	235.500000
818.136292	232.300000
818.171448	227.800000
818.206543	231.300000
818.241699	233.100000
818.276855	230.600000
818.311951	231.400000
818.347107	226.300000
818.382263	233.000000
818.417358	235.800000
818.452515	235.100000
818.487610	234.400000
818.522766	227.900000
818.557922	235.400000
818.593018	231.900000
818.628113	228.700000
818.663269	224.200000
818.698364	226.200000
818.733521	224.800000
818.768677	228.500000
818.803711	220.000000
818.838867	221.100000
818.874023	223.800000
818.909058	219.300000
818.944214	219.400000
818.979370	225.600000
819.014404	222.400000
819.049561	216.900000
819.084595	223.600000
819.119751	215.700000
819.154846	221.100000
819.189941	219.000000
819.225037	215.300000
819.260193	209.900000
819.295227	212.500000
819.330322	207.800000
819.365479	208.100000
819.400513	241.700000
819.435608	205.600000
819.470764	205.500000
819.505798	208.800000
819.540894	210.800000
819.575989	208.700000
819.611084	218.300000
819.646179	217.100000
819.681213	213.200000
819.716309	209.200000
819.751404	209.900000
819.786438	213.300000
819.821533	206.900000
819.856628	209.900000
819.891663	213.200000
819.926758	219.000000
819.961853	215.500000
819.996887	205.000000
820.031982	214.100000
820.067017	206.700000
820.102112	236.200000
820.137207	205.800000
820.172302	223.300000
820.207275	204.100000
820.242371	203.000000
820.277405	202.500000
820.312500	206.400000
820.347534	207.400000
820.382568	211.900000
820.417664	202.800000
820.452759	203.600000
820.487732	200.400000
820.522827	202.900000
820.557861	199.600000
820.592896	202.300000
820.627930	203.000000
820.662964	199.600000
820.698059	204.400000
820.733093	203.200000
820.768127	206.900000
820.803162	202.800000
820.838196	199.400000
820.873230	203.100000
820.908264	202.300000
820.943298	198.900000
820.978333	208.400000
821.013367	201.200000
821.048401	204.900000
821.083435	206.800000
821.118469	194.100000
821.153503	205.400000
821.188477	203.900000
821.223511	194.200000
821.258484	199.600000
821.293579	202.900000
821.328613	192.300000
821.363647	197.900000
821.398621	193.900000
821.433655	195.900000
821.468628	212.100000
821.503662	197.600000
821.538696	201.000000
821.573669	193.000000
821.608704	203.200000
821.643677	194.800000
821.678650	201.700000
821.713684	206.400000
821.748718	196.700000
821.783691	197.300000
821.818726	199.600000
821.853638	197.600000
821.888672	196.400000
821.923706	196.900000
821.958618	194.900000
821.993652	193.500000
822.028687	201.400000
822.063599	202.700000
822.098633	198.400000
822.133667	192.300000
822.168579	195.100000
822.203613	196.600000
822.238586	191.800000
822.273560	198.600000
822.308533	192.500000
822.343567	193.000000
822.378479	194.300000
822.413452	194.900000
822.448425	190.700000
822.483398	200.200000
822.518372	199.000000
822.553345	192.100000
822.588318	202.500000
822.623291	192.800000
822.658203	191.800000
822.693237	194.800000
822.728210	190.300000
822.763123	195.100000
822.798096	189.300000
822.833069	194.400000
822.867981	194.200000
822.902954	195.100000
822.937927	198.300000
822.972900	204.500000
823.007874	185.800000
823.042725	196.500000
823.077698	205.700000
823.112671	188.700000
823.147583	192.800000
823.182556	196.800000
823.217529	198.400000
823.252441	190.700000
823.287415	206.500000
823.322388	195.300000
823.357239	193.800000
823.392212	201.100000
823.427185	197.000000
823.462097	189.500000
823.497009	195.200000
823.531982	192.000000
823.566895	193.600000
823.601807	189.600000
823.636719	190.900000
823.671631	197.100000
823.706604	190.400000
823.741455	198.300000
823.776428	185.700000
823.811340	196.500000
823.846252	197.400000
823.881165	200.100000
823.916138	193.700000
823.950989	201.500000
823.985901	187.300000
824.020813	193.200000
824.055725	190.400000
824.090637	186.400000
824.125610	193.800000
824.160461	191.800000
824.195374	193.000000
824.230225	198.500000
824.265198	184.300000
824.300110	189.100000
824.334961	202.700000
824.369873	181.400000
824.404785	193.400000
824.439636	199.300000
824.474548	182.700000
824.509460	181.200000
824.544312	198.000000
824.579224	193.100000
824.614075	194.600000
824.648987	190.100000
824.683899	190.700000
824.718811	189.100000
824.753662	197.500000
824.788574	196.200000
824.823364	192.600000
824.858276	188.400000
824.893188	197.200000
824.928040	197.400000
824.962952	193.600000
824.997803	195.900000
825.032654	193.600000
825.067566	194.800000
825.102417	188.100000
825.137268	189.400000
825.172119	192.000000
825.206970	187.700000
825.241882	191.500000
825.276733	187.600000
825.311646	189.000000
825.346436	185.700000
825.381348	186.600000
825.416138	190.600000
825.450989	187.400000
825.485901	181.000000
825.520691	183.600000
825.555542	183.200000
825.590454	190.100000
825.625244	182.100000
825.660095	197.900000
825.695007	194.000000
825.729797	188.900000
825.764648	184.800000
825.799438	188.600000
825.834290	190.300000
825.869202	183.100000
825.903992	191.500000
825.938843	187.400000
825.973694	184.900000
826.008484	200.300000
826.043335	183.600000
826.078186	179.600000
826.112976	196.100000
826.147827	194.200000
826.182678	197.700000
826.217468	182.200000
826.252319	194.900000
826.287109	184.800000
826.321899	195.700000
826.356750	187.000000
826.391541	184.000000
826.426392	193.200000
826.461182	188.900000
826.495972	185.100000
826.530823	180.300000
826.565613	189.200000
826.600403	184.700000
826.635254	192.700000
826.670044	180.700000
826.704834	182.000000
826.739685	185.000000
826.774475	191.500000
826.809265	189.300000
826.844055	187.200000
826.878906	195.400000
826.913635	191.200000
826.948425	192.600000
826.983215	190.600000
827.018005	194.900000
827.052856	187.200000
827.087585	192.200000
827.122375	181.200000
827.157227	189.100000
827.191956	201.500000
827.226746	185.900000
827.261536	193.300000
827.296265	183.400000
827.331116	185.600000
827.365906	192.000000
827.400635	184.500000
827.435425	182.400000
827.470215	195.400000
827.504944	188.500000
827.539734	192.900000
827.574463	188.400000
827.609253	195.600000
827.644043	188.800000
827.678772	194.000000
827.713562	186.200000
827.748352	187.100000
827.783081	185.200000
827.817871	189.900000
827.852600	184.100000
827.887329	190.500000
827.922119	179.400000
827.956848	191.400000
827.991638	201.900000
828.026367	190.700000
828.061157	187.700000
828.095886	188.400000
828.130615	202.500000
828.165344	178.900000
828.200073	189.400000
828.234863	187.600000
828.269592	189.100000
828.304321	194.000000
828.339111	188.400000
828.373779	185.400000
828.408569	194.400000
828.443298	193.300000
828.477966	187.400000
828.512756	190.900000
828.547424	184.200000
828.582214	188.400000
828.616943	187.500000
828.651672	187.400000
828.686340	193.000000
828.721130	184.200000
828.755798	185.200000
828.790527	190.000000
828.825256	189.900000
828.859924	189.600000
828.894714	194.300000
828.929443	197.000000
828.964111	184.600000
828.998840	193.600000
829.033569	185.900000
829.068237	186.900000
829.102966	185.900000
829.137634	190.800000
829.172363	189.100000
829.207092	190.300000
829.241821	184.400000
829.276489	180.100000
829.311157	189.000000
829.345825	187.600000
829.380554	194.300000
829.415283	183.800000
829.449951	181.100000
829.484619	196.700000
829.519348	196.600000
829.554016	188.100000
829.588745	187.000000
829.623413	181.400000
829.658081	199.400000
829.692749	182.200000
829.727417	192.200000
829.762146	190.000000
829.796814	184.500000
829.831482	186.300000
829.866150	189.700000
829.900879	184.000000
829.935486	190.200000
829.970154	186.800000
830.004883	199.700000
830.039490	189.600000
830.074219	185.400000
830.108887	188.800000
830.143494	188.000000
830.178223	184.900000
830.212891	188.100000
830.247498	188.800000
830.282166	197.400000
830.316772	193.300000
830.351501	186.300000
830.386169	188.000000
830.420776	186.600000
830.455444	188.500000
830.490112	186.000000
830.524719	181.000000
830.559387	191.900000
830.594055	190.700000
830.628662	189.800000
830.663330	187.700000
830.697998	199.100000
830.732605	187.100000
830.767273	191.000000
830.801941	187.000000
830.836487	198.700000
830.871155	190.900000
830.905762	191.100000
830.940430	181.000000
830.975098	186.000000
831.009644	187.700000
831.044312	198.600000
831.078979	191.500000
831.113525	180.300000
831.148193	186.900000
831.182861	187.000000
831.217407	192.500000
831.252075	205.300000
831.286621	185.500000
831.321289	185.400000
831.355896	187.000000
831.390564	195.500000
831.425110	189.400000
831.459778	195.200000
831.494324	199.800000
831.528931	190.200000
831.563599	193.100000
831.598145	181.800000
831.632751	189.500000
831.667419	186.400000
831.701965	191.100000
831.736572	191.400000
831.771179	182.700000
831.805786	185.900000
831.840393	196.200000
831.874939	180.400000
831.909546	192.500000
831.944153	179.400000
831.978760	189.200000
832.013306	184.400000
832.047913	197.000000
832.082458	197.600000
832.117065	185.500000
832.151672	198.200000
832.186218	190.500000
832.220825	191.100000
832.255432	181.200000
832.289978	185.700000
832.324585	192.100000
832.359192	189.800000
832.393677	187.400000
832.428284	189.500000
832.462830	187.700000
832.497437	187.400000
832.531982	192.300000
832.566589	187.400000
832.601135	189.500000
832.635681	179.800000
832.670227	188.800000
832.704773	195.800000
832.739380	191.200000
832.773926	187.600000
832.808472	186.000000
832.843079	188.300000
832.877563	192.200000
832.912170	186.200000
832.946716	182.100000
832.981201	193.700000
833.015808	192.500000
833.050293	187.900000
833.084839	183.000000
833.119446	185.100000
833.153992	190.900000
833.188477	187.600000
833.223022	184.500000
833.257568	190.000000
833.292114	195.300000
833.326660	199.400000
833.361145	185.100000
833.395691	181.500000
833.430237	186.900000
833.464783	192.600000
833.499329	185.100000
833.533875	182.100000
833.568359	190.900000
833.602905	195.000000
833.637390	193.900000
833.671875	184.400000
833.706421	188.100000
833.740906	185.600000
833.775452	178.600000
833.809998	186.200000
833.844482	195.100000
833.879028	188.600000
833.913513	185.800000
833.947998	190.900000
833.982544	183.700000
834.017090	185.600000
834.051514	178.500000
834.086060	191.900000
834.120544	189.100000
834.155029	190.000000
834.189575	186.200000
834.223999	191.100000
834.258545	189.300000
834.293030	190.300000
834.327515	189.000000
834.362000	187.300000
834.396545	190.400000
834.430969	187.500000
834.465454	191.600000
834.500000	181.000000
834.534424	190.600000
834.568970	180.000000
834.603455	179.600000
834.637878	184.500000
834.672363	189.600000
834.706909	190.100000
834.741333	188.200000
834.775818	181.100000
834.810242	183.400000
834.844727	188.900000
834.879211	185.500000
834.913635	188.100000
834.948181	188.700000
834.982666	189.300000
835.017090	188.300000
835.051575	190.600000
835.086060	185.600000
835.120483	191.300000
835.154907	193.100000
835.189331	187.300000
835.223816	190.100000
835.258301	182.500000
835.292786	182.800000
835.327209	193.300000
835.361694	184.700000
835.396057	186.000000
835.430542	189.400000
835.465027	189.300000
835.499390	184.100000
835.533875	209.500000
835.568359	186.600000
835.602722	180.800000
835.637207	190.100000
835.671692	182.600000
835.706055	203.500000
835.740540	189.100000
835.774902	193.200000
835.809387	189.800000
835.843811	183.000000
835.878235	196.000000
835.912659	184.000000
835.947083	185.600000
835.981506	188.900000
836.015930	181.500000
836.050354	194.400000
836.084778	197.300000
836.119202	193.800000
836.153625	200.400000
836.187988	184.800000
836.222473	184.800000
836.256897	190.600000
836.291260	187.900000
836.325684	189.000000
836.360046	184.600000
836.394470	187.100000
836.428894	194.000000
836.463318	184.700000
836.497681	193.400000
836.532104	196.600000
836.566467	188.200000
836.600891	186.400000
836.635315	192.100000
836.669678	190.300000
836.704102	191.500000
836.738525	189.300000
836.772888	178.700000
836.807251	186.500000
836.841675	191.700000
836.876038	182.800000
836.910461	184.900000
836.944763	191.300000
836.979187	184.600000
837.013611	194.200000
837.047974	181.700000
837.082336	199.600000
837.116699	192.700000
837.151062	187.700000
837.185486	183.100000
837.219849	186.300000
837.254211	193.200000
837.288574	187.600000
837.322937	185.800000
837.357300	175.600000
837.391663	202.100000
837.426086	193.200000
837.460388	189.300000
837.494751	193.200000
837.529114	188.600000
837.563477	194.800000
837.597839	191.000000
837.632141	188.500000
837.666565	185.200000
837.700928	191.800000
837.735229	192.000000
837.769592	190.400000
837.803955	194.900000
837.838257	187.800000
837.872620	186.400000
837.906982	196.000000
837.941284	190.000000
837.975647	187.600000
838.010010	195.300000
838.044312	186.900000
838.078674	186.900000
838.112976	188.400000
838.147339	192.300000
838.181702	188.200000
838.216003	198.600000
838.250366	188.900000
838.284668	190.500000
838.318970	180.100000
838.353333	188.200000
838.387634	187.400000
838.421936	189.000000
838.456299	190.600000
838.490601	195.800000
838.524902	191.100000
838.559265	194.600000
838.593567	192.500000
838.627869	183.100000
838.662170	192.200000
838.696472	182.400000
838.730774	183.500000
838.765137	191.800000
838.799377	173.300000
838.833740	190.300000
838.868042	195.500000
838.902283	180.500000
838.936646	194.300000
838.970947	190.900000
839.005188	193.800000
839.039551	183.000000
839.073792	195.200000
839.108093	186.000000
839.142395	199.200000
839.176697	182.900000
839.210937	190.200000
839.245300	201.000000
839.279541	182.900000
839.313843	186.600000
839.348145	193.500000
839.382385	192.400000
839.416687	194.300000
839.450989	192.700000
839.485229	190.000000
839.519531	184.900000
839.553833	195.100000
839.588013	189.100000
839.622314	190.600000
839.656555	191.100000
839.690857	189.400000
839.725159	182.500000
839.759460	189.300000
839.793640	185.900000
839.827942	188.900000
839.862183	185.100000
839.896423	190.800000
839.930725	197.900000
839.964966	196.400000
839.999207	196.300000
840.033508	195.500000
840.067688	186.800000
840.101990	198.200000
840.136230	187.200000
840.170471	196.100000
840.204712	184.700000
840.238953	184.700000
840.273193	191.600000
840.307434	193.300000
840.341736	184.300000
840.375916	182.200000
840.410217	187.300000
840.444397	196.700000
840.478638	191.200000
840.512878	193.700000
840.547119	189.300000
840.581360	191.400000
840.615601	199.000000
840.649780	198.300000
840.684021	189.600000
840.718262	197.700000
840.752441	195.900000
840.786682	190.000000
840.820862	192.000000
840.855103	196.800000
840.889343	190.500000
840.923584	193.900000
840.957764	192.100000
840.992004	191.600000
841.026184	202.700000
841.060425	187.000000
841.094666	188.100000
841.128845	192.100000
841.163025	190.000000
841.197266	192.500000
841.231445	190.300000
841.265686	189.700000
841.299866	184.700000
841.334045	196.700000
841.368286	189.800000
841.402405	196.900000
841.436646	193.500000
841.470825	186.200000
841.505005	189.800000
841.539185	185.100000
841.573425	187.000000
841.607544	189.000000
841.641785	189.100000
841.675964	183.700000
841.710144	189.400000
841.744324	186.600000
841.778503	188.300000
841.812683	184.900000
841.846863	198.200000
841.881042	195.400000
841.915222	187.000000
841.949402	203.900000
841.983521	180.400000
842.017700	188.700000
842.051880	190.000000
842.086060	190.700000
842.120239	189.100000
842.154419	186.200000
842.188538	188.900000
842.222717	185.700000
842.256897	200.200000
842.291016	189.000000
842.325195	192.100000
842.359375	201.800000
842.393494	197.700000
842.427673	190.300000
842.461853	193.600000
842.495911	198.500000
842.530090	191.600000
842.564209	191.100000
842.598389	192.400000
842.632568	191.400000
842.666626	193.300000
842.700806	185.500000
842.734985	187.000000
842.769043	193.700000
842.803223	187.300000
842.837402	187.800000
842.871460	185.700000
842.905640	198.600000
842.939697	185.600000
842.973877	191.800000
843.007996	195.200000
843.042175	199.900000
843.076233	186.900000
843.110413	193.000000
843.144470	197.400000
843.178589	195.200000
843.212769	185.900000
843.246826	193.600000
843.280945	186.000000
843.315125	188.000000
843.349182	185.800000
843.383301	195.400000
843.417419	200.900000
843.451538	189.900000
843.485657	186.800000
843.519714	188.200000
843.553833	191.200000
843.587952	187.000000
843.622070	185.100000
843.656128	193.800000
843.690247	187.300000
843.724304	188.200000
843.758423	190.000000
843.792542	188.500000
843.826599	189.400000
843.860718	187.300000
843.894836	182.500000
843.928894	190.600000
843.963013	193.100000
843.997070	184.200000
844.031128	184.200000
844.065247	195.100000
844.099304	194.300000
844.133362	190.900000
844.167480	193.800000
844.201599	196.800000
844.235596	193.400000
844.269714	190.800000
844.303711	193.200000
844.337830	183.100000
844.371948	194.700000
844.405945	190.000000
844.440063	184.800000
844.474121	203.300000
844.508118	189.800000
844.542236	189.300000
844.576294	190.200000
844.610352	184.000000
844.644409	190.800000
844.678406	181.000000
844.712524	195.100000
844.746582	196.400000
844.780640	191.100000
844.814636	190.600000
844.848755	201.400000
844.882751	188.400000
844.916809	194.800000
844.950867	191.700000
844.984863	199.600000
845.018921	189.300000
845.052979	189.100000
845.086975	189.900000
845.121033	184.500000
845.155090	185.100000
845.189087	196.800000
845.223145	185.900000
845.257141	191.500000
845.291199	192.900000
845.325256	197.000000
845.359253	189.400000
845.393250	200.800000
845.427307	188.200000
845.461304	192.100000
845.495361	189.800000
845.529358	200.800000
845.563354	188.400000
845.597412	186.100000
845.631409	198.200000
845.665405	196.200000
845.699463	193.600000
845.733459	189.700000
845.767456	196.500000
845.801453	188.700000
845.835449	197.400000
845.869446	194.200000
845.903503	193.800000
845.937439	187.200000
845.971497	196.500000
846.005493	185.200000
846.039429	193.800000
846.073486	199.500000
846.107483	188.100000
846.141418	190.400000
846.175476	190.400000
846.209473	196.200000
846.243408	188.400000
846.277405	191.200000
846.311401	186.300000
846.345337	189.400000
846.379395	197.100000
846.413330	187.300000
846.447327	199.700000
846.481323	185.100000
846.515259	187.700000
846.549255	189.900000
846.583252	192.400000
846.617187	184.800000
846.651184	192.800000
846.685120	187.200000
846.719055	197.500000
846.753052	194.400000
846.786987	196.100000
846.820984	183.500000
846.854980	197.600000
846.888916	185.600000
846.922852	192.000000
846.956848	198.200000
846.990723	185.400000
847.024719	191.300000
847.058716	188.700000
847.092590	196.600000
847.126587	191.000000
847.160522	189.800000
847.194458	195.700000
847.228455	186.500000
847.262390	184.000000
847.296265	187.700000
847.330261	197.000000
847.364136	188.000000
847.398132	186.500000
847.432068	191.100000
847.466003	188.300000
847.499939	188.900000
847.533875	192.700000
847.567749	188.200000
847.601746	188.600000
847.635681	193.800000
847.669556	182.900000
847.703491	196.300000
847.737427	205.100000
847.771301	185.400000
847.805237	193.000000
847.839233	191.600000
847.873108	189.700000
847.907043	189.100000
847.940918	197.500000
847.974854	193.800000
848.008789	194.700000
848.042664	190.700000
848.076538	194.100000
848.110474	190.800000
848.144348	191.700000
848.178284	184.200000
848.212219	190.800000
848.246094	189.000000
848.279968	192.100000
848.313904	193.700000
848.347778	191.300000
848.381653	190.700000
848.415588	185.900000
848.449463	188.700000
848.483337	193.500000
848.517212	197.300000
848.551086	189.700000
848.585022	185.900000
848.618835	197.600000
848.652771	188.200000
848.686646	185.900000
848.720520	198.800000
848.754395	189.500000
848.788330	194.500000
848.822144	194.900000
848.856018	188.600000
848.889954	199.000000
848.923767	184.500000
848.957642	187.700000
848.991577	193.200000
849.025391	188.000000
849.059265	189.800000
849.093079	188.200000
849.126953	184.800000
849.160828	195.300000
849.194641	192.300000
849.228577	187.800000
849.262451	189.600000
849.296265	188.500000
849.330139	185.900000
849.364014	191.000000
849.397827	194.800000
849.431702	190.200000
849.465515	195.400000
849.499329	181.800000
849.533203	186.600000
849.567078	179.800000
849.600891	193.100000
849.634766	189.800000
849.668518	196.400000
849.702393	191.800000
849.736267	184.500000
849.770020	202.600000
849.803894	193.400000
849.837769	191.300000
849.871521	189.500000
849.905396	197.200000
849.939270	186.900000
849.973022	189.000000
850.006897	194.400000
850.040710	194.100000
850.074524	194.500000
850.108337	190.200000
850.142151	194.100000
850.175964	197.600000
850.209778	189.500000
850.243530	178.900000
850.277405	195.200000
850.311218	190.700000
850.344971	187.900000
850.378845	199.100000
850.412659	187.400000
850.446411	191.400000
850.480225	188.900000
850.514038	196.400000
850.547791	192.200000
850.581665	190.200000
850.615417	187.200000
850.649231	190.800000
850.683044	188.600000
850.716858	188.500000
850.750610	189.900000
850.784424	194.400000
850.818176	186.500000
850.851929	187.200000
850.885742	187.000000
850.919495	190.700000
850.953308	195.900000
850.987122	197.600000
851.020874	185.400000
851.054626	182.300000
851.088440	194.300000
851.122192	196.000000
851.156006	191.800000
851.189697	189.700000
851.223511	186.200000
851.257263	194.900000
851.291077	192.900000
851.324829	189.600000
851.358582	188.600000
851.392334	188.300000
851.426086	190.900000
851.459900	198.900000
851.493591	191.600000
851.527344	191.300000
851.561157	191.000000
851.594849	194.400000
851.628662	193.100000
851.662415	197.700000
851.696106	193.300000
851.729858	194.600000
851.763611	187.000000
851.797363	191.800000
851.831116	189.100000
851.864868	193.000000
851.898560	194.300000
851.932312	188.500000
851.966064	193.200000
851.999817	190.100000
852.033569	189.600000
852.067261	194.100000
852.101013	187.200000
852.134766	189.200000
852.168457	181.400000
852.202209	194.600000
852.235901	184.600000
852.269592	192.400000
852.303345	197.500000
852.337036	193.000000
852.370789	190.100000
852.404541	193.500000
852.438171	186.200000
852.471924	189.000000
852.505676	184.600000
852.539307	192.100000
852.573059	186.800000
852.606812	187.600000
852.640442	189.100000
852.674194	195.400000
852.707886	200.900000
852.741577	199.600000
852.775269	186.000000
852.809021	191.300000
852.842651	193.300000
852.876404	195.900000
852.910034	191.700000
852.943787	198.500000
852.977478	194.400000
853.011108	187.500000
853.044861	188.200000
853.078552	198.400000
853.112183	193.100000
853.145874	192.800000
853.179626	181.300000
853.213257	193.300000
853.246948	188.200000
853.280640	200.300000
853.314270	190.200000
853.347961	198.800000
853.381653	193.300000
853.415283	197.000000
853.448975	187.100000
853.482605	192.800000
853.516296	189.100000
853.549988	185.400000
853.583618	191.900000
853.617310	193.900000
853.651001	192.600000
853.684631	187.500000
853.718323	188.200000
853.751953	199.500000
853.785583	182.500000
853.819275	195.500000
853.852966	193.600000
853.886536	182.700000
853.920227	185.100000
853.953918	196.000000
853.987488	187.800000
854.021179	194.600000
854.054749	199.300000
854.088440	193.000000
854.122131	186.300000
854.155701	194.500000
854.189331	185.800000
854.223022	193.600000
854.256592	192.700000
854.290283	186.900000
854.323914	192.700000
854.357483	192.000000
854.391174	192.700000
854.424744	199.100000
854.458374	192.500000
854.492065	201.600000
854.525696	189.500000
854.559265	198.400000
854.592896	201.400000
854.626465	192.100000
854.660095	192.500000
854.693787	194.900000
854.727356	189.700000
854.760986	195.300000
854.794617	193.400000
854.828186	190.000000
854.861816	195.200000
854.895447	191.200000
854.929016	193.600000
854.962585	193.200000
854.996155	199.500000
855.029785	193.600000
855.063416	194.500000
855.097046	195.300000
855.130615	186.300000
855.164185	196.900000
855.197754	191.500000
855.231384	194.100000
855.264954	190.300000
855.298523	194.600000
855.332153	191.900000
855.365723	199.100000
855.399292	187.800000
855.432922	189.800000
855.466492	192.700000
855.500061	187.600000
855.533630	188.800000
855.567200	194.300000
855.600769	196.100000
855.634338	195.400000
855.667969	192.900000
855.701477	186.200000
855.735046	186.400000
855.768616	182.900000
855.802185	192.800000
855.835754	205.500000
855.869324	182.400000
855.902893	190.100000
855.936401	196.700000
855.969971	191.700000
856.003540	184.000000
856.037109	195.100000
856.070618	190.900000
856.104187	185.400000
856.137695	188.900000
856.171265	182.200000
856.204834	190.200000
856.238403	196.300000
856.271912	189.100000
856.305481	191.300000
856.338989	184.900000
856.372559	194.800000
856.406128	193.800000
856.439636	196.700000
856.473145	188.600000
856.506653	197.300000
856.540222	191.000000
856.573792	199.500000
856.607300	195.800000
856.640808	186.000000
856.674377	193.500000
856.707825	221.300000
856.741394	196.300000
856.774902	188.600000
856.808472	182.300000
856.841980	194.100000
856.875488	198.600000
856.908936	183.900000
856.942505	188.600000
856.976013	189.800000
857.009521	185.400000
857.043030	191.900000
857.076477	190.100000
857.110046	197.300000
857.143555	191.800000
857.177063	196.100000
857.210571	189.400000
857.244080	185.300000
857.277527	195.100000
857.311035	190.000000
857.344543	195.400000
857.378052	190.000000
857.411499	195.600000
857.445068	201.000000
857.478516	189.100000
857.512024	185.200000
857.545532	188.600000
857.578979	192.500000
857.612427	189.600000
857.645874	187.500000
857.679382	191.500000
857.712891	194.200000
857.746399	189.900000
857.779846	195.500000
857.813354	194.900000
857.846741	190.600000
857.880249	186.900000
857.913757	191.900000
857.947266	194.600000
857.980652	195.400000
858.014160	188.200000
858.047546	190.000000
858.081055	191.400000
858.114563	198.900000
858.147949	184.700000
858.181458	194.600000
858.214844	190.100000
858.248352	184.000000
858.281799	197.900000
858.315308	203.700000
858.348694	196.000000
858.382141	201.100000
858.415588	195.500000
858.449036	196.100000
858.482483	194.500000
858.515930	187.200000
858.549377	191.600000
858.582825	198.200000
858.616211	194.800000
858.649658	192.300000
858.683105	187.200000
858.716553	186.800000
858.750000	185.300000
858.783386	188.200000
858.816833	184.000000
858.850281	192.900000
858.883728	195.100000
858.917114	190.400000
858.950562	200.700000
858.983948	200.000000
859.017395	195.400000
859.050781	189.700000
859.084167	188.000000
859.117615	184.600000
859.151062	195.100000
859.184448	187.500000
859.217834	188.800000
859.251282	189.600000
859.284668	187.700000
859.318054	181.200000
859.351440	189.000000
859.384888	199.800000
859.418274	183.400000
859.451721	182.400000
859.485046	194.400000
859.518494	192.000000
859.551819	188.300000
859.585266	193.100000
859.618652	193.100000
859.652039	185.200000
859.685425	185.200000
859.718811	184.400000
859.752197	180.600000
859.785583	198.200000
859.819031	198.300000
859.852356	194.200000
859.885742	188.000000
859.919067	190.600000
859.952454	189.200000
859.985901	197.000000
860.019287	190.800000
860.052612	0.000000
860.085999	0.000000
860.119324	0.000000
860.152710	0.000000
860.186096	0.000000
860.219421	0.000000
860.252808	0.000000
860.286133	0.000000
860.319519	0.000000
860.352905	0.000000
860.386292	0.000000
860.419617	0.000000
860.452942	0.000000
860.486267	0.000000
860.519653	0.000000
860.553040	0.000000
860.586365	0.000000
860.619690	0.000000
860.653076	0.000000
860.686340	0.000000
860.719727	0.000000
860.753113	0.000000
860.786377	0.000000
860.819763	0.000000
860.853027	0.000000
860.886414	0.000000
860.919739	0.000000
860.953125	0.000000
860.986389	0.000000
861.019714	0.000000
861.053040	0.000000
861.086365	0.000000
861.119690	0.000000
861.153076	0.000000
861.186340	0.000000
861.219666	0.000000
861.252930	0.000000
861.286316	0.000000
861.319641	0.000000
861.352905	0.000000
861.386230	0.000000
861.419495	0.000000
861.452820	0.000000
861.486145	0.000000
861.519470	0.000000
861.552734	0.000000
861.586060	0.000000
861.619324	0.000000
861.652649	0.000000
861.685974	0.000000
861.719238	0.000000
861.752563	0.000000
861.785828	0.000000
861.819092	0.000000
861.852417	0.000000
861.885742	0.000000
861.918945	0.000000
861.952271	0.000000
861.985535	0.000000
862.018799	0.000000
862.052124	0.000000
862.085449	0.000000
862.118652	0.000000
862.151978	0.000000
862.185181	0.000000
862.218506	0.000000
862.251770	0.000000
862.285034	0.000000
862.318298	0.000000
862.351562	0.000000
862.384827	0.000000
862.418091	0.000000
862.451355	0.000000
862.484619	0.000000
862.517883	0.000000
862.551086	0.000000
862.584351	0.000000
862.617676	0.000000
862.650940	0.000000
862.684143	0.000000
862.717407	0.000000
862.750610	0.000000
862.783875	0.000000
862.817139	0.000000
862.850342	0.000000
862.883606	0.000000
862.916870	0.000000
862.950073	0.000000
862.983337	0.000000
863.016602	0.000000
863.049805	0.000000
863.083069	0.000000
863.116211	0.000000
863.149475	0.000000
863.182739	0.000000
863.216003	0.000000
863.249146	0.000000
863.282410	0.000000
863.315613	0.000000
863.348816	0.000000
863.382080	0.000000
863.415222	0.000000
863.448486	0.000000
863.481689	0.000000
863.514893	0.000000
863.548157	0.000000
863.581360	0.000000
863.614502	0.000000
863.647766	0.000000
863.680908	0.000000
863.714172	0.000000
863.747375	0.000000
863.780579	0.000000
863.813721	0.000000
863.846985	0.000000
863.880127	0.000000
863.913330	0.000000
863.946533	0.000000
863.979675	0.000000
864.012939	0.000000
