Model Number: SPM-001-M   
Serial Number: 10090201
Firmware Version: 004.17.6
Exposure Time: 500000.000000us
Data Taken on: 20-03-2021 10:17:09.141
Wavelength	Amplitude
733.770752	0.000000
733.808716	0.000000
733.846619	0.000000
733.884583	0.000000
733.922546	0.000000
733.960449	0.000000
733.998413	0.000000
734.036377	0.000000
734.074219	0.000000
734.112183	0.000000
734.150085	0.000000
734.188049	0.000000
734.226013	0.000000
734.263916	0.000000
734.301819	0.000000
734.339783	0.000000
734.377686	0.000000
734.415588	0.000000
734.453552	0.000000
734.491455	0.000000
734.529419	0.000000
734.567322	0.000000
734.605225	0.000000
734.643127	0.000000
734.681091	0.000000
734.718994	0.000000
734.756897	0.000000
734.794800	0.000000
734.832703	0.000000
734.870667	0.000000
734.908508	0.000000
734.946472	0.000000
734.984375	0.000000
735.022278	0.000000
735.060181	0.000000
735.098083	0.000000
735.135986	0.000000
735.173889	0.000000
735.211792	0.000000
735.249695	0.000000
735.287598	0.000000
735.325439	0.000000
735.363403	0.000000
735.401306	0.000000
735.439148	0.000000
735.477051	0.000000
735.515015	0.000000
735.552856	0.000000
735.590759	0.000000
735.628662	0.000000
735.666504	0.000000
735.704407	0.000000
735.742310	0.000000
735.780212	0.000000
735.818115	0.000000
735.856018	0.000000
735.893860	0.000000
735.931763	0.000000
735.969604	0.000000
736.007507	0.000000
736.045410	0.000000
736.083252	0.000000
736.121094	0.000000
736.158997	0.000000
736.196838	0.000000
736.234741	0.000000
736.272644	0.000000
736.310486	0.000000
736.348389	0.000000
736.386230	0.000000
736.424072	0.000000
736.461975	0.000000
736.499878	0.000000
736.537720	0.000000
736.575562	0.000000
736.613403	0.000000
736.651306	0.000000
736.689148	0.000000
736.726990	0.000000
736.764893	0.000000
736.802734	0.000000
736.840576	0.000000
736.878418	0.000000
736.916321	0.000000
736.954102	0.000000
736.992004	0.000000
737.029846	0.000000
737.067688	0.000000
737.105530	0.000000
737.143372	0.000000
737.181213	0.000000
737.219116	0.000000
737.256897	0.000000
737.294739	0.000000
737.332642	0.000000
737.370422	0.000000
737.408325	0.000000
737.446167	0.000000
737.483948	0.000000
737.521790	0.000000
737.559692	0.000000
737.597473	0.000000
737.635315	0.000000
737.673157	0.000000
737.710999	0.000000
737.748840	0.000000
737.786621	0.000000
737.824463	0.000000
737.862305	0.000000
737.900085	0.000000
737.937927	0.000000
737.975769	0.000000
738.013550	0.000000
738.051392	0.000000
738.089233	0.000000
738.127014	0.000000
738.164856	0.000000
738.202698	0.000000
738.240479	0.000000
738.278320	0.000000
738.316162	0.000000
738.353943	0.000000
738.391785	0.000000
738.429565	0.000000
738.467407	0.000000
738.505188	0.000000
738.542969	0.000000
738.580811	0.000000
738.618652	0.000000
738.656372	0.000000
738.694214	0.000000
738.732056	0.000000
738.769836	0.000000
738.807617	0.000000
738.845459	0.000000
738.883240	0.000000
738.921021	0.000000
738.958862	0.000000
738.996582	0.000000
739.034424	0.000000
739.072205	0.000000
739.109985	0.000000
739.147827	0.000000
739.185547	0.000000
739.223389	0.000000
739.261169	0.000000
739.298889	0.000000
739.336731	0.000000
739.374512	0.000000
739.412292	0.000000
739.450073	0.000000
739.487854	0.000000
739.525635	0.000000
739.563416	0.000000
739.601135	0.000000
739.638977	0.000000
739.676758	0.000000
739.714478	0.000000
739.752258	0.000000
739.790100	0.000000
739.827820	0.000000
739.865601	0.000000
739.903381	0.000000
739.941101	0.000000
739.978882	192.100000
740.016724	188.200000
740.054443	192.400000
740.092224	186.800000
740.130005	184.700000
740.167725	188.100000
740.205505	184.200000
740.243225	195.700000
740.281006	188.200000
740.318787	181.800000
740.356506	193.400000
740.394287	195.500000
740.432068	183.000000
740.469727	184.000000
740.507507	192.900000
740.545288	189.900000
740.583008	192.800000
740.620789	191.300000
740.658569	179.800000
740.696228	190.200000
740.734009	195.100000
740.771790	177.100000
740.809509	192.800000
740.847229	185.100000
740.884949	186.100000
740.922729	183.500000
740.960449	188.800000
740.998169	184.000000
741.035950	186.100000
741.073669	191.600000
741.111389	189.200000
741.149170	200.300000
741.186890	198.600000
741.224609	193.300000
741.262329	190.600000
741.300110	199.600000
741.337769	184.900000
741.375549	183.700000
741.413208	188.800000
741.450989	185.500000
741.488708	186.500000
741.526367	185.800000
741.564148	192.100000
741.601868	192.100000
741.639526	189.700000
741.677307	191.500000
741.715027	191.300000
741.752686	184.800000
741.790466	196.400000
741.828186	192.000000
741.865845	185.400000
741.903564	181.300000
741.941345	189.200000
741.979004	185.000000
742.016724	193.300000
742.054382	188.900000
742.092102	195.000000
742.129822	181.300000
742.167480	188.300000
742.205200	187.500000
742.242920	190.100000
742.280640	192.200000
742.318359	185.600000
742.356079	184.900000
742.393738	192.800000
742.431396	187.000000
742.469116	191.200000
742.506775	178.700000
742.544495	193.700000
742.582214	191.400000
742.619873	189.500000
742.657593	195.500000
742.695251	194.200000
742.732971	188.200000
742.770630	192.400000
742.808289	188.400000
742.846008	190.900000
742.883728	190.800000
742.921326	189.900000
742.959045	185.800000
742.996765	189.200000
743.034424	188.700000
743.072083	187.700000
743.109802	189.400000
743.147400	182.900000
743.185120	189.200000
743.222839	188.900000
743.260437	194.800000
743.298157	191.400000
743.335754	181.200000
743.373474	186.800000
743.411133	182.400000
743.448792	188.400000
743.486450	188.100000
743.524170	181.600000
743.561768	189.000000
743.599487	194.800000
743.637146	200.300000
743.674744	188.000000
743.712463	186.700000
743.750122	189.300000
743.787720	190.000000
743.825439	183.900000
743.863037	186.700000
743.900696	187.100000
743.938416	214.500000
743.976013	188.400000
744.013672	198.100000
744.051331	192.700000
744.088928	198.700000
744.126587	193.400000
744.164307	191.100000
744.201904	185.900000
744.239563	192.800000
744.277222	190.300000
744.314819	190.100000
744.352478	197.700000
744.390137	192.400000
744.427734	191.000000
744.465393	188.600000
744.502991	184.000000
744.540649	194.000000
744.578308	190.200000
744.615906	185.000000
744.653564	177.700000
744.691223	193.800000
744.728821	182.000000
744.766418	190.900000
744.804077	193.200000
744.841675	187.200000
744.879333	182.700000
744.916992	189.200000
744.954529	185.800000
744.992187	194.700000
745.029785	187.900000
745.067444	186.500000
745.105042	189.800000
745.142639	191.800000
745.180298	197.800000
745.217896	186.500000
745.255493	188.900000
745.293152	193.900000
745.330750	192.800000
745.368347	197.000000
745.405945	193.600000
745.443604	189.300000
745.481140	193.100000
745.518799	187.300000
745.556396	193.300000
745.593994	193.100000
745.631592	188.200000
745.669189	181.600000
745.706787	192.300000
745.744385	184.900000
745.781982	191.600000
745.819580	186.200000
745.857178	188.700000
745.894775	188.400000
745.932373	191.800000
745.969971	188.700000
746.007568	180.600000
746.045166	196.700000
746.082764	194.600000
746.120300	190.700000
746.157898	194.600000
746.195557	187.200000
746.233093	184.200000
746.270691	191.300000
746.308228	192.600000
746.345825	194.200000
746.383423	194.100000
746.420959	183.500000
746.458557	187.500000
746.496155	186.800000
746.533691	188.700000
746.571289	183.800000
746.608887	190.800000
746.646423	189.000000
746.684021	191.400000
746.721619	186.900000
746.759155	192.200000
746.796753	181.900000
746.834351	183.800000
746.871826	185.700000
746.909424	197.600000
746.946960	191.700000
746.984558	190.000000
747.022156	188.000000
747.059631	196.600000
747.097229	190.700000
747.134827	186.400000
747.172363	196.300000
747.209900	192.500000
747.247498	185.000000
747.285034	196.300000
747.322571	196.800000
747.360168	187.400000
747.397644	182.200000
747.435242	193.400000
747.472778	196.800000
747.510315	187.200000
747.547913	188.300000
747.585388	195.900000
747.622925	189.300000
747.660522	179.800000
747.697998	186.700000
747.735596	187.600000
747.773132	186.600000
747.810669	188.600000
747.848206	193.900000
747.885742	183.000000
747.923279	185.000000
747.960815	191.600000
747.998352	190.200000
748.035889	193.600000
748.073425	195.500000
748.110901	185.800000
748.148437	184.700000
748.185974	191.000000
748.223511	200.400000
748.261047	190.000000
748.298584	192.300000
748.336060	188.300000
748.373596	193.100000
748.411133	208.000000
748.448608	187.700000
748.486145	193.400000
748.523682	197.200000
748.561218	195.600000
748.598755	190.500000
748.636292	193.900000
748.673706	188.300000
748.711243	194.900000
748.748718	191.900000
748.786255	188.500000
748.823792	190.200000
748.861267	186.500000
748.898804	192.000000
748.936340	192.100000
748.973816	188.600000
749.011292	195.300000
749.048828	192.000000
749.086304	192.500000
749.123840	203.200000
749.161316	184.900000
749.198792	198.800000
749.236328	196.900000
749.273743	190.300000
749.311279	188.100000
749.348816	191.900000
749.386230	190.700000
749.423767	176.200000
749.461304	193.400000
749.498718	189.800000
749.536255	195.900000
749.573730	201.600000
749.611206	195.700000
749.648682	188.800000
749.686218	189.700000
749.723633	191.700000
749.761169	187.700000
749.798645	184.800000
749.836060	190.200000
749.873596	185.200000
749.911011	189.100000
749.948547	195.500000
749.986023	189.300000
750.023437	187.400000
750.060913	183.500000
750.098450	182.700000
750.135864	188.900000
750.173340	189.500000
750.210815	195.500000
750.248291	182.000000
750.285767	189.500000
750.323242	194.600000
750.360657	192.200000
750.398132	183.900000
750.435608	195.000000
750.473022	185.500000
750.510498	186.700000
750.547974	184.800000
750.585449	188.000000
750.622925	179.100000
750.660339	199.500000
750.697815	190.700000
750.735291	189.400000
750.772644	190.500000
750.810120	191.600000
750.847595	191.400000
750.885010	185.000000
750.922485	198.600000
750.959961	188.400000
750.997375	197.000000
751.034851	194.500000
751.072266	194.700000
751.109680	182.100000
751.147156	194.900000
751.184570	191.100000
751.221985	190.900000
751.259460	179.400000
751.296875	188.500000
751.334290	189.800000
751.371765	193.500000
751.409180	191.500000
751.446594	195.700000
751.484070	190.600000
751.521423	191.400000
751.558899	189.400000
751.596375	197.600000
751.633728	195.500000
751.671204	202.400000
751.708618	184.300000
751.746033	190.600000
751.783447	182.200000
751.820801	187.000000
751.858276	191.700000
751.895691	190.200000
751.933105	185.800000
751.970520	184.900000
752.007935	187.700000
752.045349	195.300000
752.082764	188.500000
752.120178	187.900000
752.157532	185.400000
752.195007	188.900000
752.232422	192.000000
752.269775	195.500000
752.307190	192.600000
752.344543	185.700000
752.382019	189.100000
752.419434	189.500000
752.456787	191.000000
752.494202	194.800000
752.531616	192.400000
752.568970	194.300000
752.606384	191.100000
752.643799	193.600000
752.681152	198.400000
752.718567	194.700000
752.755981	183.000000
752.793335	193.600000
752.830750	182.100000
752.868164	196.900000
752.905518	186.000000
752.942932	194.600000
752.980225	186.100000
753.017639	193.200000
753.055054	189.200000
753.092407	191.000000
753.129822	195.700000
753.167175	198.400000
753.204529	189.700000
753.241943	185.700000
753.279358	184.600000
753.316650	192.700000
753.354065	192.700000
753.391479	194.100000
753.428772	198.200000
753.466187	191.900000
753.503479	184.400000
753.540894	186.400000
753.578308	184.900000
753.615601	182.100000
753.653015	190.500000
753.690369	187.200000
753.727722	186.900000
753.765076	181.000000
753.802490	185.200000
753.839783	179.500000
753.877136	188.500000
753.914551	204.700000
753.951843	184.500000
753.989258	191.200000
754.026611	192.000000
754.063904	190.800000
754.101257	187.200000
754.138611	181.800000
754.175964	191.300000
754.213318	201.400000
754.250610	183.600000
754.288025	186.700000
754.325378	184.600000
754.362671	194.600000
754.400024	189.500000
754.437378	197.800000
754.474670	199.500000
754.512085	187.200000
754.549438	191.500000
754.586731	188.200000
754.624084	190.600000
754.661438	185.500000
754.698730	197.700000
754.736084	187.900000
754.773376	188.700000
754.810730	193.200000
754.848083	188.300000
754.885315	194.500000
754.922668	181.800000
754.960022	185.000000
754.997314	193.600000
755.034668	191.300000
755.072021	192.600000
755.109253	187.600000
755.146606	197.800000
755.183960	188.600000
755.221252	198.900000
755.258545	196.700000
755.295898	195.800000
755.333191	196.200000
755.370544	193.800000
755.407776	190.500000
755.445129	189.700000
755.482422	197.600000
755.519714	187.900000
755.557068	183.900000
755.594360	182.200000
755.631653	197.800000
755.668945	199.200000
755.706299	193.900000
755.743530	203.400000
755.780884	199.000000
755.818176	197.000000
755.855408	197.700000
755.892761	193.300000
755.930054	195.600000
755.967346	192.400000
756.004639	196.500000
756.041870	192.400000
756.079224	198.800000
756.116516	189.300000
756.153748	197.700000
756.191040	200.600000
756.228394	197.600000
756.265625	189.300000
756.302917	196.000000
756.340210	189.500000
756.377441	199.300000
756.414795	201.300000
756.452087	194.400000
756.489319	188.300000
756.526611	197.300000
756.563843	194.900000
756.601135	204.100000
756.638428	202.600000
756.675659	193.500000
756.712952	199.000000
756.750244	198.700000
756.787476	194.700000
756.824768	201.500000
756.862061	193.200000
756.899292	240.900000
756.936584	199.400000
756.973816	206.100000
757.011047	207.200000
757.048340	195.100000
757.085632	196.400000
757.122864	211.600000
757.160156	195.600000
757.197327	197.600000
757.234619	202.400000
757.271912	195.500000
757.309082	201.800000
757.346375	193.300000
757.383667	205.100000
757.420837	198.200000
757.458130	198.400000
757.495422	195.800000
757.532593	200.500000
757.569885	190.500000
757.607117	196.000000
757.644348	197.800000
757.681580	212.600000
757.718811	187.700000
757.756042	200.600000
757.793335	195.900000
757.830505	203.400000
757.867798	194.900000
757.905029	197.300000
757.942200	201.200000
757.979492	196.300000
758.016724	197.300000
758.053894	198.800000
758.091187	218.600000
758.128418	200.700000
758.165588	199.700000
758.202820	212.200000
758.240112	201.400000
758.277283	211.800000
758.314514	202.500000
758.351685	199.200000
758.388916	210.500000
758.426147	209.700000
758.463379	212.400000
758.500610	205.200000
758.537842	202.300000
758.575012	209.500000
758.612244	198.000000
758.649475	215.900000
758.686646	198.200000
758.723877	211.400000
758.761108	212.400000
758.798279	202.800000
758.835510	206.300000
758.872742	209.400000
758.909851	207.300000
758.947083	206.200000
758.984253	206.700000
759.021484	209.100000
759.058716	209.800000
759.095886	208.600000
759.133057	205.800000
759.170288	208.500000
759.207458	202.300000
759.244690	217.300000
759.281860	216.700000
759.319031	205.400000
759.356262	205.400000
759.393433	204.200000
759.430603	207.200000
759.467773	205.900000
759.505005	215.500000
759.542175	211.300000
759.579346	207.500000
759.616516	208.100000
759.653687	210.700000
759.690918	204.700000
759.728027	210.700000
759.765259	210.100000
759.802429	214.100000
759.839539	211.300000
759.876770	217.000000
759.913940	218.300000
759.951111	211.900000
759.988281	210.200000
760.025452	207.600000
760.062561	206.000000
760.099792	219.600000
760.136963	213.200000
760.174072	209.500000
760.211243	205.300000
760.248413	206.900000
760.285583	206.400000
760.322754	222.700000
760.359863	217.200000
760.397034	217.600000
760.434204	211.500000
760.471375	211.100000
760.508545	209.700000
760.545715	210.200000
760.582825	207.200000
760.619995	215.700000
760.657166	204.800000
760.694275	218.000000
760.731445	215.200000
760.768555	215.700000
760.805664	216.600000
760.842834	215.200000
760.879944	217.400000
760.917114	215.500000
760.954285	212.800000
760.991394	206.500000
761.028564	221.300000
761.065674	217.500000
761.102783	211.800000
761.139954	219.500000
761.177124	219.100000
761.214172	220.100000
761.251343	215.500000
761.288452	215.000000
761.325562	219.700000
761.362732	213.300000
761.399841	218.100000
761.436951	218.700000
761.474121	216.200000
761.511169	219.600000
761.548340	224.200000
761.585449	221.400000
761.622559	223.200000
761.659668	220.600000
761.696838	228.000000
761.733887	222.300000
761.771057	220.600000
761.808167	221.200000
761.845276	226.200000
761.882385	233.600000
761.919434	225.700000
761.956604	242.700000
761.993713	221.100000
762.030762	230.900000
762.067871	226.700000
762.105042	222.800000
762.142090	232.800000
762.179199	227.200000
762.216309	229.700000
762.253418	242.200000
762.290527	237.600000
762.327637	233.000000
762.364685	223.200000
762.401794	233.300000
762.438904	230.100000
762.475952	225.300000
762.513062	223.300000
762.550110	225.600000
762.587219	240.000000
762.624329	239.900000
762.661377	233.600000
762.698486	234.200000
762.735596	231.200000
762.772644	228.400000
762.809753	224.600000
762.846863	232.300000
762.883911	235.000000
762.921021	238.500000
762.958069	234.000000
762.995117	243.500000
763.032227	243.100000
763.069336	235.700000
763.106323	230.500000
763.143433	230.600000
763.180481	239.400000
763.217590	238.300000
763.254639	235.500000
763.291687	237.100000
763.328735	245.300000
763.365845	239.400000
763.402893	236.200000
763.439941	242.200000
763.477051	245.300000
763.514038	246.900000
763.551147	239.100000
763.588196	243.700000
763.625244	241.500000
763.662292	248.500000
763.699402	251.400000
763.736389	247.300000
763.773499	255.100000
763.810486	250.200000
763.847534	247.500000
763.884644	248.900000
763.921631	245.800000
763.958679	257.800000
763.995728	247.000000
764.032776	257.200000
764.069824	242.600000
764.106873	253.000000
764.143860	258.400000
764.180969	249.700000
764.218018	258.900000
764.255005	251.200000
764.292053	251.900000
764.329102	262.700000
764.366089	262.600000
764.403137	261.600000
764.440125	253.100000
764.477173	256.800000
764.514221	257.500000
764.551208	255.100000
764.588257	251.600000
764.625305	262.000000
764.662292	267.600000
764.699341	270.700000
764.736389	262.100000
764.773376	277.100000
764.810425	266.400000
764.847473	271.400000
764.884399	267.900000
764.921448	276.000000
764.958435	275.500000
764.995483	262.400000
765.032532	280.700000
765.069458	264.100000
765.106506	268.100000
765.143555	264.000000
765.180481	270.900000
765.217529	277.800000
765.254578	266.300000
765.291504	272.500000
765.328552	269.900000
765.365540	267.800000
765.402527	285.600000
765.439575	267.300000
765.476501	266.200000
765.513550	267.400000
765.550537	272.800000
765.587463	279.100000
765.624512	269.500000
765.661499	260.500000
765.698486	278.800000
765.735474	267.300000
765.772461	273.300000
765.809448	279.300000
765.846436	278.500000
765.883423	281.700000
765.920410	276.600000
765.957397	272.900000
765.994385	277.100000
766.031311	286.200000
766.068359	279.100000
766.105286	279.500000
766.142273	286.300000
766.179260	280.300000
766.216187	275.800000
766.253174	271.300000
766.290161	281.300000
766.327148	284.600000
766.364136	286.200000
766.401123	301.300000
766.438049	277.600000
766.475037	291.900000
766.512024	287.600000
766.548950	301.000000
766.585937	296.800000
766.622864	293.900000
766.659790	290.000000
766.696777	282.300000
766.733704	295.500000
766.770691	288.400000
766.807678	300.800000
766.844604	293.900000
766.881531	294.300000
766.918518	302.100000
766.955444	303.300000
766.992432	296.500000
767.029358	297.300000
767.066284	303.500000
767.103271	301.200000
767.140198	330.200000
767.177124	315.900000
767.214050	307.800000
767.251038	308.800000
767.287964	306.400000
767.324890	300.700000
767.361816	310.500000
767.398743	314.700000
767.435730	309.100000
767.472595	311.500000
767.509583	318.600000
767.546509	306.500000
767.583374	315.000000
767.620361	307.200000
767.657288	313.900000
767.694214	312.600000
767.731140	312.800000
767.768066	313.100000
767.804993	319.000000
767.841919	310.200000
767.878845	318.700000
767.915710	326.400000
767.952698	318.000000
767.989563	322.800000
768.026489	324.500000
768.063416	316.700000
768.100281	317.000000
768.137207	330.400000
768.174133	328.100000
768.211060	331.400000
768.247986	328.400000
768.284912	328.300000
768.321777	329.200000
768.358704	328.200000
768.395630	332.100000
768.432495	324.400000
768.469421	332.400000
768.506348	338.100000
768.543152	342.400000
768.580078	341.700000
768.616943	342.200000
768.653870	342.500000
768.690796	342.300000
768.727661	340.300000
768.764587	343.900000
768.801453	340.700000
768.838318	350.700000
768.875244	349.100000
768.912109	352.900000
768.948975	349.800000
768.985901	347.800000
769.022766	349.000000
769.059631	355.200000
769.096558	351.200000
769.133362	351.800000
769.170288	355.500000
769.207214	353.300000
769.244019	361.500000
769.280945	358.800000
769.317810	367.600000
769.354675	362.100000
769.391541	373.800000
769.428406	367.500000
769.465271	379.300000
769.502136	365.900000
769.539062	373.500000
769.575867	370.700000
769.612732	374.100000
769.649597	377.700000
769.686462	382.900000
769.723328	376.500000
769.760193	375.600000
769.797058	378.200000
769.833923	389.400000
769.870728	382.700000
769.907593	385.300000
769.944519	387.400000
769.981323	390.900000
770.018188	393.400000
770.055054	387.000000
770.091858	387.700000
770.128723	399.700000
770.165588	406.300000
770.202393	389.300000
770.239258	403.700000
770.276062	399.200000
770.312927	400.900000
770.349792	404.200000
770.386597	406.200000
770.423462	414.300000
770.460327	420.400000
770.497131	405.500000
770.533997	400.000000
770.570862	413.000000
770.607605	417.200000
770.644470	411.700000
770.681335	414.800000
770.718140	414.500000
770.754944	407.900000
770.791809	406.500000
770.828613	410.900000
770.865479	410.300000
770.902222	423.400000
770.939087	413.800000
770.975952	407.900000
771.012695	412.300000
771.049561	429.500000
771.086365	416.000000
771.123169	413.900000
771.159973	416.600000
771.196838	419.300000
771.233582	419.100000
771.270447	421.200000
771.307251	423.500000
771.344055	420.700000
771.380859	422.700000
771.417664	418.900000
771.454468	427.800000
771.491272	428.200000
771.528076	423.400000
771.564880	427.500000
771.601685	435.800000
771.638428	425.800000
771.675293	430.100000
771.712097	421.600000
771.748840	439.700000
771.785645	431.300000
771.822449	436.400000
771.859253	438.600000
771.896057	434.500000
771.932861	445.100000
771.969604	436.100000
772.006409	429.900000
772.043213	445.900000
772.079956	440.500000
772.116760	435.100000
772.153503	438.000000
772.190308	449.600000
772.227112	439.500000
772.263855	436.600000
772.300659	441.800000
772.337463	454.600000
772.374207	443.400000
772.411011	440.300000
772.447754	445.400000
772.484497	460.800000
772.521301	450.400000
772.558105	452.900000
772.594849	455.200000
772.631592	459.500000
772.668396	457.700000
772.705139	463.100000
772.741882	458.900000
772.778625	476.500000
772.815430	476.800000
772.852173	471.000000
772.888916	478.600000
772.925720	481.900000
772.962463	487.700000
772.999207	485.900000
773.035950	488.000000
773.072754	489.500000
773.109436	482.800000
773.146240	485.700000
773.182922	482.700000
773.219727	494.200000
773.256470	495.900000
773.293152	481.800000
773.329956	491.500000
773.366699	496.700000
773.403381	484.200000
773.440186	494.800000
773.476929	501.900000
773.513611	495.900000
773.550354	498.700000
773.587158	494.800000
773.623840	492.500000
773.660583	502.400000
773.697327	517.800000
773.734009	507.600000
773.770813	507.000000
773.807495	502.900000
773.844238	505.300000
773.880981	521.700000
773.917664	521.600000
773.954407	529.700000
773.991150	522.300000
774.027832	528.300000
774.064575	517.100000
774.101318	527.900000
774.138000	531.700000
774.174744	527.900000
774.211487	536.000000
774.248108	522.000000
774.284851	519.900000
774.321594	529.300000
774.358276	538.700000
774.395020	547.700000
774.431702	546.800000
774.468384	537.100000
774.505127	532.100000
774.541809	543.900000
774.578491	555.600000
774.615234	555.800000
774.651917	549.200000
774.688599	557.700000
774.725342	563.500000
774.762024	558.400000
774.798706	565.600000
774.835449	568.100000
774.872070	579.800000
774.908813	576.800000
774.945496	576.500000
774.982178	571.600000
775.018860	574.900000
775.055542	580.900000
775.092224	585.400000
775.128967	592.200000
775.165588	591.100000
775.202271	579.400000
775.239014	593.400000
775.275635	592.300000
775.312317	593.400000
775.349060	598.100000
775.385681	601.600000
775.422363	589.200000
775.459045	597.100000
775.495667	601.800000
775.532410	605.800000
775.569092	611.100000
775.605713	611.900000
775.642395	608.400000
775.679016	609.200000
775.715698	612.200000
775.752380	620.500000
775.789001	615.100000
775.825684	616.600000
775.862366	623.500000
775.898987	630.800000
775.935669	616.600000
775.972351	643.600000
776.008972	642.500000
776.045654	640.700000
776.082336	636.600000
776.118958	634.800000
776.155640	637.500000
776.192322	648.900000
776.228882	654.800000
776.265564	647.900000
776.302185	645.800000
776.338867	652.800000
776.375488	638.200000
776.412109	654.300000
776.448792	657.400000
776.485413	665.400000
776.522034	656.200000
776.558716	647.400000
776.595337	649.200000
776.631958	653.300000
776.668579	660.200000
776.705261	666.800000
776.741882	659.200000
776.778503	660.500000
776.815186	657.200000
776.851746	662.600000
776.888367	666.500000
776.924988	674.800000
776.961609	665.300000
776.998291	665.400000
777.034851	661.700000
777.071472	669.700000
777.108154	665.100000
777.144714	679.400000
777.181335	675.000000
777.218018	671.200000
777.254578	676.000000
777.291199	669.500000
777.327759	677.900000
777.364380	686.500000
777.401062	690.000000
777.437622	700.000000
777.474243	686.000000
777.510864	690.500000
777.547424	684.300000
777.584045	691.400000
777.620667	690.500000
777.657227	695.100000
777.693848	696.400000
777.730469	712.000000
777.767029	702.400000
777.803650	707.300000
777.840271	699.600000
777.876831	702.600000
777.913452	708.800000
777.950012	692.000000
777.986633	690.500000
778.023193	690.000000
778.059753	691.100000
778.096375	694.100000
778.132996	705.000000
778.169556	696.200000
778.206116	700.500000
778.242737	695.400000
778.279297	706.200000
778.315857	701.800000
778.352478	704.600000
778.389038	715.400000
778.425598	717.100000
778.462219	724.100000
778.498718	723.400000
778.535339	733.700000
778.571838	732.400000
778.608459	739.500000
778.645020	732.200000
778.681580	738.400000
778.718140	741.500000
778.754761	739.300000
778.791260	744.300000
778.827881	756.900000
778.864441	749.200000
778.900940	758.600000
778.937561	754.600000
778.974121	758.900000
779.010620	740.700000
779.047241	747.200000
779.083801	763.300000
779.120300	760.800000
779.156860	765.300000
779.193359	764.100000
779.229980	765.800000
779.266541	770.700000
779.303040	772.600000
779.339600	764.900000
779.376160	762.700000
779.412659	768.400000
779.449219	765.800000
779.485779	774.100000
779.522278	771.800000
779.558838	779.200000
779.595398	779.700000
779.631897	777.400000
779.668457	773.700000
779.705017	787.600000
779.741516	776.300000
779.778076	771.600000
779.814575	779.500000
779.851074	787.700000
779.887634	784.400000
779.924133	795.700000
779.960693	780.400000
779.997253	792.500000
780.033691	799.100000
780.070251	803.900000
780.106812	816.800000
780.143250	816.000000
780.179810	809.000000
780.216370	811.000000
780.252808	822.300000
780.289368	834.000000
780.325867	835.200000
780.362366	833.000000
780.398865	846.100000
780.435364	836.000000
780.471863	847.100000
780.508423	846.500000
780.544861	852.800000
780.581421	853.500000
780.617920	848.000000
780.654419	840.400000
780.690918	851.900000
780.727417	858.700000
780.763916	857.100000
780.800415	863.200000
780.836914	854.200000
780.873352	861.900000
780.909912	855.900000
780.946411	857.400000
780.982849	868.200000
781.019348	884.900000
781.055786	883.000000
781.092346	871.700000
781.128845	886.600000
781.165283	889.200000
781.201782	903.700000
781.238281	903.300000
781.274719	907.500000
781.311218	903.800000
781.347717	915.800000
781.384155	903.700000
781.420654	903.800000
781.457092	915.000000
781.493591	917.900000
781.530090	908.600000
781.566528	914.600000
781.602966	916.500000
781.639465	908.400000
781.675903	905.500000
781.712402	917.500000
781.748901	921.400000
781.785278	918.100000
781.821777	924.300000
781.858276	919.300000
781.894714	937.200000
781.931152	923.500000
781.967651	936.900000
782.004089	927.400000
782.040527	934.000000
782.076965	930.200000
782.113403	931.900000
782.149902	934.500000
782.186340	926.900000
782.222778	933.700000
782.259277	902.400000
782.295654	843.600000
782.332092	750.300000
782.368591	600.100000
782.404968	454.000000
782.441467	356.700000
782.477905	328.000000
782.514282	344.800000
782.550781	379.400000
782.587219	373.700000
782.623596	361.600000
782.660095	342.000000
782.696472	392.000000
782.732910	513.900000
782.769348	663.100000
782.805786	824.700000
782.842224	917.900000
782.878662	950.700000
782.915039	969.600000
782.951477	976.600000
782.987915	967.400000
783.024292	980.700000
783.060730	984.800000
783.097168	966.900000
783.133545	963.400000
783.169983	962.100000
783.206421	958.500000
783.242798	954.700000
783.279236	943.700000
783.315613	945.300000
783.352051	940.000000
783.388489	930.000000
783.424866	923.100000
783.461304	932.200000
783.497681	937.900000
783.534058	941.400000
783.570496	934.600000
783.606934	928.600000
783.643250	934.200000
783.679687	947.900000
783.716125	939.100000
783.752441	952.000000
783.788879	977.700000
783.825317	982.600000
783.861633	988.200000
783.898071	994.900000
783.934448	1004.500000
783.970825	1021.800000
784.007263	1022.100000
784.043579	1025.300000
784.080017	1032.300000
784.116394	1028.300000
784.152710	1028.900000
784.189148	1038.700000
784.225525	1042.600000
784.261902	1028.800000
784.298279	1023.900000
784.334656	1024.200000
784.371033	1012.200000
784.407410	1018.500000
784.443787	1000.700000
784.480164	989.300000
784.516541	972.200000
784.552856	973.400000
784.589233	963.600000
784.625610	961.700000
784.661987	999.000000
784.698364	991.000000
784.734741	983.900000
784.771057	984.800000
784.807434	990.200000
784.843811	1003.400000
784.880127	1006.600000
784.916504	1042.700000
784.952881	1044.400000
784.989197	1040.600000
785.025574	1044.000000
785.061951	1047.000000
785.098267	1073.300000
785.134644	1068.400000
785.170959	1074.500000
785.207275	1076.900000
785.243652	1075.100000
785.279968	1051.700000
785.316345	1056.700000
785.352722	1060.200000
785.388977	1057.100000
785.425354	1041.500000
785.461731	1018.400000
785.498047	1007.300000
785.534363	1001.300000
785.570679	996.700000
785.606995	1006.800000
785.643372	1014.100000
785.679687	1007.800000
785.716003	995.900000
785.752380	992.900000
785.788635	994.900000
785.825012	1021.000000
785.861328	1035.600000
785.897644	1029.500000
785.933960	1043.500000
785.970337	1049.300000
786.006592	1068.300000
786.042908	1080.500000
786.079285	1099.700000
786.115540	1110.000000
786.151855	1110.300000
786.188171	1104.600000
786.224487	1102.200000
786.260803	1100.300000
786.297119	1115.200000
786.333435	1113.800000
786.369751	1112.900000
786.406006	1107.000000
786.442322	1091.900000
786.478638	1077.300000
786.514954	1089.800000
786.551270	1094.600000
786.587585	1107.600000
786.623840	1091.200000
786.660156	1082.000000
786.696472	1067.400000
786.732727	1062.800000
786.769043	1069.700000
786.805298	1063.700000
786.841614	1074.000000
786.877930	1082.300000
786.914124	1068.000000
786.950439	1087.000000
786.986755	1094.600000
787.023010	1114.100000
787.059326	1127.300000
787.095642	1131.800000
787.131836	1149.900000
787.168152	1136.800000
787.204468	1139.500000
787.240723	1159.500000
787.276978	1174.800000
787.313293	1182.900000
787.349548	1181.100000
787.385803	1185.100000
787.422058	1173.600000
787.458313	1169.200000
787.494629	1170.000000
787.530823	1169.600000
787.567139	1161.100000
787.603455	1154.100000
787.639648	1137.400000
787.675903	1135.400000
787.712219	1133.500000
787.748413	1135.400000
787.784729	1145.600000
787.820984	1134.900000
787.857178	1122.400000
787.893494	1122.700000
787.929749	1114.000000
787.965942	1124.200000
788.002258	1140.700000
788.038452	1155.300000
788.074707	1141.800000
788.110962	1149.300000
788.147217	1151.500000
788.183472	1159.800000
788.219727	1169.800000
788.255920	1191.800000
788.292175	1196.000000
788.328430	1194.500000
788.364624	1179.200000
788.400879	1169.800000
788.437134	1175.700000
788.473328	1176.600000
788.509583	1178.700000
788.545837	1169.700000
788.582031	1168.700000
788.618286	1151.100000
788.654480	1147.700000
788.690735	1164.800000
788.726990	1180.700000
788.763184	1181.900000
788.799377	1191.100000
788.835632	1178.700000
788.871826	1187.800000
788.908081	1186.800000
788.944336	1184.300000
788.980469	1203.400000
789.016724	1196.500000
789.052979	1197.300000
789.089111	1177.000000
789.125366	1180.000000
789.161621	1160.600000
789.197754	1179.700000
789.234009	1177.700000
789.270142	1163.300000
789.306396	1155.000000
789.342590	1145.300000
789.378784	1119.400000
789.414978	1116.600000
789.451233	1139.700000
789.487366	1135.200000
789.523621	1151.200000
789.559814	1141.300000
789.595947	1126.800000
789.632202	1133.800000
789.668335	1144.500000
789.704529	1164.500000
789.740784	1192.500000
789.776917	1198.000000
789.813110	1182.600000
789.849304	1195.000000
789.885498	1191.600000
789.921692	1202.300000
789.957886	1218.900000
789.994019	1222.500000
790.030212	1215.000000
790.066406	1213.700000
790.102539	1208.100000
790.138733	1214.400000
790.174927	1210.400000
790.211060	1227.800000
790.247253	1226.000000
790.283386	1209.000000
790.319580	1190.700000
790.355774	1161.800000
790.391907	1174.600000
790.428101	1190.500000
790.464294	1201.000000
790.500427	1200.100000
790.536621	1179.600000
790.572754	1159.900000
790.608887	1162.200000
790.645081	1167.000000
790.681274	1187.600000
790.717346	1195.400000
790.753540	1183.000000
790.789734	1156.300000
790.825867	1131.500000
790.862000	1113.300000
790.898132	1087.300000
790.934265	1066.600000
790.970459	1080.100000
791.006592	1115.300000
791.042725	1161.600000
791.078918	1193.700000
791.114990	1211.900000
791.151184	1234.400000
791.187317	1265.900000
791.223389	1260.600000
791.259583	1244.500000
791.295715	1249.000000
791.331848	1249.100000
791.367981	1262.100000
791.404114	1275.000000
791.440247	1277.600000
791.476379	1279.500000
791.512451	1255.900000
791.548584	1247.100000
791.584778	1240.700000
791.620850	1261.800000
791.656982	1272.600000
791.693115	1269.700000
791.729187	1267.300000
791.765381	1256.600000
791.801514	1260.900000
791.837585	1260.500000
791.873718	1270.200000
791.909851	1289.900000
791.945923	1306.300000
791.982056	1267.400000
792.018188	1258.000000
792.054260	1261.100000
792.090393	1264.700000
792.126465	1262.000000
792.162598	1277.200000
792.198669	1270.500000
792.234741	1261.800000
792.270874	1248.300000
792.307007	1232.300000
792.343079	1238.400000
792.379150	1255.800000
792.415283	1241.600000
792.451355	1245.800000
792.487488	1220.000000
792.523560	1211.800000
792.559631	1213.700000
792.595764	1205.800000
792.631836	1210.500000
792.667908	1231.600000
792.703979	1216.400000
792.740051	1211.400000
792.776184	1215.800000
792.812256	1213.000000
792.848328	1217.700000
792.884399	1229.600000
792.920471	1237.900000
792.956543	1227.300000
792.992615	1227.900000
793.028748	1221.800000
793.064758	1226.000000
793.100830	1248.700000
793.136963	1267.600000
793.172974	1269.100000
793.209045	1261.600000
793.245178	1272.600000
793.281189	1254.700000
793.317261	1263.500000
793.353271	1270.800000
793.389404	1284.800000
793.425476	1280.500000
793.461487	1265.800000
793.497559	1261.000000
793.533630	1261.900000
793.569641	1255.300000
793.605713	1260.700000
793.641785	1269.600000
793.677795	1272.900000
793.713867	1263.000000
793.749878	1269.200000
793.785950	1272.900000
793.822021	1284.400000
793.858032	1271.600000
793.894104	1284.800000
793.930176	1274.700000
793.966187	1279.500000
794.002258	1257.000000
794.038269	1260.100000
794.074280	1257.800000
794.110352	1284.800000
794.146423	1262.900000
794.182373	1264.500000
794.218445	1262.200000
794.254517	1243.200000
794.290466	1226.200000
794.326538	1235.900000
794.362549	1240.300000
794.398560	1250.700000
794.434631	1249.900000
794.470581	1221.400000
794.506653	1207.400000
794.542664	1212.300000
794.578674	1210.100000
794.614685	1218.600000
794.650757	1209.600000
794.686707	1208.600000
794.722778	1194.800000
794.758789	1202.500000
794.794739	1205.100000
794.830811	1233.500000
794.866821	1260.200000
794.902771	1265.700000
794.938843	1255.200000
794.974792	1250.500000
795.010803	1246.700000
795.046814	1248.700000
795.082825	1235.500000
795.118835	1255.600000
795.154846	1228.200000
795.190796	1237.300000
795.226807	1201.600000
795.262817	1211.900000
795.298767	1213.100000
795.334778	1219.300000
795.370850	1209.900000
795.406799	1218.100000
795.442810	1197.000000
795.478821	1188.100000
795.514709	1184.800000
795.550720	1201.100000
795.586670	1190.500000
795.622681	1197.200000
795.658691	1200.100000
795.694641	1196.700000
795.730652	1177.700000
795.766663	1187.100000
795.802551	1192.800000
795.838562	1208.400000
795.874573	1197.700000
795.910522	1194.800000
795.946472	1179.700000
795.982483	1186.800000
796.018433	1184.600000
796.054382	1195.600000
796.090393	1185.400000
796.126282	1180.900000
796.162292	1170.200000
796.198242	1157.800000
796.234192	1153.900000
796.270203	1150.500000
796.306091	1156.100000
796.342041	1178.700000
796.378052	1169.100000
796.413940	1165.400000
796.449951	1167.400000
796.485901	1169.600000
796.521790	1171.000000
796.557800	1182.900000
796.593689	1193.700000
796.629639	1180.000000
796.665649	1175.600000
796.701599	1166.700000
796.737488	1157.400000
796.773437	1167.200000
796.809387	1172.900000
796.845337	1176.600000
796.881287	1166.100000
796.917175	1142.000000
796.953125	1143.600000
796.989075	1149.000000
797.024963	1156.600000
797.060913	1151.700000
797.096863	1152.500000
797.132751	1146.400000
797.168701	1121.800000
797.204590	1123.500000
797.240540	1129.000000
797.276489	1134.700000
797.312439	1149.300000
797.348328	1148.700000
797.384277	1136.800000
797.420166	1122.000000
797.456055	1117.100000
797.492004	1111.400000
797.527893	1127.000000
797.563843	1136.700000
797.599731	1127.300000
797.635620	1112.500000
797.671570	1116.900000
797.707520	1113.100000
797.743347	1115.100000
797.779297	1128.800000
797.815125	1125.400000
797.851074	1120.200000
797.887024	1100.700000
797.922913	1086.300000
797.958801	1094.800000
797.994690	1090.600000
798.030579	1103.200000
798.066467	1105.700000
798.102356	1096.100000
798.138245	1086.800000
798.174133	1079.000000
798.210083	1087.700000
798.245911	1098.300000
798.281799	1107.700000
798.317749	1099.200000
798.353577	1086.600000
798.389465	1084.400000
798.425293	1080.500000
798.461243	1076.300000
798.497131	1085.700000
798.532959	1091.800000
798.568848	1099.400000
798.604736	1080.600000
798.640564	1064.200000
798.676453	1054.900000
798.712402	1062.200000
798.748230	1069.200000
798.784119	1071.700000
798.820007	1078.500000
798.855835	1068.900000
798.891724	1059.300000
798.927551	1052.700000
798.963379	1063.100000
798.999268	1061.700000
799.035095	1058.100000
799.070984	1052.400000
799.106873	1034.000000
799.142700	1036.400000
799.178528	1025.200000
799.214417	1032.800000
799.250244	1049.400000
799.286133	1043.800000
799.321960	1040.100000
799.357788	1033.100000
799.393677	1029.500000
799.429504	1028.400000
799.465332	1029.000000
799.501221	1040.100000
799.537048	1037.700000
799.572876	1033.800000
799.608704	1030.700000
799.644531	1033.800000
799.680359	1040.000000
799.716248	1050.500000
799.752014	1065.900000
799.787903	1055.800000
799.823730	1047.300000
799.859558	1033.700000
799.895386	1036.800000
799.931213	1034.400000
799.967041	1033.000000
800.002869	1033.900000
800.038696	1047.100000
800.074463	1023.800000
800.110352	1027.000000
800.146179	1015.700000
800.181946	1020.700000
800.217773	1027.100000
800.253540	1025.700000
800.289429	1019.700000
800.325256	1004.100000
800.361023	991.300000
800.396851	999.800000
800.432678	1004.000000
800.468445	1006.200000
800.504272	997.800000
800.540100	979.700000
800.575867	979.300000
800.611694	982.200000
800.647461	974.100000
800.683289	981.800000
800.719116	987.400000
800.754883	983.300000
800.790649	965.000000
800.826477	949.900000
800.862244	969.100000
800.898071	959.900000
800.933838	959.700000
800.969604	963.300000
801.005432	962.200000
801.041199	955.600000
801.076965	943.400000
801.112793	936.700000
801.148560	922.400000
801.184326	929.000000
801.220154	930.700000
801.255859	921.200000
801.291687	916.800000
801.327454	911.000000
801.363281	904.100000
801.398987	904.500000
801.434814	908.600000
801.470520	917.400000
801.506287	904.500000
801.542114	891.600000
801.577820	893.600000
801.613647	896.700000
801.649414	891.400000
801.685120	890.600000
801.720886	898.900000
801.756714	886.900000
801.792419	875.200000
801.828186	865.700000
801.863892	877.700000
801.899719	869.100000
801.935486	864.400000
801.971252	875.700000
802.006958	864.000000
802.042725	854.900000
802.078430	860.100000
802.114197	852.800000
802.149963	867.400000
802.185669	855.300000
802.221436	851.900000
802.257202	852.600000
802.292908	850.400000
802.328674	853.700000
802.364441	855.600000
802.400146	852.800000
802.435913	851.100000
802.471558	841.100000
802.507324	842.500000
802.543091	831.700000
802.578796	844.500000
802.614502	847.300000
802.650269	852.700000
802.685974	837.000000
802.721741	835.900000
802.757446	835.800000
802.793152	836.400000
802.828918	843.600000
802.864624	842.600000
802.900330	837.300000
802.936035	832.900000
802.971802	829.200000
803.007446	821.300000
803.043213	815.300000
803.078857	824.800000
803.114624	810.100000
803.150330	816.800000
803.185974	804.800000
803.221741	804.200000
803.257446	815.200000
803.293152	814.200000
803.328857	805.100000
803.364563	801.000000
803.400208	794.600000
803.435974	802.500000
803.471680	796.200000
803.507324	787.700000
803.543030	794.000000
803.578735	797.700000
803.614441	785.600000
803.650146	797.800000
803.685791	783.800000
803.721497	780.800000
803.757202	768.800000
803.792847	777.300000
803.828552	773.200000
803.864258	776.500000
803.899902	768.800000
803.935608	752.600000
803.971313	759.600000
804.006958	758.100000
804.042664	754.000000
804.078308	761.700000
804.113953	758.400000
804.149658	762.400000
804.185364	749.100000
804.221008	756.900000
804.256714	746.900000
804.292297	742.800000
804.328003	741.400000
804.363708	736.300000
804.399292	738.200000
804.434998	735.600000
804.470703	723.000000
804.506287	734.100000
804.541992	729.900000
804.577637	732.200000
804.613281	718.400000
804.648926	715.100000
804.684570	721.900000
804.720215	710.600000
804.755920	711.000000
804.791565	710.200000
804.827209	712.700000
804.862854	709.000000
804.898437	700.800000
804.934143	702.500000
804.969788	699.800000
805.005371	700.400000
805.041077	706.400000
805.076721	702.500000
805.112305	694.300000
805.147949	691.600000
805.183655	686.100000
805.219238	688.200000
805.254883	688.000000
805.290466	698.700000
805.326111	688.400000
805.361755	682.400000
805.397400	683.900000
805.432983	682.000000
805.468628	680.900000
805.504211	687.500000
805.539856	684.300000
805.575500	693.100000
805.611084	682.200000
805.646729	667.900000
805.682373	673.500000
805.717957	681.200000
805.753601	681.900000
805.789246	668.300000
805.824768	683.600000
805.860413	681.800000
805.895996	665.800000
805.931641	667.200000
805.967224	673.300000
806.002869	667.300000
806.038452	679.900000
806.074036	676.200000
806.109619	663.400000
806.145264	659.700000
806.180847	659.000000
806.216431	654.300000
806.252014	661.100000
806.287659	658.200000
806.323181	670.300000
806.358826	659.700000
806.394409	639.600000
806.429993	641.800000
806.465576	657.100000
806.501160	638.900000
806.536743	632.900000
806.572327	646.800000
806.607910	639.400000
806.643494	637.200000
806.679077	630.200000
806.714661	632.000000
806.750244	630.400000
806.785828	621.800000
806.821350	623.500000
806.856934	627.900000
806.892517	624.300000
806.928101	613.200000
806.963684	616.800000
806.999268	624.200000
807.034790	607.200000
807.070374	611.800000
807.105896	605.000000
807.141479	598.100000
807.177063	607.400000
807.212585	597.200000
807.248169	602.200000
807.283752	602.900000
807.319275	599.100000
807.354858	594.700000
807.390381	591.500000
807.425903	590.200000
807.461487	584.800000
807.497070	578.100000
807.532593	578.500000
807.568115	579.000000
807.603699	576.700000
807.639221	566.900000
807.674744	571.600000
807.710266	575.900000
807.745850	576.300000
807.781372	567.200000
807.816895	564.400000
807.852417	564.800000
807.888000	565.400000
807.923523	560.600000
807.959045	564.900000
807.994629	552.800000
808.030090	554.500000
808.065613	559.000000
808.101135	558.200000
808.136658	553.200000
808.172241	554.600000
808.207764	547.200000
808.243225	546.300000
808.278809	544.600000
808.314270	547.200000
808.349792	534.000000
808.385315	532.900000
808.420837	538.800000
808.456360	545.000000
808.491882	544.800000
808.527344	537.500000
808.562866	544.200000
808.598389	539.100000
808.633850	532.500000
808.669434	526.500000
808.704895	535.400000
808.740417	541.500000
808.775940	529.100000
808.811462	527.000000
808.846924	519.200000
808.882385	513.800000
808.917847	516.900000
808.953369	519.300000
808.988892	512.000000
809.024353	518.900000
809.059875	517.600000
809.095398	510.500000
809.130798	504.500000
809.166321	504.500000
809.201843	503.400000
809.237305	505.500000
809.272766	511.200000
809.308228	496.700000
809.343750	497.500000
809.379211	496.200000
809.414734	498.200000
809.450134	506.400000
809.485657	485.400000
809.521118	491.700000
809.556580	490.400000
809.592102	485.700000
809.627502	487.400000
809.663025	484.900000
809.698486	479.800000
809.733887	474.200000
809.769409	480.600000
809.804871	468.300000
809.840271	471.000000
809.875793	473.100000
809.911194	476.000000
809.946655	467.500000
809.982178	463.800000
810.017639	467.400000
810.053040	464.400000
810.088501	461.000000
810.123901	459.000000
810.159424	455.300000
810.194885	452.000000
810.230286	456.200000
810.265747	448.600000
810.301208	444.400000
810.336609	447.300000
810.372070	441.500000
810.407532	443.300000
810.442932	443.700000
810.478394	451.000000
810.513794	444.300000
810.549255	438.500000
810.584717	434.700000
810.620117	429.200000
810.655518	437.700000
810.690979	434.400000
810.726379	434.500000
810.761841	419.600000
810.797302	424.000000
810.832642	419.300000
810.868103	431.800000
810.903564	417.100000
810.938904	429.000000
810.974365	414.000000
811.009827	418.200000
811.045166	409.500000
811.080627	402.700000
811.115967	408.700000
811.151428	417.800000
811.186829	409.100000
811.222229	409.000000
811.257629	400.900000
811.293091	409.000000
811.328430	412.200000
811.363892	408.600000
811.399292	411.500000
811.434631	405.400000
811.470093	410.600000
811.505493	402.100000
811.540833	400.000000
811.576294	405.600000
811.611694	397.400000
811.647034	397.400000
811.682434	396.200000
811.717773	401.100000
811.753235	404.500000
811.788635	395.700000
811.823975	396.300000
811.859375	404.800000
811.894775	391.700000
811.930115	392.300000
811.965515	389.500000
812.000916	395.200000
812.036255	390.300000
812.071655	393.800000
812.106995	384.200000
812.142395	385.600000
812.177795	391.800000
812.213196	389.600000
812.248474	388.500000
812.283875	379.500000
812.319214	382.100000
812.354614	382.300000
812.390015	377.000000
812.425293	378.500000
812.460693	377.800000
812.496094	374.900000
812.531433	366.900000
812.566772	369.100000
812.602173	371.300000
812.637451	370.600000
812.672852	368.000000
812.708191	367.500000
812.743530	364.300000
812.778931	355.200000
812.814270	358.600000
812.849609	366.200000
812.884949	361.100000
812.920227	353.000000
812.955627	367.100000
812.990967	360.700000
813.026306	354.900000
813.061646	344.800000
813.096985	340.800000
813.132324	339.200000
813.167664	342.800000
813.203003	348.700000
813.238281	336.200000
813.273682	334.800000
813.308960	332.800000
813.344299	332.200000
813.379639	343.200000
813.414978	332.500000
813.450256	332.700000
813.485596	335.500000
813.520874	328.000000
813.556213	330.200000
813.591614	335.500000
813.626831	326.100000
813.662170	331.200000
813.697510	341.300000
813.732788	323.500000
813.768127	330.100000
813.803467	328.400000
813.838745	322.600000
813.874084	327.800000
813.909363	325.200000
813.944641	328.300000
813.979980	315.500000
814.015320	320.400000
814.050598	315.600000
814.085876	321.000000
814.121155	318.600000
814.156494	314.500000
814.191772	317.400000
814.227051	312.400000
814.262390	314.400000
814.297668	314.000000
814.332947	316.200000
814.368225	305.900000
814.403564	311.600000
814.438782	307.200000
814.474121	310.100000
814.509338	304.300000
814.544617	315.100000
814.579956	302.000000
814.615173	314.700000
814.650513	308.200000
814.685791	303.000000
814.721008	304.900000
814.756348	304.800000
814.791626	298.400000
814.826843	299.700000
814.862122	300.100000
814.897400	295.000000
814.932678	299.100000
814.967957	299.200000
815.003235	294.600000
815.038452	290.800000
815.073730	287.000000
815.108948	301.100000
815.144226	295.000000
815.179504	300.800000
815.214722	285.900000
815.250000	287.100000
815.285278	291.300000
815.320496	285.200000
815.355774	287.900000
815.391052	289.200000
815.426270	286.500000
815.461487	284.900000
815.496765	280.100000
815.531982	275.900000
815.567261	281.700000
815.602539	289.300000
815.637695	282.800000
815.672974	285.200000
815.708191	284.500000
815.743408	286.100000
815.778687	277.200000
815.813904	285.900000
815.849121	269.600000
815.884399	270.800000
815.919556	270.800000
815.954834	271.500000
815.990051	276.000000
816.025269	278.900000
816.060486	270.100000
816.095703	268.100000
816.130920	272.200000
816.166199	266.200000
816.201416	270.300000
816.236572	275.100000
816.271851	265.400000
816.307007	271.300000
816.342224	260.900000
816.377441	264.400000
816.412659	258.100000
816.447876	268.300000
816.483093	262.100000
816.518250	262.700000
816.553467	260.500000
816.588745	263.600000
816.623901	255.700000
816.659119	251.000000
816.694275	256.800000
816.729492	252.100000
816.764709	288.600000
816.799927	249.200000
816.835083	255.100000
816.870300	247.700000
816.905457	252.200000
816.940674	256.000000
816.975830	249.200000
817.010986	246.300000
817.046204	248.700000
817.081421	243.700000
817.116577	244.200000
817.151733	253.200000
817.186951	252.600000
817.222107	247.400000
817.257324	250.400000
817.292419	246.800000
817.327637	241.500000
817.362854	245.200000
817.398010	239.500000
817.433167	241.500000
817.468323	240.700000
817.503479	241.300000
817.538635	251.100000
817.573853	245.000000
817.608948	241.200000
817.644165	237.200000
817.679321	235.500000
817.714478	234.700000
817.749634	237.300000
817.784790	248.300000
817.819946	243.000000
817.855103	227.000000
817.890198	234.700000
817.925415	227.300000
817.960571	235.700000
817.995667	234.400000
818.030823	235.700000
818.066040	230.500000
818.101135	236.100000
818.136292	233.700000
818.171448	225.900000
818.206543	231.200000
818.241699	234.100000
818.276855	231.500000
818.311951	229.200000
818.347107	228.200000
818.382263	231.700000
818.417358	236.700000
818.452515	236.900000
818.487610	237.500000
818.522766	225.900000
818.557922	237.700000
818.593018	231.600000
818.628113	229.700000
818.663269	223.600000
818.698364	228.500000
818.733521	224.500000
818.768677	228.500000
818.803711	219.600000
818.838867	222.900000
818.874023	224.900000
818.909058	222.800000
818.944214	219.500000
818.979370	226.800000
819.014404	222.800000
819.049561	219.500000
819.084595	224.200000
819.119751	215.700000
819.154846	224.300000
819.189941	220.200000
819.225037	215.300000
819.260193	212.300000
819.295227	212.500000
819.330322	208.700000
819.365479	207.400000
819.400513	239.000000
819.435608	206.300000
819.470764	204.200000
819.505798	207.400000
819.540894	210.400000
819.575989	208.900000
819.611084	216.400000
819.646179	217.200000
819.681213	213.700000
819.716309	209.900000
819.751404	209.500000
819.786438	215.000000
819.821533	205.900000
819.856628	210.700000
819.891663	212.700000
819.926758	219.700000
819.961853	214.500000
819.996887	205.100000
820.031982	212.700000
820.067017	208.200000
820.102112	236.200000
820.137207	206.300000
820.172302	221.500000
820.207275	204.200000
820.242371	203.800000
820.277405	203.200000
820.312500	204.900000
820.347534	208.400000
820.382568	211.200000
820.417664	204.700000
820.452759	204.000000
820.487732	201.700000
820.522827	202.200000
820.557861	201.300000
820.592896	202.600000
820.627930	202.300000
820.662964	199.600000
820.698059	206.300000
820.733093	200.500000
820.768127	205.200000
820.803162	201.900000
820.838196	200.400000
820.873230	202.900000
820.908264	202.700000
820.943298	199.000000
820.978333	207.400000
821.013367	203.200000
821.048401	206.400000
821.083435	207.400000
821.118469	194.700000
821.153503	207.000000
821.188477	201.100000
821.223511	195.100000
821.258484	200.100000
821.293579	201.700000
821.328613	193.600000
821.363647	199.200000
821.398621	192.100000
821.433655	196.000000
821.468628	211.300000
821.503662	197.900000
821.538696	201.300000
821.573669	194.400000
821.608704	201.300000
821.643677	195.000000
821.678650	201.400000
821.713684	206.900000
821.748718	194.700000
821.783691	197.500000
821.818726	197.700000
821.853638	199.400000
821.888672	194.100000
821.923706	198.700000
821.958618	192.800000
821.993652	195.300000
822.028687	201.600000
822.063599	203.700000
822.098633	197.700000
822.133667	192.600000
822.168579	194.400000
822.203613	198.200000
822.238586	192.600000
822.273560	200.800000
822.308533	192.800000
822.343567	193.400000
822.378479	193.300000
822.413452	193.800000
822.448425	190.300000
822.483398	200.200000
822.518372	198.800000
822.553345	191.700000
822.588318	200.800000
822.623291	194.200000
822.658203	192.500000
822.693237	193.500000
822.728210	190.200000
822.763123	196.200000
822.798096	189.300000
822.833069	193.600000
822.867981	193.200000
822.902954	195.300000
822.937927	198.000000
822.972900	205.200000
823.007874	185.700000
823.042725	196.400000
823.077698	204.100000
823.112671	188.100000
823.147583	191.800000
823.182556	196.800000
823.217529	196.600000
823.252441	192.000000
823.287415	206.000000
823.322388	195.300000
823.357239	193.900000
823.392212	201.000000
823.427185	197.400000
823.462097	189.000000
823.497009	197.300000
823.531982	189.600000
823.566895	192.600000
823.601807	189.100000
823.636719	192.200000
823.671631	195.500000
823.706604	192.300000
823.741455	194.500000
823.776428	185.600000
823.811340	195.200000
823.846252	199.300000
823.881165	199.100000
823.916138	194.400000
823.950989	200.900000
823.985901	189.500000
824.020813	193.900000
824.055725	191.100000
824.090637	186.100000
824.125610	196.300000
824.160461	192.800000
824.195374	195.600000
824.230225	198.500000
824.265198	184.900000
824.300110	189.000000
824.334961	203.000000
824.369873	184.400000
824.404785	194.600000
824.439636	197.800000
824.474548	183.100000
824.509460	181.400000
824.544312	198.200000
824.579224	193.500000
824.614075	194.400000
824.648987	191.000000
824.683899	190.300000
824.718811	189.000000
824.753662	198.200000
824.788574	196.100000
824.823364	191.900000
824.858276	188.600000
824.893188	195.800000
824.928040	197.800000
824.962952	194.100000
824.997803	195.800000
825.032654	192.500000
825.067566	195.200000
825.102417	188.000000
825.137268	190.000000
825.172119	190.400000
825.206970	187.800000
825.241882	188.400000
825.276733	187.400000
825.311646	186.900000
825.346436	185.400000
825.381348	186.500000
825.416138	190.800000
825.450989	186.000000
825.485901	181.900000
825.520691	183.000000
825.555542	185.500000
825.590454	188.700000
825.625244	182.200000
825.660095	196.800000
825.695007	193.800000
825.729797	188.900000
825.764648	186.300000
825.799438	188.000000
825.834290	191.500000
825.869202	184.000000
825.903992	191.300000
825.938843	186.600000
825.973694	185.600000
826.008484	202.500000
826.043335	186.000000
826.078186	180.300000
826.112976	196.800000
826.147827	193.300000
826.182678	199.600000
826.217468	182.400000
826.252319	195.500000
826.287109	185.000000
826.321899	196.700000
826.356750	187.300000
826.391541	184.900000
826.426392	194.100000
826.461182	188.800000
826.495972	184.000000
826.530823	180.600000
826.565613	189.200000
826.600403	184.800000
826.635254	192.100000
826.670044	180.200000
826.704834	180.400000
826.739685	184.100000
826.774475	191.000000
826.809265	188.500000
826.844055	186.800000
826.878906	194.900000
826.913635	191.800000
826.948425	191.900000
826.983215	190.900000
827.018005	193.700000
827.052856	187.800000
827.087585	191.000000
827.122375	181.600000
827.157227	187.800000
827.191956	200.600000
827.226746	184.400000
827.261536	193.600000
827.296265	181.600000
827.331116	185.700000
827.365906	192.500000
827.400635	186.400000
827.435425	179.800000
827.470215	196.100000
827.504944	187.400000
827.539734	195.400000
827.574463	187.800000
827.609253	196.700000
827.644043	188.400000
827.678772	195.000000
827.713562	186.400000
827.748352	189.200000
827.783081	186.400000
827.817871	192.100000
827.852600	183.600000
827.887329	189.800000
827.922119	178.300000
827.956848	191.700000
827.991638	202.200000
828.026367	190.300000
828.061157	189.200000
828.095886	189.200000
828.130615	202.600000
828.165344	180.500000
828.200073	188.800000
828.234863	185.900000
828.269592	188.700000
828.304321	193.500000
828.339111	187.600000
828.373779	184.400000
828.408569	194.600000
828.443298	193.300000
828.477966	185.500000
828.512756	188.800000
828.547424	183.300000
828.582214	186.500000
828.616943	187.100000
828.651672	186.500000
828.686340	193.500000
828.721130	185.200000
828.755798	188.600000
828.790527	188.200000
828.825256	190.500000
828.859924	187.200000
828.894714	196.200000
828.929443	196.500000
828.964111	184.800000
828.998840	186.900000
829.033569	185.600000
829.068237	186.500000
829.102966	185.800000
829.137634	190.300000
829.172363	190.700000
829.207092	190.700000
829.241821	185.400000
829.276489	179.600000
829.311157	188.700000
829.345825	188.100000
829.380554	194.500000
829.415283	184.200000
829.449951	183.100000
829.484619	196.200000
829.519348	195.700000
829.554016	187.100000
829.588745	189.100000
829.623413	181.900000
829.658081	201.400000
829.692749	181.200000
829.727417	193.800000
829.762146	189.100000
829.796814	183.600000
829.831482	187.800000
829.866150	190.700000
829.900879	185.600000
829.935486	192.200000
829.970154	186.100000
830.004883	199.500000
830.039490	188.300000
830.074219	184.500000
830.108887	189.000000
830.143494	187.500000
830.178223	182.900000
830.212891	186.800000
830.247498	188.300000
830.282166	196.600000
830.316772	195.100000
830.351501	185.400000
830.386169	188.800000
830.420776	186.800000
830.455444	188.500000
830.490112	185.800000
830.524719	181.200000
830.559387	189.600000
830.594055	191.600000
830.628662	188.100000
830.663330	187.300000
830.697998	196.600000
830.732605	187.400000
830.767273	189.100000
830.801941	188.400000
830.836487	198.300000
830.871155	190.600000
830.905762	189.700000
830.940430	181.600000
830.975098	185.700000
831.009644	189.300000
831.044312	196.600000
831.078979	190.800000
831.113525	180.600000
831.148193	188.900000
831.182861	186.800000
831.217407	192.400000
831.252075	204.700000
831.286621	187.000000
831.321289	185.200000
831.355896	188.500000
831.390564	196.300000
831.425110	189.800000
831.459778	193.500000
831.494324	202.500000
831.528931	191.700000
831.563599	192.600000
831.598145	180.100000
831.632751	187.900000
831.667419	187.700000
831.701965	191.500000
831.736572	193.000000
831.771179	182.100000
831.805786	186.500000
831.840393	195.400000
831.874939	179.300000
831.909546	193.700000
831.944153	180.600000
831.978760	186.500000
832.013306	183.800000
832.047913	195.100000
832.082458	197.400000
832.117065	184.900000
832.151672	197.400000
832.186218	188.900000
832.220825	192.500000
832.255432	180.900000
832.289978	184.600000
832.324585	190.500000
832.359192	192.100000
832.393677	185.000000
832.428284	189.800000
832.462830	188.100000
832.497437	188.200000
832.531982	191.100000
832.566589	186.700000
832.601135	187.900000
832.635681	180.800000
832.670227	187.700000
832.704773	196.500000
832.739380	190.300000
832.773926	189.000000
832.808472	184.300000
832.843079	189.700000
832.877563	190.100000
832.912170	187.200000
832.946716	180.800000
832.981201	194.800000
833.015808	192.000000
833.050293	189.000000
833.084839	184.500000
833.119446	188.300000
833.153992	192.500000
833.188477	189.100000
833.223022	183.600000
833.257568	190.300000
833.292114	195.200000
833.326660	199.900000
833.361145	185.700000
833.395691	181.400000
833.430237	186.900000
833.464783	193.400000
833.499329	184.800000
833.533875	183.900000
833.568359	192.500000
833.602905	195.100000
833.637390	193.700000
833.671875	184.900000
833.706421	187.200000
833.740906	185.600000
833.775452	179.000000
833.809998	186.600000
833.844482	196.300000
833.879028	188.100000
833.913513	186.700000
833.947998	190.200000
833.982544	184.200000
834.017090	184.600000
834.051514	178.500000
834.086060	190.000000
834.120544	188.300000
834.155029	189.800000
834.189575	187.700000
834.223999	190.500000
834.258545	189.500000
834.293030	189.400000
834.327515	189.400000
834.362000	185.000000
834.396545	194.000000
834.430969	186.700000
834.465454	192.700000
834.500000	181.500000
834.534424	192.100000
834.568970	178.400000
834.603455	181.000000
834.637878	184.800000
834.672363	188.500000
834.706909	187.000000
834.741333	188.500000
834.775818	180.300000
834.810242	184.200000
834.844727	189.600000
834.879211	187.600000
834.913635	188.300000
834.948181	189.700000
834.982666	188.100000
835.017090	186.400000
835.051575	190.500000
835.086060	185.700000
835.120483	192.000000
835.154907	192.500000
835.189331	186.800000
835.223816	190.900000
835.258301	181.600000
835.292786	183.100000
835.327209	193.500000
835.361694	185.600000
835.396057	185.500000
835.430542	191.200000
835.465027	190.000000
835.499390	182.600000
835.533875	207.800000
835.568359	184.800000
835.602722	180.400000
835.637207	189.500000
835.671692	182.300000
835.706055	204.900000
835.740540	189.300000
835.774902	190.200000
835.809387	189.600000
835.843811	181.400000
835.878235	197.100000
835.912659	182.100000
835.947083	185.300000
835.981506	189.300000
836.015930	182.400000
836.050354	191.500000
836.084778	198.500000
836.119202	193.000000
836.153625	202.700000
836.187988	184.100000
836.222473	185.200000
836.256897	189.700000
836.291260	188.300000
836.325684	191.600000
836.360046	186.800000
836.394470	187.400000
836.428894	195.200000
836.463318	185.800000
836.497681	192.200000
836.532104	195.500000
836.566467	190.800000
836.600891	187.100000
836.635315	194.700000
836.669678	191.100000
836.704102	193.500000
836.738525	190.000000
836.772888	181.200000
836.807251	186.500000
836.841675	190.900000
836.876038	182.600000
836.910461	185.900000
836.944763	190.700000
836.979187	185.700000
837.013611	193.100000
837.047974	183.500000
837.082336	201.100000
837.116699	190.500000
837.151062	187.900000
837.185486	183.300000
837.219849	187.400000
837.254211	192.500000
837.288574	187.800000
837.322937	183.600000
837.357300	177.500000
837.391663	200.200000
837.426086	193.300000
837.460388	190.100000
837.494751	193.800000
837.529114	186.500000
837.563477	194.100000
837.597839	190.200000
837.632141	189.200000
837.666565	185.900000
837.700928	192.700000
837.735229	193.400000
837.769592	192.300000
837.803955	193.400000
837.838257	186.700000
837.872620	184.000000
837.906982	196.600000
837.941284	190.000000
837.975647	189.600000
838.010010	194.400000
838.044312	187.400000
838.078674	187.100000
838.112976	189.700000
838.147339	193.400000
838.181702	189.500000
838.216003	198.100000
838.250366	191.900000
838.284668	191.100000
838.318970	181.100000
838.353333	188.900000
838.387634	187.600000
838.421936	188.800000
838.456299	192.100000
838.490601	195.500000
838.524902	191.500000
838.559265	193.200000
838.593567	191.700000
838.627869	182.700000
838.662170	191.800000
838.696472	180.800000
838.730774	185.100000
838.765137	194.600000
838.799377	175.200000
838.833740	189.900000
838.868042	195.300000
838.902283	180.500000
838.936646	195.400000
838.970947	191.600000
839.005188	194.600000
839.039551	181.200000
839.073792	194.900000
839.108093	187.500000
839.142395	198.800000
839.176697	183.400000
839.210937	189.700000
839.245300	198.300000
839.279541	182.500000
839.313843	188.100000
839.348145	190.900000
839.382385	193.800000
839.416687	193.000000
839.450989	192.400000
839.485229	188.600000
839.519531	184.400000
839.553833	194.400000
839.588013	190.400000
839.622314	189.700000
839.656555	191.900000
839.690857	188.700000
839.725159	182.400000
839.759460	188.800000
839.793640	187.600000
839.827942	187.800000
839.862183	185.300000
839.896423	189.800000
839.930725	199.000000
839.964966	196.400000
839.999207	197.600000
840.033508	195.200000
840.067688	187.800000
840.101990	198.200000
840.136230	188.800000
840.170471	197.200000
840.204712	185.900000
840.238953	184.800000
840.273193	191.200000
840.307434	193.400000
840.341736	185.400000
840.375916	181.600000
840.410217	186.500000
840.444397	195.700000
840.478638	191.100000
840.512878	194.400000
840.547119	189.500000
840.581360	191.400000
840.615601	198.900000
840.649780	199.000000
840.684021	188.700000
840.718262	197.000000
840.752441	195.300000
840.786682	189.700000
840.820862	191.300000
840.855103	195.100000
840.889343	190.200000
840.923584	193.800000
840.957764	192.000000
840.992004	192.100000
841.026184	202.500000
841.060425	188.200000
841.094666	186.300000
841.128845	193.600000
841.163025	190.900000
841.197266	192.000000
841.231445	188.900000
841.265686	189.900000
841.299866	184.600000
841.334045	197.100000
841.368286	188.400000
841.402405	197.000000
841.436646	193.700000
841.470825	186.100000
841.505005	188.500000
841.539185	186.100000
841.573425	184.900000
841.607544	189.600000
841.641785	189.300000
841.675964	184.300000
841.710144	189.700000
841.744324	188.100000
841.778503	188.400000
841.812683	186.200000
841.846863	199.500000
841.881042	197.500000
841.915222	187.300000
841.949402	205.100000
841.983521	180.000000
842.017700	187.800000
842.051880	191.000000
842.086060	191.700000
842.120239	189.800000
842.154419	187.900000
842.188538	190.100000
842.222717	187.200000
842.256897	199.200000
842.291016	188.500000
842.325195	192.300000
842.359375	201.100000
842.393494	196.500000
842.427673	190.200000
842.461853	192.400000
842.495911	196.800000
842.530090	192.300000
842.564209	189.600000
842.598389	192.100000
842.632568	190.300000
842.666626	194.200000
842.700806	185.500000
842.734985	187.800000
842.769043	193.800000
842.803223	188.700000
842.837402	187.200000
842.871460	188.600000
842.905640	198.800000
842.939697	185.600000
842.973877	191.400000
843.007996	194.000000
843.042175	198.100000
843.076233	187.700000
843.110413	190.200000
843.144470	198.800000
843.178589	193.700000
843.212769	186.800000
843.246826	193.700000
843.280945	187.100000
843.315125	187.900000
843.349182	187.100000
843.383301	196.600000
843.417419	203.300000
843.451538	189.100000
843.485657	189.800000
843.519714	188.800000
843.553833	193.600000
843.587952	187.200000
843.622070	185.800000
843.656128	192.900000
843.690247	188.500000
843.724304	187.500000
843.758423	191.400000
843.792542	188.500000
843.826599	191.400000
843.860718	187.700000
843.894836	183.500000
843.928894	189.000000
843.963013	192.700000
843.997070	184.700000
844.031128	183.600000
844.065247	194.800000
844.099304	195.300000
844.133362	192.100000
844.167480	191.500000
844.201599	196.500000
844.235596	191.700000
844.269714	191.800000
844.303711	193.400000
844.337830	181.800000
844.371948	192.600000
844.405945	189.200000
844.440063	184.800000
844.474121	202.800000
844.508118	189.100000
844.542236	189.600000
844.576294	188.500000
844.610352	184.900000
844.644409	188.000000
844.678406	180.700000
844.712524	194.000000
844.746582	196.100000
844.780640	189.100000
844.814636	190.400000
844.848755	198.200000
844.882751	188.800000
844.916809	195.500000
844.950867	190.900000
844.984863	198.200000
845.018921	189.700000
845.052979	186.300000
845.086975	191.000000
845.121033	184.400000
845.155090	186.900000
845.189087	196.100000
845.223145	188.900000
845.257141	189.900000
845.291199	194.600000
845.325256	197.100000
845.359253	192.700000
845.393250	201.100000
845.427307	189.800000
845.461304	191.200000
845.495361	191.000000
845.529358	200.600000
845.563354	187.300000
845.597412	185.900000
845.631409	198.400000
845.665405	196.200000
845.699463	196.000000
845.733459	189.200000
845.767456	197.800000
845.801453	188.700000
845.835449	196.500000
845.869446	194.900000
845.903503	194.500000
845.937439	185.800000
845.971497	196.900000
846.005493	185.300000
846.039429	193.100000
846.073486	201.600000
846.107483	188.500000
846.141418	189.900000
846.175476	190.100000
846.209473	197.700000
846.243408	186.400000
846.277405	191.700000
846.311401	186.100000
846.345337	190.200000
846.379395	196.000000
846.413330	187.100000
846.447327	198.300000
846.481323	184.000000
846.515259	187.000000
846.549255	191.000000
846.583252	191.300000
846.617187	185.200000
846.651184	191.700000
846.685120	188.500000
846.719055	198.200000
846.753052	195.000000
846.786987	194.000000
846.820984	184.200000
846.854980	196.800000
846.888916	186.400000
846.922852	192.100000
846.956848	199.800000
846.990723	186.100000
847.024719	192.600000
847.058716	189.800000
847.092590	196.800000
847.126587	192.900000
847.160522	190.000000
847.194458	194.600000
847.228455	186.900000
847.262390	185.700000
847.296265	189.900000
847.330261	197.000000
847.364136	188.200000
847.398132	186.100000
847.432068	191.900000
847.466003	189.700000
847.499939	190.500000
847.533875	193.900000
847.567749	188.700000
847.601746	188.200000
847.635681	194.700000
847.669556	181.500000
847.703491	195.700000
847.737427	206.600000
847.771301	186.300000
847.805237	192.400000
847.839233	191.700000
847.873108	190.000000
847.907043	188.600000
847.940918	197.700000
847.974854	192.600000
848.008789	195.600000
848.042664	191.100000
848.076538	193.100000
848.110474	190.200000
848.144348	192.100000
848.178284	183.500000
848.212219	190.800000
848.246094	188.900000
848.279968	191.700000
848.313904	192.800000
848.347778	191.300000
848.381653	189.600000
848.415588	187.500000
848.449463	187.600000
848.483337	194.600000
848.517212	195.900000
848.551086	191.800000
848.585022	186.300000
848.618835	200.000000
848.652771	187.200000
848.686646	186.200000
848.720520	198.700000
848.754395	190.600000
848.788330	194.400000
848.822144	194.900000
848.856018	189.000000
848.889954	200.800000
848.923767	185.000000
848.957642	186.700000
848.991577	194.400000
849.025391	188.500000
849.059265	188.300000
849.093079	186.400000
849.126953	184.500000
849.160828	196.200000
849.194641	191.000000
849.228577	189.300000
849.262451	190.100000
849.296265	189.200000
849.330139	183.800000
849.364014	191.700000
849.397827	193.800000
849.431702	190.600000
849.465515	194.700000
849.499329	182.200000
849.533203	186.000000
849.567078	179.600000
849.600891	192.700000
849.634766	188.900000
849.668518	195.700000
849.702393	191.500000
849.736267	185.100000
849.770020	201.600000
849.803894	194.100000
849.837769	190.300000
849.871521	191.300000
849.905396	194.400000
849.939270	186.600000
849.973022	188.500000
850.006897	193.800000
850.040710	192.300000
850.074524	194.800000
850.108337	189.100000
850.142151	195.500000
850.175964	196.200000
850.209778	190.100000
850.243530	178.300000
850.277405	197.100000
850.311218	191.500000
850.344971	187.300000
850.378845	198.000000
850.412659	187.800000
850.446411	192.000000
850.480225	190.500000
850.514038	195.600000
850.547791	194.200000
850.581665	190.400000
850.615417	187.900000
850.649231	191.100000
850.683044	190.800000
850.716858	189.800000
850.750610	191.000000
850.784424	194.100000
850.818176	188.600000
850.851929	188.300000
850.885742	187.600000
850.919495	191.500000
850.953308	198.000000
850.987122	198.700000
851.020874	185.000000
851.054626	183.400000
851.088440	196.200000
851.122192	197.200000
851.156006	190.900000
851.189697	189.600000
851.223511	184.200000
851.257263	195.700000
851.291077	192.900000
851.324829	190.200000
851.358582	189.100000
851.392334	188.800000
851.426086	189.800000
851.459900	199.000000
851.493591	191.400000
851.527344	192.600000
851.561157	189.800000
851.594849	194.900000
851.628662	192.500000
851.662415	198.500000
851.696106	192.900000
851.729858	196.500000
851.763611	185.200000
851.797363	190.900000
851.831116	186.400000
851.864868	194.000000
851.898560	194.400000
851.932312	189.000000
851.966064	191.900000
851.999817	191.300000
852.033569	190.800000
852.067261	195.100000
852.101013	186.600000
852.134766	190.800000
852.168457	178.600000
852.202209	195.100000
852.235901	185.800000
852.269592	195.600000
852.303345	199.300000
852.337036	194.500000
852.370789	191.200000
852.404541	195.700000
852.438171	186.600000
852.471924	190.400000
852.505676	184.100000
852.539307	193.600000
852.573059	187.000000
852.606812	188.100000
852.640442	189.000000
852.674194	195.300000
852.707886	201.100000
852.741577	198.200000
852.775269	185.100000
852.809021	191.000000
852.842651	193.600000
852.876404	195.700000
852.910034	190.800000
852.943787	196.500000
852.977478	194.200000
853.011108	187.700000
853.044861	187.500000
853.078552	198.300000
853.112183	193.200000
853.145874	192.400000
853.179626	180.800000
853.213257	190.900000
853.246948	189.600000
853.280640	199.000000
853.314270	190.600000
853.347961	197.800000
853.381653	193.400000
853.415283	194.500000
853.448975	188.300000
853.482605	191.600000
853.516296	191.300000
853.549988	185.300000
853.583618	192.000000
853.617310	192.400000
853.651001	194.200000
853.684631	186.500000
853.718323	189.200000
853.751953	198.400000
853.785583	182.400000
853.819275	194.900000
853.852966	192.800000
853.886536	181.800000
853.920227	187.400000
853.953918	195.600000
853.987488	188.400000
854.021179	194.100000
854.054749	200.300000
854.088440	191.700000
854.122131	186.800000
854.155701	194.700000
854.189331	187.100000
854.223022	193.500000
854.256592	194.900000
854.290283	185.900000
854.323914	194.500000
854.357483	192.000000
854.391174	194.600000
854.424744	199.400000
854.458374	192.400000
854.492065	201.600000
854.525696	189.500000
854.559265	197.800000
854.592896	201.000000
854.626465	191.000000
854.660095	190.000000
854.693787	192.000000
854.727356	189.500000
854.760986	194.800000
854.794617	191.600000
854.828186	189.300000
854.861816	193.400000
854.895447	191.500000
854.929016	192.100000
854.962585	192.800000
854.996155	198.100000
855.029785	193.400000
855.063416	193.400000
855.097046	196.600000
855.130615	185.900000
855.164185	197.400000
855.197754	190.900000
855.231384	196.300000
855.264954	188.500000
855.298523	195.100000
855.332153	192.000000
855.365723	200.300000
855.399292	186.900000
855.432922	190.100000
855.466492	192.700000
855.500061	187.400000
855.533630	187.300000
855.567200	194.300000
855.600769	194.500000
855.634338	195.700000
855.667969	193.900000
855.701477	187.200000
855.735046	186.600000
855.768616	184.300000
855.802185	192.900000
855.835754	205.300000
855.869324	182.700000
855.902893	190.200000
855.936401	197.800000
855.969971	192.100000
856.003540	184.700000
856.037109	196.300000
856.070618	190.300000
856.104187	185.100000
856.137695	189.500000
856.171265	182.900000
856.204834	191.000000
856.238403	196.600000
856.271912	189.000000
856.305481	192.200000
856.338989	184.700000
856.372559	193.500000
856.406128	191.300000
856.439636	196.100000
856.473145	189.600000
856.506653	197.200000
856.540222	190.900000
856.573792	198.400000
856.607300	194.900000
856.640808	186.000000
856.674377	193.500000
856.707825	220.300000
856.741394	196.700000
856.774902	186.600000
856.808472	183.800000
856.841980	194.500000
856.875488	200.100000
856.908936	183.800000
856.942505	189.600000
856.976013	190.000000
857.009521	187.000000
857.043030	191.300000
857.076477	191.000000
857.110046	196.500000
857.143555	193.400000
857.177063	196.600000
857.210571	188.900000
857.244080	184.000000
857.277527	195.400000
857.311035	188.800000
857.344543	194.600000
857.378052	189.100000
857.411499	197.000000
857.445068	199.300000
857.478516	189.900000
857.512024	185.300000
857.545532	189.700000
857.578979	193.200000
857.612427	193.000000
857.645874	187.800000
857.679382	191.900000
857.712891	195.000000
857.746399	190.600000
857.779846	195.800000
857.813354	196.700000
857.846741	189.300000
857.880249	186.800000
857.913757	191.200000
857.947266	193.500000
857.980652	194.700000
858.014160	189.100000
858.047546	188.000000
858.081055	189.100000
858.114563	199.300000
858.147949	185.300000
858.181458	193.400000
858.214844	189.700000
858.248352	184.000000
858.281799	197.500000
858.315308	204.300000
858.348694	193.400000
858.382141	200.800000
858.415588	194.600000
858.449036	197.100000
858.482483	194.100000
858.515930	188.400000
858.549377	192.200000
858.582825	199.200000
858.616211	194.100000
858.649658	192.800000
858.683105	184.700000
858.716553	187.800000
858.750000	185.200000
858.783386	190.200000
858.816833	183.400000
858.850281	194.700000
858.883728	194.100000
858.917114	191.600000
858.950562	199.300000
858.983948	200.100000
859.017395	195.300000
859.050781	190.400000
859.084167	187.200000
859.117615	187.200000
859.151062	194.400000
859.184448	187.600000
859.217834	189.600000
859.251282	190.100000
859.284668	187.400000
859.318054	182.100000
859.351440	187.900000
859.384888	198.300000
859.418274	182.900000
859.451721	184.100000
859.485046	193.500000
859.518494	192.800000
859.551819	187.500000
859.585266	193.800000
859.618652	193.100000
859.652039	186.400000
859.685425	186.000000
859.718811	184.200000
859.752197	180.500000
859.785583	198.400000
859.819031	198.700000
859.852356	193.400000
859.885742	188.900000
859.919067	190.100000
859.952454	188.700000
859.985901	195.400000
860.019287	189.700000
860.052612	0.000000
860.085999	0.000000
860.119324	0.000000
860.152710	0.000000
860.186096	0.000000
860.219421	0.000000
860.252808	0.000000
860.286133	0.000000
860.319519	0.000000
860.352905	0.000000
860.386292	0.000000
860.419617	0.000000
860.452942	0.000000
860.486267	0.000000
860.519653	0.000000
860.553040	0.000000
860.586365	0.000000
860.619690	0.000000
860.653076	0.000000
860.686340	0.000000
860.719727	0.000000
860.753113	0.000000
860.786377	0.000000
860.819763	0.000000
860.853027	0.000000
860.886414	0.000000
860.919739	0.000000
860.953125	0.000000
860.986389	0.000000
861.019714	0.000000
861.053040	0.000000
861.086365	0.000000
861.119690	0.000000
861.153076	0.000000
861.186340	0.000000
861.219666	0.000000
861.252930	0.000000
861.286316	0.000000
861.319641	0.000000
861.352905	0.000000
861.386230	0.000000
861.419495	0.000000
861.452820	0.000000
861.486145	0.000000
861.519470	0.000000
861.552734	0.000000
861.586060	0.000000
861.619324	0.000000
861.652649	0.000000
861.685974	0.000000
861.719238	0.000000
861.752563	0.000000
861.785828	0.000000
861.819092	0.000000
861.852417	0.000000
861.885742	0.000000
861.918945	0.000000
861.952271	0.000000
861.985535	0.000000
862.018799	0.000000
862.052124	0.000000
862.085449	0.000000
862.118652	0.000000
862.151978	0.000000
862.185181	0.000000
862.218506	0.000000
862.251770	0.000000
862.285034	0.000000
862.318298	0.000000
862.351562	0.000000
862.384827	0.000000
862.418091	0.000000
862.451355	0.000000
862.484619	0.000000
862.517883	0.000000
862.551086	0.000000
862.584351	0.000000
862.617676	0.000000
862.650940	0.000000
862.684143	0.000000
862.717407	0.000000
862.750610	0.000000
862.783875	0.000000
862.817139	0.000000
862.850342	0.000000
862.883606	0.000000
862.916870	0.000000
862.950073	0.000000
862.983337	0.000000
863.016602	0.000000
863.049805	0.000000
863.083069	0.000000
863.116211	0.000000
863.149475	0.000000
863.182739	0.000000
863.216003	0.000000
863.249146	0.000000
863.282410	0.000000
863.315613	0.000000
863.348816	0.000000
863.382080	0.000000
863.415222	0.000000
863.448486	0.000000
863.481689	0.000000
863.514893	0.000000
863.548157	0.000000
863.581360	0.000000
863.614502	0.000000
863.647766	0.000000
863.680908	0.000000
863.714172	0.000000
863.747375	0.000000
863.780579	0.000000
863.813721	0.000000
863.846985	0.000000
863.880127	0.000000
863.913330	0.000000
863.946533	0.000000
863.979675	0.000000
864.012939	0.000000
