Model Number: SPM-001-M   
Serial Number: 10090201
Firmware Version: 004.17.6
Exposure Time: 500000.000000us
Data Taken on: 20-03-2021 10:22:30.635
Wavelength	Amplitude
733.770752	0.000000
733.808716	0.000000
733.846619	0.000000
733.884583	0.000000
733.922546	0.000000
733.960449	0.000000
733.998413	0.000000
734.036377	0.000000
734.074219	0.000000
734.112183	0.000000
734.150085	0.000000
734.188049	0.000000
734.226013	0.000000
734.263916	0.000000
734.301819	0.000000
734.339783	0.000000
734.377686	0.000000
734.415588	0.000000
734.453552	0.000000
734.491455	0.000000
734.529419	0.000000
734.567322	0.000000
734.605225	0.000000
734.643127	0.000000
734.681091	0.000000
734.718994	0.000000
734.756897	0.000000
734.794800	0.000000
734.832703	0.000000
734.870667	0.000000
734.908508	0.000000
734.946472	0.000000
734.984375	0.000000
735.022278	0.000000
735.060181	0.000000
735.098083	0.000000
735.135986	0.000000
735.173889	0.000000
735.211792	0.000000
735.249695	0.000000
735.287598	0.000000
735.325439	0.000000
735.363403	0.000000
735.401306	0.000000
735.439148	0.000000
735.477051	0.000000
735.515015	0.000000
735.552856	0.000000
735.590759	0.000000
735.628662	0.000000
735.666504	0.000000
735.704407	0.000000
735.742310	0.000000
735.780212	0.000000
735.818115	0.000000
735.856018	0.000000
735.893860	0.000000
735.931763	0.000000
735.969604	0.000000
736.007507	0.000000
736.045410	0.000000
736.083252	0.000000
736.121094	0.000000
736.158997	0.000000
736.196838	0.000000
736.234741	0.000000
736.272644	0.000000
736.310486	0.000000
736.348389	0.000000
736.386230	0.000000
736.424072	0.000000
736.461975	0.000000
736.499878	0.000000
736.537720	0.000000
736.575562	0.000000
736.613403	0.000000
736.651306	0.000000
736.689148	0.000000
736.726990	0.000000
736.764893	0.000000
736.802734	0.000000
736.840576	0.000000
736.878418	0.000000
736.916321	0.000000
736.954102	0.000000
736.992004	0.000000
737.029846	0.000000
737.067688	0.000000
737.105530	0.000000
737.143372	0.000000
737.181213	0.000000
737.219116	0.000000
737.256897	0.000000
737.294739	0.000000
737.332642	0.000000
737.370422	0.000000
737.408325	0.000000
737.446167	0.000000
737.483948	0.000000
737.521790	0.000000
737.559692	0.000000
737.597473	0.000000
737.635315	0.000000
737.673157	0.000000
737.710999	0.000000
737.748840	0.000000
737.786621	0.000000
737.824463	0.000000
737.862305	0.000000
737.900085	0.000000
737.937927	0.000000
737.975769	0.000000
738.013550	0.000000
738.051392	0.000000
738.089233	0.000000
738.127014	0.000000
738.164856	0.000000
738.202698	0.000000
738.240479	0.000000
738.278320	0.000000
738.316162	0.000000
738.353943	0.000000
738.391785	0.000000
738.429565	0.000000
738.467407	0.000000
738.505188	0.000000
738.542969	0.000000
738.580811	0.000000
738.618652	0.000000
738.656372	0.000000
738.694214	0.000000
738.732056	0.000000
738.769836	0.000000
738.807617	0.000000
738.845459	0.000000
738.883240	0.000000
738.921021	0.000000
738.958862	0.000000
738.996582	0.000000
739.034424	0.000000
739.072205	0.000000
739.109985	0.000000
739.147827	0.000000
739.185547	0.000000
739.223389	0.000000
739.261169	0.000000
739.298889	0.000000
739.336731	0.000000
739.374512	0.000000
739.412292	0.000000
739.450073	0.000000
739.487854	0.000000
739.525635	0.000000
739.563416	0.000000
739.601135	0.000000
739.638977	0.000000
739.676758	0.000000
739.714478	0.000000
739.752258	0.000000
739.790100	0.000000
739.827820	0.000000
739.865601	0.000000
739.903381	0.000000
739.941101	0.000000
739.978882	192.400000
740.016724	188.800000
740.054443	194.100000
740.092224	185.400000
740.130005	183.700000
740.167725	185.200000
740.205505	185.400000
740.243225	194.900000
740.281006	191.100000
740.318787	181.600000
740.356506	195.000000
740.394287	192.400000
740.432068	185.200000
740.469727	181.700000
740.507507	193.300000
740.545288	188.200000
740.583008	193.000000
740.620789	189.100000
740.658569	181.200000
740.696228	188.700000
740.734009	194.800000
740.771790	176.000000
740.809509	193.300000
740.847229	181.500000
740.884949	186.100000
740.922729	180.900000
740.960449	187.300000
740.998169	182.800000
741.035950	183.500000
741.073669	188.500000
741.111389	189.000000
741.149170	198.000000
741.186890	199.600000
741.224609	191.500000
741.262329	189.500000
741.300110	196.800000
741.337769	183.200000
741.375549	181.800000
741.413208	189.700000
741.450989	182.300000
741.488708	185.000000
741.526367	185.700000
741.564148	192.900000
741.601868	192.200000
741.639526	188.700000
741.677307	190.900000
741.715027	191.200000
741.752686	185.100000
741.790466	195.000000
741.828186	191.500000
741.865845	186.300000
741.903564	179.900000
741.941345	187.900000
741.979004	184.300000
742.016724	191.400000
742.054382	189.900000
742.092102	191.900000
742.129822	180.900000
742.167480	187.400000
742.205200	187.600000
742.242920	191.200000
742.280640	192.800000
742.318359	184.700000
742.356079	186.200000
742.393738	192.900000
742.431396	188.400000
742.469116	192.400000
742.506775	179.800000
742.544495	189.900000
742.582214	193.100000
742.619873	185.900000
742.657593	195.700000
742.695251	191.300000
742.732971	187.200000
742.770630	188.900000
742.808289	189.500000
742.846008	186.300000
742.883728	191.100000
742.921326	188.200000
742.959045	186.000000
742.996765	188.900000
743.034424	188.100000
743.072083	185.400000
743.109802	189.700000
743.147400	181.300000
743.185120	189.900000
743.222839	186.200000
743.260437	195.300000
743.298157	188.600000
743.335754	180.800000
743.373474	186.500000
743.411133	182.000000
743.448792	188.200000
743.486450	188.200000
743.524170	181.000000
743.561768	188.000000
743.599487	194.700000
743.637146	200.000000
743.674744	187.400000
743.712463	185.600000
743.750122	189.600000
743.787720	191.400000
743.825439	185.300000
743.863037	185.600000
743.900696	189.200000
743.938416	214.600000
743.976013	188.200000
744.013672	197.100000
744.051331	192.500000
744.088928	198.000000
744.126587	194.000000
744.164307	190.200000
744.201904	185.500000
744.239563	191.000000
744.277222	191.500000
744.314819	188.000000
744.352478	196.900000
744.390137	190.300000
744.427734	192.100000
744.465393	185.900000
744.502991	184.400000
744.540649	190.800000
744.578308	190.400000
744.615906	183.200000
744.653564	178.400000
744.691223	193.200000
744.728821	181.800000
744.766418	186.900000
744.804077	190.500000
744.841675	184.500000
744.879333	182.800000
744.916992	187.100000
744.954529	185.800000
744.992187	195.200000
745.029785	188.200000
745.067444	183.400000
745.105042	189.800000
745.142639	191.300000
745.180298	197.700000
745.217896	185.500000
745.255493	186.400000
745.293152	192.200000
745.330750	192.500000
745.368347	196.500000
745.405945	192.300000
745.443604	189.400000
745.481140	193.500000
745.518799	186.500000
745.556396	193.400000
745.593994	193.300000
745.631592	188.900000
745.669189	183.800000
745.706787	190.300000
745.744385	185.700000
745.781982	190.900000
745.819580	186.100000
745.857178	189.400000
745.894775	188.500000
745.932373	189.600000
745.969971	188.900000
746.007568	179.800000
746.045166	199.900000
746.082764	194.000000
746.120300	191.800000
746.157898	192.800000
746.195557	188.500000
746.233093	181.600000
746.270691	192.600000
746.308228	191.000000
746.345825	194.400000
746.383423	191.400000
746.420959	184.200000
746.458557	185.800000
746.496155	186.600000
746.533691	186.500000
746.571289	183.500000
746.608887	188.200000
746.646423	190.000000
746.684021	189.100000
746.721619	187.100000
746.759155	188.900000
746.796753	182.000000
746.834351	182.100000
746.871826	184.400000
746.909424	195.600000
746.946960	190.700000
746.984558	186.600000
747.022156	187.300000
747.059631	194.400000
747.097229	190.500000
747.134827	186.200000
747.172363	196.500000
747.209900	189.900000
747.247498	183.700000
747.285034	194.400000
747.322571	196.200000
747.360168	187.300000
747.397644	181.400000
747.435242	192.300000
747.472778	196.500000
747.510315	187.100000
747.547913	186.600000
747.585388	194.800000
747.622925	188.400000
747.660522	179.500000
747.697998	184.200000
747.735596	189.500000
747.773132	185.800000
747.810669	188.700000
747.848206	191.800000
747.885742	184.400000
747.923279	182.700000
747.960815	191.200000
747.998352	188.600000
748.035889	194.900000
748.073425	192.900000
748.110901	186.600000
748.148437	184.500000
748.185974	189.600000
748.223511	198.100000
748.261047	190.300000
748.298584	189.200000
748.336060	188.600000
748.373596	189.900000
748.411133	208.700000
748.448608	184.600000
748.486145	193.500000
748.523682	195.800000
748.561218	195.700000
748.598755	189.200000
748.636292	193.100000
748.673706	185.600000
748.711243	196.100000
748.748718	189.800000
748.786255	188.600000
748.823792	187.200000
748.861267	183.700000
748.898804	190.300000
748.936340	190.500000
748.973816	185.800000
749.011292	194.400000
749.048828	190.200000
749.086304	192.300000
749.123840	200.600000
749.161316	184.000000
749.198792	197.900000
749.236328	194.700000
749.273743	188.800000
749.311279	187.600000
749.348816	190.500000
749.386230	190.200000
749.423767	177.200000
749.461304	192.200000
749.498718	188.700000
749.536255	195.200000
749.573730	201.100000
749.611206	195.300000
749.648682	189.000000
749.686218	188.700000
749.723633	194.000000
749.761169	186.900000
749.798645	185.800000
749.836060	188.500000
749.873596	187.500000
749.911011	189.000000
749.948547	196.000000
749.986023	190.100000
750.023437	187.300000
750.060913	182.900000
750.098450	184.100000
750.135864	186.700000
750.173340	189.900000
750.210815	193.200000
750.248291	184.600000
750.285767	187.800000
750.323242	195.300000
750.360657	189.800000
750.398132	185.100000
750.435608	191.700000
750.473022	184.600000
750.510498	184.100000
750.547974	184.600000
750.585449	185.700000
750.622925	178.900000
750.660339	198.100000
750.697815	189.800000
750.735291	187.800000
750.772644	190.100000
750.810120	189.600000
750.847595	190.800000
750.885010	183.600000
750.922485	196.600000
750.959961	187.300000
750.997375	195.900000
751.034851	192.500000
751.072266	193.500000
751.109680	181.700000
751.147156	194.700000
751.184570	190.900000
751.221985	191.100000
751.259460	179.600000
751.296875	189.800000
751.334290	189.100000
751.371765	193.800000
751.409180	191.600000
751.446594	194.400000
751.484070	191.400000
751.521423	191.200000
751.558899	190.900000
751.596375	197.800000
751.633728	196.800000
751.671204	203.200000
751.708618	185.600000
751.746033	189.800000
751.783447	184.400000
751.820801	183.800000
751.858276	192.400000
751.895691	188.800000
751.933105	187.700000
751.970520	183.700000
752.007935	187.300000
752.045349	193.200000
752.082764	190.200000
752.120178	187.200000
752.157532	185.300000
752.195007	185.900000
752.232422	192.200000
752.269775	193.900000
752.307190	192.000000
752.344543	183.500000
752.382019	188.400000
752.419434	186.100000
752.456787	190.800000
752.494202	192.200000
752.531616	191.100000
752.568970	191.400000
752.606384	189.300000
752.643799	189.800000
752.681152	196.900000
752.718567	190.700000
752.755981	182.700000
752.793335	192.200000
752.830750	182.000000
752.868164	194.800000
752.905518	184.600000
752.942932	191.700000
752.980225	184.200000
753.017639	193.000000
753.055054	187.700000
753.092407	190.600000
753.129822	195.300000
753.167175	197.800000
753.204529	189.800000
753.241943	187.100000
753.279358	182.100000
753.316650	192.400000
753.354065	190.800000
753.391479	192.000000
753.428772	197.600000
753.466187	192.800000
753.503479	183.100000
753.540894	189.000000
753.578308	183.500000
753.615601	184.100000
753.653015	189.900000
753.690369	188.700000
753.727722	185.000000
753.765076	183.500000
753.802490	184.200000
753.839783	181.500000
753.877136	186.600000
753.914551	204.700000
753.951843	183.200000
753.989258	194.000000
754.026611	190.100000
754.063904	191.100000
754.101257	182.800000
754.138611	180.900000
754.175964	188.500000
754.213318	200.600000
754.250610	181.500000
754.288025	187.200000
754.325378	182.500000
754.362671	193.500000
754.400024	184.700000
754.437378	198.400000
754.474670	198.200000
754.512085	186.700000
754.549438	189.800000
754.586731	188.200000
754.624084	187.900000
754.661438	184.400000
754.698730	197.200000
754.736084	187.500000
754.773376	188.700000
754.810730	192.500000
754.848083	188.600000
754.885315	192.900000
754.922668	182.800000
754.960022	185.500000
754.997314	192.400000
755.034668	190.600000
755.072021	188.100000
755.109253	187.600000
755.146606	197.100000
755.183960	187.800000
755.221252	198.800000
755.258545	196.000000
755.295898	195.700000
755.333191	197.000000
755.370544	194.000000
755.407776	190.800000
755.445129	190.700000
755.482422	194.100000
755.519714	186.400000
755.557068	183.500000
755.594360	182.600000
755.631653	194.800000
755.668945	199.900000
755.706299	192.100000
755.743530	202.500000
755.780884	198.400000
755.818176	196.700000
755.855408	196.000000
755.892761	194.000000
755.930054	190.800000
755.967346	193.800000
756.004639	195.400000
756.041870	192.600000
756.079224	196.900000
756.116516	188.800000
756.153748	194.200000
756.191040	200.500000
756.228394	195.700000
756.265625	189.300000
756.302917	192.200000
756.340210	189.300000
756.377441	197.500000
756.414795	200.100000
756.452087	191.400000
756.489319	186.400000
756.526611	193.700000
756.563843	195.000000
756.601135	202.500000
756.638428	203.700000
756.675659	193.100000
756.712952	198.700000
756.750244	196.000000
756.787476	195.700000
756.824768	201.800000
756.862061	192.800000
756.899292	241.100000
756.936584	200.700000
756.973816	205.100000
757.011047	206.600000
757.048340	195.800000
757.085632	195.200000
757.122864	211.200000
757.160156	195.700000
757.197327	196.500000
757.234619	200.100000
757.271912	194.300000
757.309082	201.000000
757.346375	194.300000
757.383667	201.900000
757.420837	198.600000
757.458130	198.000000
757.495422	196.200000
757.532593	198.000000
757.569885	190.800000
757.607117	193.600000
757.644348	200.000000
757.681580	211.100000
757.718811	188.200000
757.756042	196.800000
757.793335	196.500000
757.830505	200.700000
757.867798	196.400000
757.905029	193.800000
757.942200	200.600000
757.979492	194.200000
758.016724	197.700000
758.053894	195.700000
758.091187	216.700000
758.128418	197.700000
758.165588	198.800000
758.202820	208.900000
758.240112	201.300000
758.277283	209.900000
758.314514	202.700000
758.351685	197.200000
758.388916	210.700000
758.426147	206.900000
758.463379	211.200000
758.500610	204.400000
758.537842	200.800000
758.575012	208.800000
758.612244	198.100000
758.649475	213.600000
758.686646	195.200000
758.723877	209.100000
758.761108	211.100000
758.798279	201.900000
758.835510	205.100000
758.872742	210.200000
758.909851	206.100000
758.947083	207.000000
758.984253	206.500000
759.021484	208.100000
759.058716	207.800000
759.095886	208.100000
759.133057	202.900000
759.170288	209.400000
759.207458	200.900000
759.244690	217.500000
759.281860	215.700000
759.319031	204.900000
759.356262	205.300000
759.393433	205.100000
759.430603	204.800000
759.467773	205.000000
759.505005	212.200000
759.542175	213.400000
759.579346	205.300000
759.616516	208.600000
759.653687	210.100000
759.690918	204.800000
759.728027	208.700000
759.765259	208.800000
759.802429	209.800000
759.839539	210.500000
759.876770	213.600000
759.913940	219.000000
759.951111	209.300000
759.988281	209.900000
760.025452	205.400000
760.062561	204.200000
760.099792	218.300000
760.136963	212.300000
760.174072	207.700000
760.211243	203.400000
760.248413	203.700000
760.285583	205.700000
760.322754	219.100000
760.359863	216.800000
760.397034	216.200000
760.434204	209.600000
760.471375	211.800000
760.508545	208.000000
760.545715	208.000000
760.582825	204.700000
760.619995	214.600000
760.657166	205.800000
760.694275	216.200000
760.731445	213.900000
760.768555	212.800000
760.805664	214.300000
760.842834	214.700000
760.879944	216.700000
760.917114	214.000000
760.954285	211.500000
760.991394	207.900000
761.028564	218.900000
761.065674	216.800000
761.102783	210.300000
761.139954	219.400000
761.177124	218.800000
761.214172	220.700000
761.251343	214.300000
761.288452	215.500000
761.325562	220.200000
761.362732	214.100000
761.399841	215.900000
761.436951	219.100000
761.474121	212.800000
761.511169	218.600000
761.548340	220.500000
761.585449	221.200000
761.622559	220.300000
761.659668	218.200000
761.696838	223.800000
761.733887	221.600000
761.771057	216.500000
761.808167	220.900000
761.845276	223.300000
761.882385	232.800000
761.919434	221.300000
761.956604	240.800000
761.993713	216.800000
762.030762	227.800000
762.067871	221.900000
762.105042	221.900000
762.142090	230.200000
762.179199	226.000000
762.216309	229.600000
762.253418	240.700000
762.290527	235.500000
762.327637	231.800000
762.364685	219.800000
762.401794	231.200000
762.438904	229.500000
762.475952	223.000000
762.513062	223.400000
762.550110	224.400000
762.587219	238.200000
762.624329	237.400000
762.661377	231.500000
762.698486	233.700000
762.735596	232.100000
762.772644	227.500000
762.809753	223.600000
762.846863	231.300000
762.883911	235.200000
762.921021	234.600000
762.958069	234.600000
762.995117	242.400000
763.032227	242.500000
763.069336	231.900000
763.106323	230.700000
763.143433	228.600000
763.180481	236.900000
763.217590	237.300000
763.254639	233.500000
763.291687	235.600000
763.328735	244.900000
763.365845	236.300000
763.402893	234.900000
763.439941	239.400000
763.477051	243.700000
763.514038	244.100000
763.551147	236.700000
763.588196	240.100000
763.625244	239.500000
763.662292	247.800000
763.699402	248.100000
763.736389	243.800000
763.773499	254.600000
763.810486	246.500000
763.847534	245.100000
763.884644	247.000000
763.921631	242.700000
763.958679	256.100000
763.995728	245.200000
764.032776	252.300000
764.069824	241.900000
764.106873	249.000000
764.143860	257.000000
764.180969	246.400000
764.218018	256.300000
764.255005	248.400000
764.292053	251.600000
764.329102	259.000000
764.366089	260.200000
764.403137	257.500000
764.440125	251.600000
764.477173	254.200000
764.514221	256.400000
764.551208	254.000000
764.588257	249.100000
764.625305	261.000000
764.662292	266.300000
764.699341	268.200000
764.736389	261.600000
764.773376	276.500000
764.810425	261.700000
764.847473	272.300000
764.884399	267.500000
764.921448	274.700000
764.958435	272.700000
764.995483	263.300000
765.032532	277.800000
765.069458	264.500000
765.106506	264.500000
765.143555	264.400000
765.180481	268.300000
765.217529	277.100000
765.254578	260.700000
765.291504	272.300000
765.328552	267.400000
765.365540	266.900000
765.402527	281.100000
765.439575	266.900000
765.476501	261.500000
765.513550	263.000000
765.550537	268.200000
765.587463	276.100000
765.624512	266.100000
765.661499	261.000000
765.698486	274.400000
765.735474	266.600000
765.772461	268.400000
765.809448	277.500000
765.846436	276.100000
765.883423	280.400000
765.920410	274.700000
765.957397	271.200000
765.994385	273.500000
766.031311	284.000000
766.068359	277.000000
766.105286	277.800000
766.142273	284.600000
766.179260	279.600000
766.216187	272.700000
766.253174	270.400000
766.290161	280.600000
766.327148	280.900000
766.364136	282.000000
766.401123	298.700000
766.438049	276.200000
766.475037	289.900000
766.512024	285.400000
766.548950	299.000000
766.585937	294.300000
766.622864	290.400000
766.659790	288.300000
766.696777	280.200000
766.733704	293.600000
766.770691	285.700000
766.807678	300.300000
766.844604	294.500000
766.881531	295.000000
766.918518	300.100000
766.955444	301.400000
766.992432	293.400000
767.029358	299.200000
767.066284	299.300000
767.103271	299.900000
767.140198	327.800000
767.177124	313.800000
767.214050	302.900000
767.251038	308.300000
767.287964	301.000000
767.324890	298.800000
767.361816	305.000000
767.398743	311.600000
767.435730	304.500000
767.472595	309.500000
767.509583	314.000000
767.546509	305.700000
767.583374	310.600000
767.620361	303.700000
767.657288	307.200000
767.694214	310.200000
767.731140	309.700000
767.768066	310.200000
767.804993	314.700000
767.841919	307.200000
767.878845	313.500000
767.915710	323.300000
767.952698	314.800000
767.989563	318.800000
768.026489	321.400000
768.063416	316.600000
768.100281	314.800000
768.137207	329.000000
768.174133	325.700000
768.211060	327.100000
768.247986	325.200000
768.284912	324.200000
768.321777	326.400000
768.358704	324.900000
768.395630	329.200000
768.432495	324.500000
768.469421	331.500000
768.506348	334.800000
768.543152	341.900000
768.580078	338.500000
768.616943	342.000000
768.653870	342.300000
768.690796	340.700000
768.727661	338.100000
768.764587	342.200000
768.801453	334.300000
768.838318	349.400000
768.875244	345.100000
768.912109	352.100000
768.948975	344.200000
768.985901	348.500000
769.022766	346.400000
769.059631	356.200000
769.096558	348.800000
769.133362	350.800000
769.170288	348.600000
769.207214	352.300000
769.244019	356.800000
769.280945	356.900000
769.317810	364.100000
769.354675	361.500000
769.391541	370.000000
769.428406	365.400000
769.465271	373.300000
769.502136	365.100000
769.539062	369.200000
769.575867	369.200000
769.612732	369.100000
769.649597	374.600000
769.686462	380.200000
769.723328	376.000000
769.760193	370.900000
769.797058	374.300000
769.833923	385.800000
769.870728	380.700000
769.907593	384.200000
769.944519	384.700000
769.981323	386.000000
770.018188	389.500000
770.055054	385.900000
770.091858	384.000000
770.128723	393.400000
770.165588	403.200000
770.202393	386.500000
770.239258	399.200000
770.276062	393.200000
770.312927	396.900000
770.349792	403.400000
770.386597	402.700000
770.423462	408.600000
770.460327	417.500000
770.497131	405.000000
770.533997	396.500000
770.570862	412.500000
770.607605	416.100000
770.644470	406.200000
770.681335	408.100000
770.718140	411.800000
770.754944	401.300000
770.791809	403.600000
770.828613	407.600000
770.865479	406.500000
770.902222	418.000000
770.939087	411.700000
770.975952	401.000000
771.012695	409.000000
771.049561	424.300000
771.086365	410.700000
771.123169	409.000000
771.159973	414.800000
771.196838	413.700000
771.233582	416.300000
771.270447	416.200000
771.307251	419.900000
771.344055	413.000000
771.380859	418.200000
771.417664	411.500000
771.454468	425.500000
771.491272	422.400000
771.528076	423.000000
771.564880	419.900000
771.601685	428.200000
771.638428	420.900000
771.675293	426.300000
771.712097	416.300000
771.748840	435.900000
771.785645	425.900000
771.822449	428.800000
771.859253	432.200000
771.896057	429.300000
771.932861	441.200000
771.969604	431.500000
772.006409	424.800000
772.043213	440.200000
772.079956	435.900000
772.116760	428.700000
772.153503	435.100000
772.190308	446.100000
772.227112	437.000000
772.263855	432.100000
772.300659	439.300000
772.337463	449.600000
772.374207	437.500000
772.411011	434.500000
772.447754	440.900000
772.484497	456.200000
772.521301	450.000000
772.558105	450.700000
772.594849	450.300000
772.631592	453.600000
772.668396	451.300000
772.705139	457.700000
772.741882	457.600000
772.778625	469.100000
772.815430	470.100000
772.852173	463.400000
772.888916	470.800000
772.925720	473.100000
772.962463	482.000000
772.999207	475.900000
773.035950	482.000000
773.072754	484.300000
773.109436	478.100000
773.146240	480.400000
773.182922	478.100000
773.219727	486.800000
773.256470	489.300000
773.293152	476.000000
773.329956	484.900000
773.366699	489.400000
773.403381	477.900000
773.440186	490.300000
773.476929	494.600000
773.513611	489.700000
773.550354	494.500000
773.587158	489.500000
773.623840	484.100000
773.660583	496.200000
773.697327	513.400000
773.734009	502.400000
773.770813	502.400000
773.807495	498.600000
773.844238	502.800000
773.880981	519.500000
773.917664	518.100000
773.954407	522.600000
773.991150	514.200000
774.027832	521.700000
774.064575	512.800000
774.101318	522.800000
774.138000	528.300000
774.174744	524.500000
774.211487	529.100000
774.248108	516.200000
774.284851	517.900000
774.321594	529.900000
774.358276	534.000000
774.395020	542.700000
774.431702	541.100000
774.468384	533.600000
774.505127	528.900000
774.541809	540.500000
774.578491	549.200000
774.615234	553.300000
774.651917	546.100000
774.688599	548.900000
774.725342	555.900000
774.762024	555.700000
774.798706	562.500000
774.835449	563.100000
774.872070	571.900000
774.908813	571.000000
774.945496	564.300000
774.982178	565.200000
775.018860	569.600000
775.055542	570.500000
775.092224	579.100000
775.128967	586.500000
775.165588	582.700000
775.202271	574.900000
775.239014	585.500000
775.275635	586.500000
775.312317	583.100000
775.349060	589.200000
775.385681	594.600000
775.422363	584.900000
775.459045	590.000000
775.495667	594.700000
775.532410	601.700000
775.569092	604.600000
775.605713	605.100000
775.642395	602.500000
775.679016	604.000000
775.715698	607.900000
775.752380	613.500000
775.789001	609.900000
775.825684	611.200000
775.862366	614.600000
775.898987	627.000000
775.935669	613.600000
775.972351	638.200000
776.008972	634.200000
776.045654	633.800000
776.082336	627.700000
776.118958	628.400000
776.155640	631.200000
776.192322	639.400000
776.228882	645.000000
776.265564	644.500000
776.302185	639.000000
776.338867	647.400000
776.375488	631.600000
776.412109	646.700000
776.448792	652.000000
776.485413	658.100000
776.522034	649.000000
776.558716	642.100000
776.595337	639.900000
776.631958	647.900000
776.668579	649.900000
776.705261	656.600000
776.741882	648.800000
776.778503	655.500000
776.815186	650.800000
776.851746	656.600000
776.888367	659.100000
776.924988	668.600000
776.961609	657.600000
776.998291	660.400000
777.034851	647.800000
777.071472	662.300000
777.108154	662.000000
777.144714	673.200000
777.181335	671.600000
777.218018	661.700000
777.254578	670.100000
777.291199	666.500000
777.327759	671.700000
777.364380	681.300000
777.401062	680.000000
777.437622	695.900000
777.474243	678.000000
777.510864	687.900000
777.547424	680.100000
777.584045	686.100000
777.620667	686.400000
777.657227	690.100000
777.693848	688.300000
777.730469	706.200000
777.767029	695.800000
777.803650	702.300000
777.840271	692.200000
777.876831	692.500000
777.913452	704.300000
777.950012	687.000000
777.986633	685.000000
778.023193	683.900000
778.059753	684.600000
778.096375	688.000000
778.132996	703.300000
778.169556	691.100000
778.206116	695.900000
778.242737	689.300000
778.279297	705.800000
778.315857	692.700000
778.352478	701.800000
778.389038	712.100000
778.425598	711.600000
778.462219	716.600000
778.498718	720.900000
778.535339	724.800000
778.571838	727.300000
778.608459	728.600000
778.645020	722.800000
778.681580	732.900000
778.718140	735.300000
778.754761	732.000000
778.791260	734.100000
778.827881	746.800000
778.864441	745.500000
778.900940	749.500000
778.937561	747.700000
778.974121	748.800000
779.010620	737.000000
779.047241	741.600000
779.083801	757.300000
779.120300	750.900000
779.156860	759.600000
779.193359	756.200000
779.229980	755.400000
779.266541	760.900000
779.303040	767.300000
779.339600	761.100000
779.376160	755.600000
779.412659	765.100000
779.449219	756.300000
779.485779	767.000000
779.522278	763.900000
779.558838	769.900000
779.595398	769.700000
779.631897	771.000000
779.668457	765.400000
779.705017	779.500000
779.741516	767.900000
779.778076	766.600000
779.814575	773.300000
779.851074	783.900000
779.887634	780.200000
779.924133	788.500000
779.960693	773.500000
779.997253	786.100000
780.033691	792.200000
780.070251	798.700000
780.106812	813.300000
780.143250	813.200000
780.179810	802.900000
780.216370	810.300000
780.252808	819.500000
780.289368	829.500000
780.325867	827.900000
780.362366	826.500000
780.398865	836.800000
780.435364	824.600000
780.471863	840.900000
780.508423	835.900000
780.544861	844.900000
780.581421	848.300000
780.617920	838.600000
780.654419	839.300000
780.690918	844.700000
780.727417	851.000000
780.763916	847.300000
780.800415	859.600000
780.836914	845.000000
780.873352	853.900000
780.909912	841.800000
780.946411	852.400000
780.982849	860.700000
781.019348	880.500000
781.055786	873.100000
781.092346	869.300000
781.128845	876.000000
781.165283	881.000000
781.201782	890.500000
781.238281	895.400000
781.274719	904.700000
781.311218	897.400000
781.347717	907.800000
781.384155	897.400000
781.420654	899.300000
781.457092	909.000000
781.493591	905.600000
781.530090	900.400000
781.566528	902.100000
781.602966	902.900000
781.639465	900.800000
781.675903	901.800000
781.712402	909.900000
781.748901	916.800000
781.785278	904.100000
781.821777	913.100000
781.858276	908.200000
781.894714	924.000000
781.931152	914.300000
781.967651	926.400000
782.004089	919.400000
782.040527	926.200000
782.076965	919.900000
782.113403	912.800000
782.149902	899.500000
782.186340	852.900000
782.222778	773.800000
782.259277	622.300000
782.295654	472.600000
782.332092	367.600000
782.368591	319.400000
782.404968	334.800000
782.441467	364.700000
782.477905	368.900000
782.514282	349.600000
782.550781	342.000000
782.587219	367.200000
782.623596	482.800000
782.660095	624.800000
782.696472	778.200000
782.732910	880.700000
782.769348	929.200000
782.805786	962.600000
782.842224	967.000000
782.878662	967.900000
782.915039	966.300000
782.951477	973.000000
782.987915	965.300000
783.024292	980.500000
783.060730	969.700000
783.097168	966.100000
783.133545	960.200000
783.169983	958.600000
783.206421	949.400000
783.242798	949.800000
783.279236	940.300000
783.315613	938.900000
783.352051	938.700000
783.388489	930.700000
783.424866	919.500000
783.461304	928.200000
783.497681	930.900000
783.534058	931.000000
783.570496	935.000000
783.606934	929.100000
783.643250	935.100000
783.679687	940.700000
783.716125	934.100000
783.752441	949.600000
783.788879	972.200000
783.825317	970.000000
783.861633	979.200000
783.898071	977.700000
783.934448	1001.100000
783.970825	1012.200000
784.007263	1015.400000
784.043579	1019.400000
784.080017	1029.200000
784.116394	1024.000000
784.152710	1020.200000
784.189148	1032.200000
784.225525	1036.300000
784.261902	1020.300000
784.298279	1012.900000
784.334656	1018.600000
784.371033	1004.000000
784.407410	1009.400000
784.443787	1002.000000
784.480164	984.100000
784.516541	968.100000
784.552856	966.900000
784.589233	958.600000
784.625610	957.300000
784.661987	993.700000
784.698364	986.000000
784.734741	980.800000
784.771057	979.000000
784.807434	983.600000
784.843811	1000.800000
784.880127	1001.800000
784.916504	1035.600000
784.952881	1041.100000
784.989197	1038.200000
785.025574	1036.800000
785.061951	1040.200000
785.098267	1068.900000
785.134644	1061.700000
785.170959	1064.900000
785.207275	1073.000000
785.243652	1069.900000
785.279968	1048.900000
785.316345	1051.100000
785.352722	1050.500000
785.388977	1052.600000
785.425354	1034.800000
785.461731	1013.300000
785.498047	1005.200000
785.534363	995.900000
785.570679	992.800000
785.606995	1001.200000
785.643372	1006.500000
785.679687	999.600000
785.716003	989.000000
785.752380	984.800000
785.788635	991.500000
785.825012	1012.000000
785.861328	1031.400000
785.897644	1025.800000
785.933960	1039.100000
785.970337	1046.800000
786.006592	1064.600000
786.042908	1076.800000
786.079285	1091.800000
786.115540	1103.400000
786.151855	1101.700000
786.188171	1096.700000
786.224487	1097.600000
786.260803	1097.200000
786.297119	1114.100000
786.333435	1110.800000
786.369751	1104.400000
786.406006	1105.100000
786.442322	1081.800000
786.478638	1072.700000
786.514954	1090.300000
786.551270	1084.500000
786.587585	1098.900000
786.623840	1085.600000
786.660156	1077.500000
786.696472	1060.200000
786.732727	1058.000000
786.769043	1064.100000
786.805298	1061.100000
786.841614	1070.200000
786.877930	1077.400000
786.914124	1062.400000
786.950439	1082.200000
786.986755	1087.300000
787.023010	1105.900000
787.059326	1122.600000
787.095642	1126.500000
787.131836	1148.000000
787.168152	1139.000000
787.204468	1137.800000
787.240723	1153.800000
787.276978	1168.400000
787.313293	1175.000000
787.349548	1179.400000
787.385803	1174.500000
787.422058	1163.400000
787.458313	1162.000000
787.494629	1165.300000
787.530823	1165.500000
787.567139	1154.400000
787.603455	1143.100000
787.639648	1131.000000
787.675903	1129.400000
787.712219	1126.800000
787.748413	1129.600000
787.784729	1142.300000
787.820984	1134.000000
787.857178	1122.900000
787.893494	1110.700000
787.929749	1105.100000
787.965942	1117.300000
788.002258	1141.000000
788.038452	1156.700000
788.074707	1143.300000
788.110962	1149.500000
788.147217	1143.100000
788.183472	1152.200000
788.219727	1169.300000
788.255920	1189.900000
788.292175	1192.400000
788.328430	1191.400000
788.364624	1171.100000
788.400879	1159.000000
788.437134	1168.300000
788.473328	1167.900000
788.509583	1172.800000
788.545837	1166.700000
788.582031	1161.900000
788.618286	1148.500000
788.654480	1139.200000
788.690735	1157.100000
788.726990	1182.200000
788.763184	1179.400000
788.799377	1191.100000
788.835632	1176.600000
788.871826	1188.800000
788.908081	1182.900000
788.944336	1176.100000
788.980469	1197.300000
789.016724	1191.200000
789.052979	1192.800000
789.089111	1174.600000
789.125366	1172.600000
789.161621	1159.900000
789.197754	1175.100000
789.234009	1170.200000
789.270142	1157.400000
789.306396	1151.700000
789.342590	1140.600000
789.378784	1118.000000
789.414978	1115.700000
789.451233	1135.100000
789.487366	1138.200000
789.523621	1150.900000
789.559814	1144.200000
789.595947	1122.100000
789.632202	1134.400000
789.668335	1142.100000
789.704529	1159.000000
789.740784	1182.800000
789.776917	1194.200000
789.813110	1179.200000
789.849304	1188.100000
789.885498	1187.200000
789.921692	1204.100000
789.957886	1206.700000
789.994019	1216.700000
790.030212	1209.300000
790.066406	1210.300000
790.102539	1199.800000
790.138733	1207.300000
790.174927	1207.200000
790.211060	1225.400000
790.247253	1216.300000
790.283386	1207.100000
790.319580	1185.400000
790.355774	1168.100000
790.391907	1169.600000
790.428101	1190.700000
790.464294	1196.500000
790.500427	1196.500000
790.536621	1173.900000
790.572754	1154.800000
790.608887	1153.000000
790.645081	1166.900000
790.681274	1182.000000
790.717346	1192.600000
790.753540	1180.600000
790.789734	1159.700000
790.825867	1132.100000
790.862000	1109.400000
790.898132	1083.000000
790.934265	1058.600000
790.970459	1073.300000
791.006592	1104.300000
791.042725	1152.300000
791.078918	1187.900000
791.114990	1201.000000
791.151184	1212.000000
791.187317	1247.300000
791.223389	1243.900000
791.259583	1231.700000
791.295715	1235.800000
791.331848	1241.200000
791.367981	1251.400000
791.404114	1260.800000
791.440247	1266.500000
791.476379	1266.000000
791.512451	1246.400000
791.548584	1239.700000
791.584778	1219.600000
791.620850	1251.100000
791.656982	1255.600000
791.693115	1257.700000
791.729187	1257.800000
791.765381	1249.200000
791.801514	1245.000000
791.837585	1243.500000
791.873718	1257.500000
791.909851	1279.400000
791.945923	1287.800000
791.982056	1252.000000
792.018188	1251.700000
792.054260	1255.700000
792.090393	1250.600000
792.126465	1249.100000
792.162598	1261.600000
792.198669	1252.200000
792.234741	1248.900000
792.270874	1239.700000
792.307007	1222.100000
792.343079	1227.100000
792.379150	1243.400000
792.415283	1237.700000
792.451355	1238.600000
792.487488	1209.900000
792.523560	1210.000000
792.559631	1209.400000
792.595764	1201.100000
792.631836	1209.700000
792.667908	1226.100000
792.703979	1210.200000
792.740051	1206.400000
792.776184	1209.100000
792.812256	1208.800000
792.848328	1214.400000
792.884399	1226.500000
792.920471	1229.500000
792.956543	1221.600000
792.992615	1216.600000
793.028748	1213.700000
793.064758	1215.800000
793.100830	1240.100000
793.136963	1260.200000
793.172974	1261.700000
793.209045	1255.700000
793.245178	1264.600000
793.281189	1247.600000
793.317261	1252.400000
793.353271	1261.100000
793.389404	1283.400000
793.425476	1274.100000
793.461487	1257.000000
793.497559	1243.800000
793.533630	1244.000000
793.569641	1245.000000
793.605713	1255.100000
793.641785	1253.200000
793.677795	1265.700000
793.713867	1254.800000
793.749878	1253.700000
793.785950	1266.700000
793.822021	1278.700000
793.858032	1264.500000
793.894104	1284.900000
793.930176	1266.400000
793.966187	1266.900000
794.002258	1254.200000
794.038269	1256.700000
794.074280	1254.200000
794.110352	1280.600000
794.146423	1260.400000
794.182373	1265.500000
794.218445	1253.500000
794.254517	1239.700000
794.290466	1224.000000
794.326538	1225.100000
794.362549	1234.500000
794.398560	1243.400000
794.434631	1244.300000
794.470581	1216.100000
794.506653	1207.200000
794.542664	1205.100000
794.578674	1204.300000
794.614685	1208.700000
794.650757	1210.900000
794.686707	1205.500000
794.722778	1196.100000
794.758789	1198.400000
794.794739	1201.600000
794.830811	1231.500000
794.866821	1257.100000
794.902771	1254.500000
794.938843	1251.900000
794.974792	1244.700000
795.010803	1240.100000
795.046814	1241.600000
795.082825	1231.500000
795.118835	1247.200000
795.154846	1227.900000
795.190796	1229.000000
795.226807	1200.300000
795.262817	1204.500000
795.298767	1202.600000
795.334778	1211.600000
795.370850	1205.600000
795.406799	1207.400000
795.442810	1187.100000
795.478821	1176.300000
795.514709	1176.900000
795.550720	1196.300000
795.586670	1179.500000
795.622681	1192.300000
795.658691	1189.100000
795.694641	1186.100000
795.730652	1170.800000
795.766663	1177.000000
795.802551	1182.300000
795.838562	1196.400000
795.874573	1191.900000
795.910522	1186.700000
795.946472	1171.800000
795.982483	1169.800000
796.018433	1170.500000
796.054382	1187.100000
796.090393	1178.400000
796.126282	1174.100000
796.162292	1168.000000
796.198242	1152.600000
796.234192	1149.700000
796.270203	1142.900000
796.306091	1156.600000
796.342041	1175.800000
796.378052	1166.200000
796.413940	1157.700000
796.449951	1157.600000
796.485901	1157.200000
796.521790	1165.700000
796.557800	1177.300000
796.593689	1188.900000
796.629639	1178.100000
796.665649	1167.200000
796.701599	1158.500000
796.737488	1156.800000
796.773437	1163.800000
796.809387	1166.200000
796.845337	1169.900000
796.881287	1155.300000
796.917175	1135.600000
796.953125	1132.100000
796.989075	1144.000000
797.024963	1145.700000
797.060913	1147.100000
797.096863	1151.900000
797.132751	1140.500000
797.168701	1116.800000
797.204590	1118.600000
797.240540	1124.800000
797.276489	1131.100000
797.312439	1140.600000
797.348328	1143.200000
797.384277	1127.000000
797.420166	1113.300000
797.456055	1109.000000
797.492004	1107.100000
797.527893	1121.300000
797.563843	1132.600000
797.599731	1126.700000
797.635620	1109.500000
797.671570	1108.900000
797.707520	1104.900000
797.743347	1110.700000
797.779297	1126.000000
797.815125	1118.500000
797.851074	1110.100000
797.887024	1093.800000
797.922913	1079.700000
797.958801	1093.400000
797.994690	1092.000000
798.030579	1102.700000
798.066467	1105.700000
798.102356	1094.300000
798.138245	1086.700000
798.174133	1078.300000
798.210083	1082.700000
798.245911	1094.600000
798.281799	1103.300000
798.317749	1097.400000
798.353577	1088.700000
798.389465	1081.400000
798.425293	1077.300000
798.461243	1073.400000
798.497131	1083.200000
798.532959	1087.400000
798.568848	1095.300000
798.604736	1079.900000
798.640564	1062.400000
798.676453	1057.900000
798.712402	1061.700000
798.748230	1070.400000
798.784119	1073.200000
798.820007	1074.400000
798.855835	1066.600000
798.891724	1059.600000
798.927551	1043.800000
798.963379	1057.200000
798.999268	1052.600000
799.035095	1057.100000
799.070984	1044.200000
799.106873	1033.600000
799.142700	1035.600000
799.178528	1024.000000
799.214417	1025.500000
799.250244	1049.000000
799.286133	1039.700000
799.321960	1035.700000
799.357788	1028.400000
799.393677	1022.700000
799.429504	1027.600000
799.465332	1033.600000
799.501221	1045.200000
799.537048	1042.700000
799.572876	1031.200000
799.608704	1030.400000
799.644531	1032.900000
799.680359	1039.600000
799.716248	1056.000000
799.752014	1065.200000
799.787903	1049.700000
799.823730	1048.300000
799.859558	1034.300000
799.895386	1035.000000
799.931213	1036.900000
799.967041	1031.600000
800.002869	1035.100000
800.038696	1046.000000
800.074463	1020.700000
800.110352	1023.700000
800.146179	1014.200000
800.181946	1020.600000
800.217773	1028.400000
800.253540	1024.000000
800.289429	1019.300000
800.325256	1005.300000
800.361023	994.900000
800.396851	998.800000
800.432678	1006.900000
800.468445	1008.700000
800.504272	1001.500000
800.540100	985.700000
800.575867	982.600000
800.611694	981.000000
800.647461	977.500000
800.683289	983.700000
800.719116	993.000000
800.754883	981.400000
800.790649	964.700000
800.826477	956.900000
800.862244	975.300000
800.898071	960.800000
800.933838	961.700000
800.969604	963.000000
801.005432	964.900000
801.041199	960.000000
801.076965	946.900000
801.112793	934.100000
801.148560	927.400000
801.184326	930.700000
801.220154	931.900000
801.255859	924.300000
801.291687	921.900000
801.327454	909.500000
801.363281	909.000000
801.398987	905.100000
801.434814	913.300000
801.470520	923.500000
801.506287	908.500000
801.542114	893.300000
801.577820	896.400000
801.613647	894.200000
801.649414	893.200000
801.685120	894.100000
801.720886	901.600000
801.756714	893.300000
801.792419	874.900000
801.828186	871.700000
801.863892	880.600000
801.899719	870.400000
801.935486	868.200000
801.971252	877.700000
802.006958	868.300000
802.042725	862.400000
802.078430	859.200000
802.114197	857.400000
802.149963	869.900000
802.185669	858.900000
802.221436	853.900000
802.257202	855.700000
802.292908	850.700000
802.328674	857.400000
802.364441	859.100000
802.400146	856.600000
802.435913	851.600000
802.471558	851.800000
802.507324	839.600000
802.543091	831.800000
802.578796	844.200000
802.614502	849.600000
802.650269	853.200000
802.685974	838.000000
802.721741	841.500000
802.757446	841.500000
802.793152	830.700000
802.828918	842.200000
802.864624	843.200000
802.900330	842.800000
802.936035	837.700000
802.971802	830.300000
803.007446	822.800000
803.043213	816.500000
803.078857	825.700000
803.114624	810.200000
803.150330	820.400000
803.185974	806.900000
803.221741	809.700000
803.257446	817.500000
803.293152	812.400000
803.328857	810.700000
803.364563	807.200000
803.400208	798.700000
803.435974	806.800000
803.471680	800.700000
803.507324	788.200000
803.543030	797.700000
803.578735	800.600000
803.614441	794.600000
803.650146	803.800000
803.685791	790.800000
803.721497	785.900000
803.757202	774.600000
803.792847	786.800000
803.828552	778.100000
803.864258	779.200000
803.899902	773.700000
803.935608	757.500000
803.971313	763.300000
804.006958	762.000000
804.042664	758.600000
804.078308	770.200000
804.113953	759.200000
804.149658	766.200000
804.185364	753.500000
804.221008	760.600000
804.256714	749.300000
804.292297	747.800000
804.328003	743.400000
804.363708	736.600000
804.399292	738.600000
804.434998	737.300000
804.470703	728.200000
804.506287	739.600000
804.541992	732.500000
804.577637	738.900000
804.613281	722.000000
804.648926	720.300000
804.684570	725.100000
804.720215	717.800000
804.755920	717.000000
804.791565	711.900000
804.827209	718.400000
804.862854	713.100000
804.898437	705.400000
804.934143	706.800000
804.969788	706.600000
805.005371	708.800000
805.041077	707.200000
805.076721	708.800000
805.112305	695.200000
805.147949	698.000000
805.183655	691.100000
805.219238	694.500000
805.254883	691.800000
805.290466	701.200000
805.326111	696.100000
805.361755	683.800000
805.397400	689.900000
805.432983	687.900000
805.468628	688.400000
805.504211	690.000000
805.539856	689.300000
805.575500	699.000000
805.611084	687.200000
805.646729	671.100000
805.682373	678.500000
805.717957	688.500000
805.753601	690.900000
805.789246	673.700000
805.824768	687.300000
805.860413	682.500000
805.895996	673.100000
805.931641	673.100000
805.967224	676.600000
806.002869	672.600000
806.038452	684.300000
806.074036	681.800000
806.109619	667.700000
806.145264	660.700000
806.180847	665.000000
806.216431	657.600000
806.252014	662.700000
806.287659	666.000000
806.323181	674.200000
806.358826	667.000000
806.394409	643.000000
806.429993	646.300000
806.465576	661.400000
806.501160	642.200000
806.536743	636.500000
806.572327	651.300000
806.607910	645.400000
806.643494	642.400000
806.679077	636.500000
806.714661	637.100000
806.750244	637.900000
806.785828	632.000000
806.821350	626.900000
806.856934	635.500000
806.892517	629.900000
806.928101	620.800000
806.963684	624.500000
806.999268	631.400000
807.034790	611.800000
807.070374	615.700000
807.105896	612.500000
807.141479	607.100000
807.177063	613.700000
807.212585	605.300000
807.248169	604.700000
807.283752	612.600000
807.319275	603.800000
807.354858	600.200000
807.390381	595.400000
807.425903	596.700000
807.461487	590.900000
807.497070	585.500000
807.532593	583.100000
807.568115	584.400000
807.603699	578.500000
807.639221	569.300000
807.674744	574.900000
807.710266	581.200000
807.745850	581.900000
807.781372	573.400000
807.816895	568.200000
807.852417	574.100000
807.888000	567.600000
807.923523	566.700000
807.959045	568.400000
807.994629	559.800000
808.030090	556.500000
808.065613	566.300000
808.101135	565.000000
808.136658	562.000000
808.172241	556.500000
808.207764	555.700000
808.243225	548.500000
808.278809	548.000000
808.314270	556.200000
808.349792	539.600000
808.385315	538.700000
808.420837	544.800000
808.456360	549.400000
808.491882	547.900000
808.527344	543.600000
808.562866	553.000000
808.598389	543.400000
808.633850	534.000000
808.669434	531.700000
808.704895	542.000000
808.740417	543.500000
808.775940	533.500000
808.811462	530.800000
808.846924	524.700000
808.882385	520.500000
808.917847	517.600000
808.953369	522.400000
808.988892	520.800000
809.024353	528.700000
809.059875	523.600000
809.095398	518.400000
809.130798	511.500000
809.166321	512.300000
809.201843	507.400000
809.237305	512.400000
809.272766	516.600000
809.308228	500.800000
809.343750	500.600000
809.379211	503.100000
809.414734	500.600000
809.450134	509.600000
809.485657	490.400000
809.521118	500.100000
809.556580	495.300000
809.592102	492.900000
809.627502	488.400000
809.663025	489.100000
809.698486	485.800000
809.733887	482.400000
809.769409	484.600000
809.804871	470.000000
809.840271	476.000000
809.875793	479.300000
809.911194	480.400000
809.946655	472.000000
809.982178	467.500000
810.017639	473.200000
810.053040	466.900000
810.088501	466.500000
810.123901	464.000000
810.159424	462.500000
810.194885	457.700000
810.230286	459.700000
810.265747	453.000000
810.301208	451.100000
810.336609	452.600000
810.372070	445.600000
810.407532	448.000000
810.442932	451.000000
810.478394	454.400000
810.513794	448.300000
810.549255	441.200000
810.584717	443.100000
810.620117	431.700000
810.655518	439.400000
810.690979	440.300000
810.726379	437.200000
810.761841	425.600000
810.797302	424.200000
810.832642	423.700000
810.868103	435.300000
810.903564	425.100000
810.938904	430.600000
810.974365	417.400000
811.009827	422.300000
811.045166	417.600000
811.080627	407.900000
811.115967	412.700000
811.151428	422.500000
811.186829	416.400000
811.222229	414.600000
811.257629	406.600000
811.293091	414.000000
811.328430	421.500000
811.363892	410.800000
811.399292	414.400000
811.434631	408.400000
811.470093	414.600000
811.505493	402.000000
811.540833	407.200000
811.576294	408.600000
811.611694	403.400000
811.647034	398.400000
811.682434	403.300000
811.717773	402.500000
811.753235	407.600000
811.788635	398.300000
811.823975	399.700000
811.859375	406.400000
811.894775	392.400000
811.930115	397.000000
811.965515	396.000000
812.000916	399.500000
812.036255	393.800000
812.071655	395.900000
812.106995	388.000000
812.142395	390.200000
812.177795	396.000000
812.213196	396.200000
812.248474	392.900000
812.283875	385.100000
812.319214	388.100000
812.354614	384.900000
812.390015	383.800000
812.425293	383.100000
812.460693	384.300000
812.496094	378.400000
812.531433	368.800000
812.566772	372.400000
812.602173	374.100000
812.637451	375.300000
812.672852	369.100000
812.708191	374.400000
812.743530	367.100000
812.778931	361.100000
812.814270	362.500000
812.849609	370.500000
812.884949	365.300000
812.920227	360.300000
812.955627	372.600000
812.990967	365.700000
813.026306	356.900000
813.061646	346.700000
813.096985	345.100000
813.132324	342.400000
813.167664	346.800000
813.203003	351.300000
813.238281	337.200000
813.273682	340.600000
813.308960	335.000000
813.344299	336.400000
813.379639	345.000000
813.414978	339.500000
813.450256	334.800000
813.485596	340.700000
813.520874	331.900000
813.556213	335.000000
813.591614	339.600000
813.626831	330.200000
813.662170	332.500000
813.697510	343.500000
813.732788	325.300000
813.768127	333.100000
813.803467	331.800000
813.838745	325.900000
813.874084	330.200000
813.909363	330.500000
813.944641	328.000000
813.979980	319.300000
814.015320	323.800000
814.050598	320.000000
814.085876	323.400000
814.121155	322.400000
814.156494	320.100000
814.191772	322.300000
814.227051	316.400000
814.262390	317.100000
814.297668	316.800000
814.332947	318.000000
814.368225	311.000000
814.403564	314.500000
814.438782	310.400000
814.474121	314.700000
814.509338	310.100000
814.544617	319.100000
814.579956	307.300000
814.615173	317.900000
814.650513	312.800000
814.685791	304.400000
814.721008	307.600000
814.756348	306.300000
814.791626	302.000000
814.826843	303.100000
814.862122	302.900000
814.897400	299.600000
814.932678	301.400000
814.967957	299.800000
815.003235	299.400000
815.038452	293.600000
815.073730	292.100000
815.108948	301.000000
815.144226	301.800000
815.179504	303.700000
815.214722	289.500000
815.250000	286.700000
815.285278	294.100000
815.320496	286.700000
815.355774	289.500000
815.391052	290.800000
815.426270	286.900000
815.461487	285.600000
815.496765	279.900000
815.531982	276.800000
815.567261	281.400000
815.602539	290.600000
815.637695	285.200000
815.672974	287.200000
815.708191	287.800000
815.743408	288.300000
815.778687	280.200000
815.813904	289.700000
815.849121	272.700000
815.884399	273.300000
815.919556	275.200000
815.954834	275.600000
815.990051	278.900000
816.025269	280.900000
816.060486	271.900000
816.095703	271.700000
816.130920	275.400000
816.166199	270.100000
816.201416	272.700000
816.236572	277.500000
816.271851	266.600000
816.307007	273.900000
816.342224	263.800000
816.377441	266.900000
816.412659	259.200000
816.447876	269.900000
816.483093	263.900000
816.518250	264.000000
816.553467	261.300000
816.588745	265.600000
816.623901	257.400000
816.659119	254.000000
816.694275	259.200000
816.729492	255.200000
816.764709	289.500000
816.799927	250.500000
816.835083	255.600000
816.870300	251.900000
816.905457	254.100000
816.940674	256.400000
816.975830	249.000000
817.010986	248.200000
817.046204	247.900000
817.081421	245.700000
817.116577	244.400000
817.151733	254.400000
817.186951	252.900000
817.222107	249.800000
817.257324	250.600000
817.292419	251.000000
817.327637	239.800000
817.362854	246.700000
817.398010	239.800000
817.433167	242.600000
817.468323	241.300000
817.503479	243.400000
817.538635	250.500000
817.573853	244.200000
817.608948	242.500000
817.644165	238.000000
817.679321	235.900000
817.714478	237.800000
817.749634	239.100000
817.784790	250.700000
817.819946	246.000000
817.855103	227.500000
817.890198	237.500000
817.925415	228.500000
817.960571	238.800000
817.995667	236.000000
818.030823	239.300000
818.066040	233.300000
818.101135	236.500000
818.136292	234.500000
818.171448	228.600000
818.206543	230.800000
818.241699	235.900000
818.276855	231.900000
818.311951	231.500000
818.347107	226.300000
818.382263	232.100000
818.417358	237.000000
818.452515	237.800000
818.487610	238.900000
818.522766	227.800000
818.557922	237.000000
818.593018	233.200000
818.628113	229.500000
818.663269	224.600000
818.698364	228.600000
818.733521	226.400000
818.768677	228.200000
818.803711	221.000000
818.838867	222.800000
818.874023	225.700000
818.909058	219.700000
818.944214	219.800000
818.979370	226.200000
819.014404	222.300000
819.049561	218.100000
819.084595	224.400000
819.119751	214.400000
819.154846	224.500000
819.189941	219.700000
819.225037	214.300000
819.260193	209.400000
819.295227	213.200000
819.330322	207.200000
819.365479	208.900000
819.400513	242.700000
819.435608	206.500000
819.470764	205.500000
819.505798	207.900000
819.540894	211.200000
819.575989	209.300000
819.611084	217.400000
819.646179	217.800000
819.681213	213.600000
819.716309	210.600000
819.751404	209.800000
819.786438	214.900000
819.821533	206.300000
819.856628	210.700000
819.891663	213.400000
819.926758	220.700000
819.961853	216.000000
819.996887	206.600000
820.031982	213.800000
820.067017	207.900000
820.102112	237.100000
820.137207	204.800000
820.172302	223.200000
820.207275	203.800000
820.242371	202.100000
820.277405	204.400000
820.312500	207.500000
820.347534	207.000000
820.382568	211.100000
820.417664	203.800000
820.452759	203.400000
820.487732	201.700000
820.522827	203.000000
820.557861	198.600000
820.592896	202.400000
820.627930	200.700000
820.662964	199.300000
820.698059	205.100000
820.733093	201.700000
820.768127	204.900000
820.803162	202.000000
820.838196	199.300000
820.873230	204.400000
820.908264	201.400000
820.943298	199.000000
820.978333	206.500000
821.013367	202.400000
821.048401	205.800000
821.083435	206.400000
821.118469	192.600000
821.153503	205.700000
821.188477	202.200000
821.223511	194.400000
821.258484	201.100000
821.293579	202.000000
821.328613	192.800000
821.363647	199.100000
821.398621	195.300000
821.433655	196.400000
821.468628	211.000000
821.503662	199.600000
821.538696	201.600000
821.573669	194.400000
821.608704	201.400000
821.643677	195.000000
821.678650	201.900000
821.713684	207.000000
821.748718	195.600000
821.783691	196.400000
821.818726	198.600000
821.853638	199.300000
821.888672	196.900000
821.923706	198.300000
821.958618	195.300000
821.993652	194.600000
822.028687	201.200000
822.063599	203.300000
822.098633	199.000000
822.133667	191.500000
822.168579	194.600000
822.203613	196.800000
822.238586	192.500000
822.273560	198.100000
822.308533	191.500000
822.343567	191.800000
822.378479	194.500000
822.413452	191.900000
822.448425	189.000000
822.483398	198.400000
822.518372	198.700000
822.553345	190.800000
822.588318	201.200000
822.623291	192.700000
822.658203	192.700000
822.693237	192.000000
822.728210	189.000000
822.763123	193.600000
822.798096	189.600000
822.833069	193.900000
822.867981	194.000000
822.902954	194.400000
822.937927	196.400000
822.972900	204.500000
823.007874	184.800000
823.042725	197.500000
823.077698	204.600000
823.112671	188.200000
823.147583	192.100000
823.182556	196.000000
823.217529	197.900000
823.252441	192.000000
823.287415	206.200000
823.322388	196.000000
823.357239	194.700000
823.392212	201.000000
823.427185	196.600000
823.462097	189.300000
823.497009	196.200000
823.531982	190.500000
823.566895	193.700000
823.601807	188.500000
823.636719	190.800000
823.671631	195.900000
823.706604	189.900000
823.741455	195.200000
823.776428	184.400000
823.811340	196.800000
823.846252	198.500000
823.881165	199.900000
823.916138	193.400000
823.950989	200.500000
823.985901	189.300000
824.020813	193.100000
824.055725	190.100000
824.090637	185.600000
824.125610	193.500000
824.160461	193.400000
824.195374	193.300000
824.230225	197.000000
824.265198	182.500000
824.300110	188.200000
824.334961	202.600000
824.369873	182.500000
824.404785	193.300000
824.439636	198.100000
824.474548	181.900000
824.509460	182.200000
824.544312	196.500000
824.579224	192.600000
824.614075	195.100000
824.648987	191.000000
824.683899	189.600000
824.718811	188.500000
824.753662	198.300000
824.788574	196.200000
824.823364	192.500000
824.858276	189.400000
824.893188	196.500000
824.928040	197.300000
824.962952	194.200000
824.997803	194.700000
825.032654	193.400000
825.067566	195.500000
825.102417	189.600000
825.137268	189.300000
825.172119	192.000000
825.206970	188.300000
825.241882	191.400000
825.276733	186.600000
825.311646	190.400000
825.346436	186.000000
825.381348	186.100000
825.416138	191.300000
825.450989	186.800000
825.485901	180.400000
825.520691	183.800000
825.555542	184.000000
825.590454	190.500000
825.625244	182.600000
825.660095	198.100000
825.695007	193.000000
825.729797	189.000000
825.764648	185.200000
825.799438	187.700000
825.834290	189.600000
825.869202	182.600000
825.903992	191.900000
825.938843	186.600000
825.973694	184.200000
826.008484	201.100000
826.043335	184.700000
826.078186	180.500000
826.112976	196.600000
826.147827	194.000000
826.182678	197.900000
826.217468	181.800000
826.252319	192.200000
826.287109	184.200000
826.321899	194.700000
826.356750	186.300000
826.391541	183.800000
826.426392	194.200000
826.461182	187.200000
826.495972	183.200000
826.530823	179.800000
826.565613	189.100000
826.600403	183.800000
826.635254	191.300000
826.670044	180.000000
826.704834	181.400000
826.739685	184.800000
826.774475	190.300000
826.809265	188.900000
826.844055	185.900000
826.878906	194.500000
826.913635	191.200000
826.948425	193.100000
826.983215	190.500000
827.018005	194.200000
827.052856	187.900000
827.087585	192.900000
827.122375	181.000000
827.157227	190.200000
827.191956	201.400000
827.226746	186.100000
827.261536	191.700000
827.296265	183.300000
827.331116	185.300000
827.365906	191.500000
827.400635	182.900000
827.435425	180.600000
827.470215	193.600000
827.504944	186.100000
827.539734	191.200000
827.574463	188.100000
827.609253	195.400000
827.644043	188.100000
827.678772	192.400000
827.713562	185.600000
827.748352	185.800000
827.783081	185.500000
827.817871	187.800000
827.852600	183.100000
827.887329	189.100000
827.922119	179.000000
827.956848	190.800000
827.991638	201.900000
828.026367	189.200000
828.061157	189.000000
828.095886	187.700000
828.130615	202.700000
828.165344	177.300000
828.200073	188.100000
828.234863	185.000000
828.269592	187.400000
828.304321	194.400000
828.339111	188.800000
828.373779	184.100000
828.408569	193.400000
828.443298	192.600000
828.477966	186.000000
828.512756	189.400000
828.547424	183.800000
828.582214	186.500000
828.616943	187.100000
828.651672	186.000000
828.686340	193.200000
828.721130	185.200000
828.755798	189.100000
828.790527	187.800000
828.825256	188.500000
828.859924	188.700000
828.894714	195.900000
828.929443	197.400000
828.964111	183.500000
828.998840	191.300000
829.033569	184.600000
829.068237	186.400000
829.102966	185.200000
829.137634	190.600000
829.172363	188.900000
829.207092	189.000000
829.241821	183.300000
829.276489	180.500000
829.311157	188.500000
829.345825	186.300000
829.380554	191.800000
829.415283	183.900000
829.449951	180.600000
829.484619	197.000000
829.519348	193.900000
829.554016	187.700000
829.588745	185.900000
829.623413	181.600000
829.658081	197.600000
829.692749	182.300000
829.727417	192.300000
829.762146	190.600000
829.796814	183.900000
829.831482	185.100000
829.866150	188.800000
829.900879	184.600000
829.935486	191.200000
829.970154	186.300000
830.004883	196.700000
830.039490	189.600000
830.074219	184.600000
830.108887	187.800000
830.143494	186.300000
830.178223	183.000000
830.212891	186.500000
830.247498	187.200000
830.282166	195.300000
830.316772	194.000000
830.351501	186.000000
830.386169	186.100000
830.420776	185.900000
830.455444	188.800000
830.490112	185.400000
830.524719	179.700000
830.559387	190.700000
830.594055	191.200000
830.628662	188.000000
830.663330	187.600000
830.697998	196.800000
830.732605	187.600000
830.767273	189.800000
830.801941	187.100000
830.836487	197.500000
830.871155	189.800000
830.905762	190.800000
830.940430	181.400000
830.975098	185.300000
831.009644	188.200000
831.044312	195.600000
831.078979	188.700000
831.113525	180.300000
831.148193	187.800000
831.182861	186.900000
831.217407	190.400000
831.252075	205.100000
831.286621	184.000000
831.321289	182.900000
831.355896	187.400000
831.390564	195.500000
831.425110	188.200000
831.459778	194.100000
831.494324	200.800000
831.528931	192.200000
831.563599	191.000000
831.598145	182.800000
831.632751	187.100000
831.667419	186.500000
831.701965	190.300000
831.736572	190.700000
831.771179	180.500000
831.805786	185.700000
831.840393	195.600000
831.874939	180.100000
831.909546	193.200000
831.944153	181.500000
831.978760	186.400000
832.013306	183.700000
832.047913	196.300000
832.082458	196.700000
832.117065	186.300000
832.151672	195.700000
832.186218	189.700000
832.220825	192.400000
832.255432	181.200000
832.289978	184.800000
832.324585	192.100000
832.359192	189.900000
832.393677	185.600000
832.428284	188.200000
832.462830	187.400000
832.497437	185.600000
832.531982	192.000000
832.566589	186.700000
832.601135	189.900000
832.635681	180.000000
832.670227	187.500000
832.704773	196.400000
832.739380	189.400000
832.773926	187.000000
832.808472	184.300000
832.843079	188.600000
832.877563	191.400000
832.912170	185.900000
832.946716	181.600000
832.981201	194.000000
833.015808	190.900000
833.050293	186.200000
833.084839	184.200000
833.119446	185.000000
833.153992	191.200000
833.188477	187.400000
833.223022	183.500000
833.257568	187.700000
833.292114	195.700000
833.326660	197.600000
833.361145	184.400000
833.395691	180.600000
833.430237	187.600000
833.464783	190.100000
833.499329	185.600000
833.533875	181.800000
833.568359	192.900000
833.602905	195.000000
833.637390	193.000000
833.671875	185.300000
833.706421	188.400000
833.740906	183.100000
833.775452	178.000000
833.809998	186.500000
833.844482	195.700000
833.879028	187.700000
833.913513	184.500000
833.947998	190.100000
833.982544	183.900000
834.017090	185.700000
834.051514	175.900000
834.086060	191.000000
834.120544	187.900000
834.155029	190.200000
834.189575	185.200000
834.223999	191.900000
834.258545	189.000000
834.293030	190.300000
834.327515	188.100000
834.362000	186.400000
834.396545	191.200000
834.430969	187.000000
834.465454	191.300000
834.500000	181.100000
834.534424	188.600000
834.568970	178.000000
834.603455	178.700000
834.637878	185.100000
834.672363	187.400000
834.706909	189.400000
834.741333	187.300000
834.775818	179.900000
834.810242	182.900000
834.844727	188.800000
834.879211	185.900000
834.913635	188.500000
834.948181	189.000000
834.982666	189.800000
835.017090	185.700000
835.051575	190.300000
835.086060	184.500000
835.120483	192.400000
835.154907	191.900000
835.189331	187.100000
835.223816	189.800000
835.258301	182.600000
835.292786	181.900000
835.327209	191.700000
835.361694	184.600000
835.396057	185.500000
835.430542	191.200000
835.465027	188.300000
835.499390	182.400000
835.533875	207.400000
835.568359	186.300000
835.602722	181.700000
835.637207	189.400000
835.671692	182.100000
835.706055	204.700000
835.740540	190.200000
835.774902	191.700000
835.809387	189.100000
835.843811	182.300000
835.878235	194.100000
835.912659	182.200000
835.947083	184.700000
835.981506	189.000000
836.015930	180.300000
836.050354	193.700000
836.084778	196.800000
836.119202	192.900000
836.153625	200.500000
836.187988	185.300000
836.222473	183.600000
836.256897	189.900000
836.291260	186.500000
836.325684	189.800000
836.360046	185.000000
836.394470	185.900000
836.428894	194.200000
836.463318	183.700000
836.497681	191.900000
836.532104	195.400000
836.566467	188.600000
836.600891	187.500000
836.635315	192.000000
836.669678	191.000000
836.704102	191.300000
836.738525	188.600000
836.772888	179.900000
836.807251	185.000000
836.841675	190.900000
836.876038	183.800000
836.910461	184.800000
836.944763	191.300000
836.979187	183.100000
837.013611	193.700000
837.047974	180.100000
837.082336	199.800000
837.116699	191.400000
837.151062	187.900000
837.185486	182.900000
837.219849	188.000000
837.254211	192.200000
837.288574	187.000000
837.322937	184.500000
837.357300	176.200000
837.391663	200.800000
837.426086	194.100000
837.460388	188.800000
837.494751	194.600000
837.529114	186.500000
837.563477	193.600000
837.597839	190.900000
837.632141	187.400000
837.666565	186.300000
837.700928	190.400000
837.735229	192.800000
837.769592	189.700000
837.803955	194.700000
837.838257	184.300000
837.872620	184.700000
837.906982	195.400000
837.941284	189.700000
837.975647	187.700000
838.010010	195.900000
838.044312	186.900000
838.078674	185.900000
838.112976	188.200000
838.147339	191.900000
838.181702	187.400000
838.216003	198.100000
838.250366	188.600000
838.284668	191.300000
838.318970	180.300000
838.353333	186.700000
838.387634	186.100000
838.421936	187.600000
838.456299	188.100000
838.490601	195.300000
838.524902	190.100000
838.559265	194.000000
838.593567	191.000000
838.627869	183.000000
838.662170	191.000000
838.696472	182.200000
838.730774	184.600000
838.765137	193.700000
838.799377	174.300000
838.833740	189.500000
838.868042	195.000000
838.902283	180.200000
838.936646	193.700000
838.970947	190.300000
839.005188	193.000000
839.039551	180.900000
839.073792	196.600000
839.108093	186.500000
839.142395	197.400000
839.176697	181.600000
839.210937	189.000000
839.245300	200.100000
839.279541	183.300000
839.313843	187.400000
839.348145	191.500000
839.382385	192.700000
839.416687	192.700000
839.450989	191.200000
839.485229	187.400000
839.519531	184.200000
839.553833	194.300000
839.588013	187.600000
839.622314	190.600000
839.656555	189.100000
839.690857	188.400000
839.725159	181.700000
839.759460	187.200000
839.793640	184.400000
839.827942	187.100000
839.862183	183.400000
839.896423	190.100000
839.930725	197.100000
839.964966	195.500000
839.999207	194.300000
840.033508	194.600000
840.067688	186.400000
840.101990	196.600000
840.136230	186.700000
840.170471	197.300000
840.204712	184.500000
840.238953	184.100000
840.273193	188.500000
840.307434	192.900000
840.341736	182.700000
840.375916	182.600000
840.410217	185.300000
840.444397	196.000000
840.478638	191.600000
840.512878	194.900000
840.547119	189.000000
840.581360	191.700000
840.615601	197.800000
840.649780	197.800000
840.684021	189.200000
840.718262	196.700000
840.752441	194.500000
840.786682	189.900000
840.820862	191.400000
840.855103	195.900000
840.889343	189.000000
840.923584	193.800000
840.957764	190.700000
840.992004	189.900000
841.026184	203.700000
841.060425	187.600000
841.094666	186.000000
841.128845	193.100000
841.163025	191.100000
841.197266	191.500000
841.231445	191.000000
841.265686	190.100000
841.299866	184.800000
841.334045	196.500000
841.368286	189.000000
841.402405	198.900000
841.436646	194.300000
841.470825	186.200000
841.505005	188.700000
841.539185	183.600000
841.573425	184.900000
841.607544	188.700000
841.641785	188.600000
841.675964	183.100000
841.710144	189.900000
841.744324	185.400000
841.778503	188.900000
841.812683	182.400000
841.846863	198.900000
841.881042	195.600000
841.915222	185.800000
841.949402	204.200000
841.983521	179.600000
842.017700	187.100000
842.051880	189.900000
842.086060	191.500000
842.120239	190.800000
842.154419	185.300000
842.188538	188.500000
842.222717	184.600000
842.256897	199.800000
842.291016	186.300000
842.325195	191.800000
842.359375	200.400000
842.393494	195.900000
842.427673	188.500000
842.461853	190.800000
842.495911	197.200000
842.530090	191.700000
842.564209	189.100000
842.598389	192.500000
842.632568	190.700000
842.666626	194.300000
842.700806	187.000000
842.734985	187.500000
842.769043	193.500000
842.803223	188.000000
842.837402	187.400000
842.871460	185.700000
842.905640	198.800000
842.939697	185.200000
842.973877	190.800000
843.007996	195.600000
843.042175	198.200000
843.076233	187.600000
843.110413	192.000000
843.144470	197.800000
843.178589	194.500000
843.212769	186.200000
843.246826	193.700000
843.280945	188.200000
843.315125	187.300000
843.349182	185.100000
843.383301	196.800000
843.417419	199.200000
843.451538	188.400000
843.485657	188.100000
843.519714	187.300000
843.553833	190.800000
843.587952	186.500000
843.622070	184.900000
843.656128	193.000000
843.690247	185.900000
843.724304	185.900000
843.758423	189.600000
843.792542	187.500000
843.826599	188.500000
843.860718	187.700000
843.894836	183.000000
843.928894	187.700000
843.963013	190.100000
843.997070	184.000000
844.031128	182.200000
844.065247	194.400000
844.099304	194.500000
844.133362	191.200000
844.167480	193.000000
844.201599	196.400000
844.235596	192.100000
844.269714	190.800000
844.303711	191.400000
844.337830	181.600000
844.371948	192.200000
844.405945	189.600000
844.440063	183.700000
844.474121	203.700000
844.508118	188.500000
844.542236	188.300000
844.576294	189.600000
844.610352	184.000000
844.644409	189.000000
844.678406	180.300000
844.712524	194.000000
844.746582	196.000000
844.780640	189.600000
844.814636	189.600000
844.848755	199.100000
844.882751	188.400000
844.916809	194.900000
844.950867	190.300000
844.984863	198.600000
845.018921	187.500000
845.052979	185.400000
845.086975	189.900000
845.121033	183.900000
845.155090	184.800000
845.189087	195.800000
845.223145	185.200000
845.257141	188.600000
845.291199	192.000000
845.325256	196.700000
845.359253	189.400000
845.393250	199.400000
845.427307	188.000000
845.461304	190.500000
845.495361	187.500000
845.529358	200.100000
845.563354	184.400000
845.597412	184.900000
845.631409	197.400000
845.665405	196.700000
845.699463	194.000000
845.733459	189.400000
845.767456	195.400000
845.801453	187.700000
845.835449	197.300000
845.869446	194.400000
845.903503	193.900000
845.937439	187.600000
845.971497	196.800000
846.005493	183.900000
846.039429	194.900000
846.073486	200.100000
846.107483	189.300000
846.141418	189.700000
846.175476	188.600000
846.209473	195.000000
846.243408	186.200000
846.277405	189.800000
846.311401	185.800000
846.345337	190.400000
846.379395	195.300000
846.413330	187.500000
846.447327	198.300000
846.481323	184.400000
846.515259	186.100000
846.549255	190.100000
846.583252	191.900000
846.617187	183.900000
846.651184	192.600000
846.685120	187.600000
846.719055	197.700000
846.753052	193.400000
846.786987	194.000000
846.820984	182.600000
846.854980	197.300000
846.888916	184.900000
846.922852	192.700000
846.956848	197.400000
846.990723	184.900000
847.024719	190.500000
847.058716	188.800000
847.092590	196.800000
847.126587	190.300000
847.160522	187.300000
847.194458	192.600000
847.228455	183.600000
847.262390	185.200000
847.296265	187.600000
847.330261	195.700000
847.364136	187.300000
847.398132	186.800000
847.432068	189.000000
847.466003	187.800000
847.499939	187.700000
847.533875	192.400000
847.567749	188.300000
847.601746	187.700000
847.635681	193.800000
847.669556	182.100000
847.703491	195.400000
847.737427	205.100000
847.771301	185.500000
847.805237	191.900000
847.839233	192.400000
847.873108	189.600000
847.907043	188.900000
847.940918	197.600000
847.974854	192.200000
848.008789	193.400000
848.042664	190.700000
848.076538	192.200000
848.110474	189.900000
848.144348	192.000000
848.178284	183.900000
848.212219	190.400000
848.246094	189.400000
848.279968	191.500000
848.313904	194.700000
848.347778	189.900000
848.381653	189.100000
848.415588	185.800000
848.449463	188.200000
848.483337	192.700000
848.517212	195.100000
848.551086	189.700000
848.585022	185.500000
848.618835	198.000000
848.652771	187.100000
848.686646	185.100000
848.720520	197.600000
848.754395	187.600000
848.788330	196.200000
848.822144	193.600000
848.856018	188.600000
848.889954	199.500000
848.923767	184.100000
848.957642	185.700000
848.991577	194.600000
849.025391	186.800000
849.059265	189.800000
849.093079	187.600000
849.126953	185.900000
849.160828	195.000000
849.194641	193.000000
849.228577	189.100000
849.262451	189.700000
849.296265	189.100000
849.330139	185.400000
849.364014	191.800000
849.397827	192.900000
849.431702	189.600000
849.465515	195.700000
849.499329	182.600000
849.533203	184.800000
849.567078	181.900000
849.600891	192.200000
849.634766	190.100000
849.668518	194.300000
849.702393	191.300000
849.736267	184.100000
849.770020	202.300000
849.803894	193.700000
849.837769	190.200000
849.871521	190.200000
849.905396	196.700000
849.939270	186.500000
849.973022	188.100000
850.006897	192.000000
850.040710	193.000000
850.074524	193.100000
850.108337	188.900000
850.142151	192.800000
850.175964	196.800000
850.209778	190.300000
850.243530	178.900000
850.277405	194.000000
850.311218	190.200000
850.344971	186.100000
850.378845	198.600000
850.412659	184.400000
850.446411	190.100000
850.480225	189.700000
850.514038	197.500000
850.547791	192.300000
850.581665	190.300000
850.615417	186.500000
850.649231	191.500000
850.683044	187.900000
850.716858	189.600000
850.750610	188.800000
850.784424	194.500000
850.818176	186.600000
850.851929	187.400000
850.885742	186.700000
850.919495	191.000000
850.953308	195.900000
850.987122	198.500000
851.020874	184.500000
851.054626	183.400000
851.088440	194.700000
851.122192	195.400000
851.156006	191.600000
851.189697	190.000000
851.223511	185.900000
851.257263	194.800000
851.291077	194.300000
851.324829	189.900000
851.358582	187.800000
851.392334	188.700000
851.426086	189.300000
851.459900	198.200000
851.493591	189.800000
851.527344	190.100000
851.561157	190.500000
851.594849	193.100000
851.628662	192.600000
851.662415	197.500000
851.696106	193.600000
851.729858	194.000000
851.763611	184.400000
851.797363	191.400000
851.831116	185.300000
851.864868	191.000000
851.898560	194.900000
851.932312	186.900000
851.966064	192.800000
851.999817	189.100000
852.033569	189.100000
852.067261	193.800000
852.101013	186.600000
852.134766	189.200000
852.168457	180.100000
852.202209	194.000000
852.235901	185.500000
852.269592	190.900000
852.303345	199.700000
852.337036	193.600000
852.370789	191.300000
852.404541	194.500000
852.438171	186.700000
852.471924	188.800000
852.505676	184.600000
852.539307	192.600000
852.573059	187.200000
852.606812	187.600000
852.640442	188.600000
852.674194	195.800000
852.707886	200.800000
852.741577	197.300000
852.775269	185.700000
852.809021	191.600000
852.842651	193.800000
852.876404	195.500000
852.910034	191.700000
852.943787	197.900000
852.977478	193.100000
853.011108	186.600000
853.044861	187.100000
853.078552	197.600000
853.112183	191.800000
853.145874	192.600000
853.179626	180.700000
853.213257	192.400000
853.246948	188.600000
853.280640	197.600000
853.314270	190.900000
853.347961	197.400000
853.381653	193.300000
853.415283	195.200000
853.448975	186.600000
853.482605	192.700000
853.516296	190.200000
853.549988	184.700000
853.583618	191.600000
853.617310	192.300000
853.651001	191.800000
853.684631	185.800000
853.718323	188.300000
853.751953	197.600000
853.785583	180.700000
853.819275	194.000000
853.852966	191.600000
853.886536	182.000000
853.920227	185.000000
853.953918	195.500000
853.987488	186.900000
854.021179	192.900000
854.054749	197.400000
854.088440	192.000000
854.122131	186.100000
854.155701	193.700000
854.189331	186.500000
854.223022	193.600000
854.256592	192.700000
854.290283	187.100000
854.323914	193.700000
854.357483	191.600000
854.391174	192.100000
854.424744	199.800000
854.458374	191.400000
854.492065	201.500000
854.525696	189.300000
854.559265	197.400000
854.592896	200.700000
854.626465	191.500000
854.660095	192.500000
854.693787	193.000000
854.727356	190.100000
854.760986	194.300000
854.794617	193.300000
854.828186	189.100000
854.861816	193.800000
854.895447	191.500000
854.929016	193.300000
854.962585	193.900000
854.996155	199.900000
855.029785	192.100000
855.063416	192.400000
855.097046	195.700000
855.130615	185.000000
855.164185	196.500000
855.197754	189.800000
855.231384	192.800000
855.264954	188.800000
855.298523	192.900000
855.332153	192.800000
855.365723	197.100000
855.399292	187.400000
855.432922	188.500000
855.466492	192.600000
855.500061	184.800000
855.533630	186.400000
855.567200	193.100000
855.600769	194.200000
855.634338	194.100000
855.667969	192.300000
855.701477	185.000000
855.735046	187.400000
855.768616	181.600000
855.802185	192.600000
855.835754	203.400000
855.869324	182.900000
855.902893	188.400000
855.936401	197.300000
855.969971	191.200000
856.003540	182.200000
856.037109	192.400000
856.070618	190.900000
856.104187	184.300000
856.137695	188.600000
856.171265	181.600000
856.204834	189.900000
856.238403	195.000000
856.271912	187.400000
856.305481	192.300000
856.338989	184.500000
856.372559	193.900000
856.406128	192.600000
856.439636	195.700000
856.473145	188.200000
856.506653	197.700000
856.540222	191.100000
856.573792	198.100000
856.607300	194.500000
856.640808	185.500000
856.674377	191.800000
856.707825	218.600000
856.741394	194.800000
856.774902	186.700000
856.808472	182.200000
856.841980	194.400000
856.875488	197.100000
856.908936	183.000000
856.942505	189.100000
856.976013	191.100000
857.009521	184.500000
857.043030	190.700000
857.076477	188.300000
857.110046	195.700000
857.143555	190.700000
857.177063	196.000000
857.210571	188.100000
857.244080	184.100000
857.277527	192.500000
857.311035	189.700000
857.344543	192.800000
857.378052	190.300000
857.411499	195.700000
857.445068	200.200000
857.478516	189.300000
857.512024	185.000000
857.545532	188.500000
857.578979	194.100000
857.612427	189.800000
857.645874	188.400000
857.679382	190.500000
857.712891	193.600000
857.746399	189.700000
857.779846	195.600000
857.813354	195.000000
857.846741	190.900000
857.880249	187.300000
857.913757	191.900000
857.947266	191.400000
857.980652	194.600000
858.014160	187.700000
858.047546	189.100000
858.081055	189.700000
858.114563	199.100000
858.147949	185.600000
858.181458	193.600000
858.214844	189.700000
858.248352	181.900000
858.281799	198.400000
858.315308	204.400000
858.348694	194.300000
858.382141	198.400000
858.415588	193.200000
858.449036	197.000000
858.482483	192.600000
858.515930	187.000000
858.549377	190.000000
858.582825	196.300000
858.616211	193.900000
858.649658	192.500000
858.683105	186.200000
858.716553	186.200000
858.750000	185.100000
858.783386	188.300000
858.816833	183.000000
858.850281	190.600000
858.883728	194.300000
858.917114	189.200000
858.950562	200.000000
858.983948	199.700000
859.017395	194.000000
859.050781	187.700000
859.084167	186.900000
859.117615	183.500000
859.151062	192.700000
859.184448	186.200000
859.217834	187.400000
859.251282	188.300000
859.284668	187.300000
859.318054	180.400000
859.351440	189.300000
859.384888	197.800000
859.418274	183.100000
859.451721	183.000000
859.485046	192.900000
859.518494	192.100000
859.551819	186.100000
859.585266	192.600000
859.618652	194.000000
859.652039	184.600000
859.685425	186.600000
859.718811	182.600000
859.752197	180.200000
859.785583	198.100000
859.819031	198.800000
859.852356	192.900000
859.885742	187.900000
859.919067	189.700000
859.952454	190.000000
859.985901	196.100000
860.019287	189.500000
860.052612	0.000000
860.085999	0.000000
860.119324	0.000000
860.152710	0.000000
860.186096	0.000000
860.219421	0.000000
860.252808	0.000000
860.286133	0.000000
860.319519	0.000000
860.352905	0.000000
860.386292	0.000000
860.419617	0.000000
860.452942	0.000000
860.486267	0.000000
860.519653	0.000000
860.553040	0.000000
860.586365	0.000000
860.619690	0.000000
860.653076	0.000000
860.686340	0.000000
860.719727	0.000000
860.753113	0.000000
860.786377	0.000000
860.819763	0.000000
860.853027	0.000000
860.886414	0.000000
860.919739	0.000000
860.953125	0.000000
860.986389	0.000000
861.019714	0.000000
861.053040	0.000000
861.086365	0.000000
861.119690	0.000000
861.153076	0.000000
861.186340	0.000000
861.219666	0.000000
861.252930	0.000000
861.286316	0.000000
861.319641	0.000000
861.352905	0.000000
861.386230	0.000000
861.419495	0.000000
861.452820	0.000000
861.486145	0.000000
861.519470	0.000000
861.552734	0.000000
861.586060	0.000000
861.619324	0.000000
861.652649	0.000000
861.685974	0.000000
861.719238	0.000000
861.752563	0.000000
861.785828	0.000000
861.819092	0.000000
861.852417	0.000000
861.885742	0.000000
861.918945	0.000000
861.952271	0.000000
861.985535	0.000000
862.018799	0.000000
862.052124	0.000000
862.085449	0.000000
862.118652	0.000000
862.151978	0.000000
862.185181	0.000000
862.218506	0.000000
862.251770	0.000000
862.285034	0.000000
862.318298	0.000000
862.351562	0.000000
862.384827	0.000000
862.418091	0.000000
862.451355	0.000000
862.484619	0.000000
862.517883	0.000000
862.551086	0.000000
862.584351	0.000000
862.617676	0.000000
862.650940	0.000000
862.684143	0.000000
862.717407	0.000000
862.750610	0.000000
862.783875	0.000000
862.817139	0.000000
862.850342	0.000000
862.883606	0.000000
862.916870	0.000000
862.950073	0.000000
862.983337	0.000000
863.016602	0.000000
863.049805	0.000000
863.083069	0.000000
863.116211	0.000000
863.149475	0.000000
863.182739	0.000000
863.216003	0.000000
863.249146	0.000000
863.282410	0.000000
863.315613	0.000000
863.348816	0.000000
863.382080	0.000000
863.415222	0.000000
863.448486	0.000000
863.481689	0.000000
863.514893	0.000000
863.548157	0.000000
863.581360	0.000000
863.614502	0.000000
863.647766	0.000000
863.680908	0.000000
863.714172	0.000000
863.747375	0.000000
863.780579	0.000000
863.813721	0.000000
863.846985	0.000000
863.880127	0.000000
863.913330	0.000000
863.946533	0.000000
863.979675	0.000000
864.012939	0.000000
