Model Number: SPM-001-M   
Serial Number: 10090201
Firmware Version: 004.17.6
Exposure Time: 500000.000000us
Data Taken on: 20-03-2021 10:26:29.635
Wavelength	Amplitude
733.770752	0.000000
733.808716	0.000000
733.846619	0.000000
733.884583	0.000000
733.922546	0.000000
733.960449	0.000000
733.998413	0.000000
734.036377	0.000000
734.074219	0.000000
734.112183	0.000000
734.150085	0.000000
734.188049	0.000000
734.226013	0.000000
734.263916	0.000000
734.301819	0.000000
734.339783	0.000000
734.377686	0.000000
734.415588	0.000000
734.453552	0.000000
734.491455	0.000000
734.529419	0.000000
734.567322	0.000000
734.605225	0.000000
734.643127	0.000000
734.681091	0.000000
734.718994	0.000000
734.756897	0.000000
734.794800	0.000000
734.832703	0.000000
734.870667	0.000000
734.908508	0.000000
734.946472	0.000000
734.984375	0.000000
735.022278	0.000000
735.060181	0.000000
735.098083	0.000000
735.135986	0.000000
735.173889	0.000000
735.211792	0.000000
735.249695	0.000000
735.287598	0.000000
735.325439	0.000000
735.363403	0.000000
735.401306	0.000000
735.439148	0.000000
735.477051	0.000000
735.515015	0.000000
735.552856	0.000000
735.590759	0.000000
735.628662	0.000000
735.666504	0.000000
735.704407	0.000000
735.742310	0.000000
735.780212	0.000000
735.818115	0.000000
735.856018	0.000000
735.893860	0.000000
735.931763	0.000000
735.969604	0.000000
736.007507	0.000000
736.045410	0.000000
736.083252	0.000000
736.121094	0.000000
736.158997	0.000000
736.196838	0.000000
736.234741	0.000000
736.272644	0.000000
736.310486	0.000000
736.348389	0.000000
736.386230	0.000000
736.424072	0.000000
736.461975	0.000000
736.499878	0.000000
736.537720	0.000000
736.575562	0.000000
736.613403	0.000000
736.651306	0.000000
736.689148	0.000000
736.726990	0.000000
736.764893	0.000000
736.802734	0.000000
736.840576	0.000000
736.878418	0.000000
736.916321	0.000000
736.954102	0.000000
736.992004	0.000000
737.029846	0.000000
737.067688	0.000000
737.105530	0.000000
737.143372	0.000000
737.181213	0.000000
737.219116	0.000000
737.256897	0.000000
737.294739	0.000000
737.332642	0.000000
737.370422	0.000000
737.408325	0.000000
737.446167	0.000000
737.483948	0.000000
737.521790	0.000000
737.559692	0.000000
737.597473	0.000000
737.635315	0.000000
737.673157	0.000000
737.710999	0.000000
737.748840	0.000000
737.786621	0.000000
737.824463	0.000000
737.862305	0.000000
737.900085	0.000000
737.937927	0.000000
737.975769	0.000000
738.013550	0.000000
738.051392	0.000000
738.089233	0.000000
738.127014	0.000000
738.164856	0.000000
738.202698	0.000000
738.240479	0.000000
738.278320	0.000000
738.316162	0.000000
738.353943	0.000000
738.391785	0.000000
738.429565	0.000000
738.467407	0.000000
738.505188	0.000000
738.542969	0.000000
738.580811	0.000000
738.618652	0.000000
738.656372	0.000000
738.694214	0.000000
738.732056	0.000000
738.769836	0.000000
738.807617	0.000000
738.845459	0.000000
738.883240	0.000000
738.921021	0.000000
738.958862	0.000000
738.996582	0.000000
739.034424	0.000000
739.072205	0.000000
739.109985	0.000000
739.147827	0.000000
739.185547	0.000000
739.223389	0.000000
739.261169	0.000000
739.298889	0.000000
739.336731	0.000000
739.374512	0.000000
739.412292	0.000000
739.450073	0.000000
739.487854	0.000000
739.525635	0.000000
739.563416	0.000000
739.601135	0.000000
739.638977	0.000000
739.676758	0.000000
739.714478	0.000000
739.752258	0.000000
739.790100	0.000000
739.827820	0.000000
739.865601	0.000000
739.903381	0.000000
739.941101	0.000000
739.978882	190.900000
740.016724	187.400000
740.054443	192.200000
740.092224	186.200000
740.130005	183.800000
740.167725	186.800000
740.205505	184.200000
740.243225	194.700000
740.281006	188.700000
740.318787	182.900000
740.356506	192.800000
740.394287	193.400000
740.432068	185.400000
740.469727	182.700000
740.507507	192.900000
740.545288	186.200000
740.583008	190.400000
740.620789	189.600000
740.658569	181.000000
740.696228	186.900000
740.734009	193.600000
740.771790	176.700000
740.809509	191.300000
740.847229	184.100000
740.884949	185.700000
740.922729	181.000000
740.960449	186.600000
740.998169	182.000000
741.035950	184.400000
741.073669	189.500000
741.111389	187.300000
741.149170	197.900000
741.186890	198.800000
741.224609	191.100000
741.262329	190.000000
741.300110	196.700000
741.337769	183.200000
741.375549	182.100000
741.413208	189.800000
741.450989	183.200000
741.488708	185.300000
741.526367	185.700000
741.564148	192.500000
741.601868	192.800000
741.639526	187.600000
741.677307	188.600000
741.715027	191.500000
741.752686	184.800000
741.790466	195.900000
741.828186	190.300000
741.865845	182.900000
741.903564	180.000000
741.941345	187.700000
741.979004	185.000000
742.016724	192.600000
742.054382	187.900000
742.092102	193.600000
742.129822	179.900000
742.167480	187.600000
742.205200	185.600000
742.242920	190.400000
742.280640	192.700000
742.318359	183.600000
742.356079	185.800000
742.393738	192.200000
742.431396	186.200000
742.469116	192.400000
742.506775	178.500000
742.544495	190.800000
742.582214	191.700000
742.619873	187.700000
742.657593	195.600000
742.695251	192.600000
742.732971	186.800000
742.770630	188.500000
742.808289	187.500000
742.846008	187.400000
742.883728	190.100000
742.921326	186.100000
742.959045	185.700000
742.996765	187.000000
743.034424	187.900000
743.072083	184.900000
743.109802	189.800000
743.147400	182.400000
743.185120	188.300000
743.222839	188.300000
743.260437	193.800000
743.298157	190.100000
743.335754	181.500000
743.373474	185.900000
743.411133	181.300000
743.448792	188.000000
743.486450	189.400000
743.524170	180.300000
743.561768	188.100000
743.599487	193.100000
743.637146	200.600000
743.674744	185.900000
743.712463	184.500000
743.750122	189.600000
743.787720	192.100000
743.825439	183.900000
743.863037	186.400000
743.900696	188.500000
743.938416	213.700000
743.976013	187.200000
744.013672	196.900000
744.051331	192.200000
744.088928	197.400000
744.126587	195.700000
744.164307	189.900000
744.201904	184.500000
744.239563	192.300000
744.277222	190.700000
744.314819	188.100000
744.352478	195.800000
744.390137	190.700000
744.427734	190.100000
744.465393	185.400000
744.502991	182.800000
744.540649	191.100000
744.578308	188.900000
744.615906	183.200000
744.653564	178.000000
744.691223	191.000000
744.728821	181.000000
744.766418	187.200000
744.804077	191.900000
744.841675	185.700000
744.879333	183.100000
744.916992	189.100000
744.954529	185.700000
744.992187	193.800000
745.029785	187.200000
745.067444	185.100000
745.105042	190.400000
745.142639	190.000000
745.180298	196.100000
745.217896	185.400000
745.255493	188.100000
745.293152	192.200000
745.330750	192.600000
745.368347	195.500000
745.405945	191.800000
745.443604	188.900000
745.481140	193.000000
745.518799	187.700000
745.556396	193.300000
745.593994	193.400000
745.631592	188.200000
745.669189	183.000000
745.706787	190.700000
745.744385	185.000000
745.781982	190.600000
745.819580	186.700000
745.857178	189.300000
745.894775	188.800000
745.932373	191.800000
745.969971	188.600000
746.007568	181.300000
746.045166	197.200000
746.082764	194.100000
746.120300	191.800000
746.157898	192.500000
746.195557	187.700000
746.233093	183.000000
746.270691	191.500000
746.308228	191.100000
746.345825	192.800000
746.383423	192.200000
746.420959	182.600000
746.458557	186.300000
746.496155	186.300000
746.533691	187.500000
746.571289	182.800000
746.608887	190.000000
746.646423	189.300000
746.684021	188.600000
746.721619	187.100000
746.759155	189.900000
746.796753	181.700000
746.834351	181.600000
746.871826	184.000000
746.909424	194.300000
746.946960	190.600000
746.984558	187.900000
747.022156	187.100000
747.059631	195.100000
747.097229	189.600000
747.134827	186.800000
747.172363	196.200000
747.209900	190.000000
747.247498	184.700000
747.285034	195.500000
747.322571	194.900000
747.360168	186.700000
747.397644	181.300000
747.435242	192.400000
747.472778	195.800000
747.510315	187.400000
747.547913	186.200000
747.585388	194.700000
747.622925	187.800000
747.660522	179.600000
747.697998	185.200000
747.735596	189.100000
747.773132	184.900000
747.810669	187.800000
747.848206	192.300000
747.885742	183.300000
747.923279	182.900000
747.960815	190.400000
747.998352	190.500000
748.035889	194.900000
748.073425	193.000000
748.110901	184.700000
748.148437	184.500000
748.185974	189.400000
748.223511	198.800000
748.261047	190.400000
748.298584	191.100000
748.336060	187.500000
748.373596	190.500000
748.411133	207.800000
748.448608	186.000000
748.486145	192.000000
748.523682	195.700000
748.561218	194.000000
748.598755	190.100000
748.636292	192.000000
748.673706	186.700000
748.711243	196.100000
748.748718	189.100000
748.786255	189.300000
748.823792	187.800000
748.861267	184.700000
748.898804	189.900000
748.936340	190.700000
748.973816	186.400000
749.011292	195.500000
749.048828	190.200000
749.086304	192.800000
749.123840	199.800000
749.161316	184.300000
749.198792	199.000000
749.236328	195.200000
749.273743	189.000000
749.311279	187.600000
749.348816	190.700000
749.386230	189.400000
749.423767	178.500000
749.461304	192.800000
749.498718	190.000000
749.536255	196.300000
749.573730	201.900000
749.611206	195.000000
749.648682	188.600000
749.686218	188.500000
749.723633	192.600000
749.761169	186.500000
749.798645	184.500000
749.836060	188.100000
749.873596	185.600000
749.911011	190.400000
749.948547	194.700000
749.986023	187.800000
750.023437	187.400000
750.060913	182.500000
750.098450	182.400000
750.135864	188.100000
750.173340	190.000000
750.210815	192.600000
750.248291	184.100000
750.285767	188.800000
750.323242	196.900000
750.360657	190.700000
750.398132	183.800000
750.435608	192.400000
750.473022	185.500000
750.510498	184.400000
750.547974	185.200000
750.585449	186.800000
750.622925	178.700000
750.660339	198.400000
750.697815	189.800000
750.735291	188.300000
750.772644	190.300000
750.810120	189.400000
750.847595	191.000000
750.885010	184.100000
750.922485	197.700000
750.959961	188.100000
750.997375	197.900000
751.034851	192.400000
751.072266	193.200000
751.109680	181.200000
751.147156	194.700000
751.184570	191.800000
751.221985	190.100000
751.259460	180.700000
751.296875	189.200000
751.334290	188.100000
751.371765	192.100000
751.409180	191.200000
751.446594	196.000000
751.484070	191.200000
751.521423	191.800000
751.558899	190.500000
751.596375	197.600000
751.633728	194.800000
751.671204	201.600000
751.708618	184.200000
751.746033	190.000000
751.783447	182.600000
751.820801	186.200000
751.858276	191.800000
751.895691	188.200000
751.933105	186.600000
751.970520	185.100000
752.007935	186.100000
752.045349	194.000000
752.082764	189.000000
752.120178	186.800000
752.157532	184.600000
752.195007	185.800000
752.232422	191.800000
752.269775	192.700000
752.307190	191.600000
752.344543	185.000000
752.382019	186.800000
752.419434	186.700000
752.456787	190.800000
752.494202	193.800000
752.531616	190.600000
752.568970	192.200000
752.606384	190.200000
752.643799	192.000000
752.681152	197.600000
752.718567	191.900000
752.755981	183.200000
752.793335	191.200000
752.830750	181.000000
752.868164	194.600000
752.905518	184.300000
752.942932	192.700000
752.980225	184.900000
753.017639	193.500000
753.055054	187.300000
753.092407	190.600000
753.129822	195.400000
753.167175	199.100000
753.204529	188.900000
753.241943	185.400000
753.279358	183.200000
753.316650	192.000000
753.354065	192.900000
753.391479	192.400000
753.428772	197.900000
753.466187	191.500000
753.503479	184.600000
753.540894	187.100000
753.578308	184.300000
753.615601	183.300000
753.653015	189.700000
753.690369	187.500000
753.727722	184.900000
753.765076	181.700000
753.802490	185.400000
753.839783	180.300000
753.877136	185.200000
753.914551	203.200000
753.951843	184.600000
753.989258	192.800000
754.026611	188.200000
754.063904	189.800000
754.101257	184.000000
754.138611	181.200000
754.175964	188.300000
754.213318	201.200000
754.250610	180.300000
754.288025	186.400000
754.325378	182.100000
754.362671	195.800000
754.400024	187.700000
754.437378	197.700000
754.474670	198.200000
754.512085	186.800000
754.549438	189.200000
754.586731	187.100000
754.624084	186.600000
754.661438	184.300000
754.698730	196.200000
754.736084	187.500000
754.773376	187.000000
754.810730	192.400000
754.848083	186.800000
754.885315	195.200000
754.922668	181.400000
754.960022	184.500000
754.997314	193.300000
755.034668	190.500000
755.072021	190.500000
755.109253	188.200000
755.146606	196.600000
755.183960	188.600000
755.221252	197.100000
755.258545	195.600000
755.295898	195.300000
755.333191	196.900000
755.370544	192.900000
755.407776	190.600000
755.445129	189.600000
755.482422	194.400000
755.519714	187.500000
755.557068	183.700000
755.594360	182.300000
755.631653	195.200000
755.668945	198.800000
755.706299	192.100000
755.743530	202.100000
755.780884	198.600000
755.818176	197.000000
755.855408	196.100000
755.892761	193.300000
755.930054	191.500000
755.967346	193.600000
756.004639	196.400000
756.041870	192.900000
756.079224	196.400000
756.116516	188.500000
756.153748	195.200000
756.191040	199.100000
756.228394	194.700000
756.265625	188.300000
756.302917	193.500000
756.340210	188.400000
756.377441	197.200000
756.414795	199.900000
756.452087	190.900000
756.489319	187.000000
756.526611	196.600000
756.563843	194.500000
756.601135	203.400000
756.638428	202.500000
756.675659	192.300000
756.712952	198.400000
756.750244	196.700000
756.787476	195.400000
756.824768	202.400000
756.862061	192.200000
756.899292	239.400000
756.936584	199.600000
756.973816	206.500000
757.011047	207.600000
757.048340	196.400000
757.085632	195.100000
757.122864	211.000000
757.160156	193.000000
757.197327	198.600000
757.234619	200.000000
757.271912	193.400000
757.309082	202.900000
757.346375	192.000000
757.383667	203.800000
757.420837	197.500000
757.458130	198.700000
757.495422	195.700000
757.532593	198.900000
757.569885	189.500000
757.607117	192.500000
757.644348	199.300000
757.681580	211.200000
757.718811	185.800000
757.756042	197.100000
757.793335	194.900000
757.830505	201.400000
757.867798	194.200000
757.905029	194.700000
757.942200	201.400000
757.979492	194.500000
758.016724	197.900000
758.053894	196.300000
758.091187	216.300000
758.128418	200.000000
758.165588	198.400000
758.202820	210.100000
758.240112	201.600000
758.277283	210.300000
758.314514	201.600000
758.351685	197.500000
758.388916	209.600000
758.426147	208.200000
758.463379	210.200000
758.500610	204.500000
758.537842	203.000000
758.575012	209.700000
758.612244	198.300000
758.649475	214.100000
758.686646	196.100000
758.723877	209.400000
758.761108	210.900000
758.798279	202.100000
758.835510	204.600000
758.872742	210.300000
758.909851	206.200000
758.947083	208.300000
758.984253	206.900000
759.021484	209.800000
759.058716	208.700000
759.095886	208.800000
759.133057	205.500000
759.170288	209.400000
759.207458	203.300000
759.244690	215.800000
759.281860	215.700000
759.319031	205.400000
759.356262	204.400000
759.393433	203.400000
759.430603	205.700000
759.467773	205.500000
759.505005	214.600000
759.542175	211.100000
759.579346	205.800000
759.616516	207.200000
759.653687	211.400000
759.690918	203.400000
759.728027	207.900000
759.765259	209.100000
759.802429	211.400000
759.839539	211.400000
759.876770	212.900000
759.913940	219.000000
759.951111	209.100000
759.988281	209.800000
760.025452	205.400000
760.062561	203.800000
760.099792	216.300000
760.136963	212.000000
760.174072	208.000000
760.211243	203.700000
760.248413	204.400000
760.285583	204.400000
760.322754	219.800000
760.359863	216.600000
760.397034	217.300000
760.434204	210.200000
760.471375	210.300000
760.508545	211.000000
760.545715	207.900000
760.582825	206.700000
760.619995	215.600000
760.657166	204.900000
760.694275	217.800000
760.731445	213.700000
760.768555	213.200000
760.805664	215.000000
760.842834	214.000000
760.879944	216.600000
760.917114	213.400000
760.954285	212.500000
760.991394	206.300000
761.028564	219.800000
761.065674	217.000000
761.102783	211.200000
761.139954	218.300000
761.177124	218.100000
761.214172	221.700000
761.251343	213.300000
761.288452	213.000000
761.325562	219.400000
761.362732	212.900000
761.399841	216.100000
761.436951	217.100000
761.474121	212.600000
761.511169	217.800000
761.548340	221.200000
761.585449	221.800000
761.622559	221.500000
761.659668	216.500000
761.696838	223.200000
761.733887	220.600000
761.771057	216.800000
761.808167	219.600000
761.845276	224.100000
761.882385	233.100000
761.919434	221.900000
761.956604	241.600000
761.993713	219.300000
762.030762	231.400000
762.067871	222.300000
762.105042	224.200000
762.142090	231.600000
762.179199	226.400000
762.216309	230.000000
762.253418	241.400000
762.290527	234.800000
762.327637	232.300000
762.364685	220.000000
762.401794	231.700000
762.438904	229.300000
762.475952	225.200000
762.513062	222.600000
762.550110	224.700000
762.587219	239.900000
762.624329	239.700000
762.661377	234.100000
762.698486	232.500000
762.735596	232.500000
762.772644	226.500000
762.809753	223.700000
762.846863	232.600000
762.883911	235.500000
762.921021	236.200000
762.958069	233.900000
762.995117	242.300000
763.032227	241.400000
763.069336	234.900000
763.106323	230.500000
763.143433	229.800000
763.180481	237.700000
763.217590	238.400000
763.254639	233.600000
763.291687	236.600000
763.328735	245.400000
763.365845	237.200000
763.402893	236.800000
763.439941	240.700000
763.477051	243.300000
763.514038	244.100000
763.551147	237.200000
763.588196	241.200000
763.625244	238.800000
763.662292	246.900000
763.699402	250.900000
763.736389	246.200000
763.773499	253.800000
763.810486	247.900000
763.847534	246.700000
763.884644	248.700000
763.921631	243.600000
763.958679	257.200000
763.995728	246.200000
764.032776	254.800000
764.069824	242.400000
764.106873	250.700000
764.143860	256.700000
764.180969	247.700000
764.218018	256.200000
764.255005	248.500000
764.292053	251.300000
764.329102	261.600000
764.366089	263.300000
764.403137	260.300000
764.440125	251.900000
764.477173	255.300000
764.514221	257.800000
764.551208	253.600000
764.588257	251.000000
764.625305	260.600000
764.662292	266.500000
764.699341	271.500000
764.736389	262.200000
764.773376	275.400000
764.810425	264.900000
764.847473	273.200000
764.884399	266.300000
764.921448	274.800000
764.958435	272.000000
764.995483	261.900000
765.032532	278.200000
765.069458	264.400000
765.106506	267.200000
765.143555	265.000000
765.180481	267.900000
765.217529	278.100000
765.254578	264.300000
765.291504	271.500000
765.328552	270.300000
765.365540	265.700000
765.402527	283.800000
765.439575	266.500000
765.476501	262.200000
765.513550	264.500000
765.550537	270.300000
765.587463	279.100000
765.624512	267.900000
765.661499	262.300000
765.698486	277.500000
765.735474	267.000000
765.772461	270.300000
765.809448	278.600000
765.846436	276.900000
765.883423	281.100000
765.920410	274.700000
765.957397	271.400000
765.994385	275.700000
766.031311	285.200000
766.068359	278.200000
766.105286	277.900000
766.142273	284.200000
766.179260	279.400000
766.216187	274.100000
766.253174	272.300000
766.290161	280.400000
766.327148	283.200000
766.364136	282.500000
766.401123	298.700000
766.438049	276.400000
766.475037	290.500000
766.512024	286.700000
766.548950	300.800000
766.585937	296.600000
766.622864	292.500000
766.659790	290.700000
766.696777	279.300000
766.733704	295.000000
766.770691	286.300000
766.807678	303.300000
766.844604	294.300000
766.881531	293.700000
766.918518	301.000000
766.955444	302.400000
766.992432	295.500000
767.029358	300.100000
767.066284	300.500000
767.103271	299.600000
767.140198	328.800000
767.177124	316.500000
767.214050	307.100000
767.251038	307.600000
767.287964	303.800000
767.324890	302.600000
767.361816	305.700000
767.398743	311.600000
767.435730	305.600000
767.472595	313.000000
767.509583	316.100000
767.546509	304.100000
767.583374	311.400000
767.620361	302.900000
767.657288	310.000000
767.694214	313.000000
767.731140	310.900000
767.768066	311.000000
767.804993	318.400000
767.841919	309.000000
767.878845	315.700000
767.915710	324.300000
767.952698	318.000000
767.989563	320.900000
768.026489	323.500000
768.063416	317.800000
768.100281	315.500000
768.137207	330.000000
768.174133	328.500000
768.211060	328.800000
768.247986	327.100000
768.284912	325.200000
768.321777	328.300000
768.358704	324.200000
768.395630	329.700000
768.432495	324.500000
768.469421	331.500000
768.506348	335.700000
768.543152	341.600000
768.580078	338.800000
768.616943	342.300000
768.653870	342.300000
768.690796	341.600000
768.727661	337.800000
768.764587	344.000000
768.801453	337.500000
768.838318	347.700000
768.875244	345.900000
768.912109	353.400000
768.948975	343.300000
768.985901	347.300000
769.022766	346.000000
769.059631	354.700000
769.096558	349.200000
769.133362	352.700000
769.170288	351.600000
769.207214	353.100000
769.244019	355.700000
769.280945	359.600000
769.317810	364.500000
769.354675	359.000000
769.391541	371.000000
769.428406	366.000000
769.465271	375.700000
769.502136	364.600000
769.539062	369.900000
769.575867	369.300000
769.612732	370.800000
769.649597	378.900000
769.686462	378.600000
769.723328	376.800000
769.760193	374.600000
769.797058	377.300000
769.833923	387.100000
769.870728	380.400000
769.907593	385.400000
769.944519	384.500000
769.981323	386.900000
770.018188	389.100000
770.055054	385.700000
770.091858	386.200000
770.128723	399.300000
770.165588	404.400000
770.202393	388.400000
770.239258	403.500000
770.276062	396.700000
770.312927	399.400000
770.349792	404.300000
770.386597	405.800000
770.423462	409.900000
770.460327	419.900000
770.497131	404.700000
770.533997	398.800000
770.570862	413.000000
770.607605	413.200000
770.644470	408.700000
770.681335	413.100000
770.718140	413.000000
770.754944	407.300000
770.791809	405.800000
770.828613	409.900000
770.865479	411.400000
770.902222	419.800000
770.939087	413.900000
770.975952	405.800000
771.012695	410.600000
771.049561	427.800000
771.086365	412.000000
771.123169	410.300000
771.159973	415.600000
771.196838	417.000000
771.233582	418.700000
771.270447	417.100000
771.307251	422.300000
771.344055	416.600000
771.380859	423.000000
771.417664	416.800000
771.454468	427.300000
771.491272	425.600000
771.528076	423.900000
771.564880	422.800000
771.601685	432.200000
771.638428	419.700000
771.675293	429.700000
771.712097	417.900000
771.748840	435.300000
771.785645	427.700000
771.822449	432.900000
771.859253	433.300000
771.896057	430.600000
771.932861	443.900000
771.969604	433.200000
772.006409	425.500000
772.043213	441.500000
772.079956	436.600000
772.116760	431.500000
772.153503	437.000000
772.190308	448.700000
772.227112	440.200000
772.263855	432.400000
772.300659	440.400000
772.337463	450.700000
772.374207	440.000000
772.411011	438.200000
772.447754	442.600000
772.484497	459.300000
772.521301	451.900000
772.558105	453.200000
772.594849	452.600000
772.631592	459.900000
772.668396	455.300000
772.705139	460.200000
772.741882	457.500000
772.778625	473.200000
772.815430	474.900000
772.852173	468.500000
772.888916	477.500000
772.925720	479.700000
772.962463	484.100000
772.999207	481.100000
773.035950	488.100000
773.072754	484.800000
773.109436	481.800000
773.146240	481.500000
773.182922	480.900000
773.219727	494.800000
773.256470	489.600000
773.293152	476.500000
773.329956	490.000000
773.366699	494.800000
773.403381	483.200000
773.440186	492.300000
773.476929	499.400000
773.513611	493.400000
773.550354	496.200000
773.587158	495.100000
773.623840	489.900000
773.660583	497.800000
773.697327	514.400000
773.734009	506.800000
773.770813	502.500000
773.807495	501.400000
773.844238	504.400000
773.880981	521.400000
773.917664	518.100000
773.954407	526.400000
773.991150	518.500000
774.027832	525.400000
774.064575	513.700000
774.101318	522.400000
774.138000	533.600000
774.174744	528.800000
774.211487	532.400000
774.248108	521.900000
774.284851	520.000000
774.321594	530.000000
774.358276	534.600000
774.395020	546.500000
774.431702	543.700000
774.468384	536.800000
774.505127	533.500000
774.541809	547.900000
774.578491	554.200000
774.615234	555.600000
774.651917	548.900000
774.688599	554.700000
774.725342	562.100000
774.762024	558.200000
774.798706	563.700000
774.835449	565.900000
774.872070	577.500000
774.908813	572.400000
774.945496	567.500000
774.982178	569.300000
775.018860	572.900000
775.055542	578.300000
775.092224	582.200000
775.128967	589.500000
775.165588	588.800000
775.202271	575.600000
775.239014	590.800000
775.275635	591.500000
775.312317	591.400000
775.349060	596.700000
775.385681	598.700000
775.422363	588.000000
775.459045	597.600000
775.495667	599.800000
775.532410	608.300000
775.569092	608.100000
775.605713	607.900000
775.642395	608.500000
775.679016	609.500000
775.715698	611.200000
775.752380	616.900000
775.789001	611.200000
775.825684	615.000000
775.862366	617.600000
775.898987	629.200000
775.935669	617.300000
775.972351	640.500000
776.008972	638.500000
776.045654	637.700000
776.082336	632.300000
776.118958	633.700000
776.155640	636.100000
776.192322	644.900000
776.228882	647.100000
776.265564	647.600000
776.302185	643.500000
776.338867	651.700000
776.375488	635.600000
776.412109	647.400000
776.448792	655.400000
776.485413	663.900000
776.522034	649.100000
776.558716	649.500000
776.595337	644.100000
776.631958	653.900000
776.668579	652.700000
776.705261	662.200000
776.741882	655.500000
776.778503	657.400000
776.815186	651.600000
776.851746	654.500000
776.888367	660.500000
776.924988	671.800000
776.961609	660.400000
776.998291	663.700000
777.034851	650.200000
777.071472	664.300000
777.108154	663.500000
777.144714	677.000000
777.181335	671.300000
777.218018	667.900000
777.254578	671.800000
777.291199	670.100000
777.327759	674.000000
777.364380	681.600000
777.401062	685.300000
777.437622	697.300000
777.474243	682.600000
777.510864	690.500000
777.547424	685.300000
777.584045	687.700000
777.620667	688.100000
777.657227	693.600000
777.693848	694.200000
777.730469	710.500000
777.767029	699.200000
777.803650	704.500000
777.840271	698.300000
777.876831	697.000000
777.913452	704.000000
777.950012	686.300000
777.986633	686.700000
778.023193	684.300000
778.059753	687.700000
778.096375	689.700000
778.132996	703.600000
778.169556	697.400000
778.206116	695.600000
778.242737	693.200000
778.279297	705.900000
778.315857	696.000000
778.352478	702.000000
778.389038	713.800000
778.425598	714.100000
778.462219	726.900000
778.498718	720.300000
778.535339	728.800000
778.571838	727.000000
778.608459	734.700000
778.645020	726.100000
778.681580	737.600000
778.718140	741.300000
778.754761	733.800000
778.791260	741.600000
778.827881	746.100000
778.864441	746.500000
778.900940	754.200000
778.937561	754.100000
778.974121	752.300000
779.010620	742.900000
779.047241	746.500000
779.083801	756.100000
779.120300	757.700000
779.156860	762.800000
779.193359	760.400000
779.229980	759.300000
779.266541	765.200000
779.303040	771.800000
779.339600	761.900000
779.376160	758.500000
779.412659	766.400000
779.449219	760.100000
779.485779	770.100000
779.522278	769.500000
779.558838	774.900000
779.595398	776.000000
779.631897	772.700000
779.668457	768.100000
779.705017	782.000000
779.741516	771.800000
779.778076	765.500000
779.814575	774.900000
779.851074	784.500000
779.887634	782.800000
779.924133	794.000000
779.960693	777.600000
779.997253	788.100000
780.033691	795.700000
780.070251	803.300000
780.106812	814.700000
780.143250	812.500000
780.179810	807.900000
780.216370	815.000000
780.252808	820.500000
780.289368	829.300000
780.325867	833.300000
780.362366	834.400000
780.398865	842.600000
780.435364	833.500000
780.471863	843.600000
780.508423	838.900000
780.544861	848.900000
780.581421	857.200000
780.617920	844.600000
780.654419	839.500000
780.690918	845.200000
780.727417	857.800000
780.763916	850.900000
780.800415	862.100000
780.836914	851.800000
780.873352	858.600000
780.909912	847.500000
780.946411	853.000000
780.982849	866.400000
781.019348	881.100000
781.055786	877.800000
781.092346	873.500000
781.128845	882.300000
781.165283	889.400000
781.201782	894.900000
781.238281	904.400000
781.274719	909.100000
781.311218	905.600000
781.347717	914.000000
781.384155	903.300000
781.420654	904.500000
781.457092	917.400000
781.493591	915.700000
781.530090	908.000000
781.566528	913.200000
781.602966	916.000000
781.639465	913.400000
781.675903	912.000000
781.712402	921.000000
781.748901	930.400000
781.785278	918.900000
781.821777	924.700000
781.858276	925.700000
781.894714	939.300000
781.931152	932.500000
781.967651	942.400000
782.004089	937.500000
782.040527	944.200000
782.076965	940.700000
782.113403	942.600000
782.149902	946.200000
782.186340	940.700000
782.222778	954.700000
782.259277	944.100000
782.295654	932.600000
782.332092	950.700000
782.368591	944.800000
782.404968	940.000000
782.441467	945.500000
782.477905	948.200000
782.514282	941.900000
782.550781	955.400000
782.587219	957.300000
782.623596	962.900000
782.660095	963.400000
782.696472	971.000000
782.732910	965.800000
782.769348	968.900000
782.805786	989.300000
782.842224	978.400000
782.878662	977.200000
782.915039	982.300000
782.951477	980.700000
782.987915	973.000000
783.024292	984.300000
783.060730	983.900000
783.097168	971.700000
783.133545	964.500000
783.169983	955.600000
783.206421	949.700000
783.242798	947.700000
783.279236	937.900000
783.315613	933.400000
783.352051	929.100000
783.388489	921.600000
783.424866	903.700000
783.461304	891.500000
783.497681	837.000000
783.534058	732.400000
783.570496	595.400000
783.606934	455.800000
783.643250	364.100000
783.679687	328.800000
783.716125	315.000000
783.752441	358.400000
783.788879	458.100000
783.825317	599.800000
783.861633	745.000000
783.898071	862.700000
783.934448	947.700000
783.970825	991.700000
784.007263	1009.600000
784.043579	1008.600000
784.080017	1021.300000
784.116394	1017.200000
784.152710	1018.700000
784.189148	1025.800000
784.225525	1033.500000
784.261902	1020.500000
784.298279	1012.200000
784.334656	1014.200000
784.371033	1002.600000
784.407410	1006.300000
784.443787	998.500000
784.480164	978.800000
784.516541	965.200000
784.552856	966.000000
784.589233	962.700000
784.625610	957.800000
784.661987	1001.100000
784.698364	986.600000
784.734741	983.400000
784.771057	977.800000
784.807434	989.800000
784.843811	1003.200000
784.880127	1006.000000
784.916504	1035.900000
784.952881	1047.700000
784.989197	1040.000000
785.025574	1044.400000
785.061951	1043.200000
785.098267	1070.100000
785.134644	1065.400000
785.170959	1069.700000
785.207275	1073.600000
785.243652	1070.200000
785.279968	1050.100000
785.316345	1056.000000
785.352722	1054.200000
785.388977	1055.400000
785.425354	1036.200000
785.461731	1013.700000
785.498047	1000.900000
785.534363	996.900000
785.570679	1000.900000
785.606995	1001.600000
785.643372	1010.300000
785.679687	1004.400000
785.716003	987.500000
785.752380	986.100000
785.788635	993.600000
785.825012	1019.400000
785.861328	1035.300000
785.897644	1027.500000
785.933960	1043.700000
785.970337	1048.400000
786.006592	1064.500000
786.042908	1074.700000
786.079285	1093.000000
786.115540	1103.800000
786.151855	1108.300000
786.188171	1105.000000
786.224487	1100.700000
786.260803	1097.800000
786.297119	1112.400000
786.333435	1117.300000
786.369751	1108.000000
786.406006	1109.900000
786.442322	1091.300000
786.478638	1075.400000
786.514954	1093.300000
786.551270	1085.300000
786.587585	1103.100000
786.623840	1090.200000
786.660156	1079.600000
786.696472	1065.600000
786.732727	1060.600000
786.769043	1065.800000
786.805298	1064.500000
786.841614	1069.700000
786.877930	1081.300000
786.914124	1068.400000
786.950439	1085.000000
786.986755	1091.400000
787.023010	1109.700000
787.059326	1122.900000
787.095642	1129.500000
787.131836	1146.800000
787.168152	1135.300000
787.204468	1139.000000
787.240723	1155.200000
787.276978	1171.200000
787.313293	1184.900000
787.349548	1178.600000
787.385803	1181.700000
787.422058	1171.700000
787.458313	1167.700000
787.494629	1172.400000
787.530823	1170.800000
787.567139	1161.800000
787.603455	1150.000000
787.639648	1131.300000
787.675903	1134.200000
787.712219	1134.300000
787.748413	1133.600000
787.784729	1142.700000
787.820984	1131.200000
787.857178	1125.000000
787.893494	1113.700000
787.929749	1112.200000
787.965942	1123.700000
788.002258	1146.100000
788.038452	1154.000000
788.074707	1146.400000
788.110962	1153.100000
788.147217	1150.200000
788.183472	1158.400000
788.219727	1172.800000
788.255920	1190.200000
788.292175	1195.200000
788.328430	1190.900000
788.364624	1177.200000
788.400879	1166.800000
788.437134	1168.600000
788.473328	1169.000000
788.509583	1174.700000
788.545837	1168.800000
788.582031	1165.200000
788.618286	1149.400000
788.654480	1145.700000
788.690735	1156.700000
788.726990	1185.000000
788.763184	1177.800000
788.799377	1187.700000
788.835632	1175.100000
788.871826	1190.800000
788.908081	1186.100000
788.944336	1183.200000
788.980469	1200.500000
789.016724	1195.100000
789.052979	1193.600000
789.089111	1175.800000
789.125366	1174.500000
789.161621	1157.400000
789.197754	1174.700000
789.234009	1169.400000
789.270142	1158.700000
789.306396	1152.000000
789.342590	1141.500000
789.378784	1117.700000
789.414978	1117.300000
789.451233	1134.900000
789.487366	1132.400000
789.523621	1150.200000
789.559814	1138.800000
789.595947	1123.900000
789.632202	1126.800000
789.668335	1143.800000
789.704529	1162.000000
789.740784	1184.900000
789.776917	1194.100000
789.813110	1178.000000
789.849304	1190.700000
789.885498	1187.800000
789.921692	1207.100000
789.957886	1214.400000
789.994019	1219.200000
790.030212	1213.200000
790.066406	1213.200000
790.102539	1208.600000
790.138733	1216.000000
790.174927	1209.800000
790.211060	1229.400000
790.247253	1217.200000
790.283386	1206.800000
790.319580	1191.300000
790.355774	1168.600000
790.391907	1174.900000
790.428101	1194.100000
790.464294	1201.000000
790.500427	1205.400000
790.536621	1180.600000
790.572754	1160.500000
790.608887	1155.900000
790.645081	1166.700000
790.681274	1184.800000
790.717346	1190.100000
790.753540	1179.300000
790.789734	1153.000000
790.825867	1126.800000
790.862000	1116.100000
790.898132	1092.200000
790.934265	1077.700000
790.970459	1099.400000
791.006592	1139.000000
791.042725	1189.400000
791.078918	1227.900000
791.114990	1243.500000
791.151184	1261.300000
791.187317	1297.400000
791.223389	1295.600000
791.259583	1282.400000
791.295715	1283.000000
791.331848	1288.000000
791.367981	1299.600000
791.404114	1309.100000
791.440247	1311.800000
791.476379	1314.100000
791.512451	1293.600000
791.548584	1283.300000
791.584778	1273.600000
791.620850	1293.900000
791.656982	1303.800000
791.693115	1306.500000
791.729187	1304.100000
791.765381	1294.200000
791.801514	1291.900000
791.837585	1295.200000
791.873718	1305.500000
791.909851	1323.700000
791.945923	1341.000000
791.982056	1304.200000
792.018188	1298.600000
792.054260	1302.200000
792.090393	1297.400000
792.126465	1300.800000
792.162598	1312.000000
792.198669	1299.000000
792.234741	1293.900000
792.270874	1283.100000
792.307007	1269.300000
792.343079	1274.200000
792.379150	1293.400000
792.415283	1282.300000
792.451355	1285.800000
792.487488	1255.200000
792.523560	1249.100000
792.559631	1247.900000
792.595764	1242.200000
792.631836	1255.000000
792.667908	1269.800000
792.703979	1254.000000
792.740051	1247.600000
792.776184	1252.400000
792.812256	1248.400000
792.848328	1256.400000
792.884399	1269.400000
792.920471	1269.800000
792.956543	1264.200000
792.992615	1260.300000
793.028748	1254.500000
793.064758	1257.200000
793.100830	1284.000000
793.136963	1306.400000
793.172974	1298.800000
793.209045	1299.800000
793.245178	1308.300000
793.281189	1290.200000
793.317261	1297.700000
793.353271	1310.700000
793.389404	1324.500000
793.425476	1319.000000
793.461487	1299.200000
793.497559	1289.800000
793.533630	1292.900000
793.569641	1288.900000
793.605713	1295.100000
793.641785	1305.400000
793.677795	1314.500000
793.713867	1303.000000
793.749878	1304.200000
793.785950	1317.300000
793.822021	1324.800000
793.858032	1312.000000
793.894104	1325.300000
793.930176	1310.500000
793.966187	1314.400000
794.002258	1300.800000
794.038269	1301.000000
794.074280	1300.900000
794.110352	1326.600000
794.146423	1306.300000
794.182373	1302.000000
794.218445	1298.500000
794.254517	1283.300000
794.290466	1263.600000
794.326538	1267.800000
794.362549	1275.700000
794.398560	1286.900000
794.434631	1287.900000
794.470581	1260.800000
794.506653	1247.900000
794.542664	1248.400000
794.578674	1247.300000
794.614685	1249.400000
794.650757	1252.800000
794.686707	1248.400000
794.722778	1229.400000
794.758789	1230.700000
794.794739	1246.700000
794.830811	1274.400000
794.866821	1301.300000
794.902771	1295.900000
794.938843	1289.100000
794.974792	1286.300000
795.010803	1283.700000
795.046814	1287.200000
795.082825	1273.100000
795.118835	1287.100000
795.154846	1268.000000
795.190796	1269.000000
795.226807	1241.100000
795.262817	1244.500000
795.298767	1245.300000
795.334778	1248.400000
795.370850	1245.000000
795.406799	1246.600000
795.442810	1230.300000
795.478821	1217.200000
795.514709	1216.000000
795.550720	1239.000000
795.586670	1227.300000
795.622681	1229.900000
795.658691	1232.700000
795.694641	1229.000000
795.730652	1213.900000
795.766663	1221.300000
795.802551	1222.200000
795.838562	1247.900000
795.874573	1230.700000
795.910522	1226.000000
795.946472	1214.700000
795.982483	1213.200000
796.018433	1218.800000
796.054382	1230.200000
796.090393	1219.000000
796.126282	1217.700000
796.162292	1205.700000
796.198242	1188.300000
796.234192	1192.400000
796.270203	1187.800000
796.306091	1193.400000
796.342041	1210.100000
796.378052	1202.600000
796.413940	1198.100000
796.449951	1201.000000
796.485901	1197.800000
796.521790	1199.800000
796.557800	1224.100000
796.593689	1232.300000
796.629639	1220.700000
796.665649	1215.000000
796.701599	1202.200000
796.737488	1198.300000
796.773437	1201.600000
796.809387	1210.400000
796.845337	1212.300000
796.881287	1201.100000
796.917175	1177.200000
796.953125	1177.200000
796.989075	1182.100000
797.024963	1187.300000
797.060913	1183.500000
797.096863	1193.000000
797.132751	1183.000000
797.168701	1156.300000
797.204590	1157.300000
797.240540	1160.800000
797.276489	1169.200000
797.312439	1181.400000
797.348328	1182.200000
797.384277	1165.100000
797.420166	1153.600000
797.456055	1148.800000
797.492004	1147.600000
797.527893	1157.000000
797.563843	1166.400000
797.599731	1159.000000
797.635620	1143.500000
797.671570	1147.300000
797.707520	1148.700000
797.743347	1149.000000
797.779297	1171.100000
797.815125	1165.800000
797.851074	1150.100000
797.887024	1133.400000
797.922913	1117.400000
797.958801	1127.700000
797.994690	1127.200000
798.030579	1136.600000
798.066467	1143.700000
798.102356	1133.300000
798.138245	1122.500000
798.174133	1113.600000
798.210083	1121.900000
798.245911	1125.100000
798.281799	1139.000000
798.317749	1132.400000
798.353577	1124.100000
798.389465	1116.000000
798.425293	1112.000000
798.461243	1105.000000
798.497131	1115.600000
798.532959	1124.000000
798.568848	1132.700000
798.604736	1114.100000
798.640564	1094.100000
798.676453	1091.600000
798.712402	1095.100000
798.748230	1106.800000
798.784119	1108.300000
798.820007	1110.500000
798.855835	1104.300000
798.891724	1089.700000
798.927551	1084.400000
798.963379	1095.000000
798.999268	1089.200000
799.035095	1090.600000
799.070984	1080.100000
799.106873	1064.800000
799.142700	1069.900000
799.178528	1056.100000
799.214417	1058.600000
799.250244	1081.700000
799.286133	1077.000000
799.321960	1069.300000
799.357788	1062.800000
799.393677	1061.600000
799.429504	1058.100000
799.465332	1059.000000
799.501221	1071.700000
799.537048	1072.500000
799.572876	1061.500000
799.608704	1068.100000
799.644531	1069.600000
799.680359	1070.600000
799.716248	1081.000000
799.752014	1097.000000
799.787903	1087.400000
799.823730	1081.400000
799.859558	1069.000000
799.895386	1067.300000
799.931213	1069.600000
799.967041	1062.300000
800.002869	1064.800000
800.038696	1081.300000
800.074463	1055.500000
800.110352	1052.100000
800.146179	1048.300000
800.181946	1052.900000
800.217773	1058.100000
800.253540	1054.500000
800.289429	1049.400000
800.325256	1033.800000
800.361023	1025.300000
800.396851	1028.100000
800.432678	1039.100000
800.468445	1035.700000
800.504272	1033.400000
800.540100	1019.900000
800.575867	1010.600000
800.611694	1016.800000
800.647461	1006.300000
800.683289	1013.900000
800.719116	1015.400000
800.754883	1011.500000
800.790649	993.300000
800.826477	983.300000
800.862244	1006.200000
800.898071	988.600000
800.933838	989.800000
800.969604	988.500000
801.005432	990.400000
801.041199	985.500000
801.076965	969.600000
801.112793	960.600000
801.148560	955.500000
801.184326	956.400000
801.220154	961.200000
801.255859	952.000000
801.291687	948.000000
801.327454	938.000000
801.363281	935.400000
801.398987	931.700000
801.434814	935.400000
801.470520	945.800000
801.506287	933.400000
801.542114	921.300000
801.577820	919.800000
801.613647	920.400000
801.649414	914.600000
801.685120	916.400000
801.720886	923.000000
801.756714	912.800000
801.792419	901.000000
801.828186	891.000000
801.863892	903.800000
801.899719	896.400000
801.935486	892.300000
801.971252	898.700000
802.006958	890.400000
802.042725	885.400000
802.078430	881.900000
802.114197	878.500000
802.149963	896.200000
802.185669	883.500000
802.221436	875.500000
802.257202	879.400000
802.292908	871.800000
802.328674	879.900000
802.364441	879.400000
802.400146	878.700000
802.435913	872.400000
802.471558	870.900000
802.507324	864.800000
802.543091	853.100000
802.578796	871.000000
802.614502	873.500000
802.650269	879.300000
802.685974	858.500000
802.721741	863.400000
802.757446	865.400000
802.793152	857.000000
802.828918	873.200000
802.864624	864.300000
802.900330	864.400000
802.936035	855.800000
802.971802	851.900000
803.007446	848.700000
803.043213	839.400000
803.078857	846.000000
803.114624	829.500000
803.150330	838.100000
803.185974	834.100000
803.221741	830.000000
803.257446	834.700000
803.293152	833.400000
803.328857	831.800000
803.364563	823.300000
803.400208	816.300000
803.435974	824.900000
803.471680	817.700000
803.507324	807.200000
803.543030	818.600000
803.578735	824.100000
803.614441	814.000000
803.650146	818.300000
803.685791	807.000000
803.721497	804.400000
803.757202	792.000000
803.792847	801.100000
803.828552	796.700000
803.864258	797.700000
803.899902	794.200000
803.935608	777.200000
803.971313	781.700000
804.006958	778.400000
804.042664	776.000000
804.078308	783.300000
804.113953	778.000000
804.149658	784.900000
804.185364	768.500000
804.221008	776.000000
804.256714	766.400000
804.292297	764.100000
804.328003	760.700000
804.363708	751.200000
804.399292	751.800000
804.434998	751.800000
804.470703	745.000000
804.506287	757.200000
804.541992	749.600000
804.577637	753.600000
804.613281	742.300000
804.648926	736.600000
804.684570	735.200000
804.720215	734.900000
804.755920	731.600000
804.791565	727.900000
804.827209	734.300000
804.862854	728.200000
804.898437	719.800000
804.934143	719.500000
804.969788	719.000000
805.005371	725.600000
805.041077	722.600000
805.076721	724.800000
805.112305	712.100000
805.147949	712.800000
805.183655	707.800000
805.219238	712.200000
805.254883	707.600000
805.290466	717.300000
805.326111	711.300000
805.361755	700.900000
805.397400	705.700000
805.432983	702.900000
805.468628	698.900000
805.504211	708.000000
805.539856	702.500000
805.575500	712.600000
805.611084	702.000000
805.646729	684.700000
805.682373	689.500000
805.717957	699.900000
805.753601	702.100000
805.789246	686.900000
805.824768	699.700000
805.860413	702.400000
805.895996	687.600000
805.931641	689.200000
805.967224	694.800000
806.002869	686.800000
806.038452	697.500000
806.074036	695.100000
806.109619	685.700000
806.145264	675.900000
806.180847	678.000000
806.216431	673.600000
806.252014	678.200000
806.287659	678.400000
806.323181	687.000000
806.358826	678.400000
806.394409	659.100000
806.429993	658.600000
806.465576	674.400000
806.501160	657.500000
806.536743	651.900000
806.572327	664.300000
806.607910	659.100000
806.643494	651.100000
806.679077	648.800000
806.714661	650.200000
806.750244	648.800000
806.785828	641.500000
806.821350	643.200000
806.856934	648.000000
806.892517	642.900000
806.928101	630.900000
806.963684	634.500000
806.999268	644.800000
807.034790	621.600000
807.070374	634.000000
807.105896	622.500000
807.141479	617.700000
807.177063	627.500000
807.212585	617.200000
807.248169	615.300000
807.283752	621.600000
807.319275	614.300000
807.354858	611.700000
807.390381	606.400000
807.425903	606.900000
807.461487	600.900000
807.497070	594.800000
807.532593	593.200000
807.568115	592.300000
807.603699	590.600000
807.639221	582.800000
807.674744	586.800000
807.710266	589.800000
807.745850	594.600000
807.781372	584.800000
807.816895	579.100000
807.852417	582.200000
807.888000	579.500000
807.923523	575.600000
807.959045	580.000000
807.994629	569.100000
808.030090	568.300000
808.065613	572.600000
808.101135	573.000000
808.136658	569.600000
808.172241	563.400000
808.207764	563.300000
808.243225	557.600000
808.278809	555.800000
808.314270	565.800000
808.349792	549.500000
808.385315	549.000000
808.420837	556.100000
808.456360	558.500000
808.491882	558.600000
808.527344	553.600000
808.562866	561.700000
808.598389	552.900000
808.633850	546.100000
808.669434	541.100000
808.704895	551.100000
808.740417	552.100000
808.775940	546.600000
808.811462	539.600000
808.846924	535.300000
808.882385	530.500000
808.917847	530.100000
808.953369	527.900000
808.988892	523.200000
809.024353	536.600000
809.059875	530.200000
809.095398	527.900000
809.130798	518.300000
809.166321	517.900000
809.201843	514.400000
809.237305	516.600000
809.272766	525.000000
809.308228	510.100000
809.343750	510.500000
809.379211	510.900000
809.414734	510.900000
809.450134	518.700000
809.485657	499.500000
809.521118	507.900000
809.556580	503.800000
809.592102	499.600000
809.627502	496.900000
809.663025	495.500000
809.698486	491.700000
809.733887	489.400000
809.769409	491.000000
809.804871	476.500000
809.840271	482.800000
809.875793	485.500000
809.911194	488.000000
809.946655	479.800000
809.982178	477.300000
810.017639	479.600000
810.053040	475.000000
810.088501	473.800000
810.123901	470.600000
810.159424	468.300000
810.194885	462.300000
810.230286	466.700000
810.265747	460.100000
810.301208	458.000000
810.336609	459.900000
810.372070	454.500000
810.407532	452.600000
810.442932	454.600000
810.478394	457.600000
810.513794	456.600000
810.549255	448.300000
810.584717	446.600000
810.620117	442.700000
810.655518	448.800000
810.690979	441.900000
810.726379	443.200000
810.761841	431.900000
810.797302	433.800000
810.832642	430.600000
810.868103	444.100000
810.903564	427.500000
810.938904	436.900000
810.974365	421.500000
811.009827	427.700000
811.045166	423.000000
811.080627	412.900000
811.115967	419.400000
811.151428	426.500000
811.186829	417.800000
811.222229	419.600000
811.257629	413.000000
811.293091	418.600000
811.328430	424.400000
811.363892	416.000000
811.399292	421.300000
811.434631	413.800000
811.470093	419.300000
811.505493	408.700000
811.540833	410.900000
811.576294	414.600000
811.611694	408.200000
811.647034	403.300000
811.682434	407.100000
811.717773	408.600000
811.753235	415.200000
811.788635	406.600000
811.823975	405.400000
811.859375	410.400000
811.894775	397.900000
811.930115	397.300000
811.965515	400.300000
812.000916	401.600000
812.036255	396.400000
812.071655	401.300000
812.106995	392.900000
812.142395	393.100000
812.177795	402.400000
812.213196	398.400000
812.248474	398.500000
812.283875	389.400000
812.319214	391.500000
812.354614	389.700000
812.390015	383.800000
812.425293	385.100000
812.460693	387.500000
812.496094	383.200000
812.531433	373.200000
812.566772	375.700000
812.602173	380.300000
812.637451	379.900000
812.672852	372.000000
812.708191	375.500000
812.743530	373.400000
812.778931	362.400000
812.814270	365.000000
812.849609	373.800000
812.884949	368.400000
812.920227	360.600000
812.955627	378.800000
812.990967	367.500000
813.026306	362.400000
813.061646	348.800000
813.096985	348.600000
813.132324	346.200000
813.167664	352.300000
813.203003	353.000000
813.238281	341.900000
813.273682	343.200000
813.308960	340.000000
813.344299	340.700000
813.379639	348.700000
813.414978	340.000000
813.450256	338.900000
813.485596	343.400000
813.520874	334.300000
813.556213	338.500000
813.591614	342.400000
813.626831	332.500000
813.662170	337.000000
813.697510	348.300000
813.732788	330.500000
813.768127	335.200000
813.803467	333.600000
813.838745	329.400000
813.874084	333.300000
813.909363	331.300000
813.944641	332.100000
813.979980	322.600000
814.015320	326.200000
814.050598	322.700000
814.085876	324.500000
814.121155	324.600000
814.156494	322.700000
814.191772	322.800000
814.227051	317.400000
814.262390	320.400000
814.297668	319.100000
814.332947	320.400000
814.368225	311.300000
814.403564	315.800000
814.438782	312.200000
814.474121	316.300000
814.509338	311.600000
814.544617	317.700000
814.579956	307.300000
814.615173	319.800000
814.650513	314.000000
814.685791	307.300000
814.721008	309.600000
814.756348	308.700000
814.791626	303.300000
814.826843	306.600000
814.862122	303.900000
814.897400	301.000000
814.932678	303.200000
814.967957	303.300000
815.003235	301.100000
815.038452	296.400000
815.073730	292.700000
815.108948	304.500000
815.144226	303.300000
815.179504	304.900000
815.214722	290.200000
815.250000	289.800000
815.285278	296.200000
815.320496	290.200000
815.355774	293.000000
815.391052	295.200000
815.426270	289.700000
815.461487	287.900000
815.496765	283.300000
815.531982	278.600000
815.567261	285.600000
815.602539	292.100000
815.637695	286.900000
815.672974	289.300000
815.708191	289.300000
815.743408	289.700000
815.778687	282.300000
815.813904	292.200000
815.849121	273.100000
815.884399	274.700000
815.919556	277.500000
815.954834	275.300000
815.990051	281.300000
816.025269	282.300000
816.060486	271.300000
816.095703	271.900000
816.130920	275.500000
816.166199	270.000000
816.201416	276.000000
816.236572	276.600000
816.271851	268.600000
816.307007	276.600000
816.342224	264.700000
816.377441	267.700000
816.412659	260.000000
816.447876	271.000000
816.483093	264.500000
816.518250	264.600000
816.553467	262.700000
816.588745	265.100000
816.623901	259.200000
816.659119	252.700000
816.694275	260.200000
816.729492	257.000000
816.764709	292.900000
816.799927	251.700000
816.835083	257.100000
816.870300	250.800000
816.905457	255.500000
816.940674	254.400000
816.975830	249.300000
817.010986	246.600000
817.046204	247.800000
817.081421	244.400000
817.116577	247.200000
817.151733	254.500000
817.186951	254.600000
817.222107	250.400000
817.257324	252.500000
817.292419	251.000000
817.327637	242.500000
817.362854	247.600000
817.398010	241.800000
817.433167	243.200000
817.468323	242.300000
817.503479	243.400000
817.538635	252.800000
817.573853	246.500000
817.608948	245.000000
817.644165	240.400000
817.679321	237.600000
817.714478	237.900000
817.749634	242.000000
817.784790	251.600000
817.819946	247.000000
817.855103	227.700000
817.890198	237.800000
817.925415	230.000000
817.960571	238.500000
817.995667	237.700000
818.030823	236.500000
818.066040	232.500000
818.101135	235.900000
818.136292	235.800000
818.171448	227.300000
818.206543	232.200000
818.241699	235.800000
818.276855	233.800000
818.311951	231.300000
818.347107	228.200000
818.382263	233.300000
818.417358	239.600000
818.452515	238.200000
818.487610	237.900000
818.522766	226.300000
818.557922	237.800000
818.593018	233.700000
818.628113	230.800000
818.663269	226.400000
818.698364	228.500000
818.733521	225.500000
818.768677	228.600000
818.803711	220.600000
818.838867	222.100000
818.874023	226.900000
818.909058	222.100000
818.944214	219.900000
818.979370	227.200000
819.014404	223.900000
819.049561	219.600000
819.084595	224.800000
819.119751	215.200000
819.154846	224.300000
819.189941	220.100000
819.225037	215.800000
819.260193	210.700000
819.295227	214.600000
819.330322	208.600000
819.365479	209.000000
819.400513	241.700000
819.435608	207.100000
819.470764	205.800000
819.505798	209.200000
819.540894	211.300000
819.575989	208.800000
819.611084	219.600000
819.646179	218.500000
819.681213	214.700000
819.716309	211.700000
819.751404	209.900000
819.786438	214.900000
819.821533	205.700000
819.856628	211.700000
819.891663	215.000000
819.926758	220.700000
819.961853	215.300000
819.996887	206.800000
820.031982	212.300000
820.067017	208.300000
820.102112	236.300000
820.137207	206.300000
820.172302	222.200000
820.207275	205.000000
820.242371	204.000000
820.277405	204.900000
820.312500	204.700000
820.347534	209.000000
820.382568	210.800000
820.417664	204.700000
820.452759	203.800000
820.487732	202.500000
820.522827	202.700000
820.557861	198.800000
820.592896	201.800000
820.627930	202.500000
820.662964	201.600000
820.698059	205.800000
820.733093	201.400000
820.768127	206.500000
820.803162	202.600000
820.838196	198.500000
820.873230	202.700000
820.908264	201.800000
820.943298	200.000000
820.978333	207.300000
821.013367	204.200000
821.048401	205.700000
821.083435	207.900000
821.118469	192.500000
821.153503	206.300000
821.188477	202.200000
821.223511	194.300000
821.258484	201.500000
821.293579	200.300000
821.328613	193.900000
821.363647	198.700000
821.398621	194.800000
821.433655	195.800000
821.468628	212.000000
821.503662	198.800000
821.538696	200.900000
821.573669	193.500000
821.608704	200.600000
821.643677	195.300000
821.678650	201.200000
821.713684	207.500000
821.748718	196.500000
821.783691	197.900000
821.818726	198.500000
821.853638	200.300000
821.888672	195.400000
821.923706	197.200000
821.958618	194.900000
821.993652	194.400000
822.028687	201.200000
822.063599	204.200000
822.098633	198.000000
822.133667	192.200000
822.168579	194.400000
822.203613	198.100000
822.238586	192.600000
822.273560	199.400000
822.308533	192.200000
822.343567	192.000000
822.378479	194.500000
822.413452	192.400000
822.448425	190.900000
822.483398	198.300000
822.518372	200.200000
822.553345	190.900000
822.588318	202.500000
822.623291	192.200000
822.658203	192.100000
822.693237	194.100000
822.728210	189.100000
822.763123	193.400000
822.798096	190.300000
822.833069	193.100000
822.867981	192.800000
822.902954	194.300000
822.937927	196.700000
822.972900	204.300000
823.007874	185.500000
823.042725	196.000000
823.077698	205.600000
823.112671	190.500000
823.147583	191.600000
823.182556	196.800000
823.217529	198.100000
823.252441	191.200000
823.287415	206.900000
823.322388	193.600000
823.357239	192.400000
823.392212	200.300000
823.427185	197.200000
823.462097	188.600000
823.497009	196.500000
823.531982	190.600000
823.566895	193.000000
823.601807	187.600000
823.636719	190.700000
823.671631	195.800000
823.706604	189.800000
823.741455	194.600000
823.776428	186.000000
823.811340	197.800000
823.846252	198.600000
823.881165	199.900000
823.916138	193.400000
823.950989	199.700000
823.985901	189.100000
824.020813	192.400000
824.055725	189.900000
824.090637	186.500000
824.125610	195.200000
824.160461	193.600000
824.195374	195.400000
824.230225	197.900000
824.265198	183.900000
824.300110	189.200000
824.334961	202.500000
824.369873	181.500000
824.404785	193.700000
824.439636	197.700000
824.474548	182.900000
824.509460	181.900000
824.544312	195.700000
824.579224	193.600000
824.614075	194.100000
824.648987	191.200000
824.683899	189.400000
824.718811	187.900000
824.753662	197.900000
824.788574	196.600000
824.823364	192.000000
824.858276	188.800000
824.893188	196.000000
824.928040	198.300000
824.962952	192.500000
824.997803	193.400000
825.032654	191.200000
825.067566	195.100000
825.102417	188.600000
825.137268	189.200000
825.172119	191.200000
825.206970	188.500000
825.241882	188.500000
825.276733	188.700000
825.311646	187.000000
825.346436	185.400000
825.381348	186.500000
825.416138	191.700000
825.450989	184.500000
825.485901	182.900000
825.520691	181.800000
825.555542	183.500000
825.590454	190.800000
825.625244	182.800000
825.660095	196.700000
825.695007	192.800000
825.729797	187.300000
825.764648	187.000000
825.799438	188.500000
825.834290	191.100000
825.869202	182.600000
825.903992	190.400000
825.938843	185.500000
825.973694	183.800000
826.008484	201.200000
826.043335	185.000000
826.078186	179.900000
826.112976	196.200000
826.147827	193.900000
826.182678	197.900000
826.217468	182.700000
826.252319	192.200000
826.287109	185.200000
826.321899	196.600000
826.356750	186.300000
826.391541	183.000000
826.426392	193.400000
826.461182	187.700000
826.495972	183.500000
826.530823	180.500000
826.565613	189.700000
826.600403	184.000000
826.635254	191.600000
826.670044	180.600000
826.704834	181.000000
826.739685	182.600000
826.774475	189.200000
826.809265	187.100000
826.844055	186.800000
826.878906	194.400000
826.913635	190.300000
826.948425	190.700000
826.983215	190.100000
827.018005	192.700000
827.052856	186.700000
827.087585	190.900000
827.122375	180.100000
827.157227	188.100000
827.191956	200.700000
827.226746	183.400000
827.261536	193.800000
827.296265	181.200000
827.331116	186.200000
827.365906	191.500000
827.400635	184.200000
827.435425	179.400000
827.470215	196.700000
827.504944	185.300000
827.539734	192.200000
827.574463	187.900000
827.609253	195.300000
827.644043	188.300000
827.678772	194.100000
827.713562	185.300000
827.748352	185.200000
827.783081	185.500000
827.817871	188.900000
827.852600	184.800000
827.887329	187.900000
827.922119	179.500000
827.956848	191.400000
827.991638	201.700000
828.026367	188.700000
828.061157	187.200000
828.095886	187.500000
828.130615	203.000000
828.165344	179.000000
828.200073	188.700000
828.234863	185.200000
828.269592	187.300000
828.304321	192.800000
828.339111	189.600000
828.373779	184.200000
828.408569	193.100000
828.443298	192.400000
828.477966	185.900000
828.512756	188.900000
828.547424	184.000000
828.582214	185.400000
828.616943	186.600000
828.651672	185.800000
828.686340	191.900000
828.721130	184.000000
828.755798	185.400000
828.790527	189.000000
828.825256	189.500000
828.859924	186.300000
828.894714	195.500000
828.929443	196.400000
828.964111	184.800000
828.998840	190.000000
829.033569	186.200000
829.068237	186.700000
829.102966	186.100000
829.137634	189.100000
829.172363	189.100000
829.207092	188.400000
829.241821	184.100000
829.276489	180.300000
829.311157	188.400000
829.345825	187.000000
829.380554	192.700000
829.415283	184.800000
829.449951	182.600000
829.484619	195.300000
829.519348	195.200000
829.554016	188.800000
829.588745	186.600000
829.623413	182.600000
829.658081	198.400000
829.692749	182.500000
829.727417	191.400000
829.762146	189.000000
829.796814	182.000000
829.831482	187.000000
829.866150	188.300000
829.900879	184.700000
829.935486	190.300000
829.970154	186.300000
830.004883	198.700000
830.039490	189.700000
830.074219	184.100000
830.108887	187.900000
830.143494	186.800000
830.178223	182.800000
830.212891	184.900000
830.247498	187.800000
830.282166	194.200000
830.316772	194.300000
830.351501	184.800000
830.386169	186.500000
830.420776	186.100000
830.455444	187.100000
830.490112	183.900000
830.524719	180.300000
830.559387	190.500000
830.594055	189.600000
830.628662	188.100000
830.663330	187.200000
830.697998	196.800000
830.732605	188.300000
830.767273	189.800000
830.801941	187.500000
830.836487	195.100000
830.871155	189.400000
830.905762	191.400000
830.940430	181.000000
830.975098	184.900000
831.009644	190.300000
831.044312	196.200000
831.078979	190.500000
831.113525	179.400000
831.148193	188.600000
831.182861	185.500000
831.217407	190.500000
831.252075	204.200000
831.286621	185.300000
831.321289	185.200000
831.355896	186.400000
831.390564	196.000000
831.425110	187.800000
831.459778	194.100000
831.494324	199.700000
831.528931	192.300000
831.563599	191.200000
831.598145	182.100000
831.632751	186.200000
831.667419	187.000000
831.701965	189.200000
831.736572	192.200000
831.771179	181.100000
831.805786	186.000000
831.840393	192.900000
831.874939	179.800000
831.909546	192.400000
831.944153	179.500000
831.978760	186.800000
832.013306	184.200000
832.047913	195.000000
832.082458	196.700000
832.117065	184.300000
832.151672	198.300000
832.186218	189.200000
832.220825	192.300000
832.255432	179.800000
832.289978	184.200000
832.324585	190.200000
832.359192	191.100000
832.393677	186.200000
832.428284	189.400000
832.462830	185.700000
832.497437	187.400000
832.531982	190.300000
832.566589	186.300000
832.601135	189.400000
832.635681	180.600000
832.670227	187.600000
832.704773	195.600000
832.739380	190.000000
832.773926	188.400000
832.808472	183.700000
832.843079	187.700000
832.877563	191.400000
832.912170	185.500000
832.946716	180.700000
832.981201	193.900000
833.015808	191.200000
833.050293	187.200000
833.084839	184.300000
833.119446	187.000000
833.153992	193.300000
833.188477	188.300000
833.223022	184.600000
833.257568	188.400000
833.292114	196.500000
833.326660	199.500000
833.361145	185.600000
833.395691	180.500000
833.430237	186.700000
833.464783	190.500000
833.499329	185.100000
833.533875	181.400000
833.568359	191.900000
833.602905	194.200000
833.637390	192.500000
833.671875	185.200000
833.706421	188.200000
833.740906	183.300000
833.775452	177.600000
833.809998	184.900000
833.844482	197.100000
833.879028	186.400000
833.913513	185.900000
833.947998	189.500000
833.982544	184.200000
834.017090	183.800000
834.051514	176.600000
834.086060	190.200000
834.120544	187.300000
834.155029	189.800000
834.189575	185.400000
834.223999	190.300000
834.258545	189.000000
834.293030	188.300000
834.327515	189.100000
834.362000	185.500000
834.396545	192.000000
834.430969	186.400000
834.465454	191.700000
834.500000	180.800000
834.534424	190.700000
834.568970	178.900000
834.603455	178.700000
834.637878	186.000000
834.672363	186.500000
834.706909	186.500000
834.741333	187.200000
834.775818	180.400000
834.810242	184.500000
834.844727	189.800000
834.879211	185.500000
834.913635	189.000000
834.948181	189.800000
834.982666	189.000000
835.017090	185.700000
835.051575	191.500000
835.086060	184.300000
835.120483	191.600000
835.154907	190.700000
835.189331	187.500000
835.223816	190.500000
835.258301	182.800000
835.292786	183.800000
835.327209	191.800000
835.361694	184.100000
835.396057	184.100000
835.430542	190.800000
835.465027	188.700000
835.499390	183.600000
835.533875	207.800000
835.568359	184.600000
835.602722	180.100000
835.637207	189.500000
835.671692	182.900000
835.706055	203.900000
835.740540	190.500000
835.774902	190.500000
835.809387	188.600000
835.843811	181.600000
835.878235	196.800000
835.912659	181.000000
835.947083	186.000000
835.981506	187.400000
836.015930	181.300000
836.050354	192.700000
836.084778	197.100000
836.119202	193.100000
836.153625	202.100000
836.187988	184.900000
836.222473	185.700000
836.256897	189.700000
836.291260	187.300000
836.325684	189.000000
836.360046	185.700000
836.394470	188.400000
836.428894	194.900000
836.463318	185.900000
836.497681	193.100000
836.532104	194.800000
836.566467	188.500000
836.600891	188.300000
836.635315	193.100000
836.669678	191.500000
836.704102	191.100000
836.738525	188.900000
836.772888	179.500000
836.807251	185.300000
836.841675	189.500000
836.876038	183.300000
836.910461	183.500000
836.944763	191.800000
836.979187	184.500000
837.013611	193.100000
837.047974	180.300000
837.082336	200.400000
837.116699	191.200000
837.151062	187.200000
837.185486	180.600000
837.219849	186.500000
837.254211	191.100000
837.288574	187.900000
837.322937	183.100000
837.357300	176.200000
837.391663	200.500000
837.426086	193.300000
837.460388	187.500000
837.494751	194.000000
837.529114	185.200000
837.563477	193.600000
837.597839	190.300000
837.632141	188.500000
837.666565	185.500000
837.700928	191.500000
837.735229	191.800000
837.769592	190.800000
837.803955	193.000000
837.838257	185.300000
837.872620	183.300000
837.906982	195.600000
837.941284	188.700000
837.975647	188.800000
838.010010	193.200000
838.044312	185.700000
838.078674	185.400000
838.112976	189.000000
838.147339	191.600000
838.181702	187.700000
838.216003	199.800000
838.250366	190.700000
838.284668	190.900000
838.318970	180.100000
838.353333	187.800000
838.387634	186.200000
838.421936	189.200000
838.456299	188.600000
838.490601	194.900000
838.524902	191.400000
838.559265	193.300000
838.593567	191.900000
838.627869	182.400000
838.662170	191.700000
838.696472	182.100000
838.730774	184.000000
838.765137	193.500000
838.799377	174.000000
838.833740	189.300000
838.868042	193.700000
838.902283	180.000000
838.936646	192.600000
838.970947	190.500000
839.005188	192.900000
839.039551	181.800000
839.073792	194.900000
839.108093	185.800000
839.142395	198.000000
839.176697	181.500000
839.210937	189.200000
839.245300	199.900000
839.279541	181.900000
839.313843	185.400000
839.348145	190.900000
839.382385	193.800000
839.416687	193.100000
839.450989	190.800000
839.485229	186.900000
839.519531	183.800000
839.553833	193.800000
839.588013	188.500000
839.622314	189.100000
839.656555	191.100000
839.690857	188.200000
839.725159	182.100000
839.759460	187.300000
839.793640	185.600000
839.827942	186.900000
839.862183	182.700000
839.896423	190.000000
839.930725	197.300000
839.964966	196.600000
839.999207	195.500000
840.033508	195.900000
840.067688	184.200000
840.101990	198.900000
840.136230	186.800000
840.170471	196.300000
840.204712	184.000000
840.238953	184.000000
840.273193	188.600000
840.307434	192.700000
840.341736	184.700000
840.375916	181.700000
840.410217	185.400000
840.444397	195.900000
840.478638	190.800000
840.512878	193.500000
840.547119	186.700000
840.581360	191.700000
840.615601	199.100000
840.649780	197.900000
840.684021	187.600000
840.718262	198.100000
840.752441	194.500000
840.786682	190.100000
840.820862	189.700000
840.855103	195.800000
840.889343	189.900000
840.923584	194.000000
840.957764	190.700000
840.992004	190.800000
841.026184	202.800000
841.060425	188.100000
841.094666	185.400000
841.128845	192.700000
841.163025	189.300000
841.197266	191.700000
841.231445	190.400000
841.265686	189.500000
841.299866	184.900000
841.334045	197.600000
841.368286	186.700000
841.402405	196.600000
841.436646	194.100000
841.470825	186.500000
841.505005	188.300000
841.539185	184.200000
841.573425	185.200000
841.607544	189.700000
841.641785	190.000000
841.675964	184.100000
841.710144	188.200000
841.744324	185.900000
841.778503	187.400000
841.812683	184.500000
841.846863	198.900000
841.881042	195.400000
841.915222	186.700000
841.949402	202.900000
841.983521	180.600000
842.017700	188.300000
842.051880	189.700000
842.086060	190.400000
842.120239	189.600000
842.154419	185.700000
842.188538	190.700000
842.222717	185.900000
842.256897	198.800000
842.291016	188.600000
842.325195	191.600000
842.359375	201.000000
842.393494	197.000000
842.427673	189.600000
842.461853	193.500000
842.495911	196.600000
842.530090	191.200000
842.564209	187.600000
842.598389	191.600000
842.632568	190.400000
842.666626	192.900000
842.700806	185.300000
842.734985	186.800000
842.769043	191.000000
842.803223	187.900000
842.837402	188.500000
842.871460	187.200000
842.905640	197.900000
842.939697	185.100000
842.973877	191.200000
843.007996	194.900000
843.042175	198.800000
843.076233	186.700000
843.110413	191.300000
843.144470	197.200000
843.178589	194.700000
843.212769	186.100000
843.246826	193.700000
843.280945	187.000000
843.315125	186.900000
843.349182	185.400000
843.383301	196.600000
843.417419	201.400000
843.451538	189.000000
843.485657	187.700000
843.519714	188.300000
843.553833	189.700000
843.587952	187.300000
843.622070	185.300000
843.656128	193.200000
843.690247	187.500000
843.724304	187.900000
843.758423	191.700000
843.792542	188.000000
843.826599	187.700000
843.860718	187.400000
843.894836	181.400000
843.928894	189.500000
843.963013	191.700000
843.997070	184.000000
844.031128	182.300000
844.065247	195.300000
844.099304	194.500000
844.133362	189.800000
844.167480	191.900000
844.201599	195.300000
844.235596	190.500000
844.269714	192.200000
844.303711	191.500000
844.337830	181.400000
844.371948	191.900000
844.405945	188.100000
844.440063	184.600000
844.474121	202.800000
844.508118	187.400000
844.542236	187.600000
844.576294	188.500000
844.610352	184.600000
844.644409	189.200000
844.678406	181.200000
844.712524	193.700000
844.746582	195.700000
844.780640	188.300000
844.814636	189.500000
844.848755	198.200000
844.882751	188.100000
844.916809	194.100000
844.950867	190.900000
844.984863	198.000000
845.018921	188.400000
845.052979	185.000000
845.086975	189.800000
845.121033	184.400000
845.155090	185.400000
845.189087	196.600000
845.223145	186.000000
845.257141	190.100000
845.291199	193.100000
845.325256	197.400000
845.359253	190.100000
845.393250	199.400000
845.427307	188.200000
845.461304	191.900000
845.495361	189.400000
845.529358	200.900000
845.563354	186.500000
845.597412	185.600000
845.631409	196.700000
845.665405	196.500000
845.699463	194.500000
845.733459	187.800000
845.767456	196.100000
845.801453	188.300000
845.835449	196.900000
845.869446	194.300000
845.903503	193.300000
845.937439	185.600000
845.971497	195.900000
846.005493	184.900000
846.039429	193.900000
846.073486	199.800000
846.107483	187.100000
846.141418	189.300000
846.175476	188.900000
846.209473	197.100000
846.243408	184.800000
846.277405	190.900000
846.311401	184.100000
846.345337	190.600000
846.379395	196.200000
846.413330	186.300000
846.447327	198.900000
846.481323	184.800000
846.515259	186.200000
846.549255	191.000000
846.583252	191.600000
846.617187	185.400000
846.651184	191.800000
846.685120	187.700000
846.719055	197.900000
846.753052	194.400000
846.786987	194.100000
846.820984	183.300000
846.854980	195.800000
846.888916	184.300000
846.922852	192.500000
846.956848	198.700000
846.990723	186.000000
847.024719	190.500000
847.058716	189.000000
847.092590	197.800000
847.126587	192.300000
847.160522	188.100000
847.194458	193.800000
847.228455	187.000000
847.262390	184.900000
847.296265	186.800000
847.330261	196.700000
847.364136	187.500000
847.398132	187.000000
847.432068	190.100000
847.466003	189.400000
847.499939	188.500000
847.533875	193.100000
847.567749	188.600000
847.601746	188.200000
847.635681	194.200000
847.669556	182.700000
847.703491	194.800000
847.737427	204.600000
847.771301	185.000000
847.805237	191.400000
847.839233	190.100000
847.873108	189.600000
847.907043	187.900000
847.940918	196.400000
847.974854	191.300000
848.008789	193.400000
848.042664	188.600000
848.076538	193.600000
848.110474	190.500000
848.144348	192.100000
848.178284	183.700000
848.212219	190.700000
848.246094	187.500000
848.279968	191.900000
848.313904	193.400000
848.347778	191.700000
848.381653	189.700000
848.415588	187.100000
848.449463	186.700000
848.483337	192.400000
848.517212	195.400000
848.551086	189.200000
848.585022	185.200000
848.618835	199.300000
848.652771	188.300000
848.686646	186.000000
848.720520	197.500000
848.754395	188.900000
848.788330	193.200000
848.822144	193.100000
848.856018	189.500000
848.889954	198.500000
848.923767	185.700000
848.957642	186.400000
848.991577	193.500000
849.025391	186.200000
849.059265	189.800000
849.093079	187.100000
849.126953	184.500000
849.160828	194.700000
849.194641	190.900000
849.228577	186.600000
849.262451	189.400000
849.296265	187.400000
849.330139	185.900000
849.364014	190.000000
849.397827	193.400000
849.431702	189.400000
849.465515	194.800000
849.499329	182.500000
849.533203	184.800000
849.567078	178.700000
849.600891	194.000000
849.634766	188.100000
849.668518	195.800000
849.702393	189.000000
849.736267	183.900000
849.770020	201.300000
849.803894	194.100000
849.837769	188.800000
849.871521	191.100000
849.905396	195.300000
849.939270	185.400000
849.973022	188.700000
850.006897	193.000000
850.040710	192.600000
850.074524	193.300000
850.108337	189.600000
850.142151	195.900000
850.175964	196.900000
850.209778	189.000000
850.243530	178.800000
850.277405	194.800000
850.311218	191.300000
850.344971	187.300000
850.378845	198.000000
850.412659	188.600000
850.446411	190.000000
850.480225	188.500000
850.514038	196.600000
850.547791	192.700000
850.581665	190.700000
850.615417	187.700000
850.649231	190.900000
850.683044	188.900000
850.716858	189.200000
850.750610	190.900000
850.784424	194.100000
850.818176	188.100000
850.851929	187.800000
850.885742	187.100000
850.919495	189.500000
850.953308	196.500000
850.987122	197.300000
851.020874	183.900000
851.054626	183.200000
851.088440	192.900000
851.122192	194.200000
851.156006	189.300000
851.189697	188.900000
851.223511	184.200000
851.257263	193.400000
851.291077	193.900000
851.324829	189.600000
851.358582	186.200000
851.392334	188.000000
851.426086	187.800000
851.459900	198.600000
851.493591	190.400000
851.527344	191.200000
851.561157	189.500000
851.594849	193.100000
851.628662	191.300000
851.662415	197.900000
851.696106	192.700000
851.729858	194.900000
851.763611	184.300000
851.797363	191.500000
851.831116	185.800000
851.864868	192.800000
851.898560	194.600000
851.932312	188.600000
851.966064	192.200000
851.999817	190.000000
852.033569	190.900000
852.067261	194.200000
852.101013	186.900000
852.134766	189.100000
852.168457	180.000000
852.202209	194.000000
852.235901	186.500000
852.269592	193.100000
852.303345	198.200000
852.337036	193.200000
852.370789	189.900000
852.404541	194.200000
852.438171	186.700000
852.471924	188.500000
852.505676	185.400000
852.539307	191.500000
852.573059	186.700000
852.606812	188.600000
852.640442	188.900000
852.674194	194.800000
852.707886	200.900000
852.741577	197.300000
852.775269	185.600000
852.809021	191.000000
852.842651	193.500000
852.876404	194.600000
852.910034	191.700000
852.943787	196.900000
852.977478	193.400000
853.011108	186.600000
853.044861	187.600000
853.078552	197.600000
853.112183	193.200000
853.145874	192.200000
853.179626	182.200000
853.213257	190.700000
853.246948	189.300000
853.280640	199.600000
853.314270	190.300000
853.347961	197.700000
853.381653	193.300000
853.415283	193.900000
853.448975	187.500000
853.482605	191.100000
853.516296	190.400000
853.549988	185.100000
853.583618	191.400000
853.617310	193.400000
853.651001	191.400000
853.684631	185.700000
853.718323	187.600000
853.751953	197.100000
853.785583	180.800000
853.819275	194.100000
853.852966	193.300000
853.886536	181.800000
853.920227	185.100000
853.953918	194.900000
853.987488	188.300000
854.021179	195.200000
854.054749	198.200000
854.088440	193.300000
854.122131	185.900000
854.155701	195.100000
854.189331	186.800000
854.223022	193.500000
854.256592	192.100000
854.290283	186.500000
854.323914	193.700000
854.357483	193.600000
854.391174	192.800000
854.424744	199.700000
854.458374	191.700000
854.492065	200.000000
854.525696	189.300000
854.559265	197.500000
854.592896	200.500000
854.626465	191.300000
854.660095	191.500000
854.693787	191.900000
854.727356	189.100000
854.760986	195.400000
854.794617	191.800000
854.828186	188.500000
854.861816	192.900000
854.895447	192.300000
854.929016	192.000000
854.962585	193.300000
854.996155	198.700000
855.029785	193.300000
855.063416	193.700000
855.097046	195.100000
855.130615	185.400000
855.164185	196.100000
855.197754	191.900000
855.231384	194.900000
855.264954	189.800000
855.298523	193.600000
855.332153	192.900000
855.365723	198.300000
855.399292	186.600000
855.432922	191.000000
855.466492	193.000000
855.500061	187.400000
855.533630	187.300000
855.567200	194.000000
855.600769	195.400000
855.634338	195.800000
855.667969	192.100000
855.701477	186.300000
855.735046	187.100000
855.768616	182.100000
855.802185	193.000000
855.835754	204.300000
855.869324	182.800000
855.902893	188.900000
855.936401	195.600000
855.969971	191.600000
856.003540	184.500000
856.037109	194.100000
856.070618	190.500000
856.104187	184.300000
856.137695	188.600000
856.171265	179.600000
856.204834	190.000000
856.238403	195.700000
856.271912	187.900000
856.305481	193.000000
856.338989	184.500000
856.372559	193.100000
856.406128	192.600000
856.439636	197.200000
856.473145	189.900000
856.506653	198.300000
856.540222	190.800000
856.573792	198.100000
856.607300	194.400000
856.640808	184.800000
856.674377	192.400000
856.707825	219.400000
856.741394	194.900000
856.774902	187.100000
856.808472	181.900000
856.841980	193.200000
856.875488	197.900000
856.908936	182.900000
856.942505	189.500000
856.976013	191.500000
857.009521	187.100000
857.043030	190.400000
857.076477	189.800000
857.110046	195.600000
857.143555	192.400000
857.177063	195.800000
857.210571	188.600000
857.244080	185.600000
857.277527	194.100000
857.311035	190.400000
857.344543	195.300000
857.378052	189.600000
857.411499	196.300000
857.445068	201.000000
857.478516	190.900000
857.512024	185.900000
857.545532	188.500000
857.578979	193.700000
857.612427	190.600000
857.645874	186.700000
857.679382	191.100000
857.712891	195.700000
857.746399	189.300000
857.779846	196.500000
857.813354	194.200000
857.846741	190.800000
857.880249	185.500000
857.913757	191.000000
857.947266	191.700000
857.980652	194.200000
858.014160	187.100000
858.047546	189.400000
858.081055	189.400000
858.114563	199.100000
858.147949	183.300000
858.181458	193.500000
858.214844	189.300000
858.248352	183.900000
858.281799	195.800000
858.315308	203.900000
858.348694	193.400000
858.382141	199.400000
858.415588	194.200000
858.449036	195.600000
858.482483	193.200000
858.515930	188.700000
858.549377	190.400000
858.582825	197.500000
858.616211	193.700000
858.649658	192.200000
858.683105	186.000000
858.716553	188.100000
858.750000	185.500000
858.783386	188.200000
858.816833	182.800000
858.850281	192.200000
858.883728	194.300000
858.917114	190.900000
858.950562	200.100000
858.983948	198.800000
859.017395	193.800000
859.050781	188.800000
859.084167	187.300000
859.117615	184.600000
859.151062	193.500000
859.184448	186.700000
859.217834	188.400000
859.251282	187.700000
859.284668	185.600000
859.318054	180.200000
859.351440	188.200000
859.384888	199.200000
859.418274	182.800000
859.451721	182.100000
859.485046	193.200000
859.518494	191.800000
859.551819	186.500000
859.585266	193.000000
859.618652	192.700000
859.652039	182.700000
859.685425	186.100000
859.718811	182.600000
859.752197	180.000000
859.785583	198.900000
859.819031	198.400000
859.852356	192.300000
859.885742	188.200000
859.919067	189.700000
859.952454	189.400000
859.985901	196.400000
860.019287	189.100000
860.052612	0.000000
860.085999	0.000000
860.119324	0.000000
860.152710	0.000000
860.186096	0.000000
860.219421	0.000000
860.252808	0.000000
860.286133	0.000000
860.319519	0.000000
860.352905	0.000000
860.386292	0.000000
860.419617	0.000000
860.452942	0.000000
860.486267	0.000000
860.519653	0.000000
860.553040	0.000000
860.586365	0.000000
860.619690	0.000000
860.653076	0.000000
860.686340	0.000000
860.719727	0.000000
860.753113	0.000000
860.786377	0.000000
860.819763	0.000000
860.853027	0.000000
860.886414	0.000000
860.919739	0.000000
860.953125	0.000000
860.986389	0.000000
861.019714	0.000000
861.053040	0.000000
861.086365	0.000000
861.119690	0.000000
861.153076	0.000000
861.186340	0.000000
861.219666	0.000000
861.252930	0.000000
861.286316	0.000000
861.319641	0.000000
861.352905	0.000000
861.386230	0.000000
861.419495	0.000000
861.452820	0.000000
861.486145	0.000000
861.519470	0.000000
861.552734	0.000000
861.586060	0.000000
861.619324	0.000000
861.652649	0.000000
861.685974	0.000000
861.719238	0.000000
861.752563	0.000000
861.785828	0.000000
861.819092	0.000000
861.852417	0.000000
861.885742	0.000000
861.918945	0.000000
861.952271	0.000000
861.985535	0.000000
862.018799	0.000000
862.052124	0.000000
862.085449	0.000000
862.118652	0.000000
862.151978	0.000000
862.185181	0.000000
862.218506	0.000000
862.251770	0.000000
862.285034	0.000000
862.318298	0.000000
862.351562	0.000000
862.384827	0.000000
862.418091	0.000000
862.451355	0.000000
862.484619	0.000000
862.517883	0.000000
862.551086	0.000000
862.584351	0.000000
862.617676	0.000000
862.650940	0.000000
862.684143	0.000000
862.717407	0.000000
862.750610	0.000000
862.783875	0.000000
862.817139	0.000000
862.850342	0.000000
862.883606	0.000000
862.916870	0.000000
862.950073	0.000000
862.983337	0.000000
863.016602	0.000000
863.049805	0.000000
863.083069	0.000000
863.116211	0.000000
863.149475	0.000000
863.182739	0.000000
863.216003	0.000000
863.249146	0.000000
863.282410	0.000000
863.315613	0.000000
863.348816	0.000000
863.382080	0.000000
863.415222	0.000000
863.448486	0.000000
863.481689	0.000000
863.514893	0.000000
863.548157	0.000000
863.581360	0.000000
863.614502	0.000000
863.647766	0.000000
863.680908	0.000000
863.714172	0.000000
863.747375	0.000000
863.780579	0.000000
863.813721	0.000000
863.846985	0.000000
863.880127	0.000000
863.913330	0.000000
863.946533	0.000000
863.979675	0.000000
864.012939	0.000000
