Model Number: SPM-002-B   
Serial Number: 70087108
Firmware Version: 004.15.4
Exposure Time: 100000.000000us
Data Taken on: 11-12-2020 18:43:11.446
Wavelength	Amplitude
221.570786	0.000000
221.663406	0.000000
221.756027	0.000000
221.848648	0.000000
221.941269	0.000000
222.033905	0.000000
222.126526	0.000000
222.219162	0.000000
222.311798	0.000000
222.404419	0.000000
222.497055	0.000000
222.589676	0.000000
222.682312	0.000000
222.774933	0.000000
222.867569	0.000000
222.960205	0.000000
223.052841	0.000000
223.145462	0.000000
223.238098	0.000000
223.330734	0.000000
223.423386	0.000000
223.516022	0.000000
223.608658	0.000000
223.701309	0.000000
223.793945	0.000000
223.886581	0.000000
223.979218	0.000000
224.071869	0.000000
224.164505	0.000000
224.257156	0.000000
224.349792	0.000000
224.442444	0.000000
224.535095	0.000000
224.627747	0.000000
224.720398	0.000000
224.813034	0.000000
224.905685	0.000000
224.998337	144.940000
225.090988	144.740000
225.183640	144.960000
225.276291	144.980000
225.368942	145.440000
225.461594	145.920000
225.554245	145.940000
225.646912	145.700000
225.739578	146.140000
225.832230	146.440000
225.924896	145.500000
226.017548	145.940000
226.110199	146.760000
226.202866	145.820000
226.295532	145.500000
226.388184	146.000000
226.480850	144.980000
226.573517	144.120000
226.666168	144.860000
226.758835	144.980000
226.851501	145.040000
226.944183	145.700000
227.036850	145.340000
227.129517	145.220000
227.222183	145.260000
227.314850	145.460000
227.407516	145.680000
227.500198	146.720000
227.592865	146.100000
227.685532	145.980000
227.778214	145.460000
227.870880	145.780000
227.963562	146.020000
228.056229	146.640000
228.148926	146.460000
228.241592	147.500000
228.334274	146.940000
228.426956	146.420000
228.519638	146.900000
228.612305	146.740000
228.704987	146.300000
228.797668	146.480000
228.890350	146.300000
228.983032	145.260000
229.075714	146.140000
229.168396	145.780000
229.261108	145.520000
229.353790	145.720000
229.446472	146.040000
229.539169	145.260000
229.631851	144.820000
229.724533	145.000000
229.817230	145.320000
229.909912	146.240000
230.002609	146.780000
230.095306	146.900000
230.187988	146.860000
230.280685	146.560000
230.373383	145.260000
230.466095	145.220000
230.558792	145.740000
230.651474	145.620000
230.744171	145.500000
230.836868	145.980000
230.929581	145.880000
231.022278	145.740000
231.114975	145.860000
231.207672	145.860000
231.300369	146.300000
231.393082	146.440000
231.485779	146.580000
231.578506	146.660000
231.671204	146.800000
231.763916	146.620000
231.856613	146.520000
231.949326	146.420000
232.042023	146.180000
232.134735	146.020000
232.227448	145.760000
232.320160	146.100000
232.412872	145.960000
232.505585	146.660000
232.598297	146.960000
232.691010	146.740000
232.783722	145.820000
232.876450	146.280000
232.969162	145.600000
233.061874	145.300000
233.154587	145.320000
233.247314	145.860000
233.340027	145.480000
233.432739	146.120000
233.525467	145.860000
233.618179	146.180000
233.710907	145.900000
233.803635	146.200000
233.896347	145.820000
233.989090	146.500000
234.081818	146.180000
234.174545	146.440000
234.267258	145.940000
234.359985	146.040000
234.452713	145.860000
234.545441	145.800000
234.638168	145.640000
234.730896	146.340000
234.823639	146.000000
234.916367	146.520000
235.009094	146.740000
235.101822	147.000000
235.194580	146.600000
235.287308	146.760000
235.380051	145.620000
235.472778	146.000000
235.565521	146.340000
235.658249	146.160000
235.750992	146.260000
235.843719	146.620000
235.936462	146.500000
236.029205	145.900000
236.121948	145.760000
236.214691	146.080000
236.307449	146.740000
236.400192	146.340000
236.492935	146.600000
236.585678	147.160000
236.678421	146.760000
236.771164	146.320000
236.863907	147.140000
236.956665	147.260000
237.049408	148.380000
237.142151	148.160000
237.234909	148.820000
237.327652	148.340000
237.420410	147.940000
237.513153	146.860000
237.605927	146.600000
237.698669	145.820000
237.791428	145.120000
237.884186	145.280000
237.976944	144.940000
238.069702	145.500000
238.162445	145.080000
238.255203	145.540000
238.347961	145.860000
238.440720	145.800000
238.533478	145.540000
238.626266	145.420000
238.719025	145.500000
238.811783	145.200000
238.904541	145.080000
238.997314	145.060000
239.090073	145.100000
239.182831	145.220000
239.275604	145.880000
239.368362	145.900000
239.461136	145.920000
239.553909	146.100000
239.646667	145.920000
239.739441	145.240000
239.832214	145.540000
239.925003	145.780000
240.017761	146.600000
240.110535	147.000000
240.203308	146.880000
240.296082	147.080000
240.388855	146.900000
240.481628	146.460000
240.574417	146.700000
240.667191	146.480000
240.759964	146.020000
240.852737	146.020000
240.945526	145.780000
241.038315	145.460000
241.131088	146.200000
241.223877	146.580000
241.316650	146.220000
241.409439	146.700000
241.502228	146.320000
241.595001	146.380000
241.687790	145.940000
241.780579	146.120000
241.873367	146.260000
241.966141	146.440000
242.058929	145.700000
242.151718	145.900000
242.244507	146.360000
242.337311	145.440000
242.430099	145.920000
242.522903	146.540000
242.615692	146.080000
242.708481	146.080000
242.801270	146.680000
242.894073	146.180000
242.986862	146.080000
243.079651	146.900000
243.172455	146.720000
243.265244	146.960000
243.358063	146.660000
243.450867	146.660000
243.543655	146.400000
243.636459	146.440000
243.729263	146.180000
243.822067	146.600000
243.914856	146.900000
244.007660	146.900000
244.100464	146.960000
244.193268	146.940000
244.286072	146.860000
244.378876	146.360000
244.471680	146.140000
244.564499	146.220000
244.657318	146.760000
244.750122	147.040000
244.842926	146.460000
244.935745	146.580000
245.028549	146.240000
245.121368	145.740000
245.214172	145.540000
245.306992	146.280000
245.399796	146.080000
245.492615	146.240000
245.585434	146.080000
245.678253	145.900000
245.771072	145.680000
245.863892	146.240000
245.956711	146.340000
246.049530	146.200000
246.142349	146.180000
246.235168	146.160000
246.327988	146.360000
246.420807	146.040000
246.513626	146.080000
246.606445	145.940000
246.699280	146.060000
246.792099	145.760000
246.884918	145.580000
246.977753	145.380000
247.070587	145.620000
247.163422	145.500000
247.256241	145.240000
247.349075	145.800000
247.441895	146.160000
247.534729	146.320000
247.627563	146.200000
247.720383	146.920000
247.813217	146.800000
247.906052	146.480000
247.998886	146.120000
248.091736	146.340000
248.184570	145.800000
248.277405	145.480000
248.370239	146.660000
248.463074	147.460000
248.555908	147.480000
248.648743	147.280000
248.741592	147.520000
248.834427	146.640000
248.927261	145.920000
249.020111	146.280000
249.112946	146.640000
249.205795	146.560000
249.298630	146.640000
249.391495	146.400000
249.484344	145.940000
249.577179	145.780000
249.670029	146.000000
249.762878	146.500000
249.855728	146.840000
249.948563	147.120000
250.041412	146.620000
250.134262	146.820000
250.227112	146.620000
250.319962	146.900000
250.412827	146.900000
250.505692	146.800000
250.598541	146.580000
250.691391	146.120000
250.784241	145.920000
250.877106	145.900000
250.969955	145.580000
251.062805	145.820000
251.155670	146.760000
251.248520	146.360000
251.341385	146.520000
251.434235	147.000000
251.527100	146.740000
251.619965	146.060000
251.712814	147.140000
251.805695	147.060000
251.898560	147.220000
251.991425	147.360000
252.084290	147.320000
252.177155	146.060000
252.270020	145.560000
252.362885	145.640000
252.455750	145.780000
252.548615	145.600000
252.641479	146.020000
252.734360	146.160000
252.827240	146.160000
252.920105	145.940000
253.012970	145.840000
253.105850	145.960000
253.198715	145.760000
253.291595	145.840000
253.384460	145.360000
253.477341	145.580000
253.570221	145.900000
253.663086	145.860000
253.755966	146.240000
253.848846	146.480000
253.941727	146.600000
254.034592	146.000000
254.127472	145.680000
254.220367	145.620000
254.313248	145.860000
254.406128	145.160000
254.499008	145.640000
254.591904	146.660000
254.684784	146.820000
254.777664	146.660000
254.870544	146.940000
254.963440	146.880000
255.056335	146.860000
255.149216	146.160000
255.242111	146.640000
255.334991	147.080000
255.427887	147.100000
255.520767	146.940000
255.613663	147.200000
255.706558	146.300000
255.799438	145.580000
255.892334	145.280000
255.985229	144.800000
256.078125	144.780000
256.171021	145.360000
256.263916	146.060000
256.356812	146.140000
256.449707	146.660000
256.542603	146.420000
256.635498	146.640000
256.728394	146.280000
256.821289	146.200000
256.914215	146.280000
257.007080	146.860000
257.100006	146.700000
257.192932	147.340000
257.285828	147.580000
257.378723	147.120000
257.471619	146.720000
257.564545	146.260000
257.657440	146.020000
257.750336	146.380000
257.843262	146.280000
257.936157	147.380000
258.029053	147.820000
258.121979	147.800000
258.214874	147.320000
258.307800	147.240000
258.400696	145.960000
258.493622	145.760000
258.586517	145.280000
258.679443	145.440000
258.772339	145.200000
258.865265	145.060000
258.958160	144.580000
259.051086	145.140000
259.144012	145.200000
259.236938	146.100000
259.329834	146.400000
259.422791	146.760000
259.515717	146.140000
259.608612	145.600000
259.701538	145.700000
259.794464	145.560000
259.887390	145.600000
259.980316	145.540000
260.073212	145.460000
260.166138	144.380000
260.259064	144.620000
260.351990	145.380000
260.444916	145.620000
260.537842	146.240000
260.630768	147.000000
260.723694	146.840000
260.816620	146.360000
260.909546	146.160000
261.002472	145.600000
261.095398	144.860000
261.188354	144.880000
261.281281	144.180000
261.374207	144.380000
261.467133	145.240000
261.560089	145.740000
261.653015	145.600000
261.745972	146.660000
261.838867	147.040000
261.931824	146.840000
262.024780	146.340000
262.117706	146.540000
262.210663	146.260000
262.303589	145.880000
262.396515	145.660000
262.489471	146.840000
262.582397	146.940000
262.675354	146.320000
262.768280	146.380000
262.861237	146.440000
262.954163	146.100000
263.047119	146.100000
263.140045	146.280000
263.233002	146.500000
263.325958	146.240000
263.418884	145.420000
263.511841	145.240000
263.604797	145.160000
263.697723	145.040000
263.790680	144.960000
263.883636	145.680000
263.976593	145.800000
264.069550	145.920000
264.162476	145.620000
264.255463	145.840000
264.348419	145.660000
264.441376	146.000000
264.534332	145.620000
264.627289	145.800000
264.720245	146.120000
264.813202	145.900000
264.906158	145.660000
264.999115	146.080000
265.092072	146.220000
265.185028	146.440000
265.277985	146.520000
265.370941	146.620000
265.463898	146.440000
265.556854	146.140000
265.649811	145.080000
265.742798	145.320000
265.835754	144.820000
265.928711	145.300000
266.021667	145.360000
266.114655	146.040000
266.207611	146.020000
266.300568	145.760000
266.393585	145.300000
266.486511	145.760000
266.579498	145.000000
266.672485	144.840000
266.765442	145.100000
266.858429	145.820000
266.951385	145.280000
267.044342	145.880000
267.137329	146.020000
267.230316	146.340000
267.323273	145.540000
267.416260	146.160000
267.509216	146.160000
267.602203	146.400000
267.695160	146.900000
267.788147	147.420000
267.881134	147.240000
267.974091	147.280000
268.067078	147.000000
268.160065	146.480000
268.253052	146.260000
268.346008	145.940000
268.438995	145.840000
268.531982	145.720000
268.624969	145.460000
268.717987	145.740000
268.810944	145.760000
268.903961	145.980000
268.996948	146.020000
269.089905	146.660000
269.182892	146.560000
269.275879	146.860000
269.368866	146.240000
269.461853	146.400000
269.554871	146.460000
269.647858	146.280000
269.740845	146.420000
269.833832	146.940000
269.926819	146.460000
270.019806	146.440000
270.112793	146.240000
270.205811	146.460000
270.298798	146.140000
270.391785	147.040000
270.484772	146.380000
270.577789	146.640000
270.670776	146.160000
270.763763	146.300000
270.856750	146.040000
270.949768	145.980000
271.042786	146.000000
271.135773	146.040000
271.228790	146.260000
271.321808	145.520000
271.414795	145.380000
271.507782	145.200000
271.600800	144.860000
271.693817	144.720000
271.786804	145.600000
271.879822	146.060000
271.972809	146.200000
272.065826	146.900000
272.158844	146.740000
272.251831	147.020000
272.344849	146.940000
272.437866	146.520000
272.530853	146.120000
272.623871	146.580000
272.716888	145.280000
272.809906	145.300000
272.902893	145.420000
272.995911	144.940000
273.088928	144.580000
273.181946	145.380000
273.274963	145.080000
273.367981	144.960000
273.460999	145.260000
273.554047	145.500000
273.647003	145.780000
273.740051	145.920000
273.833069	146.560000
273.926086	146.760000
274.019135	146.460000
274.112152	145.820000
274.205170	145.740000
274.298187	145.900000
274.391205	145.220000
274.484222	145.120000
274.577240	145.580000
274.670258	145.640000
274.763306	145.060000
274.856323	146.060000
274.949341	146.260000
275.042358	146.620000
275.135406	146.560000
275.228424	146.860000
275.321442	146.420000
275.414490	146.400000
275.507507	146.300000
275.600525	146.800000
275.693573	146.380000
275.786591	145.900000
275.879669	146.100000
275.972656	145.760000
276.065735	145.560000
276.158752	146.180000
276.251801	147.320000
276.344818	147.200000
276.437866	147.400000
276.530884	147.000000
276.623932	146.120000
276.716980	146.060000
276.809998	145.860000
276.903046	145.720000
276.996094	146.680000
277.089111	147.220000
277.182159	147.480000
277.275208	147.360000
277.368256	147.000000
277.461304	146.780000
277.554321	146.260000
277.647369	145.820000
277.740417	146.060000
277.833466	146.020000
277.926514	145.560000
278.019562	146.320000
278.112610	145.580000
278.205688	145.640000
278.298706	145.780000
278.391785	145.700000
278.484833	145.100000
278.577881	145.440000
278.670929	145.660000
278.763977	145.900000
278.857025	146.360000
278.950073	146.600000
279.043121	146.420000
279.136169	146.120000
279.229248	145.740000
279.322296	145.640000
279.415344	145.460000
279.508392	145.640000
279.601440	145.680000
279.694519	145.420000
279.787567	145.000000
279.880615	144.880000
279.973694	144.840000
280.066742	144.680000
280.159790	145.260000
280.252869	145.240000
280.345917	145.560000
280.438995	145.480000
280.532074	145.580000
280.625122	145.720000
280.718201	146.480000
280.811279	146.360000
280.904327	146.300000
280.997406	146.400000
281.090454	146.280000
281.183533	145.760000
281.276581	145.840000
281.369659	145.580000
281.462738	146.040000
281.555786	146.160000
281.648865	145.960000
281.741943	145.900000
281.835022	146.900000
281.928070	146.120000
282.021149	145.860000
282.114227	145.980000
282.207306	146.040000
282.300385	146.060000
282.393433	146.360000
282.486511	146.380000
282.579590	146.840000
282.672668	147.420000
282.765747	146.720000
282.858856	146.620000
282.951904	146.980000
283.045013	146.920000
283.138062	146.780000
283.231171	147.240000
283.324249	147.560000
283.417328	147.360000
283.510406	147.140000
283.603485	146.860000
283.696564	146.400000
283.789642	146.460000
283.882751	145.940000
283.975830	146.260000
284.068909	146.100000
284.161987	146.800000
284.255066	146.260000
284.348175	146.940000
284.441254	146.720000
284.534332	147.200000
284.627441	146.840000
284.720520	146.540000
284.813599	146.300000
284.906708	146.320000
284.999786	145.660000
285.092896	145.240000
285.185974	146.360000
285.279053	145.900000
285.372192	145.720000
285.465240	146.360000
285.558380	146.380000
285.651459	145.660000
285.744568	146.580000
285.837677	146.200000
285.930756	145.840000
286.023865	145.880000
286.116943	145.900000
286.210052	145.580000
286.303162	145.940000
286.396240	145.940000
286.489349	145.760000
286.582458	146.260000
286.675568	145.800000
286.768646	145.720000
286.861755	146.000000
286.954865	146.780000
287.047974	145.940000
287.141083	146.200000
287.234161	146.060000
287.327271	145.760000
287.420380	146.020000
287.513519	146.200000
287.606598	146.080000
287.699738	146.460000
287.792816	146.160000
287.885956	145.660000
287.979034	145.680000
288.072174	146.100000
288.165283	145.780000
288.258392	146.280000
288.351501	145.680000
288.444611	145.920000
288.537720	145.800000
288.630859	145.420000
288.723969	145.440000
288.817078	146.060000
288.910187	145.840000
289.003296	145.320000
289.096436	145.500000
289.189545	145.460000
289.282654	144.780000
289.375763	145.340000
289.468903	146.080000
289.562012	146.580000
289.655121	146.440000
289.748260	146.660000
289.841400	146.580000
289.934509	146.040000
290.027649	146.040000
290.120728	146.060000
290.213898	146.460000
290.306976	146.240000
290.400146	146.740000
290.493256	146.320000
290.586395	146.320000
290.679535	146.360000
290.772644	146.260000
290.865784	145.440000
290.958893	145.460000
291.052032	145.140000
291.145172	144.980000
291.238281	144.740000
291.331421	145.040000
291.424561	145.640000
291.517670	145.760000
291.610809	145.960000
291.703949	145.820000
291.797089	145.960000
291.890228	145.380000
291.983337	145.280000
292.076477	145.040000
292.169617	145.640000
292.262756	145.900000
292.355927	146.200000
292.449036	146.340000
292.542206	146.440000
292.635315	146.120000
292.728485	146.260000
292.821625	145.800000
292.914764	146.920000
293.007904	146.900000
293.101044	146.900000
293.194183	146.560000
293.287323	146.720000
293.380463	145.860000
293.473602	145.700000
293.566742	145.860000
293.659882	146.060000
293.753021	146.340000
293.846191	146.080000
293.939331	145.840000
294.032471	145.960000
294.125610	145.600000
294.218781	145.940000
294.311920	146.620000
294.405060	146.980000
294.498230	146.940000
294.591370	147.080000
294.684540	146.580000
294.777679	145.720000
294.870850	146.220000
294.963959	145.840000
295.057159	145.480000
295.150299	145.700000
295.243469	146.000000
295.336609	145.020000
295.429779	145.620000
295.522919	146.400000
295.616089	146.240000
295.709229	146.680000
295.802399	147.180000
295.895569	146.340000
295.988708	146.260000
296.081879	146.620000
296.175018	146.060000
296.268188	146.140000
296.361359	147.280000
296.454529	146.820000
296.547668	146.680000
296.640839	147.200000
296.734009	146.840000
296.827179	146.300000
296.920319	146.920000
297.013519	146.420000
297.106659	146.120000
297.199860	146.200000
297.292999	146.100000
297.386200	145.820000
297.479309	145.840000
297.572510	145.780000
297.665680	145.680000
297.758850	146.080000
297.852020	145.840000
297.945190	145.540000
298.038361	145.180000
298.131531	146.060000
298.224701	145.680000
298.317871	145.220000
298.411072	144.960000
298.504242	145.040000
298.597412	144.400000
298.690582	144.680000
298.783752	144.880000
298.876923	145.800000
298.970093	145.880000
299.063293	146.060000
299.156464	146.020000
299.249634	146.400000
299.342834	146.340000
299.436005	146.780000
299.529205	146.560000
299.622345	146.580000
299.715576	146.160000
299.808716	145.640000
299.901917	145.500000
299.995117	145.880000
300.088287	146.040000
300.181488	145.900000
300.274658	146.400000
300.367828	146.260000
300.461029	146.160000
300.554199	146.360000
300.647400	146.720000
300.740601	147.140000
300.833771	147.320000
300.926971	147.460000
301.020142	146.660000
301.113342	146.900000
301.206512	146.560000
301.299713	146.520000
301.392914	146.560000
301.486084	147.040000
301.579285	146.540000
301.672516	146.760000
301.765686	146.360000
301.858887	145.860000
301.952057	145.780000
302.045288	146.000000
302.138458	145.740000
302.231659	146.000000
302.324860	145.760000
302.418060	145.700000
302.511261	145.580000
302.604462	145.740000
302.697662	145.480000
302.790863	145.900000
302.884064	145.480000
302.977264	145.560000
303.070465	146.040000
303.163666	146.740000
303.256866	147.020000
303.350067	147.280000
303.443268	147.220000
303.536469	146.940000
303.629669	146.280000
303.722870	146.080000
303.816071	145.880000
303.909271	145.820000
304.002472	144.920000
304.095673	144.960000
304.188934	144.300000
304.282104	145.100000
304.375336	145.220000
304.468506	145.500000
304.561768	145.240000
304.654968	146.060000
304.748169	145.540000
304.841370	145.540000
304.934601	145.960000
305.027802	145.980000
305.121002	145.560000
305.214233	145.680000
305.307434	145.560000
305.400665	146.000000
305.493866	146.000000
305.587097	146.260000
305.680298	145.960000
305.773499	146.720000
305.866730	146.240000
305.959930	146.940000
306.053162	147.200000
306.146393	146.660000
306.239594	145.720000
306.332825	145.760000
306.426025	145.900000
306.519287	145.380000
306.612488	145.980000
306.705719	146.280000
306.798920	146.080000
306.892181	145.360000
306.985352	145.120000
307.078613	144.520000
307.171844	144.880000
307.265045	144.480000
307.358276	144.420000
307.451508	144.860000
307.544739	145.840000
307.637970	145.300000
307.731201	145.420000
307.824402	146.140000
307.917633	146.360000
308.010864	146.580000
308.104095	147.100000
308.197327	147.460000
308.290558	147.260000
308.383789	147.180000
308.477020	146.400000
308.570251	145.960000
308.663483	145.480000
308.756714	145.200000
308.849976	144.860000
308.943176	145.640000
309.036438	145.320000
309.129639	145.360000
309.222900	145.640000
309.316101	145.380000
309.409393	144.580000
309.502625	144.660000
309.595856	144.760000
309.689087	144.600000
309.782318	145.100000
309.875580	145.460000
309.968811	145.540000
310.062042	145.580000
310.155273	145.500000
310.248535	145.600000
310.341766	145.640000
310.434998	145.580000
310.528259	145.420000
310.621490	145.860000
310.714722	145.160000
310.807983	145.300000
310.901215	145.420000
310.994476	145.740000
311.087708	145.140000
311.181000	146.040000
311.274200	145.480000
311.367462	145.820000
311.460693	145.520000
311.553986	146.180000
311.647186	145.920000
311.740479	146.760000
311.833710	146.120000
311.926971	146.440000
312.020203	145.800000
312.113464	145.520000
312.206726	144.720000
312.299957	145.280000
312.393219	145.840000
312.486481	145.840000
312.579712	146.020000
312.672974	145.960000
312.766235	145.720000
312.859497	145.220000
312.952759	145.440000
313.045990	146.040000
313.139252	146.120000
313.232513	146.340000
313.325775	146.240000
313.419037	146.060000
313.512299	145.200000
313.605530	145.700000
313.698822	145.760000
313.792053	145.880000
313.885345	145.680000
313.978577	146.140000
314.071869	145.600000
314.165131	145.960000
314.258392	146.200000
314.351654	146.340000
314.444916	145.600000
314.538177	146.540000
314.631439	146.460000
314.724701	146.260000
314.817993	146.240000
314.911255	146.760000
315.004517	145.740000
315.097778	145.560000
315.191040	146.120000
315.284302	146.460000
315.377594	146.480000
315.470856	146.760000
315.564117	145.940000
315.657379	145.020000
315.750671	144.560000
315.843933	144.700000
315.937195	144.320000
316.030518	144.540000
316.123749	144.760000
316.217041	145.540000
316.310303	145.240000
316.403595	145.720000
316.496857	146.220000
316.590149	146.220000
316.683411	145.300000
316.776703	145.160000
316.869965	145.100000
316.963257	144.680000
317.056519	144.260000
317.149811	144.660000
317.243073	144.800000
317.336365	144.640000
317.429626	145.160000
317.522919	145.760000
317.616180	145.540000
317.709473	145.080000
317.802765	144.940000
317.896027	144.600000
317.989319	144.740000
318.082611	144.760000
318.175873	145.080000
318.269165	145.100000
318.362488	145.380000
318.455750	145.160000
318.549042	145.460000
318.642303	146.060000
318.735626	146.140000
318.828888	145.920000
318.922211	145.640000
319.015472	146.360000
319.108765	145.280000
319.202057	145.000000
319.295349	145.320000
319.388641	145.280000
319.481934	144.700000
319.575226	145.140000
319.668518	145.700000
319.761810	145.660000
319.855103	146.020000
319.948395	145.940000
320.041687	146.140000
320.134979	146.020000
320.228271	145.640000
320.321564	145.520000
320.414856	145.520000
320.508148	145.240000
320.601440	145.060000
320.694763	145.160000
320.788025	145.760000
320.881348	145.920000
320.974640	146.020000
321.067963	145.580000
321.161224	145.700000
321.254547	144.500000
321.347839	144.880000
321.441162	144.740000
321.534454	145.060000
321.627747	144.840000
321.721069	145.940000
321.814362	145.840000
321.907654	146.040000
322.000946	146.320000
322.094269	146.880000
322.187561	146.240000
322.280884	146.180000
322.374176	146.420000
322.467468	146.460000
322.560791	146.080000
322.654083	146.740000
322.747406	146.700000
322.840698	146.740000
322.934021	147.140000
323.027344	147.460000
323.120636	146.840000
323.213959	146.820000
323.307251	145.960000
323.400574	145.340000
323.493866	144.740000
323.587219	145.220000
323.680511	145.280000
323.773834	145.880000
323.867157	145.940000
323.960449	146.260000
324.053772	145.700000
324.147095	145.320000
324.240387	145.700000
324.333710	145.800000
324.427032	145.660000
324.520355	145.860000
324.613647	145.920000
324.706970	145.460000
324.800293	145.580000
324.893616	146.100000
324.986938	146.160000
325.080231	145.980000
325.173553	146.380000
325.266876	146.680000
325.360199	146.660000
325.453522	146.300000
325.546875	146.080000
325.640167	145.980000
325.733521	145.860000
325.826813	145.820000
325.920166	145.680000
326.013489	145.680000
326.106812	144.660000
326.200134	144.320000
326.293457	143.760000
326.386780	144.260000
326.480103	144.540000
326.573425	145.340000
326.666748	145.300000
326.760071	145.700000
326.853424	145.860000
326.946747	145.720000
327.040070	145.980000
327.133392	145.980000
327.226715	145.540000
327.320068	145.020000
327.413391	145.760000
327.506714	145.020000
327.600037	145.200000
327.693390	145.560000
327.786713	145.600000
327.880066	145.120000
327.973358	145.720000
328.066742	145.660000
328.160034	145.580000
328.253418	146.100000
328.346710	145.980000
328.440063	145.680000
328.533417	145.580000
328.626740	145.740000
328.720093	145.420000
328.813416	145.420000
328.906769	145.680000
329.000092	145.920000
329.093445	145.960000
329.186768	145.820000
329.280121	146.300000
329.373444	146.440000
329.466797	146.260000
329.560120	146.000000
329.653473	146.380000
329.746796	145.900000
329.840149	145.700000
329.933502	145.800000
330.026825	145.420000
330.120178	145.100000
330.213562	145.120000
330.306854	145.080000
330.400238	145.040000
330.493561	145.480000
330.586945	146.060000
330.680237	146.280000
330.773621	146.540000
330.866974	146.640000
330.960327	146.840000
331.053680	146.280000
331.147003	146.020000
331.240356	146.220000
331.333710	146.040000
331.427063	145.480000
331.520416	145.480000
331.613770	145.520000
331.707123	145.180000
331.800476	145.440000
331.893829	146.560000
331.987152	146.780000
332.080505	146.560000
332.173859	146.300000
332.267212	145.840000
332.360565	144.920000
332.453918	144.640000
332.547333	144.740000
332.640656	144.960000
332.734039	145.160000
332.827362	145.380000
332.920746	145.940000
333.014069	146.460000
333.107452	147.020000
333.200806	147.220000
333.294159	147.500000
333.387543	146.580000
333.480896	146.020000
333.574249	145.840000
333.667603	145.240000
333.760956	144.920000
333.854340	145.400000
333.947693	145.440000
334.041046	145.280000
334.134430	145.800000
334.227783	145.540000
334.321136	145.380000
334.414520	145.160000
334.507874	145.180000
334.601227	145.020000
334.694611	145.180000
334.787964	145.140000
334.881348	145.580000
334.974701	145.460000
335.068085	145.180000
335.161438	145.600000
335.254822	145.780000
335.348175	145.560000
335.441559	145.360000
335.534943	146.060000
335.628296	145.720000
335.721680	145.360000
335.815033	145.740000
335.908417	145.920000
336.001770	145.760000
336.095154	145.640000
336.188538	145.340000
336.281891	144.680000
336.375275	144.120000
336.468658	143.880000
336.562012	144.080000
336.655396	144.900000
336.748779	145.420000
336.842133	145.700000
336.935516	146.120000
337.028900	145.740000
337.122284	145.320000
337.215637	145.380000
337.309021	145.500000
337.402435	144.920000
337.495789	145.100000
337.589203	145.240000
337.682526	145.180000
337.775940	145.580000
337.869324	145.580000
337.962708	145.220000
338.056091	145.700000
338.149475	145.180000
338.242859	144.800000
338.336243	144.740000
338.429626	145.020000
338.523010	144.760000
338.616394	144.940000
338.709778	144.840000
338.803162	145.140000
338.896545	145.460000
338.989929	145.000000
339.083313	145.200000
339.176697	145.420000
339.270081	145.200000
339.363464	145.280000
339.456848	145.740000
339.550232	145.160000
339.643616	145.040000
339.737030	145.320000
339.830383	145.040000
339.923828	145.080000
340.017181	145.500000
340.110596	145.480000
340.203949	145.240000
340.297363	144.860000
340.390778	144.460000
340.484161	144.600000
340.577545	144.740000
340.670959	144.860000
340.764343	145.080000
340.857727	145.540000
340.951111	144.900000
341.044525	144.880000
341.137909	144.600000
341.231293	144.760000
341.324707	144.080000
341.418091	145.280000
341.511505	145.300000
341.604889	145.620000
341.698303	145.900000
341.791687	146.100000
341.885071	145.140000
341.978485	144.980000
342.071899	145.220000
342.165283	145.240000
342.258698	145.900000
342.352081	146.760000
342.445496	147.320000
342.538879	146.960000
342.632324	146.320000
342.725708	145.940000
342.819122	145.320000
342.912506	144.440000
343.005920	144.620000
343.099335	145.720000
343.192719	145.680000
343.286133	145.540000
343.379547	146.300000
343.472931	146.280000
343.566345	145.560000
343.659760	146.020000
343.753143	145.740000
343.846558	145.020000
343.939972	145.100000
344.033386	145.700000
344.126770	145.340000
344.220184	146.020000
344.313599	146.840000
344.407043	146.900000
344.500427	146.180000
344.593872	146.500000
344.687225	146.180000
344.780670	145.480000
344.874054	145.020000
344.967499	145.620000
345.060913	145.480000
345.154327	145.480000
345.247742	145.440000
345.341156	145.580000
345.434570	144.900000
345.527985	144.780000
345.621399	144.720000
345.714813	144.780000
345.808228	145.080000
345.901642	145.020000
345.995056	144.780000
346.088470	144.940000
346.181885	145.320000
346.275299	145.060000
346.368713	145.140000
346.462128	144.940000
346.555573	144.620000
346.648987	144.660000
346.742401	144.660000
346.835815	145.120000
346.929260	145.200000
347.022644	145.720000
347.116119	145.960000
347.209503	146.500000
347.302948	146.920000
347.396362	147.440000
347.489807	147.440000
347.583221	147.520000
347.676636	147.000000
347.770050	146.080000
347.863495	145.720000
347.956909	145.500000
348.050323	144.920000
348.143768	144.960000
348.237183	144.800000
348.330597	145.200000
348.424042	145.600000
348.517456	145.900000
348.610901	146.300000
348.704315	146.740000
348.797760	146.060000
348.891174	145.400000
348.984619	145.200000
349.078033	145.200000
349.171448	145.860000
349.264923	146.080000
349.358337	146.360000
349.451782	146.540000
349.545197	146.020000
349.638641	144.740000
349.732086	144.320000
349.825500	144.640000
349.918945	144.040000
350.012390	144.480000
350.105804	145.380000
350.199249	145.820000
350.292664	146.120000
350.386108	146.680000
350.479553	146.960000
350.572968	146.660000
350.666412	146.480000
350.759857	146.300000
350.853302	146.280000
350.946716	145.660000
351.040161	145.860000
351.133606	146.140000
351.227081	145.780000
351.320465	146.360000
351.413940	146.740000
351.507355	147.040000
351.600830	147.220000
351.694244	146.800000
351.787720	146.340000
351.881104	145.980000
351.974579	145.280000
352.067993	145.700000
352.161469	146.120000
352.254883	145.660000
352.348358	145.780000
352.441803	146.120000
352.535248	145.820000
352.628693	146.120000
352.722137	146.220000
352.815582	146.280000
352.909027	146.500000
353.002472	146.300000
353.095917	146.180000
353.189362	146.360000
353.282806	146.180000
353.376251	145.720000
353.469696	145.500000
353.563141	145.960000
353.656586	145.860000
353.750061	145.460000
353.843475	145.440000
353.936981	145.940000
354.030396	145.080000
354.123871	145.040000
354.217285	145.920000
354.310760	146.340000
354.404175	145.820000
354.497681	145.900000
354.591095	146.040000
354.684570	145.400000
354.777985	144.960000
354.871490	144.840000
354.964935	145.240000
355.058380	145.520000
355.151855	145.380000
355.245300	145.820000
355.338745	146.360000
355.432220	146.040000
355.525665	145.360000
355.619110	146.120000
355.712585	145.700000
355.806030	145.340000
355.899475	145.120000
355.992950	145.600000
356.086426	145.660000
356.179871	145.800000
356.273346	146.180000
356.366791	146.440000
356.460266	146.780000
356.553711	146.160000
356.647186	146.160000
356.740631	145.760000
356.834106	145.680000
356.927551	145.400000
357.021027	145.760000
357.114471	145.880000
357.207947	146.020000
357.301422	146.520000
357.394867	146.640000
357.488342	146.640000
357.581818	146.620000
357.675262	146.940000
357.768738	146.400000
357.862213	145.600000
357.955658	145.760000
358.049133	145.580000
358.142609	145.460000
358.236053	145.400000
358.329529	146.000000
358.423035	145.900000
358.516449	145.760000
358.609955	146.240000
358.703400	147.160000
358.796906	147.160000
358.890350	146.440000
358.983826	146.680000
359.077271	145.820000
359.170776	145.100000
359.264221	144.740000
359.357727	145.280000
359.451172	145.560000
359.544647	146.020000
359.638123	145.920000
359.731598	146.220000
359.825073	146.420000
359.918549	146.420000
360.012024	146.200000
360.105499	146.140000
360.198975	146.060000
360.292450	145.640000
360.385925	145.440000
360.479401	144.940000
360.572876	145.160000
360.666351	145.440000
360.759857	145.580000
360.853302	145.200000
360.946808	145.280000
361.040253	145.060000
361.133759	144.760000
361.227203	145.240000
361.320709	145.360000
361.414154	145.980000
361.507660	146.460000
361.601105	146.960000
361.694641	146.900000
361.788086	146.840000
361.881592	147.180000
361.975067	146.840000
362.068542	146.720000
362.162018	146.640000
362.255524	146.160000
362.348999	145.380000
362.442474	145.340000
362.535950	144.760000
362.629456	144.400000
362.722931	144.880000
362.816406	145.520000
362.909882	146.180000
363.003387	146.000000
363.096863	146.640000
363.190338	146.380000
363.283875	146.040000
363.377319	145.660000
363.470825	146.620000
363.564301	145.780000
363.657806	145.860000
363.751282	145.300000
363.844788	145.880000
363.938232	145.100000
364.031769	145.960000
364.125214	146.440000
364.218750	147.280000
364.312225	146.160000
364.405731	146.300000
364.499207	145.280000
364.592712	145.020000
364.686188	144.720000
364.779694	145.040000
364.873169	145.300000
364.966675	145.580000
365.060150	145.340000
365.153656	145.620000
365.247131	145.900000
365.340637	146.060000
365.434143	146.840000
365.527618	147.260000
365.621155	146.540000
365.714600	146.140000
365.808136	145.920000
365.901611	144.640000
365.995117	144.300000
366.088593	144.580000
366.182129	144.640000
366.275604	144.660000
366.369110	145.240000
366.462585	145.120000
366.556122	145.580000
366.649567	145.480000
366.743103	145.280000
366.836609	144.900000
366.930115	145.720000
367.023590	145.520000
367.117096	145.520000
367.210602	145.560000
367.304108	146.540000
367.397614	146.840000
367.491119	146.940000
367.584595	147.300000
367.678101	147.640000
367.771606	146.900000
367.865112	145.920000
367.958649	145.440000
368.052124	145.220000
368.145660	144.760000
368.239136	145.200000
368.332672	145.720000
368.426147	145.900000
368.519684	145.920000
368.613159	146.540000
368.706696	146.200000
368.800171	145.920000
368.893707	146.060000
368.987183	145.740000
369.080719	145.660000
369.174225	145.720000
369.267731	145.780000
369.361237	145.540000
369.454742	145.740000
369.548248	145.740000
369.641754	145.360000
369.735260	145.160000
369.828766	144.620000
369.922272	145.480000
370.015808	145.160000
370.109314	145.400000
370.202820	145.460000
370.296356	146.840000
370.389832	145.900000
370.483368	145.580000
370.576874	145.760000
370.670410	145.600000
370.763885	144.380000
370.857422	144.460000
370.950928	144.280000
371.044464	144.660000
371.137939	145.080000
371.231476	145.520000
371.324982	146.020000
371.418518	146.700000
371.512024	146.320000
371.605560	146.100000
371.699066	146.320000
371.792572	145.940000
371.886108	146.120000
371.979614	146.160000
372.073120	146.640000
372.166656	146.260000
372.260162	146.540000
372.353668	146.020000
372.447205	145.700000
372.540710	145.600000
372.634277	145.520000
372.727753	145.120000
372.821320	145.300000
372.914795	145.560000
373.008362	145.100000
373.101837	145.480000
373.195404	145.560000
373.288879	145.660000
373.382446	146.300000
373.475922	146.440000
373.569489	146.760000
373.662964	147.180000
373.756531	147.140000
373.850037	146.660000
373.943573	146.660000
374.037109	145.580000
374.130615	145.400000
374.224152	145.280000
374.317657	145.060000
374.411194	145.700000
374.504730	146.000000
374.598236	145.520000
374.691772	145.680000
374.785309	145.880000
374.878815	145.020000
374.972351	145.500000
375.065887	146.080000
375.159454	146.440000
375.252930	146.320000
375.346497	146.960000
375.440002	147.440000
375.533569	147.100000
375.627045	146.340000
375.720612	146.220000
375.814117	145.980000
375.907684	145.260000
376.001160	145.000000
376.094727	144.740000
376.188232	145.500000
376.281799	145.500000
376.375336	145.580000
376.468872	146.640000
376.562408	147.260000
376.655914	146.640000
376.749451	146.640000
376.842987	146.860000
376.936523	146.040000
377.030060	146.220000
377.123596	146.260000
377.217133	145.940000
377.310669	145.880000
377.404205	146.460000
377.497772	146.680000
377.591278	146.680000
377.684845	147.540000
377.778351	147.700000
377.871918	147.640000
377.965424	147.000000
378.058990	147.100000
378.152496	146.600000
378.246063	146.800000
378.339569	146.700000
378.433136	146.820000
378.526642	146.760000
378.620209	146.680000
378.713745	146.220000
378.807312	146.760000
378.900848	146.520000
378.994385	146.700000
379.087921	146.100000
379.181458	146.440000
379.274994	145.580000
379.368530	145.780000
379.462097	145.840000
379.555634	146.640000
379.649170	145.940000
379.742706	145.880000
379.836273	146.160000
379.929810	145.800000
380.023376	145.260000
380.116882	145.500000
380.210449	145.600000
380.303986	145.060000
380.397552	144.680000
380.491058	145.040000
380.584656	144.800000
380.678162	145.100000
380.771729	145.180000
380.865265	146.380000
380.958832	146.320000
381.052368	146.880000
381.145935	147.080000
381.239471	147.460000
381.333008	146.720000
381.426575	146.720000
381.520111	146.900000
381.613647	146.680000
381.707214	146.520000
381.800751	146.160000
381.894318	146.120000
381.987854	145.520000
382.081421	145.580000
382.174988	145.680000
382.268524	145.760000
382.362091	145.800000
382.455627	146.540000
382.549194	146.100000
382.642731	145.560000
382.736298	145.420000
382.829834	145.100000
382.923401	145.560000
383.016937	145.920000
383.110504	146.580000
383.204041	147.000000
383.297607	147.420000
383.391174	146.360000
383.484741	147.020000
383.578278	146.280000
383.671844	145.860000
383.765411	145.500000
383.858948	145.920000
383.952515	145.080000
384.046051	145.860000
384.139618	146.100000
384.233185	146.440000
384.326721	146.440000
384.420288	147.160000
384.513855	146.940000
384.607422	147.260000
384.700989	147.340000
384.794525	146.920000
384.888123	146.500000
384.981659	146.640000
385.075226	146.280000
385.168762	145.740000
385.262360	145.780000
385.355896	145.180000
385.449463	144.800000
385.542999	144.580000
385.636597	145.380000
385.730164	145.560000
385.823730	145.300000
385.917267	145.020000
386.010834	145.420000
386.104401	145.340000
386.197968	145.500000
386.291534	146.300000
386.385101	146.680000
386.478668	147.000000
386.572235	146.600000
386.665802	146.120000
386.759338	145.460000
386.852905	145.200000
386.946472	144.600000
387.040070	144.600000
387.133606	144.760000
387.227203	144.680000
387.320740	145.000000
387.414337	145.040000
387.507874	144.940000
387.601471	145.120000
387.695007	145.280000
387.788605	144.640000
387.882141	144.540000
387.975739	144.760000
388.069275	144.080000
388.162872	144.220000
388.256439	144.740000
388.350037	144.820000
388.443604	144.640000
388.537170	145.140000
388.630737	145.700000
388.724304	145.840000
388.817871	145.900000
388.911438	145.860000
389.005005	146.100000
389.098602	146.160000
389.192169	145.860000
389.285736	146.540000
389.379333	146.740000
389.472870	146.080000
389.566467	146.020000
389.660034	146.240000
389.753632	145.300000
389.847168	145.500000
389.940765	146.060000
390.034332	146.040000
390.127930	145.560000
390.221466	145.880000
390.315063	145.200000
390.408630	144.640000
390.502228	143.600000
390.595795	144.060000
390.689362	144.020000
390.782959	144.600000
390.876526	145.200000
390.970093	145.680000
391.063690	146.340000
391.157257	146.220000
391.250824	146.680000
391.344421	146.540000
391.437988	146.780000
391.531555	146.460000
391.625153	146.840000
391.718750	146.620000
391.812317	146.600000
391.905914	146.220000
391.999481	146.320000
392.093079	146.140000
392.186615	146.200000
392.280243	146.100000
392.373779	146.520000
392.467407	146.960000
392.560944	147.060000
392.654572	146.620000
392.748108	146.800000
392.841736	147.040000
392.935303	146.200000
393.028900	145.940000
393.122467	146.020000
393.216064	145.600000
393.309631	144.580000
393.403229	144.360000
393.496796	144.380000
393.590393	143.960000
393.683990	144.380000
393.777557	145.580000
393.871155	146.020000
393.964722	146.460000
394.058350	146.660000
394.151917	146.380000
394.245514	145.540000
394.339081	145.680000
394.432678	145.720000
394.526245	145.860000
394.619873	145.880000
394.713409	146.400000
394.807037	145.860000
394.900604	145.840000
394.994202	145.760000
395.087769	146.120000
395.181396	145.620000
395.274994	146.560000
395.368561	145.740000
395.462158	145.900000
395.555756	145.520000
395.649353	146.100000
395.742920	145.520000
395.836517	146.740000
395.930115	146.220000
396.023712	146.560000
396.117279	146.620000
396.210876	146.280000
396.304474	145.860000
396.398071	146.580000
396.491669	146.840000
396.585266	146.560000
396.678833	146.860000
396.772461	147.300000
396.866028	147.140000
396.959656	147.520000
397.053223	148.460000
397.146851	149.120000
397.240417	150.180000
397.334015	152.420000
397.427582	153.860000
397.521210	156.100000
397.614807	159.540000
397.708405	163.440000
397.802002	168.240000
397.895599	175.080000
397.989197	183.860000
398.082794	194.280000
398.176392	207.580000
398.269989	223.000000
398.363586	241.960000
398.457184	262.900000
398.550781	286.160000
398.644379	309.160000
398.737976	333.860000
398.831573	358.620000
398.925201	382.000000
399.018768	405.000000
399.112396	427.000000
399.205963	445.780000
399.299591	459.980000
399.393158	471.320000
399.486786	478.360000
399.580353	482.220000
399.673981	483.540000
399.767578	485.700000
399.861206	487.520000
399.954773	488.980000
400.048401	488.360000
400.141998	483.460000
400.235596	473.240000
400.329193	457.440000
400.422791	437.560000
400.516418	414.520000
400.610016	392.940000
400.703613	372.040000
400.797211	351.280000
400.890808	332.240000
400.984436	315.020000
401.078033	296.960000
401.171631	279.220000
401.265259	262.100000
401.358826	245.720000
401.452484	229.360000
401.546051	215.480000
401.639679	201.920000
401.733246	191.680000
401.826904	181.900000
401.920471	173.900000
402.014099	167.240000
402.107697	162.060000
402.201324	157.940000
402.294891	154.740000
402.388550	152.720000
402.482147	151.420000
402.575745	150.100000
402.669373	148.640000
402.762970	147.960000
402.856567	147.640000
402.950195	147.240000
403.043793	147.000000
403.137390	147.820000
403.231018	147.040000
403.324615	147.340000
403.418243	146.620000
403.511841	147.320000
403.605469	146.640000
403.699066	147.320000
403.792694	147.320000
403.886292	147.780000
403.979919	147.540000
404.073517	147.240000
404.167145	147.420000
404.260712	147.120000
404.354370	146.640000
404.447937	146.580000
404.541595	146.780000
404.635162	146.640000
404.728821	147.100000
404.822418	147.160000
404.916046	146.800000
405.009644	146.900000
405.103271	146.980000
405.196899	146.440000
405.290497	146.560000
405.384125	146.740000
405.477722	146.160000
405.571350	145.600000
405.664948	146.080000
405.758575	145.540000
405.852203	144.980000
405.945801	145.540000
406.039429	146.080000
406.133057	145.560000
406.226654	145.800000
406.320312	145.980000
406.413879	145.960000
406.507538	146.000000
406.601135	145.400000
406.694763	145.880000
406.788361	145.860000
406.882019	145.640000
406.975586	145.420000
407.069244	146.360000
407.162872	146.000000
407.256470	146.140000
407.350098	146.120000
407.443726	146.000000
407.537323	145.540000
407.630951	145.960000
407.724579	145.740000
407.818207	146.260000
407.911804	146.100000
408.005432	145.980000
408.099060	146.140000
408.192688	146.620000
408.286285	146.020000
408.379913	145.920000
408.473572	146.140000
408.567169	145.220000
408.660828	145.060000
408.754395	145.120000
408.848053	144.840000
408.941650	144.980000
409.035309	144.620000
409.128906	144.260000
409.222565	144.520000
409.316132	145.360000
409.409790	145.000000
409.503387	145.580000
409.597046	146.140000
409.690674	145.840000
409.784302	145.740000
409.877930	145.600000
409.971558	145.620000
410.065186	145.440000
410.158783	145.360000
410.252411	145.100000
410.346039	145.840000
410.439667	145.960000
410.533295	146.040000
410.626923	146.520000
410.720551	146.360000
410.814209	146.680000
410.907806	146.780000
411.001465	146.420000
411.095062	146.560000
411.188721	146.780000
411.282318	145.920000
411.375977	145.580000
411.469574	145.860000
411.563232	145.440000
411.656830	145.000000
411.750488	144.760000
411.844086	144.780000
411.937744	145.160000
412.031372	144.960000
412.125000	145.220000
412.218628	145.500000
412.312256	146.420000
412.405884	146.340000
412.499512	146.360000
412.593170	146.460000
412.686798	146.920000
412.780426	145.780000
412.874054	145.780000
412.967682	146.080000
413.061310	146.600000
413.154968	146.620000
413.248566	147.140000
413.342224	146.660000
413.435852	146.760000
413.529510	146.260000
413.623108	145.460000
413.716766	145.280000
413.810364	145.620000
413.904022	145.200000
413.997650	145.000000
414.091309	146.040000
414.184906	146.060000
414.278564	145.460000
414.372192	146.140000
414.465851	146.520000
414.559479	145.780000
414.653107	146.680000
414.746735	146.840000
414.840393	146.480000
414.934021	146.720000
415.027649	146.380000
415.121277	145.940000
415.214935	146.320000
415.308563	146.220000
415.402191	145.380000
415.495850	145.800000
415.589478	145.100000
415.683136	144.980000
415.776733	145.520000
415.870422	146.440000
415.964020	146.000000
416.057678	146.360000
416.151306	146.640000
416.244965	145.980000
416.338562	145.920000
416.432251	146.660000
416.525848	147.400000
416.619507	147.740000
416.713165	148.520000
416.806793	148.180000
416.900421	147.980000
416.994080	147.000000
417.087708	146.420000
417.181366	145.520000
417.274994	145.400000
417.368622	145.660000
417.462280	146.180000
417.555908	145.880000
417.649567	145.900000
417.743195	145.980000
417.836853	145.700000
417.930481	146.020000
418.024170	146.180000
418.117767	146.680000
418.211426	147.000000
418.305054	147.360000
418.398712	146.700000
418.492340	146.900000
418.585999	147.160000
418.679626	146.920000
418.773285	146.700000
418.866913	147.180000
418.960571	147.440000
419.054230	147.080000
419.147858	147.340000
419.241516	147.440000
419.335144	147.000000
419.428802	146.460000
419.522461	146.100000
419.616089	145.480000
419.709747	145.360000
419.803375	145.500000
419.897034	145.400000
419.990662	145.420000
420.084320	146.040000
420.177979	146.440000
420.271606	146.680000
420.365295	147.360000
420.458893	147.860000
420.552582	148.020000
420.646210	147.600000
420.739868	147.100000
420.833496	146.620000
420.927155	146.100000
421.020782	145.780000
421.114471	145.460000
421.208069	145.900000
421.301758	146.540000
421.395386	146.860000
421.489044	146.540000
421.582703	146.760000
421.676361	147.220000
421.769989	146.380000
421.863647	146.380000
421.957306	146.700000
422.050934	146.800000
422.144592	146.160000
422.238251	146.260000
422.331909	146.220000
422.425537	146.000000
422.519196	146.000000
422.612854	145.620000
422.706543	145.460000
422.800140	145.680000
422.893829	145.360000
422.987457	145.100000
423.081146	145.220000
423.174744	145.980000
423.268433	145.580000
423.362061	145.740000
423.455750	145.680000
423.549347	145.840000
423.643036	145.200000
423.736664	145.820000
423.830353	145.860000
423.924011	146.480000
424.017639	146.040000
424.111298	146.180000
424.204956	145.800000
424.298615	145.840000
424.392273	145.640000
424.485931	146.080000
424.579559	146.240000
424.673218	146.120000
424.766876	146.140000
424.860535	145.720000
424.954193	145.600000
425.047882	145.600000
425.141510	145.440000
425.235199	145.700000
425.328796	145.420000
425.422485	145.220000
425.516113	144.740000
425.609802	144.960000
425.703430	144.620000
425.797119	144.860000
425.890747	145.020000
425.984436	145.400000
426.078064	145.360000
426.171753	145.620000
426.265411	145.620000
426.359070	145.820000
426.452728	145.640000
426.546356	145.580000
426.640015	145.260000
426.733673	145.280000
426.827332	144.880000
426.920990	145.400000
427.014648	145.540000
427.108307	145.900000
427.201965	146.540000
427.295624	146.760000
427.389282	145.940000
427.482941	145.800000
427.576630	145.780000
427.670258	144.940000
427.763947	144.860000
427.857574	145.060000
427.951263	144.940000
428.044922	144.620000
428.138611	145.000000
428.232239	145.380000
428.325928	146.000000
428.419556	146.700000
428.513245	146.320000
428.606903	146.180000
428.700562	145.980000
428.794220	145.300000
428.887878	144.740000
428.981537	145.460000
429.075195	145.720000
429.168854	146.000000
429.262512	146.160000
429.356201	146.260000
429.449860	145.960000
429.543518	145.820000
429.637177	145.720000
429.730835	145.680000
429.824493	145.700000
429.918182	146.080000
430.011810	145.780000
430.105530	145.460000
430.199158	145.620000
430.292847	145.500000
430.386475	145.140000
430.480164	144.920000
430.573792	144.840000
430.667511	145.040000
430.761139	144.880000
430.854828	145.120000
430.948456	145.620000
431.042145	146.200000
431.135834	145.860000
431.229492	146.260000
431.323151	146.440000
431.416809	146.420000
431.510468	146.180000
431.604156	146.020000
431.697815	145.660000
431.791473	145.440000
431.885132	145.020000
431.978821	145.340000
432.072479	146.020000
432.166138	146.420000
432.259827	146.100000
432.353485	146.820000
432.447174	146.580000
432.540802	145.840000
432.634491	145.860000
432.728149	146.080000
432.821838	146.080000
432.915466	145.940000
433.009186	146.280000
433.102814	145.780000
433.196503	145.620000
433.290131	145.340000
433.383850	145.380000
433.477509	145.360000
433.571167	146.080000
433.664856	146.480000
433.758514	146.840000
433.852173	146.820000
433.945862	146.800000
434.039520	146.580000
434.133179	145.880000
434.226868	145.560000
434.320526	145.300000
434.414185	145.840000
434.507874	145.520000
434.601562	146.280000
434.695221	146.060000
434.788910	146.460000
434.882538	146.400000
434.976257	146.100000
435.069885	145.880000
435.163574	146.220000
435.257233	145.740000
435.350922	145.400000
435.444580	145.560000
435.538269	145.280000
435.631897	145.680000
435.725616	146.260000
435.819275	146.360000
435.912964	146.880000
436.006622	147.480000
436.100311	146.960000
436.193970	146.140000
436.287628	145.920000
436.381317	145.360000
436.474976	144.940000
436.568665	144.520000
436.662323	144.800000
436.756012	144.840000
436.849670	144.820000
436.943390	144.400000
437.037018	144.580000
437.130737	144.660000
437.224365	144.700000
437.318085	144.880000
437.411713	145.480000
437.505432	145.920000
437.599060	146.480000
437.692780	147.180000
437.786407	147.160000
437.880127	146.800000
437.973755	146.540000
438.067474	146.000000
438.161133	145.380000
438.254822	145.760000
438.348480	145.940000
438.442169	146.680000
438.535828	147.280000
438.629517	147.280000
438.723175	146.580000
438.816864	147.180000
438.910553	146.480000
439.004211	145.940000
439.097900	145.620000
439.191559	145.920000
439.285248	145.020000
439.378906	145.380000
439.472626	145.140000
439.566284	145.400000
439.659973	145.700000
439.753632	145.880000
439.847321	145.940000
439.940979	146.180000
440.034698	146.100000
440.128326	145.560000
440.222046	145.360000
440.315674	144.540000
440.409393	144.880000
440.503082	144.620000
440.596741	144.920000
440.690430	144.980000
440.784088	145.280000
440.877777	144.540000
440.971466	144.700000
441.065125	144.540000
441.158813	144.460000
441.252502	144.720000
441.346161	145.120000
441.439850	145.340000
441.533539	145.340000
441.627197	145.940000
441.720886	145.400000
441.814606	146.000000
441.908234	146.460000
442.001953	146.540000
442.095612	146.400000
442.189301	146.780000
442.282959	146.480000
442.376678	145.480000
442.470306	146.100000
442.564026	145.860000
442.657684	146.060000
442.751404	146.020000
442.845032	147.120000
442.938751	146.440000
443.032440	146.440000
443.126099	145.980000
443.219788	146.160000
443.313477	145.980000
443.407166	146.440000
443.500824	146.580000
443.594513	147.060000
443.688202	146.820000
443.781891	145.980000
443.875549	145.520000
443.969238	145.360000
444.062927	145.160000
444.156647	145.020000
444.250275	145.540000
444.343994	145.720000
444.437653	145.800000
444.531372	145.620000
444.625031	145.680000
444.718719	145.600000
444.812378	145.760000
444.906097	145.480000
444.999756	145.300000
445.093445	145.200000
445.187103	145.140000
445.280823	145.700000
445.374512	145.580000
445.468201	146.000000
445.561859	146.080000
445.655548	146.040000
445.749237	144.920000
445.842926	145.300000
445.936615	145.680000
446.030304	145.300000
446.123962	145.560000
446.217651	145.640000
446.311340	145.540000
446.405029	144.780000
446.498749	144.720000
446.592407	144.280000
446.686096	144.800000
446.779755	145.240000
446.873474	145.500000
446.967133	146.080000
447.060852	146.240000
447.154510	145.960000
447.248230	145.760000
447.341858	145.720000
447.435577	144.880000
447.529236	144.640000
447.622955	144.400000
447.716644	144.240000
447.810333	144.720000
447.904022	145.660000
447.997711	145.700000
448.091400	146.120000
448.185059	145.900000
448.278748	145.660000
448.372437	145.280000
448.466125	145.520000
448.559814	145.380000
448.653503	146.020000
448.747192	146.000000
448.840912	146.400000
448.934570	146.500000
449.028290	146.620000
449.121948	146.020000
449.215637	146.000000
449.309296	145.660000
449.403015	145.820000
449.496674	145.860000
449.590393	145.940000
449.684052	145.560000
449.777771	146.420000
449.871429	145.360000
449.965149	145.280000
450.058838	145.860000
450.152527	146.420000
450.246216	145.760000
450.339905	146.220000
450.433594	145.600000
450.527283	145.820000
450.620972	145.480000
450.714661	145.220000
450.808350	145.560000
450.902039	146.540000
450.995728	146.000000
451.089417	145.620000
451.183105	145.920000
451.276794	146.180000
451.370514	145.240000
451.464172	144.560000
451.557892	144.740000
451.651550	144.720000
451.745270	144.280000
451.838928	144.280000
451.932648	145.100000
452.026306	145.780000
452.120026	145.460000
452.213684	145.980000
452.307404	146.260000
452.401062	146.000000
452.494781	145.700000
452.588470	145.940000
452.682159	145.440000
452.775848	145.580000
452.869537	145.300000
452.963226	145.020000
453.056915	144.740000
453.150604	144.560000
453.244293	144.640000
453.337982	145.400000
453.431671	145.840000
453.525360	146.480000
453.619049	146.920000
453.712769	146.840000
453.806427	146.280000
453.900146	145.960000
453.993805	145.760000
454.087555	146.180000
454.181213	146.240000
454.274933	146.020000
454.368591	145.860000
454.462311	145.540000
454.555969	145.060000
454.649689	145.760000
454.743347	145.800000
454.837067	146.320000
454.930756	146.820000
455.024445	146.900000
455.118134	146.260000
455.211853	146.680000
455.305542	146.180000
455.399231	145.800000
455.492920	145.180000
455.586609	145.260000
455.680298	145.420000
455.773987	145.440000
455.867676	145.480000
455.961365	146.340000
456.055084	145.920000
456.148773	145.480000
456.242493	145.660000
456.336151	145.760000
456.429871	145.940000
456.523529	146.340000
456.617249	146.220000
456.710907	146.860000
456.804626	146.860000
456.898315	146.140000
456.992035	146.020000
457.085693	146.020000
457.179413	145.120000
457.273102	145.800000
457.366791	145.920000
457.460480	146.140000
457.554199	146.720000
457.647888	146.840000
457.741577	146.160000
457.835266	146.480000
457.928955	146.700000
458.022644	146.780000
458.116364	147.200000
458.210052	147.180000
458.303741	146.860000
458.397461	146.280000
458.491119	145.480000
458.584839	145.060000
458.678528	144.640000
458.772247	144.600000
458.865906	144.680000
458.959625	145.980000
459.053284	146.240000
459.147003	146.420000
459.240692	147.260000
459.334412	147.500000
459.428070	146.580000
459.521790	146.320000
459.615479	146.360000
459.709198	146.280000
459.802887	145.660000
459.896576	145.480000
459.990265	145.720000
460.083954	145.740000
460.177673	145.220000
460.271362	145.920000
460.365051	146.140000
460.458740	145.900000
460.552429	145.680000
460.646149	145.440000
460.739838	145.040000
460.833527	145.060000
460.927246	144.940000
461.020905	145.140000
461.114655	145.120000
461.208313	145.340000
461.302032	145.240000
461.395691	145.720000
461.489441	145.680000
461.583099	145.420000
461.676819	145.000000
461.770477	145.420000
461.864197	144.960000
461.957916	144.940000
462.051605	144.640000
462.145294	145.600000
462.238983	144.860000
462.332703	145.420000
462.426392	145.900000
462.520081	146.400000
462.613770	145.720000
462.707489	146.240000
462.801178	145.640000
462.894867	145.140000
462.988556	145.240000
463.082275	145.260000
463.175964	145.040000
463.269684	145.720000
463.363342	145.880000
463.457092	145.320000
463.550751	145.580000
463.644470	145.620000
463.738129	145.080000
463.831879	145.200000
463.925537	146.080000
464.019257	146.360000
464.112946	146.360000
464.206665	145.980000
464.300323	145.780000
464.394043	145.380000
464.487762	144.680000
464.581451	144.900000
464.675140	145.220000
464.768829	145.220000
464.862549	145.360000
464.956238	145.740000
465.049927	145.500000
465.143646	145.560000
465.237335	145.540000
465.331024	145.900000
465.424713	145.860000
465.518433	146.120000
465.612152	146.080000
465.705811	145.980000
465.799561	145.540000
465.893219	145.480000
465.986938	145.260000
466.080597	145.080000
466.174347	145.220000
466.268005	145.260000
466.361725	144.960000
466.455414	144.920000
466.549133	144.800000
466.642792	145.120000
466.736542	144.940000
466.830231	145.100000
466.923920	145.080000
467.017609	145.220000
467.111328	144.640000
467.205017	144.500000
467.298706	144.600000
467.392426	144.620000
467.486115	145.000000
467.579803	144.800000
467.673523	145.340000
467.767212	145.440000
467.860901	145.540000
467.954651	145.480000
468.048309	145.900000
468.142029	145.640000
468.235718	145.480000
468.329437	145.320000
468.423096	145.420000
468.516846	145.440000
468.610504	145.320000
468.704224	145.120000
468.797913	144.900000
468.891632	144.980000
468.985291	145.000000
469.079010	145.060000
469.172729	144.800000
469.266418	145.420000
469.360107	145.460000
469.453827	145.460000
469.547516	145.340000
469.641205	145.920000
469.734924	146.120000
469.828613	146.240000
469.922302	146.440000
470.016022	146.960000
470.109711	146.780000
470.203430	146.200000
470.297150	145.480000
470.390808	145.320000
470.484558	144.720000
470.578217	145.160000
470.671936	145.460000
470.765625	146.240000
470.859344	145.980000
470.953003	146.380000
471.046753	145.840000
471.140411	145.220000
471.234131	145.180000
471.327820	145.960000
471.421539	146.020000
471.515228	145.620000
471.608948	145.820000
471.702637	145.140000
471.796326	144.520000
471.890045	144.780000
471.983734	145.540000
472.077423	145.160000
472.171143	145.320000
472.264832	145.360000
472.358521	144.900000
472.452240	144.340000
472.545929	145.320000
472.639648	145.460000
472.733337	145.860000
472.827057	146.160000
472.920746	146.320000
473.014465	146.200000
473.108124	146.600000
473.201874	146.500000
473.295532	145.900000
473.389252	146.680000
473.482941	146.640000
473.576660	145.940000
473.670319	145.720000
473.764069	146.220000
473.857727	145.960000
473.951477	146.280000
474.045166	146.960000
474.138855	146.840000
474.232574	146.840000
474.326263	146.640000
474.419952	146.360000
474.513672	146.060000
474.607361	145.880000
474.701050	146.000000
474.794769	146.240000
474.888458	146.340000
474.982178	146.400000
475.075867	146.360000
475.169586	146.180000
475.263275	145.980000
475.356995	146.100000
475.450653	145.820000
475.544403	146.100000
475.638062	146.680000
475.731812	146.300000
475.825470	145.880000
475.919189	146.160000
476.012878	146.240000
476.106598	145.480000
476.200256	145.980000
476.294006	145.720000
476.387695	145.860000
476.481384	145.840000
476.575104	145.640000
476.668793	145.340000
476.762512	145.220000
476.856201	145.400000
476.949890	145.080000
477.043610	144.800000
477.137299	144.520000
477.230988	145.060000
477.324707	144.620000
477.418396	145.180000
477.512146	145.640000
477.605804	145.900000
477.699524	145.620000
477.793213	145.500000
477.886932	145.140000
477.980591	144.880000
478.074341	144.800000
478.167999	144.620000
478.261749	144.680000
478.355408	144.460000
478.449127	145.040000
478.542816	145.600000
478.636536	146.400000
478.730225	146.800000
478.823944	147.200000
478.917633	147.140000
479.011322	147.020000
479.105042	146.460000
479.198730	146.220000
479.292450	145.880000
479.386139	145.960000
479.479828	145.880000
479.573547	146.560000
479.667267	146.320000
479.760925	146.660000
479.854675	146.540000
479.948334	146.560000
480.042084	145.860000
480.135742	146.440000
480.229462	145.720000
480.323151	145.740000
480.416870	145.000000
480.510529	145.020000
480.604279	144.380000
480.697937	145.140000
480.791656	144.760000
480.885345	145.000000
480.979065	144.920000
481.072754	145.720000
481.166473	145.900000
481.260132	146.000000
481.353882	146.340000
481.447540	146.360000
481.541260	145.780000
481.635010	145.020000
481.728668	145.080000
481.822388	144.780000
481.916077	144.840000
482.009796	144.860000
482.103485	145.760000
482.197205	145.700000
482.290863	146.080000
482.384613	145.940000
482.478271	145.560000
482.571991	145.000000
482.665680	145.220000
482.759399	145.660000
482.853058	146.500000
482.946808	146.800000
483.040466	146.600000
483.134216	146.500000
483.227875	145.780000
483.321594	145.880000
483.415283	145.860000
483.509003	145.720000
483.602661	145.240000
483.696411	145.820000
483.790070	145.380000
483.883789	145.160000
483.977478	145.860000
484.071198	146.120000
484.164917	145.560000
484.258606	145.020000
484.352325	145.740000
484.445984	145.460000
484.539734	145.580000
484.633392	145.260000
484.727142	145.520000
484.820801	145.220000
484.914520	145.040000
485.008209	145.280000
485.101929	145.700000
485.195587	145.520000
485.289337	145.180000
485.382996	145.480000
485.476715	145.440000
485.570404	145.880000
485.664124	146.020000
485.757782	146.760000
485.851532	146.440000
485.945190	146.340000
486.038910	146.240000
486.132599	146.860000
486.226318	145.980000
486.319977	146.360000
486.413727	146.560000
486.507446	146.220000
486.601105	145.180000
486.694855	145.080000
486.788513	144.540000
486.882233	144.600000
486.975922	144.480000
487.069641	144.460000
487.163300	144.740000
487.257050	146.060000
487.350708	145.660000
487.444427	145.440000
487.538116	145.680000
487.631836	145.600000
487.725494	145.000000
487.819214	145.140000
487.912903	145.360000
488.006622	145.900000
488.100281	146.160000
488.194031	145.760000
488.287689	146.380000
488.381409	147.300000
488.475098	147.140000
488.568817	147.580000
488.662476	147.140000
488.756226	146.360000
488.849945	145.240000
488.943604	145.280000
489.037354	144.860000
489.131012	145.440000
489.224731	145.300000
489.318390	145.280000
489.412140	145.040000
489.505798	144.700000
489.599518	144.240000
489.693207	144.680000
489.786926	144.480000
489.880585	144.520000
489.974335	145.080000
490.067993	146.180000
490.161713	146.340000
490.255371	147.340000
490.349121	147.240000
490.442780	147.000000
490.536499	146.200000
490.630188	146.100000
490.723907	145.320000
490.817566	145.540000
490.911285	145.480000
491.004974	145.420000
491.098694	145.000000
491.192413	145.780000
491.286102	145.580000
491.379822	145.920000
491.473480	146.120000
491.567200	146.020000
491.660889	145.120000
491.754608	145.100000
491.848267	144.640000
491.941986	144.520000
492.035675	144.780000
492.129395	145.380000
492.223053	145.300000
492.316772	145.620000
492.410461	145.560000
492.504181	145.480000
492.597839	145.180000
492.691559	145.180000
492.785248	145.200000
492.878967	145.100000
492.972626	145.180000
493.066345	145.340000
493.160034	144.840000
493.253754	144.680000
493.347412	144.580000
493.441132	144.460000
493.534882	144.780000
493.628540	145.640000
493.722260	145.640000
493.815918	145.800000
493.909668	146.500000
494.003326	146.500000
494.097046	146.200000
494.190704	146.060000
494.284454	146.340000
494.378113	145.780000
494.471832	145.600000
494.565491	145.320000
494.659210	145.400000
494.752899	145.440000
494.846619	145.360000
494.940277	145.640000
495.033997	145.780000
495.127686	145.660000
495.221405	145.020000
495.315063	145.320000
495.408783	145.120000
495.502441	145.620000
495.596191	145.960000
495.689850	145.940000
495.783569	146.140000
495.877228	146.240000
495.970947	145.600000
496.064697	145.460000
496.158356	146.460000
496.252075	146.160000
496.345734	146.080000
496.439453	146.980000
496.533142	146.760000
496.626862	146.880000
496.720520	147.040000
496.814240	147.060000
496.907898	146.440000
497.001617	146.800000
497.095306	145.700000
497.189026	145.280000
497.282684	145.320000
497.376404	145.600000
497.470062	145.140000
497.563782	145.720000
497.657471	145.700000
497.751190	145.020000
497.844849	144.840000
497.938568	145.120000
498.032227	144.700000
498.125946	144.940000
498.219635	145.060000
498.313354	145.200000
498.407074	145.120000
498.500732	145.320000
498.594452	145.460000
498.688110	145.480000
498.781830	144.800000
498.875519	144.820000
498.969238	144.600000
499.062897	144.320000
499.156616	144.920000
499.250275	145.600000
499.343994	145.120000
499.437653	145.700000
499.531372	146.080000
499.625061	146.040000
499.718781	146.140000
499.812439	146.960000
499.906158	146.400000
499.999817	146.020000
500.093536	145.800000
500.187195	145.520000
500.280914	144.860000
500.374573	145.060000
500.468323	144.900000
500.561981	145.080000
500.655701	144.900000
500.749420	145.040000
500.843079	145.220000
500.936798	145.520000
501.030457	145.760000
501.124176	146.020000
501.217834	146.160000
501.311554	146.140000
501.405212	145.860000
501.498962	145.100000
501.592621	145.000000
501.686340	145.260000
501.779999	145.600000
501.873718	145.940000
501.967377	146.080000
502.061096	146.200000
502.154755	145.660000
502.248474	145.060000
502.342133	145.240000
502.435852	145.620000
502.529510	146.160000
502.623230	147.200000
502.716888	147.260000
502.810608	147.040000
502.904266	147.180000
502.997986	146.660000
503.091705	145.380000
503.185364	145.280000
503.279083	145.040000
503.372772	144.560000
503.466492	144.360000
503.560150	144.800000
503.653870	145.040000
503.747528	145.060000
503.841248	144.960000
503.934906	145.060000
504.028625	144.580000
504.122284	144.860000
504.216003	145.200000
504.309662	144.960000
504.403381	145.280000
504.497040	145.760000
504.590759	145.400000
504.684418	145.440000
504.778137	146.140000
504.871796	146.300000
504.965515	146.080000
505.059174	146.060000
505.152893	145.580000
505.246521	144.900000
505.340240	144.060000
505.433899	144.380000
505.527618	144.400000
505.621338	144.800000
505.714996	144.720000
505.808716	144.980000
505.902374	145.380000
505.996094	145.560000
506.089752	145.380000
506.183472	145.840000
506.277130	145.960000
506.370850	145.780000
506.464508	145.500000
506.558228	145.660000
506.651886	145.420000
506.745605	145.620000
506.839264	145.460000
506.932983	145.620000
507.026611	145.320000
507.120331	145.860000
507.213989	145.440000
507.307709	145.700000
507.401367	146.400000
507.495087	147.260000
507.588745	146.840000
507.682465	147.680000
507.776123	147.320000
507.869843	146.800000
507.963531	146.620000
508.057190	146.960000
508.150909	145.920000
508.244568	146.140000
508.338287	145.520000
508.431946	144.900000
508.525665	144.440000
508.619324	144.600000
508.713013	144.260000
508.806671	144.980000
508.900391	145.900000
508.994049	146.320000
509.087769	146.220000
509.181427	146.680000
509.275146	146.320000
509.368774	145.280000
509.462494	145.020000
509.556152	145.160000
509.649872	145.220000
509.743530	145.560000
509.837250	146.120000
509.930878	146.220000
510.024597	145.900000
510.118256	145.540000
510.211975	145.360000
510.305695	144.960000
510.399353	145.100000
510.493042	145.780000
510.586700	145.900000
510.680420	146.320000
510.774078	146.440000
510.867798	146.540000
510.961426	145.960000
511.055145	146.100000
511.148804	145.720000
511.242523	146.260000
511.336151	146.060000
511.429871	146.420000
511.523529	146.160000
511.617249	145.900000
511.710876	145.120000
511.804596	144.560000
511.898254	144.420000
511.991974	144.620000
512.085632	144.320000
512.179321	144.800000
512.272949	145.440000
512.366699	145.860000
512.460327	145.840000
512.554077	147.000000
512.647766	146.740000
512.741394	146.740000
512.835144	146.980000
512.928772	146.660000
513.022461	146.220000
513.116150	146.100000
513.209839	146.460000
513.303467	145.960000
513.397217	145.820000
513.490845	145.760000
513.584595	145.660000
513.678223	145.200000
513.771912	144.800000
513.865601	145.220000
513.959290	144.740000
514.052917	144.940000
514.146667	145.720000
514.240295	146.240000
514.333984	146.380000
514.427673	146.680000
514.521362	147.040000
514.614990	145.960000
514.708740	145.940000
514.802368	145.780000
514.896057	145.880000
514.989746	146.300000
515.083435	146.340000
515.177124	146.600000
515.270752	146.520000
515.364502	146.100000
515.458130	145.840000
515.551819	145.920000
515.645508	145.620000
515.739197	145.880000
515.832825	146.180000
515.926575	145.600000
516.020203	145.980000
516.113892	146.600000
516.207520	146.220000
516.301270	146.560000
516.394897	147.060000
516.488586	147.300000
516.582275	147.000000
516.675964	146.380000
516.769592	146.020000
516.863281	146.480000
516.956970	146.580000
517.050659	146.180000
517.144287	146.780000
517.238037	146.660000
517.331665	145.640000
517.425354	145.100000
517.519043	145.260000
517.612732	145.440000
517.706421	145.380000
517.800049	145.380000
517.893738	145.180000
517.987427	145.060000
518.081116	145.040000
518.174744	144.720000
518.268433	145.140000
518.362122	145.940000
518.455811	146.220000
518.549438	146.560000
518.643127	147.980000
518.736816	147.640000
518.830505	147.040000
518.924133	146.500000
519.017822	146.580000
519.111511	145.700000
519.205200	146.280000
519.298828	146.140000
519.392517	146.160000
519.486206	146.160000
519.579895	146.220000
519.673523	145.880000
519.767212	146.060000
519.860901	146.680000
519.954590	146.100000
520.048279	145.900000
520.141907	145.680000
520.235596	146.480000
520.329224	146.380000
520.422974	146.780000
520.516602	146.720000
520.610291	146.620000
520.703918	145.940000
520.797607	145.260000
520.891296	145.000000
520.984985	145.160000
521.078613	145.720000
521.172302	145.500000
521.265930	146.460000
521.359680	146.860000
521.453308	146.840000
521.546997	146.440000
521.640625	146.440000
521.734314	145.820000
521.827942	145.660000
521.921692	145.860000
522.015320	145.960000
522.109009	145.520000
522.202698	145.380000
522.296326	145.340000
522.390015	145.340000
522.483704	145.140000
522.577393	145.520000
522.671021	145.720000
522.764709	145.380000
522.858337	145.640000
522.952026	145.720000
523.045654	146.100000
523.139404	146.880000
523.233032	147.120000
523.326721	146.700000
523.420349	146.880000
523.514038	146.480000
523.607666	146.160000
523.701355	145.880000
523.795044	145.800000
523.888733	145.700000
523.982361	145.980000
524.076050	145.360000
524.169678	145.960000
524.263367	145.760000
524.356995	145.660000
524.450684	145.340000
524.544373	145.520000
524.638062	145.120000
524.731750	145.620000
524.825378	145.380000
524.919067	145.360000
525.012695	145.200000
525.106384	144.880000
525.200012	144.760000
525.293701	144.820000
525.387329	145.340000
525.481018	145.600000
525.574646	146.080000
525.668396	146.040000
525.762024	146.620000
525.855713	146.560000
525.949341	146.420000
526.043030	146.120000
526.136658	145.900000
526.230347	145.580000
526.323975	145.180000
526.417664	145.080000
526.511292	145.320000
526.604980	145.540000
526.698608	145.520000
526.792297	145.600000
526.885925	145.640000
526.979614	145.800000
527.073303	145.680000
527.166931	145.660000
527.260620	145.700000
527.354309	146.420000
527.447998	146.040000
527.541626	145.900000
527.635315	146.260000
527.728943	147.020000
527.822632	146.500000
527.916260	146.620000
528.009949	146.840000
528.103577	146.360000
528.197266	145.560000
528.290894	145.620000
528.384583	145.500000
528.478210	145.720000
528.571899	146.040000
528.665527	146.200000
528.759216	146.380000
528.852844	146.600000
528.946533	146.260000
529.040161	146.140000
529.133850	146.000000
529.227478	145.740000
529.321167	146.060000
529.414856	146.660000
529.508484	147.220000
529.602173	146.860000
529.695801	146.940000
529.789490	146.740000
529.883057	146.080000
529.976746	146.000000
530.070374	146.580000
530.164062	146.640000
530.257690	146.740000
530.351379	147.020000
530.445007	146.760000
530.538696	146.240000
530.632324	146.620000
530.726013	146.760000
530.819641	146.960000
530.913330	146.720000
531.006958	147.020000
531.100647	146.580000
531.194275	146.260000
531.287964	145.700000
531.381592	145.540000
531.475220	145.560000
531.568848	145.580000
531.662537	145.160000
531.756226	145.800000
531.849854	145.980000
531.943542	145.760000
532.037170	145.120000
532.130859	145.860000
532.224487	145.400000
532.318176	145.120000
532.411804	145.860000
532.505432	146.520000
532.599060	145.760000
532.692749	145.620000
532.786377	146.160000
532.880066	145.280000
532.973694	144.820000
533.067383	145.080000
533.161011	145.480000
533.254639	145.420000
533.348267	145.720000
533.441956	146.000000
533.535583	145.960000
533.629272	145.840000
533.722900	145.180000
533.816589	144.920000
533.910156	145.160000
534.003845	144.900000
534.097534	145.140000
534.191162	145.720000
534.284851	146.080000
534.378479	145.540000
534.472107	145.980000
534.565735	145.700000
534.659424	145.700000
534.753052	145.860000
534.846741	145.620000
534.940369	146.200000
535.033997	146.040000
535.127625	146.000000
535.221313	146.560000
535.314941	146.780000
535.408630	145.880000
535.502197	146.340000
535.595886	146.060000
535.689514	145.240000
535.783203	146.080000
535.876831	146.520000
535.970459	146.340000
536.064087	146.280000
536.157776	146.200000
536.251404	146.120000
536.345093	145.920000
536.438721	145.780000
536.532349	145.980000
536.626038	145.900000
536.719666	145.800000
536.813293	145.560000
536.906921	145.640000
537.000610	146.120000
537.094238	146.240000
537.187866	145.960000
537.281494	145.840000
537.375183	145.880000
537.468811	145.360000
537.562439	145.280000
537.656067	145.280000
537.749756	145.720000
537.843384	146.200000
537.937012	146.300000
538.030640	146.500000
538.124329	146.460000
538.217896	146.760000
538.311584	146.660000
538.405212	146.580000
538.498901	146.600000
538.592468	147.340000
538.686157	146.660000
538.779785	145.760000
538.873413	145.840000
538.967102	145.580000
539.060730	144.780000
539.154358	145.240000
539.247986	145.700000
539.341675	145.600000
539.435242	145.720000
539.528931	145.940000
539.622559	145.540000
539.716187	146.080000
539.809814	145.940000
539.903503	145.840000
539.997070	145.640000
540.090759	145.700000
540.184387	145.180000
540.278015	145.960000
540.371643	146.240000
540.465332	146.220000
540.558899	146.260000
540.652588	146.180000
540.746216	145.320000
540.839844	145.700000
540.933472	145.800000
541.027100	145.760000
541.120728	145.980000
541.214417	146.180000
541.308044	145.980000
541.401672	145.760000
541.495300	145.420000
541.588928	145.180000
541.682617	145.120000
541.776184	144.500000
541.869873	144.760000
541.963440	145.360000
542.057129	145.280000
542.150757	145.520000
542.244385	145.540000
542.338013	145.000000
542.431641	144.680000
542.525269	144.800000
542.618958	144.920000
542.712524	145.360000
542.806213	145.740000
542.899780	145.880000
542.993469	145.400000
543.087036	145.320000
543.180725	144.800000
543.274292	144.980000
543.367981	145.300000
543.461548	145.660000
543.555237	145.420000
543.648926	146.100000
543.742493	146.240000
543.836182	145.740000
543.929749	146.300000
544.023437	146.380000
544.117004	146.160000
544.210693	146.280000
544.304260	146.340000
544.397949	145.760000
544.491516	145.900000
544.585205	145.660000
544.678772	144.980000
544.772461	145.580000
544.866028	145.400000
544.959717	145.460000
545.053284	145.240000
545.146973	145.640000
545.240540	145.580000
545.334229	146.460000
545.427795	146.220000
545.521423	146.560000
545.615051	146.800000
545.708679	146.960000
545.802307	146.600000
545.895935	147.160000
545.989624	147.880000
546.083191	147.680000
546.176880	147.220000
546.270447	146.940000
546.364136	146.920000
546.457703	146.520000
546.551331	146.220000
546.644958	146.460000
546.738586	146.920000
546.832214	146.320000
546.925842	146.000000
547.019409	146.360000
547.113098	145.760000
547.206665	145.180000
547.300354	145.480000
547.393921	145.660000
547.487549	145.820000
547.581177	145.840000
547.674805	145.900000
547.768433	145.200000
547.862061	145.260000
547.955627	144.420000
548.049316	145.260000
548.142883	145.500000
548.236572	146.080000
548.330139	146.120000
548.423767	146.400000
548.517456	145.820000
548.611023	146.060000
548.704651	145.480000
548.798279	145.260000
548.891907	145.900000
548.985474	145.960000
549.079163	145.720000
549.172729	145.680000
549.266357	145.340000
549.359985	144.760000
549.453613	144.200000
549.547180	143.980000
549.640869	144.920000
549.734436	144.960000
549.828064	145.840000
549.921631	146.000000
550.015320	145.820000
550.108887	145.940000
550.202515	146.140000
550.296143	145.360000
550.389771	145.680000
550.483337	145.920000
550.576965	145.440000
550.670593	145.820000
550.764221	146.080000
550.857849	146.040000
550.951477	145.600000
551.045105	145.320000
551.138672	145.240000
551.232300	144.860000
551.325928	145.020000
551.419556	145.600000
551.513123	145.760000
551.606750	145.400000
551.700378	145.220000
551.794006	145.200000
551.887573	144.780000
551.981201	145.220000
552.074768	145.200000
552.168457	145.060000
552.262024	145.740000
552.355652	145.900000
552.449219	146.100000
552.542847	146.320000
552.636475	146.520000
552.730103	145.340000
552.823669	145.420000
552.917297	144.720000
553.010864	144.660000
553.104553	144.940000
553.198181	145.140000
553.291748	145.440000
553.385376	146.020000
553.478943	145.840000
553.572571	145.720000
553.666199	145.960000
553.759827	145.540000
553.853394	144.760000
553.947021	144.900000
554.040588	145.020000
554.134216	144.980000
554.227783	145.860000
554.321411	146.800000
554.415039	146.380000
554.508667	146.360000
554.602234	146.760000
554.695862	145.800000
554.789429	145.440000
554.883057	145.620000
554.976624	145.440000
555.070251	145.100000
555.163818	145.040000
555.257507	144.800000
555.351074	144.980000
555.444702	146.060000
555.538330	145.700000
555.631897	146.320000
555.725525	146.680000
555.819092	146.380000
555.912720	144.980000
556.006287	145.700000
556.099915	145.600000
556.193481	145.500000
556.287109	146.180000
556.380676	146.460000
556.474304	146.100000
556.567871	146.220000
556.661499	145.540000
556.755066	145.320000
556.848694	145.780000
556.942261	145.620000
557.035889	145.720000
557.129517	146.460000
557.223145	146.540000
557.316711	146.560000
557.410339	147.000000
557.503906	146.580000
557.597473	146.800000
557.691040	146.600000
557.784668	146.320000
557.878296	145.920000
557.971863	146.100000
558.065491	145.880000
558.159058	145.800000
558.252686	146.540000
558.346252	147.460000
558.439880	146.880000
558.533447	146.560000
558.627075	146.140000
558.720642	145.720000
558.814270	145.120000
558.907837	145.280000
559.001465	145.120000
559.095032	146.120000
559.188660	146.080000
559.282227	145.440000
559.375854	146.080000
559.469360	145.780000
559.562988	145.860000
559.656555	145.840000
559.750183	146.500000
559.843750	146.620000
559.937378	147.160000
560.030945	146.820000
560.124573	0.000000
560.218140	0.000000
560.311707	0.000000
560.405334	0.000000
560.498901	0.000000
560.592529	0.000000
560.686096	0.000000
560.779724	0.000000
560.873291	0.000000
560.966858	0.000000
561.060425	0.000000
561.154053	0.000000
561.247620	0.000000
561.341248	0.000000
561.434814	0.000000
561.528381	0.000000
561.621948	0.000000
561.715576	0.000000
561.809143	0.000000
561.902771	0.000000
561.996277	0.000000
562.089905	0.000000
562.183472	0.000000
562.277100	0.000000
