Model Number: SPM-002-B   
Serial Number: 70087108
Firmware Version: 004.15.4
Exposure Time: 100000.000000us
Data Taken on: 11-12-2020 18:46:02.712
Wavelength	Amplitude
221.570786	0.000000
221.663406	0.000000
221.756027	0.000000
221.848648	0.000000
221.941269	0.000000
222.033905	0.000000
222.126526	0.000000
222.219162	0.000000
222.311798	0.000000
222.404419	0.000000
222.497055	0.000000
222.589676	0.000000
222.682312	0.000000
222.774933	0.000000
222.867569	0.000000
222.960205	0.000000
223.052841	0.000000
223.145462	0.000000
223.238098	0.000000
223.330734	0.000000
223.423386	0.000000
223.516022	0.000000
223.608658	0.000000
223.701309	0.000000
223.793945	0.000000
223.886581	0.000000
223.979218	0.000000
224.071869	0.000000
224.164505	0.000000
224.257156	0.000000
224.349792	0.000000
224.442444	0.000000
224.535095	0.000000
224.627747	0.000000
224.720398	0.000000
224.813034	0.000000
224.905685	0.000000
224.998337	145.780000
225.090988	145.680000
225.183640	145.320000
225.276291	145.240000
225.368942	145.560000
225.461594	146.160000
225.554245	146.360000
225.646912	146.480000
225.739578	146.740000
225.832230	147.160000
225.924896	145.960000
226.017548	146.500000
226.110199	146.960000
226.202866	146.200000
226.295532	146.020000
226.388184	146.580000
226.480850	145.580000
226.573517	145.020000
226.666168	145.420000
226.758835	145.540000
226.851501	145.980000
226.944183	146.360000
227.036850	146.200000
227.129517	146.400000
227.222183	146.600000
227.314850	146.360000
227.407516	146.520000
227.500198	146.920000
227.592865	146.540000
227.685532	146.180000
227.778214	145.640000
227.870880	145.900000
227.963562	146.340000
228.056229	146.660000
228.148926	146.440000
228.241592	147.440000
228.334274	147.160000
228.426956	146.860000
228.519638	146.980000
228.612305	146.860000
228.704987	146.800000
228.797668	146.660000
228.890350	146.440000
228.983032	145.900000
229.075714	146.640000
229.168396	146.140000
229.261108	145.820000
229.353790	145.660000
229.446472	145.800000
229.539169	145.560000
229.631851	145.460000
229.724533	145.900000
229.817230	146.160000
229.909912	147.220000
230.002609	147.080000
230.095306	147.120000
230.187988	147.020000
230.280685	146.980000
230.373383	145.740000
230.466095	145.700000
230.558792	145.940000
230.651474	146.200000
230.744171	145.860000
230.836868	145.820000
230.929581	146.220000
231.022278	145.900000
231.114975	145.660000
231.207672	145.760000
231.300369	146.320000
231.393082	146.220000
231.485779	146.300000
231.578506	146.220000
231.671204	146.460000
231.763916	146.260000
231.856613	145.880000
231.949326	146.100000
232.042023	145.980000
232.134735	145.700000
232.227448	145.320000
232.320160	145.680000
232.412872	145.600000
232.505585	146.440000
232.598297	147.080000
232.691010	147.400000
232.783722	146.720000
232.876450	147.100000
232.969162	146.420000
233.061874	145.600000
233.154587	145.180000
233.247314	145.660000
233.340027	145.160000
233.432739	145.600000
233.525467	145.480000
233.618179	145.980000
233.710907	145.840000
233.803635	146.180000
233.896347	145.880000
233.989090	146.980000
234.081818	146.900000
234.174545	147.040000
234.267258	146.580000
234.359985	146.700000
234.452713	146.140000
234.545441	146.100000
234.638168	145.880000
234.730896	146.420000
234.823639	146.420000
234.916367	146.620000
235.009094	146.800000
235.101822	146.980000
235.194580	146.800000
235.287308	146.580000
235.380051	146.300000
235.472778	146.480000
235.565521	146.620000
235.658249	146.100000
235.750992	146.260000
235.843719	146.280000
235.936462	146.280000
236.029205	145.960000
236.121948	146.140000
236.214691	146.220000
236.307449	146.840000
236.400192	146.400000
236.492935	146.560000
236.585678	146.880000
236.678421	147.000000
236.771164	146.840000
236.863907	147.460000
236.956665	147.560000
237.049408	148.960000
237.142151	148.300000
237.234909	148.600000
237.327652	148.220000
237.420410	148.080000
237.513153	146.940000
237.605927	147.040000
237.698669	146.520000
237.791428	146.220000
237.884186	146.420000
237.976944	145.720000
238.069702	146.040000
238.162445	145.420000
238.255203	145.340000
238.347961	145.540000
238.440720	146.020000
238.533478	145.860000
238.626266	145.940000
238.719025	146.220000
238.811783	146.000000
238.904541	145.520000
238.997314	145.640000
239.090073	145.800000
239.182831	146.060000
239.275604	146.700000
239.368362	147.060000
239.461136	147.180000
239.553909	147.220000
239.646667	147.000000
239.739441	146.320000
239.832214	146.140000
239.925003	145.900000
240.017761	146.320000
240.110535	146.800000
240.203308	146.700000
240.296082	147.040000
240.388855	147.280000
240.481628	147.180000
240.574417	146.940000
240.667191	147.080000
240.759964	146.760000
240.852737	146.400000
240.945526	146.140000
241.038315	146.020000
241.131088	146.120000
241.223877	146.260000
241.316650	145.880000
241.409439	146.320000
241.502228	145.860000
241.595001	146.080000
241.687790	145.940000
241.780579	146.500000
241.873367	146.400000
241.966141	146.800000
242.058929	146.320000
242.151718	146.380000
242.244507	146.540000
242.337311	145.700000
242.430099	146.040000
242.522903	146.440000
242.615692	146.320000
242.708481	146.320000
242.801270	146.980000
242.894073	146.700000
242.986862	146.560000
243.079651	147.080000
243.172455	146.760000
243.265244	146.920000
243.358063	146.620000
243.450867	146.800000
243.543655	146.380000
243.636459	146.540000
243.729263	146.780000
243.822067	147.220000
243.914856	147.320000
244.007660	147.500000
244.100464	147.280000
244.193268	146.600000
244.286072	146.300000
244.378876	145.860000
244.471680	145.580000
244.564499	146.120000
244.657318	146.960000
244.750122	147.220000
244.842926	146.680000
244.935745	147.180000
245.028549	146.720000
245.121368	146.100000
245.214172	145.600000
245.306992	146.540000
245.399796	146.040000
245.492615	146.340000
245.585434	146.000000
245.678253	146.260000
245.771072	145.860000
245.863892	146.240000
245.956711	146.280000
246.049530	146.480000
246.142349	146.280000
246.235168	146.380000
246.327988	146.800000
246.420807	146.480000
246.513626	146.720000
246.606445	146.600000
246.699280	146.160000
246.792099	145.300000
246.884918	145.360000
246.977753	144.680000
247.070587	144.840000
247.163422	145.000000
247.256241	145.240000
247.349075	145.440000
247.441895	146.020000
247.534729	145.940000
247.627563	146.000000
247.720383	146.600000
247.813217	146.260000
247.906052	145.800000
247.998886	145.960000
248.091736	145.920000
248.184570	145.380000
248.277405	145.500000
248.370239	146.520000
248.463074	147.420000
248.555908	147.660000
248.648743	147.580000
248.741592	147.800000
248.834427	147.240000
248.927261	145.880000
249.020111	146.100000
249.112946	146.900000
249.205795	146.380000
249.298630	146.380000
249.391495	146.820000
249.484344	146.300000
249.577179	145.540000
249.670029	145.820000
249.762878	146.420000
249.855728	146.760000
249.948563	146.900000
250.041412	146.580000
250.134262	146.780000
250.227112	146.280000
250.319962	146.180000
250.412827	146.120000
250.505692	145.960000
250.598541	145.740000
250.691391	145.700000
250.784241	145.780000
250.877106	145.780000
250.969955	146.080000
251.062805	146.740000
251.155670	147.220000
251.248520	146.920000
251.341385	147.260000
251.434235	147.120000
251.527100	146.580000
251.619965	145.900000
251.712814	146.600000
251.805695	146.640000
251.898560	146.920000
251.991425	147.160000
252.084290	147.500000
252.177155	146.520000
252.270020	146.340000
252.362885	146.280000
252.455750	146.360000
252.548615	146.100000
252.641479	146.060000
252.734360	145.940000
252.827240	145.760000
252.920105	145.580000
253.012970	145.400000
253.105850	145.620000
253.198715	145.520000
253.291595	145.880000
253.384460	145.620000
253.477341	145.680000
253.570221	146.080000
253.663086	145.780000
253.755966	146.140000
253.848846	146.100000
253.941727	146.560000
254.034592	146.420000
254.127472	146.180000
254.220367	145.840000
254.313248	145.980000
254.406128	145.240000
254.499008	145.320000
254.591904	146.520000
254.684784	147.100000
254.777664	147.140000
254.870544	147.140000
254.963440	147.000000
255.056335	146.620000
255.149216	145.840000
255.242111	146.480000
255.334991	146.920000
255.427887	146.980000
255.520767	146.860000
255.613663	147.140000
255.706558	146.320000
255.799438	146.180000
255.892334	145.800000
255.985229	145.680000
256.078125	145.500000
256.171021	145.640000
256.263916	146.040000
256.356812	146.440000
256.449707	146.740000
256.542603	146.420000
256.635498	146.760000
256.728394	146.360000
256.821289	146.240000
256.914215	146.300000
257.007080	146.740000
257.100006	146.960000
257.192932	147.480000
257.285828	147.640000
257.378723	147.320000
257.471619	147.120000
257.564545	146.480000
257.657440	146.520000
257.750336	146.800000
257.843262	146.400000
257.936157	147.420000
258.029053	147.720000
258.121979	147.380000
258.214874	146.780000
258.307800	147.160000
258.400696	145.920000
258.493622	146.000000
258.586517	145.320000
258.679443	145.800000
258.772339	145.600000
258.865265	145.860000
258.958160	145.320000
259.051086	146.280000
259.144012	146.020000
259.236938	146.900000
259.329834	147.020000
259.422791	147.080000
259.515717	146.600000
259.608612	146.500000
259.701538	146.060000
259.794464	145.760000
259.887390	145.780000
259.980316	145.440000
260.073212	145.100000
260.166138	144.360000
260.259064	144.780000
260.351990	145.520000
260.444916	145.860000
260.537842	146.500000
260.630768	147.060000
260.723694	146.680000
260.816620	146.160000
260.909546	145.900000
261.002472	145.500000
261.095398	145.360000
261.188354	145.540000
261.281281	145.260000
261.374207	145.460000
261.467133	146.060000
261.560089	146.460000
261.653015	146.400000
261.745972	147.220000
261.838867	147.740000
261.931824	147.880000
262.024780	147.260000
262.117706	147.160000
262.210663	146.960000
262.303589	146.880000
262.396515	146.960000
262.489471	147.860000
262.582397	148.040000
262.675354	147.620000
262.768280	147.640000
262.861237	147.220000
262.954163	147.000000
263.047119	147.240000
263.140045	146.740000
263.233002	146.340000
263.325958	146.100000
263.418884	145.360000
263.511841	145.180000
263.604797	145.340000
263.697723	145.440000
263.790680	145.860000
263.883636	146.520000
263.976593	146.340000
264.069550	146.640000
264.162476	146.340000
264.255463	145.880000
264.348419	145.740000
264.441376	146.060000
264.534332	145.800000
264.627289	146.220000
264.720245	146.700000
264.813202	146.300000
264.906158	146.100000
264.999115	146.600000
265.092072	146.420000
265.185028	146.740000
265.277985	147.000000
265.370941	146.760000
265.463898	146.780000
265.556854	146.620000
265.649811	145.800000
265.742798	145.800000
265.835754	146.060000
265.928711	146.120000
266.021667	146.440000
266.114655	146.640000
266.207611	146.880000
266.300568	146.160000
266.393585	145.820000
266.486511	145.740000
266.579498	145.200000
266.672485	145.160000
266.765442	145.400000
266.858429	145.820000
266.951385	145.500000
267.044342	145.840000
267.137329	145.640000
267.230316	146.080000
267.323273	145.560000
267.416260	146.260000
267.509216	146.340000
267.602203	146.300000
267.695160	146.860000
267.788147	147.100000
267.881134	146.340000
267.974091	146.340000
268.067078	146.360000
268.160065	145.680000
268.253052	145.640000
268.346008	145.860000
268.438995	145.700000
268.531982	145.900000
268.624969	145.820000
268.717987	146.040000
268.810944	146.040000
268.903961	146.300000
268.996948	145.780000
269.089905	146.280000
269.182892	146.240000
269.275879	146.740000
269.368866	145.900000
269.461853	146.300000
269.554871	146.180000
269.647858	146.100000
269.740845	146.200000
269.833832	147.120000
269.926819	146.840000
270.019806	146.980000
270.112793	146.740000
270.205811	146.640000
270.298798	146.300000
270.391785	147.060000
270.484772	146.700000
270.577789	146.620000
270.670776	146.020000
270.763763	146.120000
270.856750	145.660000
270.949768	145.460000
271.042786	145.540000
271.135773	145.820000
271.228790	145.880000
271.321808	145.900000
271.414795	145.840000
271.507782	145.800000
271.600800	145.640000
271.693817	145.660000
271.786804	145.860000
271.879822	145.960000
271.972809	145.840000
272.065826	146.340000
272.158844	146.160000
272.251831	146.540000
272.344849	146.780000
272.437866	146.820000
272.530853	146.580000
272.623871	146.740000
272.716888	145.660000
272.809906	145.880000
272.902893	145.860000
272.995911	145.320000
273.088928	145.140000
273.181946	145.680000
273.274963	145.260000
273.367981	145.360000
273.460999	145.920000
273.554047	146.520000
273.647003	146.760000
273.740051	146.700000
273.833069	146.880000
273.926086	147.040000
274.019135	146.580000
274.112152	146.160000
274.205170	146.400000
274.298187	146.860000
274.391205	146.360000
274.484222	146.500000
274.577240	146.480000
274.670258	146.360000
274.763306	146.080000
274.856323	146.200000
274.949341	146.320000
275.042358	146.880000
275.135406	146.780000
275.228424	146.500000
275.321442	146.640000
275.414490	146.360000
275.507507	146.500000
275.600525	147.080000
275.693573	146.800000
275.786591	146.600000
275.879669	146.600000
275.972656	146.040000
276.065735	145.960000
276.158752	146.380000
276.251801	147.140000
276.344818	147.260000
276.437866	147.460000
276.530884	147.060000
276.623932	146.760000
276.716980	146.440000
276.809998	146.460000
276.903046	146.440000
276.996094	146.900000
277.089111	147.600000
277.182159	147.980000
277.275208	147.720000
277.368256	147.460000
277.461304	147.100000
277.554321	146.120000
277.647369	145.640000
277.740417	145.600000
277.833466	145.600000
277.926514	145.360000
278.019562	146.360000
278.112610	145.780000
278.205688	146.200000
278.298706	146.440000
278.391785	146.360000
278.484833	145.720000
278.577881	145.980000
278.670929	146.240000
278.763977	146.200000
278.857025	147.040000
278.950073	146.800000
279.043121	146.580000
279.136169	146.400000
279.229248	146.200000
279.322296	145.840000
279.415344	145.840000
279.508392	145.880000
279.601440	145.680000
279.694519	145.620000
279.787567	145.560000
279.880615	145.420000
279.973694	145.560000
280.066742	145.460000
280.159790	145.740000
280.252869	145.420000
280.345917	146.140000
280.438995	146.180000
280.532074	146.220000
280.625122	146.220000
280.718201	147.180000
280.811279	146.980000
280.904327	146.920000
280.997406	147.000000
281.090454	147.120000
281.183533	146.200000
281.276581	146.040000
281.369659	146.060000
281.462738	146.220000
281.555786	146.280000
281.648865	146.380000
281.741943	146.280000
281.835022	146.640000
281.928070	146.240000
282.021149	145.860000
282.114227	146.060000
282.207306	146.460000
282.300385	146.580000
282.393433	146.880000
282.486511	147.100000
282.579590	147.260000
282.672668	147.140000
282.765747	146.600000
282.858856	146.300000
282.951904	146.300000
283.045013	146.120000
283.138062	146.420000
283.231171	146.780000
283.324249	147.440000
283.417328	147.340000
283.510406	147.120000
283.603485	147.000000
283.696564	146.880000
283.789642	146.500000
283.882751	146.480000
283.975830	147.220000
284.068909	146.680000
284.161987	147.080000
284.255066	146.600000
284.348175	146.760000
284.441254	146.500000
284.534332	147.060000
284.627441	146.500000
284.720520	146.520000
284.813599	146.360000
284.906708	146.060000
284.999786	145.360000
285.092896	145.200000
285.185974	146.200000
285.279053	145.740000
285.372192	145.940000
285.465240	146.660000
285.558380	146.900000
285.651459	146.320000
285.744568	147.320000
285.837677	147.060000
285.930756	146.800000
286.023865	146.880000
286.116943	146.620000
286.210052	146.300000
286.303162	146.100000
286.396240	146.160000
286.489349	145.940000
286.582458	146.280000
286.675568	145.660000
286.768646	145.900000
286.861755	146.180000
286.954865	146.840000
287.047974	146.540000
287.141083	146.840000
287.234161	146.660000
287.327271	146.320000
287.420380	146.460000
287.513519	146.200000
287.606598	146.260000
287.699738	146.400000
287.792816	146.280000
287.885956	145.980000
287.979034	146.180000
288.072174	146.540000
288.165283	146.540000
288.258392	146.940000
288.351501	146.500000
288.444611	146.900000
288.537720	147.160000
288.630859	147.000000
288.723969	146.880000
288.817078	147.320000
288.910187	146.980000
289.003296	146.120000
289.096436	145.780000
289.189545	145.840000
289.282654	145.200000
289.375763	145.640000
289.468903	146.160000
289.562012	146.780000
289.655121	146.540000
289.748260	146.940000
289.841400	147.020000
289.934509	146.880000
290.027649	146.860000
290.120728	146.440000
290.213898	146.140000
290.306976	145.920000
290.400146	145.980000
290.493256	145.660000
290.586395	146.040000
290.679535	146.480000
290.772644	146.260000
290.865784	145.520000
290.958893	145.520000
291.052032	145.660000
291.145172	145.600000
291.238281	145.460000
291.331421	145.940000
291.424561	146.400000
291.517670	146.100000
291.610809	146.180000
291.703949	146.180000
291.797089	146.340000
291.890228	145.960000
291.983337	146.000000
292.076477	145.760000
292.169617	146.040000
292.262756	145.920000
292.355927	145.520000
292.449036	145.200000
292.542206	145.320000
292.635315	145.220000
292.728485	145.600000
292.821625	145.700000
292.914764	146.940000
293.007904	146.700000
293.101044	146.720000
293.194183	146.360000
293.287323	146.680000
293.380463	146.000000
293.473602	145.940000
293.566742	146.220000
293.659882	146.740000
293.753021	147.160000
293.846191	146.980000
293.939331	146.880000
294.032471	146.700000
294.125610	146.420000
294.218781	146.400000
294.311920	147.180000
294.405060	147.460000
294.498230	147.420000
294.591370	147.440000
294.684540	146.700000
294.777679	145.740000
294.870850	146.160000
294.963959	146.020000
295.057159	145.580000
295.150299	146.080000
295.243469	146.140000
295.336609	145.320000
295.429779	145.380000
295.522919	145.900000
295.616089	146.100000
295.709229	146.920000
295.802399	147.280000
295.895569	147.000000
295.988708	146.640000
296.081879	146.660000
296.175018	145.860000
296.268188	145.840000
296.361359	146.060000
296.454529	146.220000
296.547668	145.900000
296.640839	146.060000
296.734009	145.940000
296.827179	146.260000
296.920319	146.600000
297.013519	146.420000
297.106659	146.600000
297.199860	146.680000
297.292999	146.660000
297.386200	146.260000
297.479309	146.360000
297.572510	146.320000
297.665680	145.880000
297.758850	145.780000
297.852020	145.720000
297.945190	145.600000
298.038361	145.260000
298.131531	146.360000
298.224701	146.180000
298.317871	146.020000
298.411072	145.740000
298.504242	145.780000
298.597412	145.100000
298.690582	145.300000
298.783752	145.440000
298.876923	146.120000
298.970093	146.320000
299.063293	146.860000
299.156464	147.280000
299.249634	147.300000
299.342834	147.140000
299.436005	147.480000
299.529205	147.120000
299.622345	146.860000
299.715576	146.680000
299.808716	146.320000
299.901917	146.000000
299.995117	146.340000
300.088287	146.400000
300.181488	146.200000
300.274658	146.280000
300.367828	146.360000
300.461029	146.020000
300.554199	145.860000
300.647400	146.200000
300.740601	146.780000
300.833771	146.540000
300.926971	146.800000
301.020142	146.540000
301.113342	146.500000
301.206512	146.220000
301.299713	146.760000
301.392914	146.660000
301.486084	147.100000
301.579285	146.820000
301.672516	147.400000
301.765686	147.180000
301.858887	146.920000
301.952057	146.700000
302.045288	147.020000
302.138458	146.500000
302.231659	146.180000
302.324860	145.920000
302.418060	145.840000
302.511261	145.900000
302.604462	145.840000
302.697662	145.680000
302.790863	145.960000
302.884064	145.760000
302.977264	145.500000
303.070465	145.740000
303.163666	146.700000
303.256866	147.160000
303.350067	147.060000
303.443268	147.140000
303.536469	147.240000
303.629669	146.580000
303.722870	146.540000
303.816071	146.620000
303.909271	146.600000
304.002472	145.860000
304.095673	145.840000
304.188934	144.760000
304.282104	145.760000
304.375336	145.940000
304.468506	146.020000
304.561768	145.760000
304.654968	146.640000
304.748169	145.580000
304.841370	145.440000
304.934601	146.100000
305.027802	145.860000
305.121002	145.620000
305.214233	145.840000
305.307434	145.740000
305.400665	146.340000
305.493866	146.720000
305.587097	146.980000
305.680298	146.820000
305.773499	147.320000
305.866730	146.420000
305.959930	146.880000
306.053162	147.160000
306.146393	146.960000
306.239594	145.940000
306.332825	145.960000
306.426025	146.000000
306.519287	145.620000
306.612488	145.980000
306.705719	146.500000
306.798920	146.560000
306.892181	145.880000
306.985352	145.280000
307.078613	144.660000
307.171844	145.040000
307.265045	144.340000
307.358276	144.180000
307.451508	145.060000
307.544739	146.060000
307.637970	145.620000
307.731201	145.900000
307.824402	146.540000
307.917633	146.560000
308.010864	146.660000
308.104095	146.980000
308.197327	147.580000
308.290558	147.700000
308.383789	147.080000
308.477020	146.340000
308.570251	145.540000
308.663483	144.900000
308.756714	144.600000
308.849976	144.780000
308.943176	145.260000
309.036438	145.360000
309.129639	145.080000
309.222900	145.020000
309.316101	144.920000
309.409393	144.560000
309.502625	144.560000
309.595856	144.780000
309.689087	144.800000
309.782318	145.040000
309.875580	145.100000
309.968811	145.560000
310.062042	145.620000
310.155273	145.600000
310.248535	145.960000
310.341766	146.160000
310.434998	146.180000
310.528259	146.280000
310.621490	146.560000
310.714722	145.800000
310.807983	145.580000
310.901215	145.540000
310.994476	145.820000
311.087708	145.440000
311.181000	145.680000
311.274200	145.300000
311.367462	145.360000
311.460693	145.100000
311.553986	145.840000
311.647186	146.260000
311.740479	147.200000
311.833710	146.800000
311.926971	146.900000
312.020203	146.220000
312.113464	145.940000
312.206726	145.100000
312.299957	145.420000
312.393219	145.900000
312.486481	145.900000
312.579712	145.660000
312.672974	145.860000
312.766235	145.920000
312.859497	145.520000
312.952759	145.560000
313.045990	146.320000
313.139252	146.140000
313.232513	146.160000
313.325775	146.380000
313.419037	146.100000
313.512299	145.320000
313.605530	145.980000
313.698822	145.980000
313.792053	145.600000
313.885345	145.460000
313.978577	145.640000
314.071869	144.900000
314.165131	145.100000
314.258392	145.460000
314.351654	145.680000
314.444916	145.420000
314.538177	146.160000
314.631439	146.520000
314.724701	146.400000
314.817993	146.540000
314.911255	146.960000
315.004517	146.220000
315.097778	145.720000
315.191040	146.120000
315.284302	146.400000
315.377594	146.180000
315.470856	146.580000
315.564117	146.000000
315.657379	145.440000
315.750671	144.980000
315.843933	145.020000
315.937195	144.580000
316.030518	144.720000
316.123749	144.500000
316.217041	145.500000
316.310303	145.460000
316.403595	145.740000
316.496857	146.220000
316.590149	146.820000
316.683411	145.860000
316.776703	145.820000
316.869965	145.880000
316.963257	145.680000
317.056519	144.840000
317.149811	144.860000
317.243073	144.640000
317.336365	144.660000
317.429626	145.020000
317.522919	145.900000
317.616180	146.080000
317.709473	146.000000
317.802765	146.160000
317.896027	146.000000
317.989319	146.120000
318.082611	145.940000
318.175873	145.960000
318.269165	145.920000
318.362488	145.600000
318.455750	145.240000
318.549042	145.740000
318.642303	146.660000
318.735626	146.160000
318.828888	146.580000
318.922211	146.060000
319.015472	146.480000
319.108765	145.320000
319.202057	145.380000
319.295349	145.300000
319.388641	145.340000
319.481934	144.700000
319.575226	145.000000
319.668518	145.520000
319.761810	145.740000
319.855103	146.080000
319.948395	145.940000
320.041687	146.000000
320.134979	145.880000
320.228271	145.400000
320.321564	145.060000
320.414856	145.140000
320.508148	144.900000
320.601440	144.660000
320.694763	144.640000
320.788025	145.800000
320.881348	146.020000
320.974640	146.140000
321.067963	145.800000
321.161224	145.980000
321.254547	145.060000
321.347839	145.540000
321.441162	145.480000
321.534454	145.940000
321.627747	145.700000
321.721069	146.540000
321.814362	146.340000
321.907654	146.580000
322.000946	146.400000
322.094269	146.960000
322.187561	146.200000
322.280884	146.500000
322.374176	146.640000
322.467468	146.940000
322.560791	146.940000
322.654083	147.380000
322.747406	147.140000
322.840698	147.520000
322.934021	147.680000
323.027344	147.800000
323.120636	147.520000
323.213959	147.320000
323.307251	146.460000
323.400574	146.620000
323.493866	146.000000
323.587219	146.140000
323.680511	146.380000
323.773834	146.620000
323.867157	146.260000
323.960449	146.840000
324.053772	146.640000
324.147095	146.480000
324.240387	146.920000
324.333710	147.140000
324.427032	146.960000
324.520355	146.740000
324.613647	146.260000
324.706970	146.040000
324.800293	145.880000
324.893616	146.280000
324.986938	146.780000
325.080231	146.560000
325.173553	147.000000
325.266876	147.480000
325.360199	147.320000
325.453522	146.640000
325.546875	146.840000
325.640167	146.360000
325.733521	146.300000
325.826813	146.240000
325.920166	146.280000
326.013489	146.320000
326.106812	145.840000
326.200134	145.100000
326.293457	144.600000
326.386780	144.860000
326.480103	144.780000
326.573425	144.860000
326.666748	145.380000
326.760071	145.760000
326.853424	145.900000
326.946747	146.120000
327.040070	146.940000
327.133392	146.500000
327.226715	146.040000
327.320068	145.660000
327.413391	146.200000
327.506714	145.600000
327.600037	145.580000
327.693390	145.760000
327.786713	146.180000
327.880066	145.520000
327.973358	145.880000
328.066742	146.140000
328.160034	146.220000
328.253418	146.180000
328.346710	146.020000
328.440063	145.560000
328.533417	145.340000
328.626740	145.700000
328.720093	145.440000
328.813416	145.740000
328.906769	145.860000
329.000092	146.120000
329.093445	146.040000
329.186768	145.860000
329.280121	146.220000
329.373444	146.580000
329.466797	146.460000
329.560120	146.180000
329.653473	146.620000
329.746796	146.060000
329.840149	145.760000
329.933502	145.780000
330.026825	145.740000
330.120178	145.440000
330.213562	145.300000
330.306854	145.520000
330.400238	145.600000
330.493561	145.180000
330.586945	146.040000
330.680237	146.540000
330.773621	146.400000
330.866974	146.620000
330.960327	147.180000
331.053680	146.480000
331.147003	146.560000
331.240356	146.960000
331.333710	146.740000
331.427063	146.340000
331.520416	146.400000
331.613770	146.280000
331.707123	146.000000
331.800476	146.120000
331.893829	147.100000
331.987152	147.080000
332.080505	146.760000
332.173859	146.620000
332.267212	146.100000
332.360565	145.500000
332.453918	145.080000
332.547333	145.080000
332.640656	145.300000
332.734039	145.600000
332.827362	145.400000
332.920746	146.080000
333.014069	146.380000
333.107452	146.460000
333.200806	146.700000
333.294159	146.940000
333.387543	146.360000
333.480896	146.000000
333.574249	145.720000
333.667603	145.120000
333.760956	145.320000
333.854340	145.440000
333.947693	145.620000
334.041046	145.780000
334.134430	146.380000
334.227783	145.860000
334.321136	145.820000
334.414520	145.580000
334.507874	145.640000
334.601227	145.540000
334.694611	145.700000
334.787964	145.880000
334.881348	146.360000
334.974701	146.020000
335.068085	145.740000
335.161438	146.080000
335.254822	146.200000
335.348175	145.960000
335.441559	146.040000
335.534943	146.760000
335.628296	146.440000
335.721680	146.300000
335.815033	146.680000
335.908417	146.820000
336.001770	146.360000
336.095154	146.140000
336.188538	146.160000
336.281891	145.680000
336.375275	145.340000
336.468658	145.240000
336.562012	145.280000
336.655396	145.520000
336.748779	145.900000
336.842133	146.220000
336.935516	146.440000
337.028900	146.380000
337.122284	145.840000
337.215637	145.900000
337.309021	145.800000
337.402435	145.400000
337.495789	145.480000
337.589203	145.520000
337.682526	145.140000
337.775940	145.420000
337.869324	145.580000
337.962708	145.420000
338.056091	146.080000
338.149475	145.580000
338.242859	145.580000
338.336243	145.460000
338.429626	145.880000
338.523010	145.840000
338.616394	146.200000
338.709778	146.180000
338.803162	146.400000
338.896545	146.280000
338.989929	145.560000
339.083313	145.920000
339.176697	145.540000
339.270081	145.420000
339.363464	145.800000
339.456848	146.420000
339.550232	145.560000
339.643616	145.460000
339.737030	145.340000
339.830383	144.760000
339.923828	144.780000
340.017181	145.420000
340.110596	145.620000
340.203949	145.800000
340.297363	145.700000
340.390778	145.460000
340.484161	145.100000
340.577545	145.040000
340.670959	144.820000
340.764343	144.880000
340.857727	144.980000
340.951111	144.720000
341.044525	144.980000
341.137909	144.940000
341.231293	145.080000
341.324707	144.800000
341.418091	145.920000
341.511505	145.880000
341.604889	146.300000
341.698303	146.520000
341.791687	146.660000
341.885071	145.780000
341.978485	145.580000
342.071899	145.560000
342.165283	145.760000
342.258698	146.000000
342.352081	146.520000
342.445496	147.120000
342.538879	146.760000
342.632324	146.340000
342.725708	146.040000
342.819122	145.740000
342.912506	145.140000
343.005920	145.320000
343.099335	146.160000
343.192719	146.080000
343.286133	146.000000
343.379547	146.300000
343.472931	146.540000
343.566345	145.880000
343.659760	146.160000
343.753143	146.020000
343.846558	145.580000
343.939972	145.280000
344.033386	145.600000
344.126770	145.500000
344.220184	145.740000
344.313599	146.440000
344.407043	146.620000
344.500427	146.040000
344.593872	146.540000
344.687225	146.480000
344.780670	146.120000
344.874054	145.900000
344.967499	146.620000
345.060913	146.480000
345.154327	146.440000
345.247742	146.000000
345.341156	146.080000
345.434570	145.520000
345.527985	145.260000
345.621399	145.360000
345.714813	145.740000
345.808228	145.740000
345.901642	145.440000
345.995056	144.960000
346.088470	145.080000
346.181885	145.080000
346.275299	144.940000
346.368713	145.100000
346.462128	145.080000
346.555573	145.020000
346.648987	145.380000
346.742401	145.380000
346.835815	145.880000
346.929260	145.740000
347.022644	145.540000
347.116119	145.580000
347.209503	145.900000
347.302948	146.540000
347.396362	147.180000
347.489807	147.560000
347.583221	147.820000
347.676636	147.340000
347.770050	146.240000
347.863495	145.640000
347.956909	145.540000
348.050323	145.000000
348.143768	144.860000
348.237183	144.400000
348.330597	145.360000
348.424042	145.740000
348.517456	146.080000
348.610901	146.780000
348.704315	147.340000
348.797760	146.620000
348.891174	145.980000
348.984619	145.140000
349.078033	145.280000
349.171448	145.740000
349.264923	145.700000
349.358337	145.760000
349.451782	146.120000
349.545197	145.080000
349.638641	144.640000
349.732086	144.540000
349.825500	144.920000
349.918945	144.660000
350.012390	145.620000
350.105804	145.960000
350.199249	146.200000
350.292664	146.480000
350.386108	146.740000
350.479553	147.200000
350.572968	146.820000
350.666412	146.760000
350.759857	146.300000
350.853302	146.580000
350.946716	145.620000
351.040161	145.820000
351.133606	146.180000
351.227081	145.920000
351.320465	146.360000
351.413940	146.740000
351.507355	146.620000
351.600830	146.620000
351.694244	146.540000
351.787720	146.080000
351.881104	145.820000
351.974579	145.820000
352.067993	146.300000
352.161469	146.620000
352.254883	146.400000
352.348358	146.440000
352.441803	146.480000
352.535248	145.600000
352.628693	145.980000
352.722137	145.940000
352.815582	146.140000
352.909027	146.420000
353.002472	146.800000
353.095917	146.460000
353.189362	146.400000
353.282806	146.340000
353.376251	146.060000
353.469696	145.600000
353.563141	146.340000
353.656586	146.640000
353.750061	146.300000
353.843475	146.400000
353.936981	147.000000
354.030396	146.200000
354.123871	146.080000
354.217285	147.340000
354.310760	147.520000
354.404175	147.360000
354.497681	147.200000
354.591095	147.280000
354.684570	145.780000
354.777985	145.400000
354.871490	144.920000
354.964935	145.240000
355.058380	145.060000
355.151855	145.080000
355.245300	145.440000
355.338745	145.840000
355.432220	145.960000
355.525665	145.700000
355.619110	146.460000
355.712585	146.160000
355.806030	146.260000
355.899475	145.760000
355.992950	146.020000
356.086426	146.240000
356.179871	146.380000
356.273346	146.200000
356.366791	146.460000
356.460266	146.640000
356.553711	145.780000
356.647186	145.460000
356.740631	145.320000
356.834106	145.240000
356.927551	145.540000
357.021027	145.860000
357.114471	146.260000
357.207947	146.500000
357.301422	146.620000
357.394867	146.340000
357.488342	146.980000
357.581818	146.940000
357.675262	147.000000
357.768738	146.480000
357.862213	145.900000
357.955658	145.240000
358.049133	144.800000
358.142609	144.840000
358.236053	145.240000
358.329529	145.640000
358.423035	146.120000
358.516449	145.980000
358.609955	146.580000
358.703400	147.180000
358.796906	147.160000
358.890350	146.280000
358.983826	146.880000
359.077271	145.700000
359.170776	145.360000
359.264221	145.140000
359.357727	145.760000
359.451172	145.800000
359.544647	146.000000
359.638123	145.800000
359.731598	146.160000
359.825073	146.220000
359.918549	146.080000
360.012024	146.240000
360.105499	145.820000
360.198975	145.740000
360.292450	145.520000
360.385925	145.480000
360.479401	145.420000
360.572876	145.700000
360.666351	145.840000
360.759857	145.760000
360.853302	145.780000
360.946808	145.460000
361.040253	145.580000
361.133759	145.360000
361.227203	145.900000
361.320709	145.420000
361.414154	145.600000
361.507660	145.700000
361.601105	146.120000
361.694641	146.100000
361.788086	146.320000
361.881592	146.920000
361.975067	146.640000
362.068542	146.780000
362.162018	146.540000
362.255524	146.140000
362.348999	145.920000
362.442474	146.380000
362.535950	145.800000
362.629456	145.360000
362.722931	145.640000
362.816406	145.660000
362.909882	145.720000
363.003387	145.240000
363.096863	145.740000
363.190338	145.700000
363.283875	145.400000
363.377319	144.960000
363.470825	145.800000
363.564301	145.260000
363.657806	145.720000
363.751282	145.620000
363.844788	146.460000
363.938232	145.820000
364.031769	146.820000
364.125214	146.640000
364.218750	147.420000
364.312225	146.180000
364.405731	146.600000
364.499207	145.920000
364.592712	145.820000
364.686188	145.300000
364.779694	145.880000
364.873169	145.640000
364.966675	145.540000
365.060150	145.420000
365.153656	145.840000
365.247131	145.800000
365.340637	146.100000
365.434143	146.640000
365.527618	146.800000
365.621155	146.120000
365.714600	145.920000
365.808136	145.720000
365.901611	144.800000
365.995117	144.700000
366.088593	144.720000
366.182129	144.520000
366.275604	144.560000
366.369110	145.000000
366.462585	145.040000
366.556122	145.800000
366.649567	146.140000
366.743103	146.260000
366.836609	146.020000
366.930115	146.320000
367.023590	145.960000
367.117096	145.780000
367.210602	145.880000
367.304108	146.340000
367.397614	146.700000
367.491119	146.740000
367.584595	146.980000
367.678101	146.860000
367.771606	146.380000
367.865112	145.820000
367.958649	145.360000
368.052124	145.200000
368.145660	145.060000
368.239136	145.860000
368.332672	145.740000
368.426147	146.080000
368.519684	146.100000
368.613159	146.480000
368.706696	145.580000
368.800171	145.760000
368.893707	145.720000
368.987183	145.940000
369.080719	145.960000
369.174225	146.200000
369.267731	146.620000
369.361237	146.640000
369.454742	146.540000
369.548248	146.800000
369.641754	146.600000
369.735260	146.240000
369.828766	145.420000
369.922272	145.960000
370.015808	145.540000
370.109314	145.780000
370.202820	145.560000
370.296356	146.940000
370.389832	146.160000
370.483368	145.900000
370.576874	145.620000
370.670410	146.200000
370.763885	144.900000
370.857422	145.040000
370.950928	144.860000
371.044464	145.880000
371.137939	145.280000
371.231476	145.980000
371.324982	146.500000
371.418518	147.000000
371.512024	146.420000
371.605560	146.780000
371.699066	146.920000
371.792572	146.440000
371.886108	146.440000
371.979614	145.980000
372.073120	146.100000
372.166656	145.660000
372.260162	146.080000
372.353668	145.760000
372.447205	145.880000
372.540710	145.540000
372.634277	145.500000
372.727753	145.440000
372.821320	145.600000
372.914795	145.820000
373.008362	145.780000
373.101837	145.920000
373.195404	145.640000
373.288879	145.480000
373.382446	146.220000
373.475922	146.380000
373.569489	147.080000
373.662964	147.460000
373.756531	147.760000
373.850037	147.320000
373.943573	147.080000
374.037109	146.080000
374.130615	145.860000
374.224152	145.900000
374.317657	145.660000
374.411194	146.580000
374.504730	146.780000
374.598236	146.600000
374.691772	146.300000
374.785309	146.620000
374.878815	145.320000
374.972351	145.800000
375.065887	145.820000
375.159454	146.400000
375.252930	145.940000
375.346497	146.460000
375.440002	146.760000
375.533569	146.620000
375.627045	145.780000
375.720612	145.820000
375.814117	145.820000
375.907684	145.380000
376.001160	144.940000
376.094727	144.740000
376.188232	145.480000
376.281799	145.780000
376.375336	145.520000
376.468872	146.520000
376.562408	147.140000
376.655914	146.620000
376.749451	146.560000
376.842987	146.980000
376.936523	146.520000
377.030060	146.320000
377.123596	146.440000
377.217133	145.880000
377.310669	145.700000
377.404205	146.040000
377.497772	146.520000
377.591278	146.220000
377.684845	147.140000
377.778351	147.100000
377.871918	146.600000
377.965424	145.720000
378.058990	145.680000
378.152496	144.920000
378.246063	145.280000
378.339569	145.820000
378.433136	146.100000
378.526642	146.280000
378.620209	146.500000
378.713745	146.080000
378.807312	146.240000
378.900848	146.240000
378.994385	146.240000
379.087921	145.600000
379.181458	146.060000
379.274994	145.200000
379.368530	145.320000
379.462097	145.280000
379.555634	145.840000
379.649170	144.900000
379.742706	145.340000
379.836273	145.500000
379.929810	145.360000
380.023376	145.120000
380.116882	145.620000
380.210449	145.380000
380.303986	145.000000
380.397552	144.760000
380.491058	145.040000
380.584656	144.760000
380.678162	145.120000
380.771729	145.280000
380.865265	146.180000
380.958832	146.260000
381.052368	146.820000
381.145935	146.820000
381.239471	147.280000
381.333008	147.080000
381.426575	147.020000
381.520111	147.020000
381.613647	147.360000
381.707214	147.140000
381.800751	146.440000
381.894318	146.860000
381.987854	146.360000
382.081421	146.100000
382.174988	145.940000
382.268524	145.980000
382.362091	145.620000
382.455627	146.220000
382.549194	146.020000
382.642731	145.600000
382.736298	145.540000
382.829834	145.120000
382.923401	145.460000
383.016937	145.680000
383.110504	146.360000
383.204041	146.460000
383.297607	146.840000
383.391174	145.720000
383.484741	146.180000
383.578278	145.660000
383.671844	145.620000
383.765411	145.200000
383.858948	145.920000
383.952515	145.360000
384.046051	145.820000
384.139618	146.240000
384.233185	146.640000
384.326721	146.340000
384.420288	146.920000
384.513855	146.600000
384.607422	146.820000
384.700989	147.320000
384.794525	147.200000
384.888123	146.900000
384.981659	147.420000
385.075226	146.620000
385.168762	146.040000
385.262360	146.240000
385.355896	145.420000
385.449463	144.900000
385.542999	145.480000
385.636597	146.180000
385.730164	146.260000
385.823730	146.600000
385.917267	146.460000
386.010834	146.400000
386.104401	146.060000
386.197968	146.440000
386.291534	146.820000
386.385101	147.100000
386.478668	147.400000
386.572235	147.140000
386.665802	146.540000
386.759338	146.100000
386.852905	145.820000
386.946472	145.480000
387.040070	145.800000
387.133606	145.860000
387.227203	145.740000
387.320740	146.180000
387.414337	145.760000
387.507874	145.280000
387.601471	145.460000
387.695007	145.460000
387.788605	145.020000
387.882141	145.480000
387.975739	145.600000
388.069275	145.400000
388.162872	145.520000
388.256439	145.680000
388.350037	145.540000
388.443604	145.840000
388.537170	145.940000
388.630737	146.860000
388.724304	147.260000
388.817871	146.880000
388.911438	146.620000
389.005005	146.700000
389.098602	146.400000
389.192169	145.640000
389.285736	146.320000
389.379333	146.440000
389.472870	146.000000
389.566467	145.620000
389.660034	146.100000
389.753632	145.460000
389.847168	145.400000
389.940765	145.840000
390.034332	146.300000
390.127930	145.720000
390.221466	145.920000
390.315063	145.760000
390.408630	144.780000
390.502228	143.580000
390.595795	143.940000
390.689362	143.860000
390.782959	143.920000
390.876526	144.920000
390.970093	145.220000
391.063690	145.640000
391.157257	145.840000
391.250824	146.120000
391.344421	145.580000
391.437988	145.860000
391.531555	145.780000
391.625153	145.920000
391.718750	146.160000
391.812317	146.120000
391.905914	146.100000
391.999481	146.200000
392.093079	146.000000
392.186615	145.720000
392.280243	146.080000
392.373779	146.160000
392.467407	146.320000
392.560944	146.480000
392.654572	146.300000
392.748108	146.180000
392.841736	146.280000
392.935303	146.020000
393.028900	146.060000
393.122467	146.280000
393.216064	146.040000
393.309631	145.500000
393.403229	145.260000
393.496796	144.880000
393.590393	143.980000
393.683990	144.360000
393.777557	145.080000
393.871155	145.040000
393.964722	145.780000
394.058350	146.520000
394.151917	146.540000
394.245514	145.900000
394.339081	146.620000
394.432678	146.640000
394.526245	146.640000
394.619873	146.280000
394.713409	146.860000
394.807037	146.540000
394.900604	146.600000
394.994202	146.600000
395.087769	147.100000
395.181396	146.620000
395.274994	147.140000
395.368561	146.280000
395.462158	146.440000
395.555756	146.040000
395.649353	146.340000
395.742920	145.800000
395.836517	146.540000
395.930115	145.900000
396.023712	146.560000
396.117279	146.740000
396.210876	146.300000
396.304474	146.040000
396.398071	146.660000
396.491669	146.420000
396.585266	146.060000
396.678833	146.160000
396.772461	146.460000
396.866028	146.580000
396.959656	147.000000
397.053223	148.220000
397.146851	148.980000
397.240417	149.980000
397.334015	151.980000
397.427582	153.720000
397.521210	156.140000
397.614807	160.200000
397.708405	164.740000
397.802002	170.400000
397.895599	178.760000
397.989197	188.240000
398.082794	199.760000
398.176392	214.780000
398.269989	231.540000
398.363586	251.740000
398.457184	275.040000
398.550781	301.140000
398.644379	327.060000
398.737976	355.120000
398.831573	382.220000
398.925201	407.320000
399.018768	430.900000
399.112396	453.560000
399.205963	475.400000
399.299591	495.760000
399.393158	516.540000
399.486786	536.260000
399.580353	554.420000
399.673981	567.580000
399.767578	578.180000
399.861206	583.760000
399.954773	584.140000
400.048401	577.960000
400.141998	567.820000
400.235596	552.980000
400.329193	534.060000
400.422791	512.240000
400.516418	489.180000
400.610016	465.800000
400.703613	442.660000
400.797211	418.420000
400.890808	395.440000
400.984436	373.800000
401.078033	351.040000
401.171631	327.680000
401.265259	305.740000
401.358826	283.580000
401.452484	261.700000
401.546051	243.060000
401.639679	225.060000
401.733246	210.120000
401.826904	196.960000
401.920471	185.840000
402.014099	176.260000
402.107697	169.120000
402.201324	163.040000
402.294891	158.740000
402.388550	155.760000
402.482147	153.100000
402.575745	150.980000
402.669373	149.660000
402.762970	148.580000
402.856567	148.020000
402.950195	148.140000
403.043793	147.780000
403.137390	148.120000
403.231018	147.420000
403.324615	147.760000
403.418243	146.780000
403.511841	147.140000
403.605469	146.560000
403.699066	146.820000
403.792694	146.580000
403.886292	146.860000
403.979919	146.680000
404.073517	146.600000
404.167145	147.100000
404.260712	147.120000
404.354370	147.100000
404.447937	147.320000
404.541595	147.340000
404.635162	147.360000
404.728821	147.520000
404.822418	147.420000
404.916046	146.940000
405.009644	147.260000
405.103271	147.200000
405.196899	146.740000
405.290497	146.560000
405.384125	147.040000
405.477722	146.460000
405.571350	145.760000
405.664948	145.680000
405.758575	145.660000
405.852203	145.220000
405.945801	145.280000
406.039429	145.540000
406.133057	145.300000
406.226654	145.240000
406.320312	145.240000
406.413879	145.460000
406.507538	145.640000
406.601135	145.480000
406.694763	146.060000
406.788361	145.940000
406.882019	145.580000
406.975586	145.880000
407.069244	146.740000
407.162872	146.800000
407.256470	146.660000
407.350098	146.940000
407.443726	146.340000
407.537323	145.820000
407.630951	145.740000
407.724579	145.740000
407.818207	146.140000
407.911804	145.980000
408.005432	145.880000
408.099060	146.120000
408.192688	146.620000
408.286285	146.260000
408.379913	146.320000
408.473572	146.760000
408.567169	145.860000
408.660828	145.880000
408.754395	145.300000
408.848053	145.540000
408.941650	145.620000
409.035309	145.480000
409.128906	145.340000
409.222565	146.000000
409.316132	146.080000
409.409790	145.480000
409.503387	145.860000
409.597046	145.580000
409.690674	145.420000
409.784302	145.260000
409.877930	145.300000
409.971558	145.400000
410.065186	145.640000
410.158783	145.540000
410.252411	145.580000
410.346039	145.960000
410.439667	146.040000
410.533295	146.280000
410.626923	146.560000
410.720551	146.260000
410.814209	146.540000
410.907806	146.460000
411.001465	145.660000
411.095062	145.740000
411.188721	146.000000
411.282318	145.420000
411.375977	145.140000
411.469574	146.020000
411.563232	145.740000
411.656830	145.780000
411.750488	145.620000
411.844086	145.520000
411.937744	145.240000
412.031372	145.220000
412.125000	145.140000
412.218628	145.320000
412.312256	146.060000
412.405884	146.240000
412.499512	146.100000
412.593170	146.140000
412.686798	146.300000
412.780426	145.800000
412.874054	145.920000
412.967682	145.900000
413.061310	146.320000
413.154968	146.300000
413.248566	146.260000
413.342224	146.120000
413.435852	146.560000
413.529510	146.100000
413.623108	145.460000
413.716766	145.440000
413.810364	145.780000
413.904022	145.200000
413.997650	145.000000
414.091309	146.080000
414.184906	146.360000
414.278564	145.600000
414.372192	146.240000
414.465851	146.680000
414.559479	146.260000
414.653107	146.700000
414.746735	146.900000
414.840393	146.580000
414.934021	146.540000
415.027649	146.280000
415.121277	145.940000
415.214935	146.300000
415.308563	146.560000
415.402191	145.880000
415.495850	146.080000
415.589478	145.680000
415.683136	145.320000
415.776733	145.500000
415.870422	146.300000
415.964020	145.840000
416.057678	146.080000
416.151306	146.100000
416.244965	145.840000
416.338562	145.600000
416.432251	146.280000
416.525848	146.980000
416.619507	147.280000
416.713165	147.660000
416.806793	147.640000
416.900421	147.660000
416.994080	146.940000
417.087708	146.760000
417.181366	145.940000
417.274994	145.820000
417.368622	145.820000
417.462280	146.380000
417.555908	146.160000
417.649567	146.340000
417.743195	146.500000
417.836853	146.460000
417.930481	146.320000
418.024170	146.620000
418.117767	147.180000
418.211426	147.420000
418.305054	147.760000
418.398712	147.360000
418.492340	147.260000
418.585999	147.260000
418.679626	146.900000
418.773285	146.720000
418.866913	146.980000
418.960571	147.120000
419.054230	147.220000
419.147858	147.580000
419.241516	147.500000
419.335144	147.060000
419.428802	146.920000
419.522461	146.380000
419.616089	146.000000
419.709747	145.920000
419.803375	146.200000
419.897034	145.900000
419.990662	145.880000
420.084320	146.320000
420.177979	146.520000
420.271606	146.640000
420.365295	147.280000
420.458893	147.460000
420.552582	147.860000
420.646210	147.860000
420.739868	147.520000
420.833496	146.980000
420.927155	146.600000
421.020782	145.940000
421.114471	145.180000
421.208069	145.360000
421.301758	145.420000
421.395386	145.700000
421.489044	145.460000
421.582703	145.780000
421.676361	146.160000
421.769989	146.080000
421.863647	146.260000
421.957306	146.460000
422.050934	146.600000
422.144592	146.460000
422.238251	146.140000
422.331909	145.860000
422.425537	145.560000
422.519196	145.780000
422.612854	145.080000
422.706543	145.080000
422.800140	145.540000
422.893829	145.660000
422.987457	144.820000
423.081146	145.160000
423.174744	146.100000
423.268433	145.400000
423.362061	145.000000
423.455750	145.240000
423.549347	145.220000
423.643036	144.420000
423.736664	145.040000
423.830353	145.640000
423.924011	146.140000
424.017639	145.600000
424.111298	145.860000
424.204956	145.660000
424.298615	145.680000
424.392273	145.380000
424.485931	145.820000
424.579559	145.940000
424.673218	145.560000
424.766876	145.440000
424.860535	145.160000
424.954193	145.100000
425.047882	144.980000
425.141510	145.380000
425.235199	145.500000
425.328796	145.640000
425.422485	145.300000
425.516113	144.800000
425.609802	144.540000
425.703430	144.560000
425.797119	144.380000
425.890747	144.900000
425.984436	145.140000
426.078064	145.600000
426.171753	145.540000
426.265411	145.640000
426.359070	145.740000
426.452728	145.860000
426.546356	145.480000
426.640015	145.260000
426.733673	145.460000
426.827332	145.060000
426.920990	146.060000
427.014648	145.640000
427.108307	146.100000
427.201965	146.400000
427.295624	146.780000
427.389282	145.640000
427.482941	146.160000
427.576630	145.740000
427.670258	145.200000
427.763947	145.080000
427.857574	145.380000
427.951263	145.140000
428.044922	144.980000
428.138611	144.920000
428.232239	145.340000
428.325928	145.420000
428.419556	146.220000
428.513245	146.040000
428.606903	146.340000
428.700562	145.700000
428.794220	145.300000
428.887878	144.300000
428.981537	144.740000
429.075195	144.840000
429.168854	145.480000
429.262512	145.760000
429.356201	146.080000
429.449860	146.080000
429.543518	145.960000
429.637177	145.800000
429.730835	145.620000
429.824493	145.480000
429.918182	145.880000
430.011810	145.520000
430.105530	144.880000
430.199158	145.360000
430.292847	145.560000
430.386475	144.920000
430.480164	144.980000
430.573792	145.180000
430.667511	144.820000
430.761139	144.940000
430.854828	145.500000
430.948456	145.780000
431.042145	146.660000
431.135834	146.740000
431.229492	146.980000
431.323151	147.260000
431.416809	147.400000
431.510468	146.700000
431.604156	146.300000
431.697815	146.080000
431.791473	145.220000
431.885132	144.780000
431.978821	145.040000
432.072479	145.240000
432.166138	145.580000
432.259827	145.760000
432.353485	146.340000
432.447174	146.500000
432.540802	146.660000
432.634491	146.380000
432.728149	146.560000
432.821838	146.560000
432.915466	146.040000
433.009186	146.020000
433.102814	145.620000
433.196503	145.460000
433.290131	145.400000
433.383850	145.520000
433.477509	145.580000
433.571167	146.440000
433.664856	147.040000
433.758514	147.200000
433.852173	147.360000
433.945862	147.260000
434.039520	146.880000
434.133179	146.200000
434.226868	146.020000
434.320526	145.340000
434.414185	145.860000
434.507874	145.400000
434.601562	145.520000
434.695221	145.220000
434.788910	145.680000
434.882538	145.480000
434.976257	145.040000
435.069885	145.120000
435.163574	145.260000
435.257233	145.060000
435.350922	144.780000
435.444580	145.100000
435.538269	144.980000
435.631897	145.380000
435.725616	146.100000
435.819275	146.480000
435.912964	147.120000
436.006622	147.560000
436.100311	147.500000
436.193970	146.740000
436.287628	146.400000
436.381317	146.000000
436.474976	145.180000
436.568665	144.340000
436.662323	144.480000
436.756012	144.560000
436.849670	144.500000
436.943390	144.980000
437.037018	145.300000
437.130737	145.300000
437.224365	145.120000
437.318085	145.220000
437.411713	145.100000
437.505432	145.620000
437.599060	146.120000
437.692780	146.740000
437.786407	146.500000
437.880127	146.640000
437.973755	146.080000
438.067474	145.500000
438.161133	145.360000
438.254822	145.880000
438.348480	145.980000
438.442169	146.880000
438.535828	147.300000
438.629517	147.000000
438.723175	146.560000
438.816864	146.700000
438.910553	146.080000
439.004211	145.960000
439.097900	145.680000
439.191559	145.720000
439.285248	145.020000
439.378906	145.340000
439.472626	145.260000
439.566284	145.600000
439.659973	146.220000
439.753632	146.440000
439.847321	146.700000
439.940979	146.600000
440.034698	146.660000
440.128326	145.840000
440.222046	145.760000
440.315674	145.060000
440.409393	145.600000
440.503082	145.280000
440.596741	145.780000
440.690430	145.960000
440.784088	145.780000
440.877777	145.080000
440.971466	145.060000
441.065125	144.740000
441.158813	144.740000
441.252502	144.840000
441.346161	145.340000
441.439850	145.680000
441.533539	145.560000
441.627197	145.900000
441.720886	146.040000
441.814606	146.220000
441.908234	146.200000
442.001953	146.380000
442.095612	146.080000
442.189301	146.360000
442.282959	146.160000
442.376678	145.640000
442.470306	146.280000
442.564026	146.140000
442.657684	146.020000
442.751404	146.000000
442.845032	146.980000
442.938751	146.300000
443.032440	146.440000
443.126099	146.340000
443.219788	146.660000
443.313477	146.180000
443.407166	146.420000
443.500824	146.400000
443.594513	146.440000
443.688202	146.100000
443.781891	145.240000
443.875549	145.020000
443.969238	145.080000
444.062927	145.280000
444.156647	145.020000
444.250275	146.200000
444.343994	146.120000
444.437653	146.100000
444.531372	145.940000
444.625031	146.220000
444.718719	145.600000
444.812378	145.860000
444.906097	145.860000
444.999756	145.260000
445.093445	145.140000
445.187103	145.600000
445.280823	145.980000
445.374512	145.840000
445.468201	145.980000
445.561859	145.780000
445.655548	145.540000
445.749237	144.880000
445.842926	145.140000
445.936615	145.840000
446.030304	145.820000
446.123962	145.980000
446.217651	145.900000
446.311340	145.560000
446.405029	145.000000
446.498749	144.960000
446.592407	144.720000
446.686096	145.260000
446.779755	145.480000
446.873474	145.580000
446.967133	145.440000
447.060852	145.120000
447.154510	144.840000
447.248230	144.940000
447.341858	144.900000
447.435577	144.860000
447.529236	144.840000
447.622955	144.540000
447.716644	144.380000
447.810333	144.700000
447.904022	145.640000
447.997711	145.860000
448.091400	146.280000
448.185059	146.300000
448.278748	146.420000
448.372437	145.760000
448.466125	145.880000
448.559814	145.780000
448.653503	146.440000
448.747192	146.380000
448.840912	146.860000
448.934570	146.740000
449.028290	146.820000
449.121948	146.320000
449.215637	145.840000
449.309296	145.120000
449.403015	145.320000
449.496674	145.140000
449.590393	144.900000
449.684052	144.960000
449.777771	146.020000
449.871429	145.380000
449.965149	145.440000
450.058838	145.780000
450.152527	146.340000
450.246216	145.800000
450.339905	146.240000
450.433594	146.100000
450.527283	146.740000
450.620972	146.220000
450.714661	146.220000
450.808350	146.280000
450.902039	146.500000
450.995728	145.820000
451.089417	145.620000
451.183105	145.560000
451.276794	145.940000
451.370514	145.300000
451.464172	144.740000
451.557892	144.740000
451.651550	145.000000
451.745270	144.440000
451.838928	144.520000
451.932648	144.880000
452.026306	145.400000
452.120026	145.060000
452.213684	145.580000
452.307404	145.860000
452.401062	146.120000
452.494781	146.220000
452.588470	146.180000
452.682159	145.700000
452.775848	145.900000
452.869537	145.000000
452.963226	144.780000
453.056915	144.500000
453.150604	144.620000
453.244293	144.540000
453.337982	145.480000
453.431671	145.500000
453.525360	146.320000
453.619049	146.140000
453.712769	145.960000
453.806427	145.560000
453.900146	145.240000
453.993805	144.580000
454.087555	145.060000
454.181213	145.400000
454.274933	145.560000
454.368591	145.840000
454.462311	145.720000
454.555969	145.440000
454.649689	145.920000
454.743347	145.480000
454.837067	146.100000
454.930756	146.880000
455.024445	147.020000
455.118134	146.620000
455.211853	146.800000
455.305542	146.340000
455.399231	145.840000
455.492920	145.560000
455.586609	145.540000
455.680298	145.880000
455.773987	145.600000
455.867676	145.840000
455.961365	146.200000
456.055084	145.860000
456.148773	145.540000
456.242493	145.620000
456.336151	145.440000
456.429871	145.480000
456.523529	145.800000
456.617249	145.780000
456.710907	146.260000
456.804626	146.240000
456.898315	145.700000
456.992035	145.740000
457.085693	145.340000
457.179413	144.460000
457.273102	145.400000
457.366791	145.680000
457.460480	145.840000
457.554199	146.860000
457.647888	147.280000
457.741577	146.480000
457.835266	146.580000
457.928955	146.380000
458.022644	146.660000
458.116364	146.960000
458.210052	146.820000
458.303741	146.760000
458.397461	146.440000
458.491119	145.280000
458.584839	145.160000
458.678528	145.020000
458.772247	144.740000
458.865906	145.020000
458.959625	146.220000
459.053284	146.160000
459.147003	146.020000
459.240692	146.780000
459.334412	146.900000
459.428070	146.400000
459.521790	146.020000
459.615479	145.980000
459.709198	146.240000
459.802887	145.740000
459.896576	145.360000
459.990265	145.960000
460.083954	146.220000
460.177673	145.340000
460.271362	145.740000
460.365051	145.760000
460.458740	145.120000
460.552429	144.700000
460.646149	144.860000
460.739838	144.420000
460.833527	144.620000
460.927246	144.720000
461.020905	145.100000
461.114655	144.940000
461.208313	145.400000
461.302032	145.060000
461.395691	145.200000
461.489441	144.960000
461.583099	145.020000
461.676819	144.680000
461.770477	145.360000
461.864197	145.180000
461.957916	145.300000
462.051605	145.160000
462.145294	146.040000
462.238983	145.020000
462.332703	145.580000
462.426392	146.240000
462.520081	146.340000
462.613770	145.540000
462.707489	145.960000
462.801178	145.480000
462.894867	144.860000
462.988556	145.000000
463.082275	145.200000
463.175964	144.940000
463.269684	145.320000
463.363342	145.500000
463.457092	144.840000
463.550751	144.980000
463.644470	145.540000
463.738129	145.400000
463.831879	145.460000
463.925537	146.460000
464.019257	146.720000
464.112946	146.420000
464.206665	146.380000
464.300323	146.100000
464.394043	145.620000
464.487762	145.360000
464.581451	145.560000
464.675140	145.380000
464.768829	145.880000
464.862549	146.160000
464.956238	146.220000
465.049927	146.180000
465.143646	146.480000
465.237335	146.260000
465.331024	146.600000
465.424713	146.640000
465.518433	146.880000
465.612152	146.620000
465.705811	146.400000
465.799561	145.940000
465.893219	145.840000
465.986938	145.740000
466.080597	145.560000
466.174347	145.880000
466.268005	146.020000
466.361725	145.880000
466.455414	145.720000
466.549133	145.500000
466.642792	145.520000
466.736542	145.020000
466.830231	144.980000
466.923920	144.800000
467.017609	145.220000
467.111328	144.700000
467.205017	144.840000
467.298706	145.020000
467.392426	145.380000
467.486115	145.680000
467.579803	145.740000
467.673523	146.100000
467.767212	146.000000
467.860901	145.880000
467.954651	145.800000
468.048309	145.960000
468.142029	145.820000
468.235718	145.620000
468.329437	145.260000
468.423096	145.180000
468.516846	145.200000
468.610504	144.920000
468.704224	144.840000
468.797913	144.840000
468.891632	144.820000
468.985291	144.780000
469.079010	144.800000
469.172729	144.520000
469.266418	145.460000
469.360107	145.440000
469.453827	145.000000
469.547516	145.100000
469.641205	145.740000
469.734924	145.700000
469.828613	146.080000
469.922302	146.880000
470.016022	147.140000
470.109711	146.880000
470.203430	146.060000
470.297150	145.200000
470.390808	145.320000
470.484558	145.100000
470.578217	145.620000
470.671936	146.100000
470.765625	147.060000
470.859344	146.300000
470.953003	146.380000
471.046753	145.900000
471.140411	145.440000
471.234131	145.220000
471.327820	146.100000
471.421539	146.180000
471.515228	145.840000
471.608948	145.780000
471.702637	145.140000
471.796326	144.620000
471.890045	144.680000
471.983734	145.160000
472.077423	145.340000
472.171143	145.780000
472.264832	145.800000
472.358521	145.720000
472.452240	145.420000
472.545929	145.800000
472.639648	145.820000
472.733337	145.960000
472.827057	146.060000
472.920746	145.940000
473.014465	146.420000
473.108124	146.540000
473.201874	146.720000
473.295532	146.620000
473.389252	147.260000
473.482941	146.980000
473.576660	146.340000
473.670319	145.980000
473.764069	146.020000
473.857727	146.000000
473.951477	145.940000
474.045166	146.580000
474.138855	146.460000
474.232574	146.380000
474.326263	146.160000
474.419952	146.280000
474.513672	145.960000
474.607361	145.920000
474.701050	146.140000
474.794769	146.360000
474.888458	146.400000
474.982178	146.640000
475.075867	146.820000
475.169586	146.800000
475.263275	146.620000
475.356995	146.600000
475.450653	146.120000
475.544403	145.820000
475.638062	146.360000
475.731812	146.120000
475.825470	145.440000
475.919189	145.840000
476.012878	146.200000
476.106598	145.500000
476.200256	145.960000
476.294006	146.300000
476.387695	146.360000
476.481384	146.200000
476.575104	146.300000
476.668793	145.660000
476.762512	145.240000
476.856201	145.780000
476.949890	145.520000
477.043610	145.100000
477.137299	145.200000
477.230988	145.800000
477.324707	145.380000
477.418396	146.140000
477.512146	146.300000
477.605804	146.160000
477.699524	146.000000
477.793213	145.860000
477.886932	145.760000
477.980591	145.720000
478.074341	145.940000
478.167999	145.640000
478.261749	145.700000
478.355408	145.180000
478.449127	145.440000
478.542816	146.340000
478.636536	147.080000
478.730225	147.260000
478.823944	147.860000
478.917633	147.580000
479.011322	147.220000
479.105042	146.820000
479.198730	146.820000
479.292450	146.300000
479.386139	146.620000
479.479828	146.600000
479.573547	146.940000
479.667267	146.620000
479.760925	146.600000
479.854675	146.580000
479.948334	146.460000
480.042084	145.660000
480.135742	146.220000
480.229462	146.060000
480.323151	146.040000
480.416870	145.480000
480.510529	145.740000
480.604279	144.800000
480.697937	145.480000
480.791656	145.300000
480.885345	145.200000
480.979065	145.220000
481.072754	146.040000
481.166473	146.140000
481.260132	146.140000
481.353882	146.680000
481.447540	146.600000
481.541260	146.460000
481.635010	145.660000
481.728668	145.680000
481.822388	145.480000
481.916077	145.680000
482.009796	145.580000
482.103485	146.180000
482.197205	146.380000
482.290863	146.560000
482.384613	146.460000
482.478271	146.180000
482.571991	145.980000
482.665680	145.920000
482.759399	146.420000
482.853058	146.760000
482.946808	146.740000
483.040466	146.680000
483.134216	146.140000
483.227875	145.400000
483.321594	145.600000
483.415283	145.720000
483.509003	145.460000
483.602661	145.580000
483.696411	145.920000
483.790070	145.460000
483.883789	145.540000
483.977478	145.880000
484.071198	145.940000
484.164917	145.300000
484.258606	145.060000
484.352325	145.320000
484.445984	145.260000
484.539734	145.320000
484.633392	145.340000
484.727142	145.780000
484.820801	145.460000
484.914520	145.500000
485.008209	145.780000
485.101929	146.220000
485.195587	145.720000
485.289337	145.640000
485.382996	145.520000
485.476715	145.240000
485.570404	145.660000
485.664124	145.920000
485.757782	146.520000
485.851532	146.340000
485.945190	146.380000
486.038910	145.920000
486.132599	146.100000
486.226318	145.180000
486.319977	145.020000
486.413727	145.580000
486.507446	145.120000
486.601105	144.700000
486.694855	144.940000
486.788513	145.220000
486.882233	144.880000
486.975922	145.220000
487.069641	145.080000
487.163300	145.100000
487.257050	145.960000
487.350708	145.580000
487.444427	145.460000
487.538116	145.560000
487.631836	145.460000
487.725494	144.800000
487.819214	144.900000
487.912903	144.960000
488.006622	145.380000
488.100281	145.680000
488.194031	145.680000
488.287689	146.400000
488.381409	147.060000
488.475098	146.960000
488.568817	147.040000
488.662476	146.840000
488.756226	145.880000
488.849945	144.980000
488.943604	145.060000
489.037354	145.080000
489.131012	144.900000
489.224731	144.620000
489.318390	144.720000
489.412140	144.640000
489.505798	144.560000
489.599518	144.720000
489.693207	145.680000
489.786926	145.740000
489.880585	145.460000
489.974335	145.500000
490.067993	146.620000
490.161713	146.560000
490.255371	147.360000
490.349121	147.720000
490.442780	147.480000
490.536499	146.260000
490.630188	146.200000
490.723907	145.460000
490.817566	145.140000
490.911285	145.060000
491.004974	145.180000
491.098694	144.740000
491.192413	145.580000
491.286102	145.560000
491.379822	146.080000
491.473480	146.640000
491.567200	147.000000
491.660889	146.020000
491.754608	146.260000
491.848267	145.940000
491.941986	145.320000
492.035675	145.240000
492.129395	145.640000
492.223053	145.380000
492.316772	145.460000
492.410461	145.400000
492.504181	145.160000
492.597839	144.880000
492.691559	145.260000
492.785248	144.960000
492.878967	145.140000
492.972626	145.200000
493.066345	145.540000
493.160034	144.840000
493.253754	144.980000
493.347412	144.880000
493.441132	144.900000
493.534882	145.040000
493.628540	145.520000
493.722260	145.900000
493.815918	146.360000
493.909668	146.900000
494.003326	147.160000
494.097046	147.120000
494.190704	146.680000
494.284454	146.580000
494.378113	146.240000
494.471832	145.920000
494.565491	145.780000
494.659210	145.960000
494.752899	145.500000
494.846619	145.540000
494.940277	145.680000
495.033997	145.620000
495.127686	145.320000
495.221405	145.380000
495.315063	145.440000
495.408783	145.360000
495.502441	145.380000
495.596191	145.600000
495.689850	145.500000
495.783569	145.760000
495.877228	145.700000
495.970947	145.640000
496.064697	145.600000
496.158356	146.280000
496.252075	146.140000
496.345734	145.860000
496.439453	146.660000
496.533142	146.860000
496.626862	146.880000
496.720520	146.680000
496.814240	146.920000
496.907898	146.260000
497.001617	146.520000
497.095306	145.680000
497.189026	145.500000
497.282684	145.680000
497.376404	146.140000
497.470062	145.440000
497.563782	145.960000
497.657471	146.240000
497.751190	145.640000
497.844849	145.120000
497.938568	145.440000
498.032227	145.320000
498.125946	145.080000
498.219635	145.120000
498.313354	145.760000
498.407074	145.620000
498.500732	145.740000
498.594452	146.160000
498.688110	146.080000
498.781830	145.560000
498.875519	145.480000
498.969238	145.100000
499.062897	144.820000
499.156616	145.440000
499.250275	145.660000
499.343994	145.280000
499.437653	145.740000
499.531372	145.860000
499.625061	146.100000
499.718781	145.980000
499.812439	146.640000
499.906158	146.000000
499.999817	145.700000
500.093536	145.080000
500.187195	145.400000
500.280914	145.200000
500.374573	145.720000
500.468323	146.020000
500.561981	146.360000
500.655701	145.700000
500.749420	145.600000
500.843079	145.760000
500.936798	145.680000
501.030457	146.020000
501.124176	146.420000
501.217834	146.640000
501.311554	146.420000
501.405212	146.000000
501.498962	145.040000
501.592621	144.840000
501.686340	144.800000
501.779999	144.880000
501.873718	145.240000
501.967377	145.700000
502.061096	146.240000
502.154755	146.000000
502.248474	145.680000
502.342133	145.760000
502.435852	145.560000
502.529510	145.820000
502.623230	146.500000
502.716888	146.240000
502.810608	145.980000
502.904266	146.460000
502.997986	145.480000
503.091705	144.760000
503.185364	145.320000
503.279083	145.220000
503.372772	144.960000
503.466492	145.200000
503.560150	145.340000
503.653870	145.420000
503.747528	145.720000
503.841248	145.700000
503.934906	146.060000
504.028625	145.880000
504.122284	145.880000
504.216003	146.380000
504.309662	145.980000
504.403381	145.820000
504.497040	146.000000
504.590759	145.740000
504.684418	145.680000
504.778137	146.300000
504.871796	146.520000
504.965515	146.400000
505.059174	146.560000
505.152893	145.960000
505.246521	145.280000
505.340240	144.760000
505.433899	144.900000
505.527618	144.660000
505.621338	144.880000
505.714996	144.860000
505.808716	145.080000
505.902374	145.480000
505.996094	145.860000
506.089752	145.740000
506.183472	145.960000
506.277130	145.900000
506.370850	145.700000
506.464508	145.600000
506.558228	145.740000
506.651886	145.680000
506.745605	145.840000
506.839264	145.940000
506.932983	146.080000
507.026611	145.980000
507.120331	146.780000
507.213989	146.300000
507.307709	146.460000
507.401367	146.600000
507.495087	147.600000
507.588745	147.000000
507.682465	147.560000
507.776123	147.300000
507.869843	146.880000
507.963531	146.240000
508.057190	146.360000
508.150909	146.000000
508.244568	146.140000
508.338287	146.140000
508.431946	145.700000
508.525665	145.540000
508.619324	145.440000
508.713013	145.500000
508.806671	145.800000
508.900391	146.620000
508.994049	146.860000
509.087769	146.740000
509.181427	146.920000
509.275146	146.620000
509.368774	145.620000
509.462494	145.380000
509.556152	145.300000
509.649872	144.920000
509.743530	145.060000
509.837250	145.420000
509.930878	145.540000
510.024597	145.620000
510.118256	145.540000
510.211975	145.540000
510.305695	145.180000
510.399353	145.120000
510.493042	145.620000
510.586700	145.780000
510.680420	146.140000
510.774078	146.360000
510.867798	146.780000
510.961426	146.220000
511.055145	146.200000
511.148804	145.800000
511.242523	146.320000
511.336151	146.060000
511.429871	146.620000
511.523529	146.260000
511.617249	145.960000
511.710876	145.440000
511.804596	145.060000
511.898254	144.960000
511.991974	145.400000
512.085632	145.260000
512.179321	145.560000
512.272949	146.220000
512.366699	146.080000
512.460327	145.720000
512.554077	146.620000
512.647766	146.300000
512.741394	146.020000
512.835144	146.680000
512.928772	146.660000
513.022461	146.640000
513.116150	146.660000
513.209839	146.960000
513.303467	146.380000
513.397217	146.220000
513.490845	145.880000
513.584595	145.780000
513.678223	145.340000
513.771912	144.740000
513.865601	145.060000
513.959290	144.360000
514.052917	144.600000
514.146667	145.260000
514.240295	145.960000
514.333984	146.080000
514.427673	146.160000
514.521362	146.480000
514.614990	145.820000
514.708740	145.900000
514.802368	146.060000
514.896057	146.520000
514.989746	147.120000
515.083435	147.080000
515.177124	147.120000
515.270752	147.000000
515.364502	147.240000
515.458130	146.680000
515.551819	146.440000
515.645508	146.440000
515.739197	146.480000
515.832825	146.580000
515.926575	146.200000
516.020203	146.800000
516.113892	147.060000
516.207520	146.740000
516.301270	146.560000
516.394897	146.540000
516.488586	146.640000
516.582275	146.200000
516.675964	145.620000
516.769592	145.220000
516.863281	145.780000
516.956970	145.820000
517.050659	145.780000
517.144287	146.360000
517.238037	146.600000
517.331665	146.060000
517.425354	145.400000
517.519043	145.020000
517.612732	145.400000
517.706421	145.320000
517.800049	145.140000
517.893738	145.260000
517.987427	145.600000
518.081116	144.980000
518.174744	144.580000
518.268433	145.140000
518.362122	145.680000
518.455811	145.640000
518.549438	146.360000
518.643127	147.380000
518.736816	146.960000
518.830505	146.380000
518.924133	146.380000
519.017822	146.280000
519.111511	145.980000
519.205200	146.240000
519.298828	146.760000
519.392517	146.720000
519.486206	146.920000
519.579895	146.800000
519.673523	146.520000
519.767212	146.080000
519.860901	146.620000
519.954590	146.020000
520.048279	145.920000
520.141907	146.040000
520.235596	146.980000
520.329224	146.880000
520.422974	147.180000
520.516602	147.180000
520.610291	146.860000
520.703918	146.580000
520.797607	146.060000
520.891296	145.960000
520.984985	145.900000
521.078613	146.660000
521.172302	145.680000
521.265930	146.740000
521.359680	147.060000
521.453308	146.920000
521.546997	146.640000
521.640625	147.000000
521.734314	146.020000
521.827942	145.980000
521.921692	146.380000
522.015320	146.140000
522.109009	146.180000
522.202698	146.260000
522.296326	146.100000
522.390015	146.140000
522.483704	146.440000
522.577393	146.380000
522.671021	146.280000
522.764709	145.960000
522.858337	146.260000
522.952026	145.880000
523.045654	146.220000
523.139404	146.540000
523.233032	146.920000
523.326721	146.340000
523.420349	146.360000
523.514038	146.060000
523.607666	146.520000
523.701355	145.940000
523.795044	146.080000
523.888733	146.560000
523.982361	146.760000
524.076050	146.220000
524.169678	147.040000
524.263367	146.560000
524.356995	145.940000
524.450684	145.680000
524.544373	145.360000
524.638062	144.920000
524.731750	145.060000
524.825378	145.200000
524.919067	144.780000
525.012695	145.040000
525.106384	144.800000
525.200012	145.240000
525.293701	145.000000
525.387329	145.840000
525.481018	145.800000
525.574646	146.220000
525.668396	146.020000
525.762024	146.740000
525.855713	146.660000
525.949341	146.300000
526.043030	146.340000
526.136658	146.000000
526.230347	145.280000
526.323975	144.660000
526.417664	144.780000
526.511292	144.740000
526.604980	145.060000
526.698608	145.440000
526.792297	145.860000
526.885925	146.540000
526.979614	146.720000
527.073303	146.560000
527.166931	146.780000
527.260620	146.780000
527.354309	146.580000
527.447998	146.300000
527.541626	146.380000
527.635315	146.080000
527.728943	146.460000
527.822632	146.680000
527.916260	146.600000
528.009949	146.780000
528.103577	146.500000
528.197266	145.900000
528.290894	145.800000
528.384583	145.800000
528.478210	145.800000
528.571899	146.140000
528.665527	146.700000
528.759216	146.500000
528.852844	146.800000
528.946533	146.800000
529.040161	146.700000
529.133850	146.380000
529.227478	146.580000
529.321167	146.360000
529.414856	146.660000
529.508484	147.280000
529.602173	146.940000
529.695801	147.020000
529.789490	146.960000
529.883057	146.560000
529.976746	146.540000
530.070374	146.780000
530.164062	146.220000
530.257690	146.300000
530.351379	146.520000
530.445007	146.080000
530.538696	145.460000
530.632324	145.880000
530.726013	145.800000
530.819641	145.620000
530.913330	145.620000
531.006958	145.840000
531.100647	145.880000
531.194275	145.860000
531.287964	145.580000
531.381592	145.140000
531.475220	145.600000
531.568848	145.320000
531.662537	145.240000
531.756226	146.000000
531.849854	146.260000
531.943542	145.840000
532.037170	145.240000
532.130859	145.720000
532.224487	145.200000
532.318176	144.660000
532.411804	145.300000
532.505432	145.900000
532.599060	145.540000
532.692749	145.420000
532.786377	146.460000
532.880066	145.720000
532.973694	145.340000
533.067383	145.240000
533.161011	145.240000
533.254639	144.820000
533.348267	145.000000
533.441956	145.360000
533.535583	145.320000
533.629272	145.680000
533.722900	145.440000
533.816589	145.540000
533.910156	145.800000
534.003845	145.480000
534.097534	145.420000
534.191162	146.080000
534.284851	146.040000
534.378479	145.660000
534.472107	145.980000
534.565735	145.700000
534.659424	145.360000
534.753052	145.880000
534.846741	145.680000
534.940369	146.140000
535.033997	146.560000
535.127625	146.620000
535.221313	146.800000
535.314941	146.800000
535.408630	146.180000
535.502197	146.080000
535.595886	145.640000
535.689514	145.080000
535.783203	145.800000
535.876831	146.280000
535.970459	146.420000
536.064087	146.340000
536.157776	146.420000
536.251404	146.060000
536.345093	145.760000
536.438721	145.600000
536.532349	146.140000
536.626038	146.100000
536.719666	146.400000
536.813293	146.180000
536.906921	146.200000
537.000610	146.240000
537.094238	146.360000
537.187866	146.020000
537.281494	146.080000
537.375183	146.180000
537.468811	146.120000
537.562439	146.000000
537.656067	146.100000
537.749756	146.060000
537.843384	146.380000
537.937012	146.360000
538.030640	146.180000
538.124329	146.100000
538.217896	146.740000
538.311584	146.360000
538.405212	146.360000
538.498901	146.880000
538.592468	147.660000
538.686157	146.800000
538.779785	146.260000
538.873413	146.380000
538.967102	145.620000
539.060730	144.840000
539.154358	145.240000
539.247986	145.740000
539.341675	145.420000
539.435242	145.540000
539.528931	145.640000
539.622559	145.360000
539.716187	145.880000
539.809814	145.760000
539.903503	145.820000
539.997070	145.740000
540.090759	145.880000
540.184387	145.420000
540.278015	145.960000
540.371643	146.040000
540.465332	145.940000
540.558899	146.000000
540.652588	146.000000
540.746216	145.800000
540.839844	146.300000
540.933472	146.380000
541.027100	146.380000
541.120728	146.380000
541.214417	146.360000
541.308044	146.380000
541.401672	146.260000
541.495300	146.000000
541.588928	146.000000
541.682617	145.880000
541.776184	145.500000
541.869873	145.920000
541.963440	146.400000
542.057129	146.320000
542.150757	146.260000
542.244385	146.080000
542.338013	145.680000
542.431641	145.280000
542.525269	145.280000
542.618958	145.800000
542.712524	146.280000
542.806213	146.140000
542.899780	146.540000
542.993469	146.260000
543.087036	145.840000
543.180725	145.220000
543.274292	145.520000
543.367981	145.720000
543.461548	146.280000
543.555237	146.440000
543.648926	147.160000
543.742493	147.840000
543.836182	147.680000
543.929749	147.380000
544.023437	147.040000
544.117004	146.720000
544.210693	146.320000
544.304260	146.120000
544.397949	146.160000
544.491516	146.500000
544.585205	146.500000
544.678772	146.100000
544.772461	146.540000
544.866028	146.020000
544.959717	145.920000
545.053284	145.680000
545.146973	145.800000
545.240540	145.640000
545.334229	146.540000
545.427795	146.720000
545.521423	146.680000
545.615051	146.680000
545.708679	146.920000
545.802307	146.520000
545.895935	146.700000
545.989624	147.680000
546.083191	147.340000
546.176880	146.840000
546.270447	146.720000
546.364136	147.080000
546.457703	146.400000
546.551331	146.560000
546.644958	147.120000
546.738586	147.500000
546.832214	146.620000
546.925842	146.500000
547.019409	147.000000
547.113098	146.400000
547.206665	145.860000
547.300354	146.180000
547.393921	146.280000
547.487549	146.180000
547.581177	146.160000
547.674805	145.960000
547.768433	145.280000
547.862061	145.220000
547.955627	144.700000
548.049316	145.140000
548.142883	145.700000
548.236572	146.420000
548.330139	146.780000
548.423767	146.800000
548.517456	146.660000
548.611023	146.760000
548.704651	146.040000
548.798279	145.740000
548.891907	146.620000
548.985474	146.380000
549.079163	146.200000
549.172729	145.980000
549.266357	145.560000
549.359985	145.180000
549.453613	144.800000
549.547180	144.760000
549.640869	145.600000
549.734436	145.840000
549.828064	145.920000
549.921631	146.280000
550.015320	145.860000
550.108887	146.040000
550.202515	145.800000
550.296143	145.260000
550.389771	145.240000
550.483337	145.720000
550.576965	145.440000
550.670593	146.360000
550.764221	146.680000
550.857849	146.900000
550.951477	146.400000
551.045105	146.180000
551.138672	145.800000
551.232300	145.460000
551.325928	145.760000
551.419556	146.080000
551.513123	146.040000
551.606750	146.020000
551.700378	146.240000
551.794006	145.540000
551.887573	145.540000
551.981201	146.120000
552.074768	145.740000
552.168457	145.520000
552.262024	146.580000
552.355652	146.440000
552.449219	146.920000
552.542847	147.380000
552.636475	147.240000
552.730103	146.280000
552.823669	146.060000
552.917297	145.160000
553.010864	144.860000
553.104553	145.340000
553.198181	145.360000
553.291748	145.980000
553.385376	146.440000
553.478943	146.300000
553.572571	146.240000
553.666199	146.260000
553.759827	145.820000
553.853394	145.300000
553.947021	145.140000
554.040588	145.000000
554.134216	145.020000
554.227783	145.620000
554.321411	146.160000
554.415039	146.300000
554.508667	146.520000
554.602234	146.780000
554.695862	146.140000
554.789429	145.640000
554.883057	145.500000
554.976624	145.320000
555.070251	144.980000
555.163818	144.960000
555.257507	145.060000
555.351074	145.080000
555.444702	146.060000
555.538330	145.900000
555.631897	146.460000
555.725525	146.560000
555.819092	146.720000
555.912720	145.400000
556.006287	146.040000
556.099915	145.620000
556.193481	145.780000
556.287109	146.020000
556.380676	146.120000
556.474304	145.980000
556.567871	146.420000
556.661499	145.700000
556.755066	145.640000
556.848694	145.860000
556.942261	145.660000
557.035889	145.600000
557.129517	146.000000
557.223145	146.380000
557.316711	146.480000
557.410339	146.740000
557.503906	146.400000
557.597473	146.800000
557.691040	146.480000
557.784668	146.660000
557.878296	146.420000
557.971863	146.500000
558.065491	146.420000
558.159058	146.240000
558.252686	146.660000
558.346252	147.240000
558.439880	146.960000
558.533447	146.480000
558.627075	146.200000
558.720642	145.400000
558.814270	145.300000
558.907837	145.540000
559.001465	145.740000
559.095032	146.800000
559.188660	147.260000
559.282227	146.520000
559.375854	147.100000
559.469360	146.880000
559.562988	146.540000
559.656555	146.020000
559.750183	146.380000
559.843750	146.240000
559.937378	146.240000
560.030945	146.020000
560.124573	0.000000
560.218140	0.000000
560.311707	0.000000
560.405334	0.000000
560.498901	0.000000
560.592529	0.000000
560.686096	0.000000
560.779724	0.000000
560.873291	0.000000
560.966858	0.000000
561.060425	0.000000
561.154053	0.000000
561.247620	0.000000
561.341248	0.000000
561.434814	0.000000
561.528381	0.000000
561.621948	0.000000
561.715576	0.000000
561.809143	0.000000
561.902771	0.000000
561.996277	0.000000
562.089905	0.000000
562.183472	0.000000
562.277100	0.000000
