Model Number: SPM-002-B   
Serial Number: 70087108
Firmware Version: 004.15.4
Exposure Time: 100000.000000us
Data Taken on: 11-12-2020 18:46:35.859
Wavelength	Amplitude
221.570786	0.000000
221.663406	0.000000
221.756027	0.000000
221.848648	0.000000
221.941269	0.000000
222.033905	0.000000
222.126526	0.000000
222.219162	0.000000
222.311798	0.000000
222.404419	0.000000
222.497055	0.000000
222.589676	0.000000
222.682312	0.000000
222.774933	0.000000
222.867569	0.000000
222.960205	0.000000
223.052841	0.000000
223.145462	0.000000
223.238098	0.000000
223.330734	0.000000
223.423386	0.000000
223.516022	0.000000
223.608658	0.000000
223.701309	0.000000
223.793945	0.000000
223.886581	0.000000
223.979218	0.000000
224.071869	0.000000
224.164505	0.000000
224.257156	0.000000
224.349792	0.000000
224.442444	0.000000
224.535095	0.000000
224.627747	0.000000
224.720398	0.000000
224.813034	0.000000
224.905685	0.000000
224.998337	145.380000
225.090988	145.080000
225.183640	144.760000
225.276291	144.620000
225.368942	145.260000
225.461594	145.980000
225.554245	146.180000
225.646912	146.600000
225.739578	147.200000
225.832230	147.280000
225.924896	146.380000
226.017548	146.440000
226.110199	146.600000
226.202866	145.720000
226.295532	145.720000
226.388184	145.560000
226.480850	144.980000
226.573517	144.760000
226.666168	145.180000
226.758835	145.100000
226.851501	145.980000
226.944183	146.400000
227.036850	146.020000
227.129517	146.120000
227.222183	146.220000
227.314850	146.100000
227.407516	146.360000
227.500198	147.260000
227.592865	147.000000
227.685532	146.760000
227.778214	146.340000
227.870880	146.440000
227.963562	146.500000
228.056229	146.860000
228.148926	146.900000
228.241592	147.560000
228.334274	146.980000
228.426956	146.380000
228.519638	146.260000
228.612305	145.820000
228.704987	145.800000
228.797668	146.080000
228.890350	145.740000
228.983032	145.160000
229.075714	145.980000
229.168396	145.300000
229.261108	144.920000
229.353790	145.080000
229.446472	145.400000
229.539169	144.860000
229.631851	144.860000
229.724533	145.300000
229.817230	145.660000
229.909912	146.560000
230.002609	146.740000
230.095306	146.700000
230.187988	146.640000
230.280685	146.440000
230.373383	145.300000
230.466095	145.140000
230.558792	145.480000
230.651474	145.460000
230.744171	145.120000
230.836868	145.340000
230.929581	145.660000
231.022278	145.980000
231.114975	145.940000
231.207672	146.000000
231.300369	146.520000
231.393082	146.340000
231.485779	146.060000
231.578506	146.280000
231.671204	146.480000
231.763916	146.260000
231.856613	146.180000
231.949326	146.340000
232.042023	145.960000
232.134735	145.740000
232.227448	145.580000
232.320160	145.980000
232.412872	145.780000
232.505585	146.360000
232.598297	146.800000
232.691010	146.620000
232.783722	145.900000
232.876450	146.380000
232.969162	146.100000
233.061874	145.660000
233.154587	145.640000
233.247314	146.300000
233.340027	145.520000
233.432739	145.560000
233.525467	145.600000
233.618179	145.860000
233.710907	145.420000
233.803635	146.000000
233.896347	145.760000
233.989090	146.500000
234.081818	146.260000
234.174545	146.600000
234.267258	146.240000
234.359985	146.620000
234.452713	146.120000
234.545441	146.020000
234.638168	145.660000
234.730896	145.920000
234.823639	145.500000
234.916367	146.180000
235.009094	146.380000
235.101822	146.500000
235.194580	146.760000
235.287308	146.920000
235.380051	145.960000
235.472778	146.600000
235.565521	147.100000
235.658249	146.600000
235.750992	146.860000
235.843719	147.080000
235.936462	146.760000
236.029205	145.980000
236.121948	145.360000
236.214691	145.320000
236.307449	145.760000
236.400192	145.220000
236.492935	145.460000
236.585678	146.040000
236.678421	145.940000
236.771164	145.640000
236.863907	146.520000
236.956665	146.480000
237.049408	147.920000
237.142151	147.500000
237.234909	148.000000
237.327652	147.720000
237.420410	147.720000
237.513153	146.780000
237.605927	146.900000
237.698669	146.440000
237.791428	145.780000
237.884186	146.260000
237.976944	145.660000
238.069702	146.200000
238.162445	145.760000
238.255203	145.780000
238.347961	145.980000
238.440720	146.100000
238.533478	145.580000
238.626266	145.500000
238.719025	145.860000
238.811783	145.620000
238.904541	145.800000
238.997314	145.760000
239.090073	145.700000
239.182831	146.100000
239.275604	146.760000
239.368362	146.540000
239.461136	146.860000
239.553909	147.040000
239.646667	146.540000
239.739441	145.920000
239.832214	146.040000
239.925003	145.960000
240.017761	146.780000
240.110535	147.240000
240.203308	146.680000
240.296082	146.760000
240.388855	146.900000
240.481628	146.660000
240.574417	146.660000
240.667191	146.940000
240.759964	146.560000
240.852737	146.380000
240.945526	145.720000
241.038315	145.700000
241.131088	146.080000
241.223877	146.300000
241.316650	145.840000
241.409439	146.420000
241.502228	145.620000
241.595001	145.840000
241.687790	145.740000
241.780579	146.060000
241.873367	146.040000
241.966141	146.580000
242.058929	145.860000
242.151718	145.920000
242.244507	146.380000
242.337311	145.760000
242.430099	146.180000
242.522903	146.480000
242.615692	146.320000
242.708481	146.120000
242.801270	146.800000
242.894073	146.360000
242.986862	146.220000
243.079651	146.740000
243.172455	146.320000
243.265244	146.240000
243.358063	145.820000
243.450867	146.140000
243.543655	146.120000
243.636459	146.320000
243.729263	146.440000
243.822067	146.660000
243.914856	146.900000
244.007660	146.960000
244.100464	147.020000
244.193268	146.700000
244.286072	146.800000
244.378876	146.180000
244.471680	145.480000
244.564499	145.820000
244.657318	146.500000
244.750122	146.640000
244.842926	146.200000
244.935745	146.860000
245.028549	146.220000
245.121368	145.600000
245.214172	145.400000
245.306992	146.280000
245.399796	145.940000
245.492615	146.340000
245.585434	146.140000
245.678253	146.000000
245.771072	145.640000
245.863892	146.040000
245.956711	146.180000
246.049530	146.160000
246.142349	146.440000
246.235168	146.500000
246.327988	146.840000
246.420807	146.520000
246.513626	146.680000
246.606445	146.280000
246.699280	146.160000
246.792099	145.360000
246.884918	145.200000
246.977753	145.200000
247.070587	145.320000
247.163422	145.140000
247.256241	145.240000
247.349075	145.640000
247.441895	145.140000
247.534729	145.160000
247.627563	145.160000
247.720383	145.960000
247.813217	145.960000
247.906052	146.320000
247.998886	146.640000
248.091736	146.800000
248.184570	146.360000
248.277405	146.300000
248.370239	147.060000
248.463074	147.760000
248.555908	148.040000
248.648743	147.900000
248.741592	147.900000
248.834427	147.180000
248.927261	146.120000
249.020111	146.340000
249.112946	146.820000
249.205795	146.600000
249.298630	146.680000
249.391495	146.540000
249.484344	146.320000
249.577179	145.920000
249.670029	146.180000
249.762878	146.800000
249.855728	147.140000
249.948563	147.120000
250.041412	146.580000
250.134262	146.700000
250.227112	146.560000
250.319962	146.680000
250.412827	146.400000
250.505692	146.320000
250.598541	146.080000
250.691391	145.680000
250.784241	145.700000
250.877106	145.880000
250.969955	146.040000
251.062805	146.740000
251.155670	147.300000
251.248520	146.940000
251.341385	147.140000
251.434235	146.800000
251.527100	146.020000
251.619965	145.240000
251.712814	146.100000
251.805695	146.120000
251.898560	146.700000
251.991425	147.000000
252.084290	147.260000
252.177155	146.360000
252.270020	145.800000
252.362885	145.600000
252.455750	145.500000
252.548615	145.320000
252.641479	145.740000
252.734360	145.840000
252.827240	145.560000
252.920105	145.520000
253.012970	145.580000
253.105850	145.440000
253.198715	145.240000
253.291595	145.680000
253.384460	145.440000
253.477341	145.420000
253.570221	145.480000
253.663086	145.460000
253.755966	145.740000
253.848846	145.720000
253.941727	146.000000
254.034592	145.860000
254.127472	145.420000
254.220367	145.400000
254.313248	145.740000
254.406128	145.120000
254.499008	144.980000
254.591904	146.260000
254.684784	146.540000
254.777664	146.280000
254.870544	146.240000
254.963440	146.600000
255.056335	146.360000
255.149216	146.040000
255.242111	146.620000
255.334991	147.220000
255.427887	147.160000
255.520767	146.980000
255.613663	146.960000
255.706558	146.080000
255.799438	145.840000
255.892334	145.580000
255.985229	145.440000
256.078125	145.460000
256.171021	146.200000
256.263916	146.680000
256.356812	146.960000
256.449707	147.100000
256.542603	146.760000
256.635498	147.000000
256.728394	146.580000
256.821289	146.180000
256.914215	146.440000
257.007080	146.780000
257.100006	146.820000
257.192932	147.120000
257.285828	147.460000
257.378723	147.260000
257.471619	147.060000
257.564545	146.560000
257.657440	146.520000
257.750336	147.000000
257.843262	146.700000
257.936157	147.720000
258.029053	147.940000
258.121979	148.140000
258.214874	147.420000
258.307800	147.500000
258.400696	146.440000
258.493622	146.260000
258.586517	145.420000
258.679443	145.940000
258.772339	145.520000
258.865265	145.600000
258.958160	145.120000
259.051086	146.120000
259.144012	146.080000
259.236938	147.160000
259.329834	147.100000
259.422791	147.180000
259.515717	146.240000
259.608612	145.760000
259.701538	145.520000
259.794464	145.460000
259.887390	145.260000
259.980316	145.460000
260.073212	145.420000
260.166138	144.460000
260.259064	144.940000
260.351990	145.760000
260.444916	145.880000
260.537842	146.380000
260.630768	147.320000
260.723694	147.220000
260.816620	147.080000
260.909546	147.140000
261.002472	146.660000
261.095398	146.120000
261.188354	145.940000
261.281281	145.560000
261.374207	145.520000
261.467133	146.500000
261.560089	146.540000
261.653015	146.280000
261.745972	146.720000
261.838867	147.100000
261.931824	146.700000
262.024780	146.220000
262.117706	146.440000
262.210663	146.800000
262.303589	146.520000
262.396515	146.340000
262.489471	147.480000
262.582397	147.600000
262.675354	146.680000
262.768280	146.760000
262.861237	147.060000
262.954163	146.680000
263.047119	146.680000
263.140045	146.700000
263.233002	146.500000
263.325958	145.980000
263.418884	145.600000
263.511841	145.560000
263.604797	146.020000
263.697723	146.000000
263.790680	146.300000
263.883636	146.760000
263.976593	146.420000
264.069550	146.300000
264.162476	146.160000
264.255463	146.120000
264.348419	145.860000
264.441376	146.220000
264.534332	145.900000
264.627289	146.200000
264.720245	146.700000
264.813202	146.300000
264.906158	146.500000
264.999115	147.000000
265.092072	147.060000
265.185028	146.980000
265.277985	147.340000
265.370941	147.040000
265.463898	146.740000
265.556854	146.180000
265.649811	145.380000
265.742798	145.600000
265.835754	145.620000
265.928711	146.280000
266.021667	146.480000
266.114655	146.720000
266.207611	146.760000
266.300568	146.260000
266.393585	145.300000
266.486511	145.540000
266.579498	145.080000
266.672485	144.840000
266.765442	145.140000
266.858429	145.800000
266.951385	145.540000
267.044342	145.820000
267.137329	145.900000
267.230316	146.280000
267.323273	145.660000
267.416260	146.400000
267.509216	146.400000
267.602203	146.060000
267.695160	146.140000
267.788147	146.360000
267.881134	145.540000
267.974091	145.840000
268.067078	145.940000
268.160065	145.640000
268.253052	145.520000
268.346008	145.780000
268.438995	145.400000
268.531982	145.580000
268.624969	145.480000
268.717987	146.000000
268.810944	146.080000
268.903961	146.380000
268.996948	146.360000
269.089905	146.720000
269.182892	146.560000
269.275879	146.640000
269.368866	146.220000
269.461853	146.300000
269.554871	146.100000
269.647858	146.180000
269.740845	146.160000
269.833832	146.880000
269.926819	146.560000
270.019806	146.720000
270.112793	146.200000
270.205811	146.240000
270.298798	145.720000
270.391785	146.380000
270.484772	145.800000
270.577789	146.060000
270.670776	145.500000
270.763763	145.380000
270.856750	145.360000
270.949768	145.400000
271.042786	145.760000
271.135773	146.000000
271.228790	146.480000
271.321808	145.980000
271.414795	146.320000
271.507782	145.680000
271.600800	145.640000
271.693817	145.580000
271.786804	146.000000
271.879822	145.960000
271.972809	146.040000
272.065826	146.540000
272.158844	146.220000
272.251831	146.800000
272.344849	146.860000
272.437866	146.740000
272.530853	146.600000
272.623871	146.940000
272.716888	145.680000
272.809906	145.820000
272.902893	145.920000
272.995911	145.440000
273.088928	145.220000
273.181946	145.740000
273.274963	145.480000
273.367981	145.720000
273.460999	145.940000
273.554047	146.600000
273.647003	147.160000
273.740051	147.360000
273.833069	147.660000
273.926086	147.860000
274.019135	147.320000
274.112152	146.600000
274.205170	146.460000
274.298187	146.360000
274.391205	145.800000
274.484222	145.940000
274.577240	146.140000
274.670258	146.220000
274.763306	146.100000
274.856323	146.920000
274.949341	146.960000
275.042358	147.340000
275.135406	147.120000
275.228424	147.080000
275.321442	146.860000
275.414490	146.500000
275.507507	146.440000
275.600525	146.800000
275.693573	146.540000
275.786591	146.080000
275.879669	146.260000
275.972656	145.920000
276.065735	145.600000
276.158752	146.260000
276.251801	146.960000
276.344818	147.120000
276.437866	147.380000
276.530884	147.320000
276.623932	146.400000
276.716980	146.360000
276.809998	146.260000
276.903046	145.940000
276.996094	146.760000
277.089111	147.620000
277.182159	147.940000
277.275208	147.640000
277.368256	147.780000
277.461304	147.500000
277.554321	146.840000
277.647369	146.600000
277.740417	146.700000
277.833466	146.580000
277.926514	146.220000
278.019562	147.020000
278.112610	146.460000
278.205688	146.620000
278.298706	146.680000
278.391785	146.480000
278.484833	145.900000
278.577881	146.140000
278.670929	146.280000
278.763977	146.460000
278.857025	146.920000
278.950073	147.080000
279.043121	146.600000
279.136169	146.480000
279.229248	146.000000
279.322296	145.960000
279.415344	145.520000
279.508392	145.880000
279.601440	145.640000
279.694519	145.580000
279.787567	145.220000
279.880615	145.140000
279.973694	144.660000
280.066742	144.920000
280.159790	145.100000
280.252869	144.920000
280.345917	145.180000
280.438995	145.420000
280.532074	145.160000
280.625122	145.820000
280.718201	146.500000
280.811279	146.720000
280.904327	146.680000
280.997406	147.100000
281.090454	146.740000
281.183533	146.440000
281.276581	146.240000
281.369659	146.340000
281.462738	146.300000
281.555786	146.640000
281.648865	146.700000
281.741943	146.520000
281.835022	147.280000
281.928070	146.820000
282.021149	146.460000
282.114227	146.420000
282.207306	146.680000
282.300385	146.440000
282.393433	146.840000
282.486511	146.800000
282.579590	147.280000
282.672668	147.560000
282.765747	147.060000
282.858856	146.840000
282.951904	146.700000
283.045013	146.560000
283.138062	146.660000
283.231171	147.120000
283.324249	147.620000
283.417328	147.680000
283.510406	146.960000
283.603485	146.760000
283.696564	146.620000
283.789642	146.520000
283.882751	146.260000
283.975830	147.160000
284.068909	146.840000
284.161987	147.380000
284.255066	146.740000
284.348175	147.080000
284.441254	146.900000
284.534332	147.160000
284.627441	146.440000
284.720520	146.340000
284.813599	146.340000
284.906708	146.180000
284.999786	145.520000
285.092896	145.200000
285.185974	146.440000
285.279053	145.880000
285.372192	145.620000
285.465240	146.680000
285.558380	146.940000
285.651459	146.220000
285.744568	147.180000
285.837677	146.960000
285.930756	146.700000
286.023865	146.760000
286.116943	146.340000
286.210052	146.340000
286.303162	146.320000
286.396240	146.160000
286.489349	145.940000
286.582458	146.180000
286.675568	145.640000
286.768646	145.880000
286.861755	146.180000
286.954865	147.100000
287.047974	146.660000
287.141083	146.520000
287.234161	146.260000
287.327271	145.760000
287.420380	145.700000
287.513519	145.780000
287.606598	146.000000
287.699738	146.320000
287.792816	146.460000
287.885956	146.100000
287.979034	146.500000
288.072174	146.360000
288.165283	146.300000
288.258392	146.360000
288.351501	145.620000
288.444611	145.700000
288.537720	146.020000
288.630859	145.900000
288.723969	146.000000
288.817078	146.520000
288.910187	146.320000
289.003296	146.060000
289.096436	145.660000
289.189545	145.240000
289.282654	144.940000
289.375763	145.420000
289.468903	145.540000
289.562012	146.060000
289.655121	146.120000
289.748260	146.320000
289.841400	146.380000
289.934509	146.340000
290.027649	146.380000
290.120728	146.440000
290.213898	146.400000
290.306976	146.060000
290.400146	146.020000
290.493256	145.680000
290.586395	146.140000
290.679535	146.500000
290.772644	146.340000
290.865784	145.840000
290.958893	145.980000
291.052032	145.520000
291.145172	145.360000
291.238281	145.020000
291.331421	145.440000
291.424561	145.860000
291.517670	145.800000
291.610809	146.080000
291.703949	146.460000
291.797089	146.520000
291.890228	145.980000
291.983337	146.180000
292.076477	145.920000
292.169617	146.180000
292.262756	146.140000
292.355927	146.200000
292.449036	145.800000
292.542206	145.980000
292.635315	146.100000
292.728485	146.280000
292.821625	145.960000
292.914764	147.120000
293.007904	147.020000
293.101044	146.700000
293.194183	146.660000
293.287323	147.240000
293.380463	146.620000
293.473602	146.520000
293.566742	146.920000
293.659882	147.140000
293.753021	147.260000
293.846191	147.020000
293.939331	146.580000
294.032471	146.240000
294.125610	145.960000
294.218781	146.300000
294.311920	146.340000
294.405060	146.760000
294.498230	146.640000
294.591370	146.760000
294.684540	145.920000
294.777679	145.820000
294.870850	146.140000
294.963959	146.040000
295.057159	145.860000
295.150299	146.240000
295.243469	146.400000
295.336609	145.720000
295.429779	145.840000
295.522919	146.240000
295.616089	146.060000
295.709229	146.680000
295.802399	146.920000
295.895569	146.600000
295.988708	146.260000
296.081879	146.400000
296.175018	145.660000
296.268188	145.760000
296.361359	146.240000
296.454529	146.600000
296.547668	146.620000
296.640839	146.660000
296.734009	146.200000
296.827179	146.580000
296.920319	146.680000
297.013519	146.300000
297.106659	146.420000
297.199860	146.560000
297.292999	146.040000
297.386200	145.660000
297.479309	145.760000
297.572510	145.700000
297.665680	145.600000
297.758850	145.840000
297.852020	145.460000
297.945190	145.640000
298.038361	145.560000
298.131531	146.360000
298.224701	146.040000
298.317871	146.180000
298.411072	145.600000
298.504242	145.480000
298.597412	145.060000
298.690582	145.300000
298.783752	145.580000
298.876923	146.460000
298.970093	146.780000
299.063293	147.080000
299.156464	147.500000
299.249634	147.360000
299.342834	147.360000
299.436005	147.360000
299.529205	147.020000
299.622345	146.920000
299.715576	146.560000
299.808716	146.140000
299.901917	146.160000
299.995117	146.380000
300.088287	146.280000
300.181488	146.260000
300.274658	146.280000
300.367828	146.380000
300.461029	146.420000
300.554199	146.480000
300.647400	146.480000
300.740601	147.140000
300.833771	146.820000
300.926971	147.120000
301.020142	146.600000
301.113342	146.940000
301.206512	146.320000
301.299713	146.780000
301.392914	146.260000
301.486084	146.580000
301.579285	146.460000
301.672516	146.900000
301.765686	146.560000
301.858887	146.700000
301.952057	146.540000
302.045288	146.640000
302.138458	146.100000
302.231659	146.080000
302.324860	145.840000
302.418060	145.380000
302.511261	145.280000
302.604462	145.560000
302.697662	145.560000
302.790863	145.460000
302.884064	145.340000
302.977264	145.280000
303.070465	145.520000
303.163666	145.980000
303.256866	146.420000
303.350067	146.920000
303.443268	147.140000
303.536469	147.300000
303.629669	146.560000
303.722870	146.840000
303.816071	146.660000
303.909271	146.400000
304.002472	145.640000
304.095673	145.460000
304.188934	144.340000
304.282104	145.160000
304.375336	145.460000
304.468506	145.560000
304.561768	145.600000
304.654968	146.700000
304.748169	146.240000
304.841370	145.980000
304.934601	146.520000
305.027802	146.300000
305.121002	145.620000
305.214233	145.820000
305.307434	145.800000
305.400665	146.140000
305.493866	146.360000
305.587097	146.580000
305.680298	146.260000
305.773499	146.800000
305.866730	146.360000
305.959930	147.000000
306.053162	147.260000
306.146393	147.060000
306.239594	146.360000
306.332825	145.960000
306.426025	146.200000
306.519287	145.700000
306.612488	145.940000
306.705719	145.940000
306.798920	146.200000
306.892181	145.260000
306.985352	145.000000
307.078613	144.580000
307.171844	145.220000
307.265045	144.800000
307.358276	144.840000
307.451508	145.660000
307.544739	146.100000
307.637970	145.380000
307.731201	145.580000
307.824402	146.420000
307.917633	146.420000
308.010864	146.960000
308.104095	147.580000
308.197327	147.420000
308.290558	147.120000
308.383789	146.560000
308.477020	145.940000
308.570251	145.340000
308.663483	145.240000
308.756714	145.100000
308.849976	145.480000
308.943176	145.680000
309.036438	145.880000
309.129639	146.100000
309.222900	146.300000
309.316101	145.940000
309.409393	145.760000
309.502625	145.580000
309.595856	145.740000
309.689087	145.700000
309.782318	145.940000
309.875580	145.860000
309.968811	146.020000
310.062042	145.700000
310.155273	145.660000
310.248535	146.120000
310.341766	145.960000
310.434998	145.860000
310.528259	146.200000
310.621490	146.540000
310.714722	145.660000
310.807983	145.960000
310.901215	145.940000
310.994476	145.820000
311.087708	145.000000
311.181000	145.380000
311.274200	145.180000
311.367462	145.400000
311.460693	145.260000
311.553986	146.100000
311.647186	146.360000
311.740479	146.920000
311.833710	146.600000
311.926971	146.520000
312.020203	145.720000
312.113464	145.660000
312.206726	145.000000
312.299957	145.360000
312.393219	145.840000
312.486481	146.240000
312.579712	146.000000
312.672974	146.100000
312.766235	146.100000
312.859497	146.060000
312.952759	145.880000
313.045990	146.900000
313.139252	146.820000
313.232513	146.880000
313.325775	147.040000
313.419037	146.960000
313.512299	145.760000
313.605530	146.220000
313.698822	146.460000
313.792053	146.300000
313.885345	146.080000
313.978577	146.320000
314.071869	145.580000
314.165131	145.520000
314.258392	145.600000
314.351654	145.960000
314.444916	145.560000
314.538177	146.540000
314.631439	146.480000
314.724701	146.160000
314.817993	146.080000
314.911255	146.440000
315.004517	145.740000
315.097778	145.520000
315.191040	146.200000
315.284302	146.440000
315.377594	146.300000
315.470856	146.360000
315.564117	146.200000
315.657379	145.460000
315.750671	145.160000
315.843933	145.580000
315.937195	145.260000
316.030518	145.120000
316.123749	145.180000
316.217041	145.800000
316.310303	145.800000
316.403595	146.280000
316.496857	146.780000
316.590149	147.160000
316.683411	146.880000
316.776703	146.540000
316.869965	146.380000
316.963257	145.900000
317.056519	145.160000
317.149811	144.700000
317.243073	144.880000
317.336365	144.760000
317.429626	145.140000
317.522919	145.800000
317.616180	145.940000
317.709473	145.440000
317.802765	145.520000
317.896027	145.420000
317.989319	145.340000
318.082611	145.320000
318.175873	145.500000
318.269165	145.640000
318.362488	145.640000
318.455750	145.420000
318.549042	146.180000
318.642303	146.640000
318.735626	146.460000
318.828888	146.620000
318.922211	146.380000
319.015472	146.580000
319.108765	145.680000
319.202057	145.520000
319.295349	145.500000
319.388641	145.500000
319.481934	144.920000
319.575226	145.460000
319.668518	145.700000
319.761810	145.860000
319.855103	146.200000
319.948395	146.120000
320.041687	146.260000
320.134979	146.480000
320.228271	146.140000
320.321564	146.100000
320.414856	145.960000
320.508148	145.420000
320.601440	145.180000
320.694763	145.160000
320.788025	145.700000
320.881348	145.800000
320.974640	146.080000
321.067963	145.740000
321.161224	145.660000
321.254547	144.880000
321.347839	145.600000
321.441162	145.460000
321.534454	145.660000
321.627747	145.860000
321.721069	146.780000
321.814362	146.280000
321.907654	146.660000
322.000946	146.760000
322.094269	147.460000
322.187561	146.640000
322.280884	146.920000
322.374176	146.720000
322.467468	147.220000
322.560791	146.920000
322.654083	147.660000
322.747406	147.440000
322.840698	147.840000
322.934021	147.740000
323.027344	147.820000
323.120636	147.280000
323.213959	147.440000
323.307251	146.860000
323.400574	146.740000
323.493866	146.240000
323.587219	146.520000
323.680511	146.760000
323.773834	147.120000
323.867157	147.200000
323.960449	147.620000
324.053772	147.280000
324.147095	147.000000
324.240387	147.500000
324.333710	147.320000
324.427032	147.300000
324.520355	147.420000
324.613647	146.720000
324.706970	146.320000
324.800293	146.000000
324.893616	146.000000
324.986938	145.920000
325.080231	145.920000
325.173553	145.800000
325.266876	146.260000
325.360199	146.060000
325.453522	145.740000
325.546875	146.080000
325.640167	146.380000
325.733521	146.660000
325.826813	146.820000
325.920166	146.800000
326.013489	146.620000
326.106812	145.740000
326.200134	145.280000
326.293457	144.800000
326.386780	145.300000
326.480103	145.300000
326.573425	145.480000
326.666748	145.380000
326.760071	145.840000
326.853424	145.720000
326.946747	145.700000
327.040070	146.600000
327.133392	146.460000
327.226715	145.680000
327.320068	144.940000
327.413391	145.400000
327.506714	144.420000
327.600037	144.440000
327.693390	145.040000
327.786713	145.480000
327.880066	145.520000
327.973358	146.300000
328.066742	146.920000
328.160034	146.960000
328.253418	147.380000
328.346710	146.740000
328.440063	146.080000
328.533417	145.600000
328.626740	145.900000
328.720093	145.620000
328.813416	146.000000
328.906769	146.260000
329.000092	146.380000
329.093445	145.980000
329.186768	145.960000
329.280121	146.160000
329.373444	146.340000
329.466797	146.220000
329.560120	146.320000
329.653473	146.540000
329.746796	146.040000
329.840149	145.640000
329.933502	145.820000
330.026825	145.540000
330.120178	145.180000
330.213562	145.560000
330.306854	145.460000
330.400238	145.280000
330.493561	145.420000
330.586945	146.120000
330.680237	146.220000
330.773621	146.600000
330.866974	146.800000
330.960327	146.920000
331.053680	146.440000
331.147003	146.280000
331.240356	146.540000
331.333710	146.800000
331.427063	146.440000
331.520416	146.480000
331.613770	146.140000
331.707123	146.160000
331.800476	146.100000
331.893829	147.260000
331.987152	147.460000
332.080505	147.460000
332.173859	146.840000
332.267212	145.920000
332.360565	145.020000
332.453918	144.760000
332.547333	145.100000
332.640656	145.620000
332.734039	146.240000
332.827362	146.380000
332.920746	146.620000
333.014069	146.760000
333.107452	147.120000
333.200806	147.280000
333.294159	147.160000
333.387543	146.540000
333.480896	146.060000
333.574249	145.860000
333.667603	145.560000
333.760956	145.640000
333.854340	146.020000
333.947693	146.160000
334.041046	145.960000
334.134430	146.360000
334.227783	146.040000
334.321136	145.960000
334.414520	145.600000
334.507874	145.500000
334.601227	145.120000
334.694611	145.040000
334.787964	145.220000
334.881348	145.980000
334.974701	145.900000
335.068085	145.880000
335.161438	146.320000
335.254822	145.800000
335.348175	145.220000
335.441559	145.100000
335.534943	145.500000
335.628296	145.280000
335.721680	145.740000
335.815033	146.200000
335.908417	146.620000
336.001770	146.620000
336.095154	146.560000
336.188538	146.180000
336.281891	145.880000
336.375275	145.080000
336.468658	144.660000
336.562012	144.960000
336.655396	145.340000
336.748779	145.400000
336.842133	145.960000
336.935516	146.220000
337.028900	145.840000
337.122284	145.620000
337.215637	145.840000
337.309021	145.360000
337.402435	145.140000
337.495789	145.220000
337.589203	145.380000
337.682526	145.080000
337.775940	145.900000
337.869324	146.120000
337.962708	145.920000
338.056091	146.200000
338.149475	146.240000
338.242859	145.960000
338.336243	145.620000
338.429626	145.780000
338.523010	145.780000
338.616394	145.560000
338.709778	146.040000
338.803162	146.440000
338.896545	146.540000
338.989929	145.960000
339.083313	146.360000
339.176697	145.660000
339.270081	145.420000
339.363464	145.640000
339.456848	146.100000
339.550232	145.560000
339.643616	145.660000
339.737030	145.920000
339.830383	145.460000
339.923828	145.300000
340.017181	145.360000
340.110596	145.320000
340.203949	145.180000
340.297363	145.160000
340.390778	145.400000
340.484161	145.600000
340.577545	145.660000
340.670959	145.780000
340.764343	146.020000
340.857727	146.040000
340.951111	145.580000
341.044525	145.780000
341.137909	145.240000
341.231293	145.080000
341.324707	144.360000
341.418091	145.020000
341.511505	144.720000
341.604889	145.180000
341.698303	145.400000
341.791687	145.880000
341.885071	145.480000
341.978485	145.480000
342.071899	145.840000
342.165283	145.880000
342.258698	145.880000
342.352081	146.280000
342.445496	146.840000
342.538879	146.380000
342.632324	146.120000
342.725708	146.220000
342.819122	145.840000
342.912506	145.360000
343.005920	145.300000
343.099335	146.240000
343.192719	146.080000
343.286133	146.360000
343.379547	146.580000
343.472931	146.560000
343.566345	145.660000
343.659760	146.280000
343.753143	145.920000
343.846558	145.420000
343.939972	145.280000
344.033386	146.060000
344.126770	145.700000
344.220184	145.920000
344.313599	146.720000
344.407043	147.100000
344.500427	146.260000
344.593872	146.340000
344.687225	146.200000
344.780670	145.600000
344.874054	145.240000
344.967499	145.760000
345.060913	145.820000
345.154327	146.160000
345.247742	145.860000
345.341156	145.860000
345.434570	145.500000
345.527985	145.260000
345.621399	145.040000
345.714813	145.240000
345.808228	145.740000
345.901642	145.640000
345.995056	145.440000
346.088470	145.780000
346.181885	145.980000
346.275299	145.320000
346.368713	145.480000
346.462128	145.340000
346.555573	145.020000
346.648987	145.340000
346.742401	145.560000
346.835815	145.740000
346.929260	145.700000
347.022644	145.900000
347.116119	145.640000
347.209503	145.900000
347.302948	146.660000
347.396362	147.240000
347.489807	147.340000
347.583221	148.040000
347.676636	147.800000
347.770050	146.500000
347.863495	146.040000
347.956909	145.660000
348.050323	145.100000
348.143768	145.340000
348.237183	145.560000
348.330597	146.040000
348.424042	146.460000
348.517456	146.500000
348.610901	146.420000
348.704315	146.480000
348.797760	145.940000
348.891174	145.440000
348.984619	145.220000
349.078033	145.340000
349.171448	145.780000
349.264923	145.720000
349.358337	145.560000
349.451782	145.560000
349.545197	145.120000
349.638641	144.480000
349.732086	144.260000
349.825500	144.960000
349.918945	144.560000
350.012390	145.180000
350.105804	145.640000
350.199249	145.980000
350.292664	146.420000
350.386108	146.720000
350.479553	146.780000
350.572968	146.560000
350.666412	146.740000
350.759857	146.280000
350.853302	146.680000
350.946716	146.140000
351.040161	146.340000
351.133606	146.380000
351.227081	145.880000
351.320465	146.440000
351.413940	146.640000
351.507355	146.680000
351.600830	146.700000
351.694244	146.820000
351.787720	146.280000
351.881104	146.260000
351.974579	146.100000
352.067993	146.700000
352.161469	146.680000
352.254883	146.080000
352.348358	145.760000
352.441803	145.600000
352.535248	145.060000
352.628693	145.400000
352.722137	145.520000
352.815582	145.980000
352.909027	146.100000
353.002472	145.840000
353.095917	145.580000
353.189362	146.100000
353.282806	145.940000
353.376251	145.740000
353.469696	145.280000
353.563141	145.780000
353.656586	145.480000
353.750061	145.200000
353.843475	145.380000
353.936981	146.320000
354.030396	145.600000
354.123871	145.320000
354.217285	146.220000
354.310760	146.500000
354.404175	146.180000
354.497681	146.200000
354.591095	146.380000
354.684570	145.340000
354.777985	145.000000
354.871490	145.140000
354.964935	145.820000
355.058380	145.920000
355.151855	145.860000
355.245300	146.160000
355.338745	146.120000
355.432220	146.040000
355.525665	145.680000
355.619110	146.420000
355.712585	146.100000
355.806030	145.780000
355.899475	145.360000
355.992950	145.840000
356.086426	145.780000
356.179871	145.900000
356.273346	146.040000
356.366791	146.300000
356.460266	146.580000
356.553711	146.280000
356.647186	146.300000
356.740631	146.260000
356.834106	145.960000
356.927551	145.740000
357.021027	145.980000
357.114471	145.880000
357.207947	145.860000
357.301422	146.380000
357.394867	146.480000
357.488342	146.640000
357.581818	146.900000
357.675262	147.180000
357.768738	146.440000
357.862213	145.780000
357.955658	145.540000
358.049133	145.140000
358.142609	145.120000
358.236053	145.320000
358.329529	145.480000
358.423035	145.740000
358.516449	145.500000
358.609955	146.120000
358.703400	146.940000
358.796906	147.360000
358.890350	146.720000
358.983826	147.260000
359.077271	146.180000
359.170776	145.400000
359.264221	145.060000
359.357727	145.520000
359.451172	145.740000
359.544647	145.900000
359.638123	145.900000
359.731598	146.220000
359.825073	146.420000
359.918549	146.480000
360.012024	146.960000
360.105499	146.940000
360.198975	146.680000
360.292450	146.560000
360.385925	146.420000
360.479401	146.020000
360.572876	146.100000
360.666351	146.400000
360.759857	146.200000
360.853302	146.380000
360.946808	146.280000
361.040253	146.440000
361.133759	145.940000
361.227203	146.220000
361.320709	145.720000
361.414154	146.080000
361.507660	146.440000
361.601105	147.000000
361.694641	147.420000
361.788086	147.340000
361.881592	147.640000
361.975067	147.140000
362.068542	147.160000
362.162018	146.780000
362.255524	146.380000
362.348999	145.900000
362.442474	146.080000
362.535950	145.760000
362.629456	145.320000
362.722931	145.700000
362.816406	146.120000
362.909882	146.440000
363.003387	146.220000
363.096863	146.480000
363.190338	146.500000
363.283875	145.860000
363.377319	145.420000
363.470825	145.820000
363.564301	145.500000
363.657806	145.700000
363.751282	145.440000
363.844788	146.120000
363.938232	145.740000
364.031769	146.600000
364.125214	147.040000
364.218750	147.980000
364.312225	146.940000
364.405731	147.120000
364.499207	146.160000
364.592712	145.440000
364.686188	144.840000
364.779694	145.400000
364.873169	145.100000
364.966675	145.400000
365.060150	145.480000
365.153656	146.160000
365.247131	145.840000
365.340637	146.060000
365.434143	146.600000
365.527618	146.620000
365.621155	145.600000
365.714600	145.800000
365.808136	145.900000
365.901611	144.800000
365.995117	144.720000
366.088593	144.860000
366.182129	144.480000
366.275604	144.640000
366.369110	144.840000
366.462585	145.000000
366.556122	145.880000
366.649567	146.160000
366.743103	146.120000
366.836609	146.460000
366.930115	146.720000
367.023590	146.360000
367.117096	146.400000
367.210602	146.400000
367.304108	146.840000
367.397614	147.420000
367.491119	147.740000
367.584595	147.760000
367.678101	148.020000
367.771606	147.500000
367.865112	146.580000
367.958649	146.180000
368.052124	145.780000
368.145660	145.720000
368.239136	146.480000
368.332672	146.740000
368.426147	146.620000
368.519684	146.860000
368.613159	146.940000
368.706696	146.100000
368.800171	146.040000
368.893707	146.020000
368.987183	145.900000
369.080719	145.860000
369.174225	145.900000
369.267731	145.980000
369.361237	146.140000
369.454742	146.220000
369.548248	146.200000
369.641754	146.180000
369.735260	145.880000
369.828766	145.060000
369.922272	145.820000
370.015808	145.680000
370.109314	145.500000
370.202820	145.460000
370.296356	146.840000
370.389832	146.480000
370.483368	146.100000
370.576874	146.240000
370.670410	146.460000
370.763885	145.380000
370.857422	145.140000
370.950928	144.940000
371.044464	145.720000
371.137939	145.840000
371.231476	146.300000
371.324982	146.860000
371.418518	147.300000
371.512024	146.840000
371.605560	146.540000
371.699066	146.840000
371.792572	146.200000
371.886108	146.220000
371.979614	145.960000
372.073120	146.640000
372.166656	146.300000
372.260162	146.620000
372.353668	146.560000
372.447205	146.480000
372.540710	145.960000
372.634277	145.780000
372.727753	145.480000
372.821320	145.560000
372.914795	145.600000
373.008362	145.660000
373.101837	145.860000
373.195404	145.700000
373.288879	145.540000
373.382446	146.080000
373.475922	145.640000
373.569489	146.280000
373.662964	146.860000
373.756531	147.080000
373.850037	147.100000
373.943573	147.300000
374.037109	146.160000
374.130615	146.120000
374.224152	146.360000
374.317657	145.920000
374.411194	146.860000
374.504730	146.940000
374.598236	146.680000
374.691772	146.320000
374.785309	146.500000
374.878815	145.340000
374.972351	146.140000
375.065887	145.980000
375.159454	146.720000
375.252930	146.380000
375.346497	146.820000
375.440002	146.860000
375.533569	147.000000
375.627045	145.900000
375.720612	145.920000
375.814117	146.300000
375.907684	145.800000
376.001160	145.520000
376.094727	145.340000
376.188232	145.820000
376.281799	145.500000
376.375336	145.620000
376.468872	146.460000
376.562408	146.760000
376.655914	146.420000
376.749451	146.320000
376.842987	146.460000
376.936523	145.840000
377.030060	145.940000
377.123596	146.220000
377.217133	145.900000
377.310669	145.700000
377.404205	146.040000
377.497772	146.580000
377.591278	146.120000
377.684845	147.080000
377.778351	147.440000
377.871918	147.280000
377.965424	146.740000
378.058990	146.760000
378.152496	146.440000
378.246063	146.480000
378.339569	146.740000
378.433136	146.740000
378.526642	146.920000
378.620209	146.740000
378.713745	146.360000
378.807312	146.340000
378.900848	146.400000
378.994385	146.340000
379.087921	145.540000
379.181458	145.720000
379.274994	145.120000
379.368530	145.080000
379.462097	145.600000
379.555634	146.720000
379.649170	146.040000
379.742706	146.040000
379.836273	146.200000
379.929810	145.380000
380.023376	144.660000
380.116882	144.980000
380.210449	145.080000
380.303986	144.720000
380.397552	144.560000
380.491058	144.960000
380.584656	144.980000
380.678162	145.340000
380.771729	145.440000
380.865265	146.540000
380.958832	146.220000
381.052368	146.100000
381.145935	146.060000
381.239471	146.480000
381.333008	146.140000
381.426575	146.180000
381.520111	146.700000
381.613647	146.840000
381.707214	146.280000
381.800751	145.600000
381.894318	145.700000
381.987854	145.240000
382.081421	144.920000
382.174988	145.280000
382.268524	145.320000
382.362091	145.540000
382.455627	146.440000
382.549194	146.520000
382.642731	145.980000
382.736298	145.920000
382.829834	145.640000
382.923401	145.640000
383.016937	146.020000
383.110504	146.580000
383.204041	146.860000
383.297607	147.260000
383.391174	146.180000
383.484741	146.460000
383.578278	145.860000
383.671844	145.580000
383.765411	144.820000
383.858948	145.500000
383.952515	145.060000
384.046051	145.600000
384.139618	146.180000
384.233185	146.760000
384.326721	146.440000
384.420288	146.900000
384.513855	146.920000
384.607422	146.880000
384.700989	146.820000
384.794525	146.380000
384.888123	146.080000
384.981659	146.220000
385.075226	145.860000
385.168762	145.560000
385.262360	146.120000
385.355896	145.360000
385.449463	145.020000
385.542999	144.780000
385.636597	145.660000
385.730164	145.720000
385.823730	145.760000
385.917267	145.640000
386.010834	146.200000
386.104401	145.840000
386.197968	146.280000
386.291534	146.480000
386.385101	146.460000
386.478668	146.400000
386.572235	146.100000
386.665802	145.260000
386.759338	145.080000
386.852905	145.120000
386.946472	144.860000
387.040070	144.960000
387.133606	145.060000
387.227203	145.000000
387.320740	145.520000
387.414337	145.500000
387.507874	145.260000
387.601471	145.440000
387.695007	145.420000
387.788605	144.900000
387.882141	145.280000
387.975739	145.440000
388.069275	145.140000
388.162872	145.620000
388.256439	145.780000
388.350037	145.360000
388.443604	145.340000
388.537170	145.480000
388.630737	145.520000
388.724304	145.660000
388.817871	145.720000
388.911438	145.540000
389.005005	145.700000
389.098602	145.860000
389.192169	145.520000
389.285736	146.160000
389.379333	146.320000
389.472870	145.800000
389.566467	145.580000
389.660034	145.980000
389.753632	145.560000
389.847168	146.140000
389.940765	146.700000
390.034332	146.880000
390.127930	146.380000
390.221466	146.420000
390.315063	145.880000
390.408630	145.080000
390.502228	144.180000
390.595795	144.460000
390.689362	144.740000
390.782959	145.140000
390.876526	145.880000
390.970093	146.280000
391.063690	146.760000
391.157257	146.440000
391.250824	146.420000
391.344421	146.040000
391.437988	146.300000
391.531555	146.300000
391.625153	146.400000
391.718750	146.460000
391.812317	146.640000
391.905914	146.680000
391.999481	146.640000
392.093079	146.460000
392.186615	146.800000
392.280243	146.760000
392.373779	146.880000
392.467407	146.960000
392.560944	146.820000
392.654572	146.040000
392.748108	146.140000
392.841736	146.080000
392.935303	145.620000
393.028900	145.780000
393.122467	145.840000
393.216064	145.460000
393.309631	144.840000
393.403229	144.580000
393.496796	144.420000
393.590393	144.200000
393.683990	144.800000
393.777557	145.420000
393.871155	145.720000
393.964722	146.360000
394.058350	146.440000
394.151917	146.100000
394.245514	145.900000
394.339081	146.260000
394.432678	146.200000
394.526245	146.080000
394.619873	145.700000
394.713409	145.720000
394.807037	145.240000
394.900604	145.240000
394.994202	145.440000
395.087769	146.160000
395.181396	145.560000
395.274994	146.440000
395.368561	145.540000
395.462158	145.660000
395.555756	144.960000
395.649353	145.800000
395.742920	144.920000
395.836517	145.720000
395.930115	145.040000
396.023712	145.620000
396.117279	145.740000
396.210876	145.680000
396.304474	145.660000
396.398071	146.220000
396.491669	146.380000
396.585266	146.100000
396.678833	145.940000
396.772461	146.220000
396.866028	146.360000
396.959656	146.940000
397.053223	147.560000
397.146851	148.140000
397.240417	148.920000
397.334015	150.800000
397.427582	151.820000
397.521210	154.120000
397.614807	157.700000
397.708405	161.700000
397.802002	166.920000
397.895599	174.980000
397.989197	184.760000
398.082794	196.240000
398.176392	211.220000
398.269989	228.160000
398.363586	248.180000
398.457184	270.780000
398.550781	296.740000
398.644379	321.900000
398.737976	348.720000
398.831573	374.440000
398.925201	398.000000
399.018768	419.280000
399.112396	440.020000
399.205963	459.100000
399.299591	478.040000
399.393158	496.860000
399.486786	516.400000
399.580353	534.960000
399.673981	549.320000
399.767578	560.640000
399.861206	567.000000
399.954773	566.320000
400.048401	558.720000
400.141998	547.100000
400.235596	530.060000
400.329193	510.300000
400.422791	488.380000
400.516418	466.280000
400.610016	445.320000
400.703613	424.760000
400.797211	403.540000
400.890808	383.440000
400.984436	364.180000
401.078033	343.000000
401.171631	321.740000
401.265259	300.760000
401.358826	280.320000
401.452484	259.520000
401.546051	241.220000
401.639679	223.600000
401.733246	209.120000
401.826904	196.020000
401.920471	185.040000
402.014099	175.740000
402.107697	168.860000
402.201324	163.220000
402.294891	158.900000
402.388550	155.940000
402.482147	153.760000
402.575745	151.460000
402.669373	149.580000
402.762970	148.460000
402.856567	147.460000
402.950195	147.000000
403.043793	147.020000
403.137390	147.480000
403.231018	146.600000
403.324615	147.220000
403.418243	146.860000
403.511841	147.220000
403.605469	146.780000
403.699066	147.420000
403.792694	146.720000
403.886292	147.040000
403.979919	146.820000
404.073517	146.600000
404.167145	146.900000
404.260712	147.220000
404.354370	146.940000
404.447937	147.060000
404.541595	147.080000
404.635162	146.800000
404.728821	147.160000
404.822418	146.720000
404.916046	146.320000
405.009644	146.580000
405.103271	146.880000
405.196899	146.480000
405.290497	146.700000
405.384125	147.140000
405.477722	146.560000
405.571350	145.920000
405.664948	146.060000
405.758575	145.960000
405.852203	145.180000
405.945801	145.640000
406.039429	145.900000
406.133057	145.680000
406.226654	145.460000
406.320312	145.780000
406.413879	145.760000
406.507538	145.940000
406.601135	145.720000
406.694763	146.560000
406.788361	146.280000
406.882019	145.820000
406.975586	146.100000
407.069244	146.560000
407.162872	146.320000
407.256470	146.380000
407.350098	146.780000
407.443726	146.160000
407.537323	145.820000
407.630951	146.160000
407.724579	146.060000
407.818207	146.400000
407.911804	146.460000
408.005432	146.360000
408.099060	146.260000
408.192688	146.960000
408.286285	146.540000
408.379913	146.320000
408.473572	146.480000
408.567169	145.920000
408.660828	145.540000
408.754395	145.300000
408.848053	145.500000
408.941650	145.540000
409.035309	145.160000
409.128906	144.960000
409.222565	145.380000
409.316132	145.720000
409.409790	145.420000
409.503387	145.760000
409.597046	145.820000
409.690674	145.740000
409.784302	145.720000
409.877930	145.780000
409.971558	145.920000
410.065186	145.900000
410.158783	145.620000
410.252411	145.240000
410.346039	145.640000
410.439667	145.600000
410.533295	146.080000
410.626923	146.440000
410.720551	146.120000
410.814209	146.620000
410.907806	146.780000
411.001465	146.100000
411.095062	145.980000
411.188721	146.480000
411.282318	145.520000
411.375977	145.300000
411.469574	145.720000
411.563232	145.620000
411.656830	145.560000
411.750488	145.580000
411.844086	145.200000
411.937744	145.440000
412.031372	145.260000
412.125000	145.000000
412.218628	145.160000
412.312256	146.020000
412.405884	146.220000
412.499512	146.100000
412.593170	146.440000
412.686798	146.780000
412.780426	146.160000
412.874054	145.780000
412.967682	146.100000
413.061310	146.700000
413.154968	146.600000
413.248566	146.900000
413.342224	146.680000
413.435852	146.920000
413.529510	146.300000
413.623108	145.720000
413.716766	145.620000
413.810364	146.020000
413.904022	145.480000
413.997650	144.880000
414.091309	145.860000
414.184906	145.520000
414.278564	144.920000
414.372192	145.480000
414.465851	146.120000
414.559479	145.500000
414.653107	146.560000
414.746735	146.680000
414.840393	146.560000
414.934021	146.560000
415.027649	146.460000
415.121277	146.200000
415.214935	146.580000
415.308563	146.640000
415.402191	146.000000
415.495850	146.220000
415.589478	145.680000
415.683136	145.540000
415.776733	145.760000
415.870422	146.560000
415.964020	145.800000
416.057678	146.020000
416.151306	145.800000
416.244965	145.460000
416.338562	145.180000
416.432251	145.920000
416.525848	146.420000
416.619507	146.940000
416.713165	147.300000
416.806793	147.340000
416.900421	147.600000
416.994080	146.820000
417.087708	146.380000
417.181366	145.840000
417.274994	145.940000
417.368622	146.060000
417.462280	146.600000
417.555908	146.840000
417.649567	146.920000
417.743195	147.100000
417.836853	146.820000
417.930481	147.000000
418.024170	146.860000
418.117767	147.340000
418.211426	147.320000
418.305054	147.620000
418.398712	147.020000
418.492340	147.100000
418.585999	147.280000
418.679626	147.040000
418.773285	146.700000
418.866913	147.160000
418.960571	147.440000
419.054230	147.360000
419.147858	147.700000
419.241516	147.980000
419.335144	147.460000
419.428802	147.100000
419.522461	146.800000
419.616089	146.140000
419.709747	146.260000
419.803375	146.440000
419.897034	146.300000
419.990662	146.200000
420.084320	146.900000
420.177979	146.740000
420.271606	146.860000
420.365295	147.440000
420.458893	147.380000
420.552582	147.360000
420.646210	147.380000
420.739868	147.040000
420.833496	146.400000
420.927155	145.860000
421.020782	145.500000
421.114471	144.920000
421.208069	145.240000
421.301758	145.860000
421.395386	146.400000
421.489044	146.160000
421.582703	146.240000
421.676361	146.660000
421.769989	146.260000
421.863647	146.600000
421.957306	146.900000
422.050934	146.900000
422.144592	146.720000
422.238251	146.360000
422.331909	145.800000
422.425537	145.600000
422.519196	145.880000
422.612854	145.360000
422.706543	145.200000
422.800140	145.580000
422.893829	145.400000
422.987457	145.020000
423.081146	145.180000
423.174744	146.040000
423.268433	145.880000
423.362061	145.720000
423.455750	145.740000
423.549347	145.600000
423.643036	144.520000
423.736664	144.960000
423.830353	145.360000
423.924011	145.800000
424.017639	145.620000
424.111298	146.060000
424.204956	145.880000
424.298615	145.820000
424.392273	145.340000
424.485931	145.920000
424.579559	145.960000
424.673218	145.560000
424.766876	145.620000
424.860535	145.520000
424.954193	145.000000
425.047882	145.500000
425.141510	145.620000
425.235199	145.520000
425.328796	145.480000
425.422485	145.340000
425.516113	144.700000
425.609802	144.840000
425.703430	145.100000
425.797119	145.260000
425.890747	145.620000
425.984436	146.220000
426.078064	146.080000
426.171753	145.900000
426.265411	145.980000
426.359070	146.120000
426.452728	145.720000
426.546356	145.360000
426.640015	145.300000
426.733673	145.240000
426.827332	144.740000
426.920990	145.260000
427.014648	145.260000
427.108307	145.340000
427.201965	145.480000
427.295624	145.760000
427.389282	144.960000
427.482941	145.360000
427.576630	145.540000
427.670258	144.940000
427.763947	144.900000
427.857574	145.280000
427.951263	145.100000
428.044922	144.860000
428.138611	145.420000
428.232239	146.020000
428.325928	146.120000
428.419556	146.260000
428.513245	145.760000
428.606903	145.520000
428.700562	144.800000
428.794220	144.080000
428.887878	143.680000
428.981537	144.260000
429.075195	144.480000
429.168854	144.880000
429.262512	145.220000
429.356201	145.640000
429.449860	145.440000
429.543518	145.520000
429.637177	145.840000
429.730835	146.100000
429.824493	145.900000
429.918182	146.260000
430.011810	145.920000
430.105530	145.080000
430.199158	145.380000
430.292847	145.160000
430.386475	144.860000
430.480164	144.780000
430.573792	144.600000
430.667511	144.240000
430.761139	144.440000
430.854828	144.840000
430.948456	144.900000
431.042145	145.840000
431.135834	145.620000
431.229492	145.840000
431.323151	145.520000
431.416809	145.540000
431.510468	145.140000
431.604156	145.260000
431.697815	145.540000
431.791473	145.560000
431.885132	145.360000
431.978821	145.520000
432.072479	145.880000
432.166138	146.140000
432.259827	145.960000
432.353485	146.400000
432.447174	146.460000
432.540802	146.220000
432.634491	146.120000
432.728149	146.380000
432.821838	146.960000
432.915466	146.420000
433.009186	146.320000
433.102814	145.540000
433.196503	145.380000
433.290131	144.940000
433.383850	145.260000
433.477509	145.560000
433.571167	146.440000
433.664856	146.940000
433.758514	147.340000
433.852173	147.640000
433.945862	147.340000
434.039520	147.160000
434.133179	146.460000
434.226868	146.100000
434.320526	145.360000
434.414185	145.900000
434.507874	145.560000
434.601562	145.920000
434.695221	145.820000
434.788910	146.340000
434.882538	146.220000
434.976257	145.620000
435.069885	145.780000
435.163574	146.040000
435.257233	145.340000
435.350922	145.280000
435.444580	145.420000
435.538269	144.740000
435.631897	144.540000
435.725616	145.640000
435.819275	145.800000
435.912964	146.640000
436.006622	147.580000
436.100311	147.560000
436.193970	146.720000
436.287628	146.320000
436.381317	145.820000
436.474976	145.300000
436.568665	144.820000
436.662323	145.120000
436.756012	145.180000
436.849670	144.960000
436.943390	144.680000
437.037018	144.840000
437.130737	144.700000
437.224365	144.460000
437.318085	144.640000
437.411713	145.080000
437.505432	145.700000
437.599060	146.100000
437.692780	146.940000
437.786407	147.080000
437.880127	147.080000
437.973755	146.760000
438.067474	146.460000
438.161133	146.180000
438.254822	146.440000
438.348480	146.280000
438.442169	146.900000
438.535828	147.060000
438.629517	146.620000
438.723175	145.960000
438.816864	146.460000
438.910553	145.900000
439.004211	145.800000
439.097900	145.740000
439.191559	146.100000
439.285248	145.060000
439.378906	145.260000
439.472626	145.420000
439.566284	145.600000
439.659973	145.860000
439.753632	146.260000
439.847321	146.520000
439.940979	146.380000
440.034698	146.540000
440.128326	146.160000
440.222046	146.380000
440.315674	145.700000
440.409393	146.100000
440.503082	145.720000
440.596741	146.140000
440.690430	146.160000
440.784088	146.180000
440.877777	145.420000
440.971466	145.760000
441.065125	145.400000
441.158813	145.180000
441.252502	145.420000
441.346161	145.740000
441.439850	145.780000
441.533539	145.520000
441.627197	145.800000
441.720886	145.480000
441.814606	145.720000
441.908234	145.860000
442.001953	145.740000
442.095612	145.700000
442.189301	145.860000
442.282959	145.800000
442.376678	145.200000
442.470306	145.920000
442.564026	145.700000
442.657684	146.100000
442.751404	146.100000
442.845032	146.960000
442.938751	146.420000
443.032440	146.680000
443.126099	146.080000
443.219788	146.360000
443.313477	146.160000
443.407166	146.560000
443.500824	146.440000
443.594513	146.820000
443.688202	146.660000
443.781891	145.980000
443.875549	145.700000
443.969238	145.820000
444.062927	145.700000
444.156647	145.340000
444.250275	146.040000
444.343994	146.180000
444.437653	146.080000
444.531372	145.940000
444.625031	145.720000
444.718719	145.440000
444.812378	145.280000
444.906097	145.280000
444.999756	144.920000
445.093445	145.240000
445.187103	145.160000
445.280823	145.840000
445.374512	145.440000
445.468201	146.100000
445.561859	145.820000
445.655548	146.000000
445.749237	145.280000
445.842926	145.600000
445.936615	145.980000
446.030304	146.120000
446.123962	146.520000
446.217651	146.460000
446.311340	146.740000
446.405029	145.940000
446.498749	145.720000
446.592407	145.020000
446.686096	145.380000
446.779755	145.520000
446.873474	145.680000
446.967133	146.000000
447.060852	145.940000
447.154510	145.840000
447.248230	145.680000
447.341858	145.820000
447.435577	145.480000
447.529236	145.360000
447.622955	145.000000
447.716644	144.940000
447.810333	145.140000
447.904022	145.920000
447.997711	145.940000
448.091400	146.460000
448.185059	146.460000
448.278748	146.500000
448.372437	145.900000
448.466125	146.320000
448.559814	146.120000
448.653503	146.360000
448.747192	146.260000
448.840912	146.980000
448.934570	146.820000
449.028290	146.940000
449.121948	146.200000
449.215637	145.900000
449.309296	145.440000
449.403015	145.560000
449.496674	145.500000
449.590393	145.760000
449.684052	145.760000
449.777771	146.280000
449.871429	145.620000
449.965149	145.560000
450.058838	145.860000
450.152527	146.320000
450.246216	146.040000
450.339905	146.380000
450.433594	146.240000
450.527283	146.800000
450.620972	146.380000
450.714661	146.240000
450.808350	146.580000
450.902039	147.100000
450.995728	146.220000
451.089417	146.040000
451.183105	146.140000
451.276794	146.400000
451.370514	145.420000
451.464172	145.200000
451.557892	145.160000
451.651550	145.500000
451.745270	144.920000
451.838928	145.340000
451.932648	146.020000
452.026306	146.800000
452.120026	146.240000
452.213684	146.760000
452.307404	146.940000
452.401062	146.680000
452.494781	146.440000
452.588470	146.480000
452.682159	145.880000
452.775848	146.040000
452.869537	145.540000
452.963226	145.200000
453.056915	145.100000
453.150604	145.380000
453.244293	145.420000
453.337982	146.520000
453.431671	146.580000
453.525360	147.100000
453.619049	147.140000
453.712769	147.120000
453.806427	146.360000
453.900146	146.000000
453.993805	145.500000
454.087555	145.840000
454.181213	145.700000
454.274933	145.640000
454.368591	145.900000
454.462311	146.060000
454.555969	145.560000
454.649689	146.200000
454.743347	146.120000
454.837067	146.840000
454.930756	147.020000
455.024445	147.220000
455.118134	146.500000
455.211853	146.820000
455.305542	146.160000
455.399231	146.160000
455.492920	146.040000
455.586609	146.500000
455.680298	146.480000
455.773987	146.340000
455.867676	146.220000
455.961365	146.360000
456.055084	145.920000
456.148773	145.820000
456.242493	146.200000
456.336151	146.360000
456.429871	146.500000
456.523529	146.860000
456.617249	146.700000
456.710907	147.060000
456.804626	146.700000
456.898315	146.040000
456.992035	146.000000
457.085693	145.780000
457.179413	145.100000
457.273102	146.140000
457.366791	146.360000
457.460480	146.620000
457.554199	147.640000
457.647888	147.700000
457.741577	147.080000
457.835266	147.320000
457.928955	146.960000
458.022644	146.700000
458.116364	147.020000
458.210052	146.720000
458.303741	146.680000
458.397461	146.320000
458.491119	145.820000
458.584839	145.520000
458.678528	145.220000
458.772247	145.140000
458.865906	145.240000
458.959625	146.260000
459.053284	146.280000
459.147003	146.400000
459.240692	146.960000
459.334412	147.260000
459.428070	146.480000
459.521790	146.420000
459.615479	146.180000
459.709198	146.160000
459.802887	145.840000
459.896576	145.560000
459.990265	145.660000
460.083954	146.040000
460.177673	145.400000
460.271362	145.540000
460.365051	145.340000
460.458740	145.020000
460.552429	144.600000
460.646149	144.600000
460.739838	144.120000
460.833527	144.420000
460.927246	144.620000
461.020905	144.800000
461.114655	144.900000
461.208313	145.640000
461.302032	145.380000
461.395691	145.480000
461.489441	145.360000
461.583099	145.200000
461.676819	144.800000
461.770477	145.540000
461.864197	145.360000
461.957916	145.540000
462.051605	145.420000
462.145294	146.360000
462.238983	145.480000
462.332703	146.020000
462.426392	146.760000
462.520081	147.040000
462.613770	146.160000
462.707489	146.680000
462.801178	146.160000
462.894867	145.880000
462.988556	145.880000
463.082275	146.000000
463.175964	145.700000
463.269684	145.980000
463.363342	145.840000
463.457092	145.620000
463.550751	146.000000
463.644470	146.140000
463.738129	146.180000
463.831879	146.020000
463.925537	146.580000
464.019257	146.240000
464.112946	146.120000
464.206665	145.980000
464.300323	146.160000
464.394043	145.780000
464.487762	145.640000
464.581451	145.940000
464.675140	146.000000
464.768829	146.080000
464.862549	146.180000
464.956238	146.600000
465.049927	146.640000
465.143646	146.640000
465.237335	146.200000
465.331024	146.520000
465.424713	146.460000
465.518433	146.360000
465.612152	146.120000
465.705811	146.280000
465.799561	145.820000
465.893219	145.520000
465.986938	145.460000
466.080597	145.500000
466.174347	145.900000
466.268005	146.420000
466.361725	146.080000
466.455414	146.220000
466.549133	146.300000
466.642792	146.160000
466.736542	145.500000
466.830231	145.960000
466.923920	145.740000
467.017609	145.700000
467.111328	145.180000
467.205017	145.300000
467.298706	145.180000
467.392426	145.480000
467.486115	145.580000
467.579803	145.620000
467.673523	146.000000
467.767212	146.200000
467.860901	146.080000
467.954651	146.260000
468.048309	146.740000
468.142029	146.560000
468.235718	146.540000
468.329437	146.280000
468.423096	146.180000
468.516846	145.920000
468.610504	145.680000
468.704224	145.120000
468.797913	145.260000
468.891632	145.240000
468.985291	145.200000
469.079010	145.460000
469.172729	145.260000
469.266418	145.620000
469.360107	145.560000
469.453827	145.640000
469.547516	145.600000
469.641205	146.540000
469.734924	146.760000
469.828613	147.080000
469.922302	147.040000
470.016022	147.080000
470.109711	146.720000
470.203430	145.740000
470.297150	145.160000
470.390808	145.320000
470.484558	145.000000
470.578217	145.300000
470.671936	146.160000
470.765625	146.920000
470.859344	146.520000
470.953003	146.660000
471.046753	146.020000
471.140411	145.120000
471.234131	144.880000
471.327820	145.460000
471.421539	145.560000
471.515228	145.660000
471.608948	146.080000
471.702637	145.500000
471.796326	145.120000
471.890045	145.220000
471.983734	145.180000
472.077423	145.000000
472.171143	145.600000
472.264832	145.560000
472.358521	145.140000
472.452240	145.440000
472.545929	146.120000
472.639648	145.980000
472.733337	146.480000
472.827057	147.040000
472.920746	147.000000
473.014465	147.020000
473.108124	147.120000
473.201874	146.880000
473.295532	146.520000
473.389252	146.700000
473.482941	146.600000
473.576660	146.040000
473.670319	145.880000
473.764069	146.280000
473.857727	146.440000
473.951477	146.500000
474.045166	147.240000
474.138855	147.300000
474.232574	147.040000
474.326263	146.640000
474.419952	146.760000
474.513672	146.400000
474.607361	146.200000
474.701050	146.380000
474.794769	146.720000
474.888458	146.600000
474.982178	146.660000
475.075867	146.660000
475.169586	146.360000
475.263275	146.000000
475.356995	145.780000
475.450653	145.340000
475.544403	145.080000
475.638062	145.760000
475.731812	145.480000
475.825470	145.360000
475.919189	145.900000
476.012878	146.140000
476.106598	145.420000
476.200256	146.060000
476.294006	146.020000
476.387695	145.800000
476.481384	145.740000
476.575104	145.900000
476.668793	145.580000
476.762512	145.180000
476.856201	145.700000
476.949890	145.820000
477.043610	145.360000
477.137299	145.380000
477.230988	146.080000
477.324707	145.700000
477.418396	145.980000
477.512146	146.280000
477.605804	146.040000
477.699524	145.960000
477.793213	145.680000
477.886932	145.500000
477.980591	145.520000
478.074341	145.680000
478.167999	145.060000
478.261749	145.380000
478.355408	145.080000
478.449127	145.600000
478.542816	146.400000
478.636536	147.500000
478.730225	147.580000
478.823944	148.120000
478.917633	147.760000
479.011322	147.480000
479.105042	147.160000
479.198730	147.220000
479.292450	146.560000
479.386139	146.580000
479.479828	146.760000
479.573547	146.740000
479.667267	146.240000
479.760925	146.720000
479.854675	147.060000
479.948334	146.920000
480.042084	146.360000
480.135742	146.900000
480.229462	146.620000
480.323151	146.320000
480.416870	145.660000
480.510529	145.900000
480.604279	145.660000
480.697937	146.120000
480.791656	145.700000
480.885345	145.700000
480.979065	145.680000
481.072754	145.880000
481.166473	146.260000
481.260132	146.420000
481.353882	146.400000
481.447540	146.160000
481.541260	146.100000
481.635010	145.240000
481.728668	145.320000
481.822388	145.400000
481.916077	145.940000
482.009796	145.640000
482.103485	146.040000
482.197205	146.060000
482.290863	146.480000
482.384613	146.020000
482.478271	145.880000
482.571991	145.840000
482.665680	145.880000
482.759399	146.520000
482.853058	146.840000
482.946808	147.020000
483.040466	146.660000
483.134216	146.380000
483.227875	145.300000
483.321594	145.980000
483.415283	145.880000
483.509003	145.900000
483.602661	146.380000
483.696411	147.000000
483.790070	146.240000
483.883789	146.400000
483.977478	146.880000
484.071198	146.680000
484.164917	146.080000
484.258606	145.580000
484.352325	145.940000
484.445984	145.740000
484.539734	145.640000
484.633392	145.500000
484.727142	146.200000
484.820801	146.120000
484.914520	146.200000
485.008209	146.440000
485.101929	146.980000
485.195587	146.760000
485.289337	146.440000
485.382996	146.560000
485.476715	146.440000
485.570404	146.620000
485.664124	146.560000
485.757782	147.040000
485.851532	146.800000
485.945190	146.620000
486.038910	146.260000
486.132599	146.860000
486.226318	146.180000
486.319977	146.040000
486.413727	146.700000
486.507446	146.540000
486.601105	145.680000
486.694855	145.680000
486.788513	145.480000
486.882233	145.320000
486.975922	145.460000
487.069641	145.740000
487.163300	145.700000
487.257050	147.160000
487.350708	146.540000
487.444427	146.280000
487.538116	146.080000
487.631836	145.960000
487.725494	145.180000
487.819214	145.560000
487.912903	145.700000
488.006622	146.380000
488.100281	146.820000
488.194031	146.720000
488.287689	147.080000
488.381409	147.880000
488.475098	147.480000
488.568817	147.660000
488.662476	147.100000
488.756226	146.360000
488.849945	145.220000
488.943604	145.240000
489.037354	145.180000
489.131012	145.340000
489.224731	145.540000
489.318390	145.980000
489.412140	145.920000
489.505798	145.720000
489.599518	145.520000
489.693207	145.760000
489.786926	145.460000
489.880585	145.420000
489.974335	145.920000
490.067993	147.000000
490.161713	147.120000
490.255371	147.660000
490.349121	147.340000
490.442780	146.740000
490.536499	145.700000
490.630188	145.780000
490.723907	145.520000
490.817566	145.860000
490.911285	145.780000
491.004974	145.660000
491.098694	144.980000
491.192413	145.380000
491.286102	145.420000
491.379822	145.720000
491.473480	146.160000
491.567200	146.500000
491.660889	145.800000
491.754608	145.520000
491.848267	145.480000
491.941986	145.220000
492.035675	145.080000
492.129395	145.640000
492.223053	145.640000
492.316772	145.740000
492.410461	145.720000
492.504181	145.820000
492.597839	145.640000
492.691559	145.840000
492.785248	145.880000
492.878967	146.140000
492.972626	146.000000
493.066345	145.800000
493.160034	145.320000
493.253754	145.240000
493.347412	145.060000
493.441132	145.280000
493.534882	145.660000
493.628540	146.460000
493.722260	146.520000
493.815918	146.920000
493.909668	147.360000
494.003326	147.780000
494.097046	147.360000
494.190704	147.060000
494.284454	146.880000
494.378113	146.680000
494.471832	146.100000
494.565491	145.920000
494.659210	146.040000
494.752899	145.900000
494.846619	145.420000
494.940277	145.560000
495.033997	145.680000
495.127686	145.220000
495.221405	145.260000
495.315063	145.620000
495.408783	145.500000
495.502441	145.880000
495.596191	146.480000
495.689850	146.200000
495.783569	146.520000
495.877228	146.740000
495.970947	146.120000
496.064697	145.980000
496.158356	146.800000
496.252075	146.580000
496.345734	146.160000
496.439453	147.320000
496.533142	147.340000
496.626862	147.320000
496.720520	147.160000
496.814240	147.060000
496.907898	146.480000
497.001617	146.640000
497.095306	146.060000
497.189026	146.080000
497.282684	146.580000
497.376404	146.920000
497.470062	146.540000
497.563782	146.720000
497.657471	146.460000
497.751190	146.280000
497.844849	145.960000
497.938568	146.460000
498.032227	146.040000
498.125946	146.200000
498.219635	145.940000
498.313354	146.140000
498.407074	145.880000
498.500732	146.280000
498.594452	146.720000
498.688110	146.760000
498.781830	146.120000
498.875519	145.960000
498.969238	145.640000
499.062897	145.060000
499.156616	145.880000
499.250275	146.140000
499.343994	145.840000
499.437653	146.220000
499.531372	146.340000
499.625061	146.180000
499.718781	146.260000
499.812439	147.000000
499.906158	146.680000
499.999817	146.560000
500.093536	145.880000
500.187195	145.880000
500.280914	145.400000
500.374573	145.660000
500.468323	145.480000
500.561981	145.860000
500.655701	145.280000
500.749420	145.180000
500.843079	145.240000
500.936798	145.420000
501.030457	145.440000
501.124176	145.980000
501.217834	146.100000
501.311554	145.900000
501.405212	145.820000
501.498962	144.980000
501.592621	145.000000
501.686340	145.240000
501.779999	145.460000
501.873718	145.660000
501.967377	146.360000
502.061096	146.300000
502.154755	145.920000
502.248474	146.020000
502.342133	146.120000
502.435852	146.120000
502.529510	146.900000
502.623230	147.560000
502.716888	146.900000
502.810608	147.020000
502.904266	147.240000
502.997986	146.380000
503.091705	145.840000
503.185364	145.940000
503.279083	145.640000
503.372772	145.180000
503.466492	144.880000
503.560150	144.760000
503.653870	144.980000
503.747528	144.940000
503.841248	145.200000
503.934906	145.660000
504.028625	145.700000
504.122284	146.140000
504.216003	147.020000
504.309662	146.360000
504.403381	146.400000
504.497040	146.340000
504.590759	145.800000
504.684418	145.480000
504.778137	146.300000
504.871796	146.560000
504.965515	146.420000
505.059174	146.640000
505.152893	145.880000
505.246521	145.300000
505.340240	145.020000
505.433899	145.340000
505.527618	145.300000
505.621338	145.940000
505.714996	145.940000
505.808716	145.920000
505.902374	146.600000
505.996094	146.660000
506.089752	145.960000
506.183472	146.380000
506.277130	146.240000
506.370850	145.780000
506.464508	145.380000
506.558228	145.700000
506.651886	145.380000
506.745605	145.700000
506.839264	145.520000
506.932983	145.800000
507.026611	145.720000
507.120331	146.140000
507.213989	145.460000
507.307709	145.480000
507.401367	146.100000
507.495087	147.040000
507.588745	146.740000
507.682465	147.720000
507.776123	147.940000
507.869843	147.360000
507.963531	146.720000
508.057190	147.060000
508.150909	146.240000
508.244568	146.060000
508.338287	145.860000
508.431946	145.740000
508.525665	145.100000
508.619324	145.000000
508.713013	145.300000
508.806671	145.740000
508.900391	146.500000
508.994049	146.860000
509.087769	147.080000
509.181427	146.940000
509.275146	146.600000
509.368774	145.720000
509.462494	145.760000
509.556152	145.780000
509.649872	145.840000
509.743530	146.240000
509.837250	146.460000
509.930878	146.500000
510.024597	146.400000
510.118256	146.320000
510.211975	146.080000
510.305695	145.760000
510.399353	146.180000
510.493042	146.680000
510.586700	146.600000
510.680420	147.120000
510.774078	147.300000
510.867798	147.040000
510.961426	146.680000
511.055145	146.920000
511.148804	146.200000
511.242523	146.500000
511.336151	146.380000
511.429871	146.420000
511.523529	146.040000
511.617249	145.860000
511.710876	145.540000
511.804596	145.060000
511.898254	144.900000
511.991974	145.280000
512.085632	145.500000
512.179321	145.700000
512.272949	146.240000
512.366699	146.880000
512.460327	146.680000
512.554077	147.380000
512.647766	147.040000
512.741394	146.820000
512.835144	146.980000
512.928772	146.860000
513.022461	146.720000
513.116150	146.880000
513.209839	147.220000
513.303467	146.720000
513.397217	146.420000
513.490845	145.920000
513.584595	145.600000
513.678223	144.960000
513.771912	144.300000
513.865601	144.700000
513.959290	144.500000
514.052917	144.840000
514.146667	145.980000
514.240295	146.700000
514.333984	146.940000
514.427673	146.960000
514.521362	147.260000
514.614990	146.120000
514.708740	146.040000
514.802368	145.520000
514.896057	145.920000
514.989746	146.160000
515.083435	146.380000
515.177124	146.660000
515.270752	146.880000
515.364502	146.660000
515.458130	146.380000
515.551819	146.080000
515.645508	145.560000
515.739197	145.700000
515.832825	145.880000
515.926575	145.480000
516.020203	145.800000
516.113892	146.420000
516.207520	146.240000
516.301270	146.300000
516.394897	146.600000
516.488586	147.200000
516.582275	146.700000
516.675964	146.120000
516.769592	145.500000
516.863281	146.000000
516.956970	146.040000
517.050659	145.840000
517.144287	146.460000
517.238037	146.960000
517.331665	146.180000
517.425354	145.460000
517.519043	145.660000
517.612732	145.840000
517.706421	145.900000
517.800049	145.740000
517.893738	145.440000
517.987427	145.200000
518.081116	144.880000
518.174744	144.440000
518.268433	145.220000
518.362122	146.280000
518.455811	146.640000
518.549438	147.260000
518.643127	148.400000
518.736816	147.840000
518.830505	147.100000
518.924133	147.020000
519.017822	146.860000
519.111511	146.300000
519.205200	146.640000
519.298828	147.100000
519.392517	146.800000
519.486206	146.960000
519.579895	147.000000
519.673523	146.820000
519.767212	146.300000
519.860901	147.060000
519.954590	146.580000
520.048279	145.900000
520.141907	145.720000
520.235596	146.800000
520.329224	146.760000
520.422974	146.840000
520.516602	146.980000
520.610291	146.880000
520.703918	146.120000
520.797607	145.460000
520.891296	145.440000
520.984985	145.560000
521.078613	146.120000
521.172302	145.700000
521.265930	146.740000
521.359680	147.140000
521.453308	147.300000
521.546997	147.100000
521.640625	147.240000
521.734314	146.080000
521.827942	145.600000
521.921692	145.580000
522.015320	145.760000
522.109009	145.960000
522.202698	146.300000
522.296326	146.480000
522.390015	146.740000
522.483704	146.460000
522.577393	146.100000
522.671021	146.120000
522.764709	145.600000
522.858337	145.820000
522.952026	145.940000
523.045654	146.720000
523.139404	147.180000
523.233032	147.720000
523.326721	147.240000
523.420349	147.060000
523.514038	146.720000
523.607666	146.600000
523.701355	146.180000
523.795044	146.280000
523.888733	146.680000
523.982361	146.940000
524.076050	146.700000
524.169678	147.120000
524.263367	146.760000
524.356995	145.980000
524.450684	145.380000
524.544373	145.120000
524.638062	145.260000
524.731750	145.640000
524.825378	146.000000
524.919067	145.980000
525.012695	146.240000
525.106384	145.580000
525.200012	145.580000
525.293701	145.080000
525.387329	145.540000
525.481018	145.500000
525.574646	145.800000
525.668396	145.520000
525.762024	146.420000
525.855713	146.460000
525.949341	145.960000
526.043030	146.080000
526.136658	145.780000
526.230347	145.180000
526.323975	144.740000
526.417664	144.960000
526.511292	144.800000
526.604980	145.320000
526.698608	145.400000
526.792297	145.580000
526.885925	146.060000
526.979614	146.120000
527.073303	145.980000
527.166931	145.900000
527.260620	146.140000
527.354309	146.280000
527.447998	146.240000
527.541626	146.340000
527.635315	146.540000
527.728943	146.820000
527.822632	146.720000
527.916260	146.820000
528.009949	146.820000
528.103577	146.640000
528.197266	145.860000
528.290894	145.740000
528.384583	145.600000
528.478210	145.360000
528.571899	145.980000
528.665527	146.540000
528.759216	146.680000
528.852844	147.300000
528.946533	147.520000
529.040161	147.040000
529.133850	146.760000
529.227478	146.880000
529.321167	146.740000
529.414856	147.140000
529.508484	147.520000
529.602173	146.980000
529.695801	146.460000
529.789490	146.320000
529.883057	145.820000
529.976746	145.940000
530.070374	146.960000
530.164062	147.100000
530.257690	147.260000
530.351379	147.580000
530.445007	147.140000
530.538696	146.260000
530.632324	146.660000
530.726013	146.480000
530.819641	146.340000
530.913330	146.420000
531.006958	146.680000
531.100647	146.380000
531.194275	146.260000
531.287964	146.100000
531.381592	145.880000
531.475220	146.060000
531.568848	145.980000
531.662537	145.640000
531.756226	146.060000
531.849854	145.960000
531.943542	145.880000
532.037170	145.300000
532.130859	146.060000
532.224487	145.480000
532.318176	145.320000
532.411804	145.580000
532.505432	146.260000
532.599060	145.540000
532.692749	145.520000
532.786377	146.000000
532.880066	145.220000
532.973694	144.660000
533.067383	144.760000
533.161011	145.080000
533.254639	145.020000
533.348267	145.360000
533.441956	145.880000
533.535583	145.760000
533.629272	145.760000
533.722900	145.200000
533.816589	145.340000
533.910156	145.360000
534.003845	145.460000
534.097534	145.760000
534.191162	146.640000
534.284851	146.520000
534.378479	146.260000
534.472107	146.300000
534.565735	145.680000
534.659424	145.660000
534.753052	146.080000
534.846741	145.500000
534.940369	146.200000
535.033997	146.460000
535.127625	146.500000
535.221313	146.760000
535.314941	147.080000
535.408630	146.060000
535.502197	146.240000
535.595886	145.600000
535.689514	145.140000
535.783203	145.660000
535.876831	146.260000
535.970459	146.200000
536.064087	146.180000
536.157776	146.080000
536.251404	146.000000
536.345093	145.760000
536.438721	145.660000
536.532349	146.040000
536.626038	145.880000
536.719666	146.160000
536.813293	146.100000
536.906921	146.040000
537.000610	146.200000
537.094238	146.360000
537.187866	146.220000
537.281494	145.920000
537.375183	146.340000
537.468811	146.060000
537.562439	145.860000
537.656067	145.800000
537.749756	146.060000
537.843384	145.900000
537.937012	146.100000
538.030640	145.980000
538.124329	145.660000
538.217896	146.240000
538.311584	146.600000
538.405212	146.740000
538.498901	147.480000
538.592468	148.200000
538.686157	147.520000
538.779785	146.320000
538.873413	145.940000
538.967102	145.420000
539.060730	144.840000
539.154358	145.160000
539.247986	145.700000
539.341675	145.960000
539.435242	145.860000
539.528931	146.340000
539.622559	145.940000
539.716187	146.640000
539.809814	146.620000
539.903503	146.820000
539.997070	146.340000
540.090759	146.380000
540.184387	145.680000
540.278015	146.080000
540.371643	146.460000
540.465332	146.920000
540.558899	146.920000
540.652588	147.260000
540.746216	146.840000
540.839844	146.820000
540.933472	146.480000
541.027100	146.740000
541.120728	146.740000
541.214417	146.760000
541.308044	146.640000
541.401672	146.580000
541.495300	146.420000
541.588928	146.040000
541.682617	145.760000
541.776184	145.560000
541.869873	145.800000
541.963440	145.840000
542.057129	146.160000
542.150757	146.580000
542.244385	146.220000
542.338013	145.720000
542.431641	145.600000
542.525269	145.400000
542.618958	145.660000
542.712524	146.240000
542.806213	146.360000
542.899780	146.620000
542.993469	146.340000
543.087036	145.620000
543.180725	144.680000
543.274292	144.680000
543.367981	144.560000
543.461548	145.020000
543.555237	144.900000
543.648926	145.820000
543.742493	146.600000
543.836182	146.520000
543.929749	146.120000
544.023437	146.200000
544.117004	146.000000
544.210693	145.600000
544.304260	145.940000
544.397949	146.340000
544.491516	146.780000
544.585205	146.760000
544.678772	146.420000
544.772461	146.660000
544.866028	146.440000
544.959717	146.500000
545.053284	146.300000
545.146973	146.800000
545.240540	146.700000
545.334229	147.080000
545.427795	146.920000
545.521423	147.420000
545.615051	147.160000
545.708679	147.200000
545.802307	146.680000
545.895935	146.940000
545.989624	147.240000
546.083191	146.980000
546.176880	146.820000
546.270447	146.740000
546.364136	146.960000
546.457703	146.260000
546.551331	146.240000
546.644958	146.420000
546.738586	146.700000
546.832214	146.140000
546.925842	146.020000
547.019409	146.420000
547.113098	145.980000
547.206665	145.600000
547.300354	145.580000
547.393921	145.960000
547.487549	146.060000
547.581177	146.060000
547.674805	146.400000
547.768433	145.840000
547.862061	145.620000
547.955627	145.040000
548.049316	145.560000
548.142883	145.740000
548.236572	146.400000
548.330139	146.760000
548.423767	146.520000
548.517456	146.460000
548.611023	146.780000
548.704651	146.220000
548.798279	146.080000
548.891907	146.700000
548.985474	146.240000
549.079163	145.820000
549.172729	145.820000
549.266357	145.300000
549.359985	145.240000
549.453613	144.740000
549.547180	144.620000
549.640869	145.140000
549.734436	145.200000
549.828064	145.380000
549.921631	145.840000
550.015320	145.700000
550.108887	146.020000
550.202515	146.120000
550.296143	145.700000
550.389771	145.760000
550.483337	145.820000
550.576965	145.520000
550.670593	146.020000
550.764221	145.920000
550.857849	145.800000
550.951477	145.800000
551.045105	145.720000
551.138672	145.360000
551.232300	145.400000
551.325928	145.680000
551.419556	145.920000
551.513123	145.560000
551.606750	145.420000
551.700378	145.460000
551.794006	145.440000
551.887573	144.920000
551.981201	145.600000
552.074768	145.600000
552.168457	145.540000
552.262024	146.340000
552.355652	146.620000
552.449219	146.920000
552.542847	147.000000
552.636475	146.740000
552.730103	145.820000
552.823669	145.640000
552.917297	144.940000
553.010864	144.740000
553.104553	145.120000
553.198181	144.680000
553.291748	145.120000
553.385376	145.460000
553.478943	145.600000
553.572571	145.920000
553.666199	146.600000
553.759827	146.020000
553.853394	145.360000
553.947021	145.780000
554.040588	145.640000
554.134216	145.540000
554.227783	146.620000
554.321411	147.660000
554.415039	146.900000
554.508667	146.720000
554.602234	146.980000
554.695862	146.140000
554.789429	145.620000
554.883057	145.960000
554.976624	145.980000
555.070251	145.700000
555.163818	145.760000
555.257507	145.920000
555.351074	146.160000
555.444702	147.260000
555.538330	146.820000
555.631897	147.100000
555.725525	147.100000
555.819092	146.860000
555.912720	145.980000
556.006287	146.620000
556.099915	146.340000
556.193481	146.220000
556.287109	146.240000
556.380676	145.840000
556.474304	145.840000
556.567871	146.200000
556.661499	145.560000
556.755066	145.980000
556.848694	146.180000
556.942261	145.940000
557.035889	145.900000
557.129517	146.200000
557.223145	146.200000
557.316711	146.320000
557.410339	146.240000
557.503906	145.800000
557.597473	146.220000
557.691040	145.820000
557.784668	145.840000
557.878296	145.920000
557.971863	146.280000
558.065491	146.300000
558.159058	145.980000
558.252686	146.440000
558.346252	147.000000
558.439880	146.580000
558.533447	146.220000
558.627075	146.380000
558.720642	145.820000
558.814270	145.440000
558.907837	145.520000
559.001465	145.340000
559.095032	146.280000
559.188660	146.360000
559.282227	145.820000
559.375854	146.660000
559.469360	146.460000
559.562988	146.160000
559.656555	145.900000
559.750183	146.520000
559.843750	146.060000
559.937378	146.440000
560.030945	146.260000
560.124573	0.000000
560.218140	0.000000
560.311707	0.000000
560.405334	0.000000
560.498901	0.000000
560.592529	0.000000
560.686096	0.000000
560.779724	0.000000
560.873291	0.000000
560.966858	0.000000
561.060425	0.000000
561.154053	0.000000
561.247620	0.000000
561.341248	0.000000
561.434814	0.000000
561.528381	0.000000
561.621948	0.000000
561.715576	0.000000
561.809143	0.000000
561.902771	0.000000
561.996277	0.000000
562.089905	0.000000
562.183472	0.000000
562.277100	0.000000
