Model Number: SPM-002-B   
Serial Number: 70087108
Firmware Version: 004.15.4
Exposure Time: 100000.000000us
Data Taken on: 11-12-2020 18:46:55.787
Wavelength	Amplitude
221.570786	0.000000
221.663406	0.000000
221.756027	0.000000
221.848648	0.000000
221.941269	0.000000
222.033905	0.000000
222.126526	0.000000
222.219162	0.000000
222.311798	0.000000
222.404419	0.000000
222.497055	0.000000
222.589676	0.000000
222.682312	0.000000
222.774933	0.000000
222.867569	0.000000
222.960205	0.000000
223.052841	0.000000
223.145462	0.000000
223.238098	0.000000
223.330734	0.000000
223.423386	0.000000
223.516022	0.000000
223.608658	0.000000
223.701309	0.000000
223.793945	0.000000
223.886581	0.000000
223.979218	0.000000
224.071869	0.000000
224.164505	0.000000
224.257156	0.000000
224.349792	0.000000
224.442444	0.000000
224.535095	0.000000
224.627747	0.000000
224.720398	0.000000
224.813034	0.000000
224.905685	0.000000
224.998337	145.900000
225.090988	145.680000
225.183640	145.440000
225.276291	145.380000
225.368942	145.780000
225.461594	146.060000
225.554245	146.480000
225.646912	146.720000
225.739578	147.120000
225.832230	147.340000
225.924896	146.620000
226.017548	146.860000
226.110199	147.340000
226.202866	147.020000
226.295532	146.720000
226.388184	146.800000
226.480850	145.940000
226.573517	145.200000
226.666168	145.320000
226.758835	145.680000
226.851501	146.340000
226.944183	146.760000
227.036850	146.680000
227.129517	146.840000
227.222183	146.800000
227.314850	146.660000
227.407516	146.920000
227.500198	147.640000
227.592865	147.180000
227.685532	146.740000
227.778214	146.640000
227.870880	146.640000
227.963562	146.660000
228.056229	147.160000
228.148926	147.220000
228.241592	147.860000
228.334274	147.580000
228.426956	147.320000
228.519638	147.300000
228.612305	146.980000
228.704987	146.840000
228.797668	146.700000
228.890350	146.440000
228.983032	145.660000
229.075714	146.540000
229.168396	146.120000
229.261108	145.780000
229.353790	145.860000
229.446472	146.400000
229.539169	145.800000
229.631851	145.440000
229.724533	146.040000
229.817230	146.380000
229.909912	147.300000
230.002609	147.720000
230.095306	147.840000
230.187988	147.840000
230.280685	147.540000
230.373383	146.240000
230.466095	145.840000
230.558792	146.000000
230.651474	145.780000
230.744171	145.840000
230.836868	146.240000
230.929581	146.560000
231.022278	146.740000
231.114975	146.900000
231.207672	146.800000
231.300369	147.120000
231.393082	147.040000
231.485779	146.800000
231.578506	146.680000
231.671204	146.820000
231.763916	146.640000
231.856613	146.540000
231.949326	146.980000
232.042023	147.000000
232.134735	146.800000
232.227448	146.460000
232.320160	146.760000
232.412872	146.380000
232.505585	147.240000
232.598297	147.720000
232.691010	147.940000
232.783722	147.320000
232.876450	148.120000
232.969162	147.180000
233.061874	146.560000
233.154587	146.120000
233.247314	146.680000
233.340027	145.700000
233.432739	146.240000
233.525467	146.120000
233.618179	146.440000
233.710907	146.060000
233.803635	146.680000
233.896347	146.200000
233.989090	147.180000
234.081818	147.280000
234.174545	147.420000
234.267258	146.840000
234.359985	147.120000
234.452713	146.700000
234.545441	146.200000
234.638168	146.200000
234.730896	146.700000
234.823639	146.440000
234.916367	146.820000
235.009094	147.360000
235.101822	147.420000
235.194580	147.240000
235.287308	147.340000
235.380051	146.600000
235.472778	146.660000
235.565521	146.980000
235.658249	146.760000
235.750992	146.740000
235.843719	146.900000
235.936462	147.120000
236.029205	146.440000
236.121948	145.920000
236.214691	146.120000
236.307449	147.060000
236.400192	146.520000
236.492935	146.580000
236.585678	146.860000
236.678421	146.820000
236.771164	145.920000
236.863907	146.580000
236.956665	146.860000
237.049408	148.560000
237.142151	148.300000
237.234909	149.140000
237.327652	148.760000
237.420410	148.360000
237.513153	147.220000
237.605927	147.160000
237.698669	146.440000
237.791428	145.920000
237.884186	146.660000
237.976944	146.060000
238.069702	146.520000
238.162445	146.080000
238.255203	146.420000
238.347961	146.360000
238.440720	146.700000
238.533478	146.400000
238.626266	146.560000
238.719025	146.860000
238.811783	146.820000
238.904541	146.760000
238.997314	146.620000
239.090073	146.400000
239.182831	146.120000
239.275604	146.700000
239.368362	146.300000
239.461136	146.560000
239.553909	146.840000
239.646667	146.840000
239.739441	146.500000
239.832214	146.900000
239.925003	146.700000
240.017761	147.280000
240.110535	147.920000
240.203308	147.180000
240.296082	147.600000
240.388855	147.600000
240.481628	147.520000
240.574417	147.480000
240.667191	147.700000
240.759964	147.340000
240.852737	147.160000
240.945526	146.560000
241.038315	146.400000
241.131088	146.540000
241.223877	146.980000
241.316650	146.860000
241.409439	147.460000
241.502228	146.900000
241.595001	147.240000
241.687790	146.720000
241.780579	146.920000
241.873367	146.980000
241.966141	147.360000
242.058929	146.820000
242.151718	146.880000
242.244507	147.400000
242.337311	146.540000
242.430099	147.040000
242.522903	147.560000
242.615692	147.320000
242.708481	147.260000
242.801270	147.980000
242.894073	147.380000
242.986862	147.160000
243.079651	147.620000
243.172455	147.420000
243.265244	147.500000
243.358063	147.360000
243.450867	147.720000
243.543655	147.640000
243.636459	147.420000
243.729263	147.560000
243.822067	147.740000
243.914856	147.460000
244.007660	147.520000
244.100464	147.680000
244.193268	147.040000
244.286072	146.960000
244.378876	146.540000
244.471680	145.960000
244.564499	146.060000
244.657318	146.880000
244.750122	147.000000
244.842926	146.960000
244.935745	147.480000
245.028549	146.960000
245.121368	146.400000
245.214172	146.260000
245.306992	146.360000
245.399796	146.100000
245.492615	146.360000
245.585434	146.120000
245.678253	146.040000
245.771072	146.100000
245.863892	146.480000
245.956711	146.840000
246.049530	146.700000
246.142349	146.460000
246.235168	146.720000
246.327988	147.160000
246.420807	146.880000
246.513626	146.940000
246.606445	146.840000
246.699280	146.540000
246.792099	146.040000
246.884918	145.620000
246.977753	145.400000
247.070587	145.780000
247.163422	145.860000
247.256241	145.840000
247.349075	146.460000
247.441895	146.660000
247.534729	146.500000
247.627563	146.380000
247.720383	146.740000
247.813217	146.400000
247.906052	146.580000
247.998886	146.560000
248.091736	146.540000
248.184570	146.160000
248.277405	146.120000
248.370239	146.680000
248.463074	147.600000
248.555908	147.700000
248.648743	147.320000
248.741592	147.660000
248.834427	147.120000
248.927261	145.980000
249.020111	146.380000
249.112946	147.280000
249.205795	146.720000
249.298630	146.900000
249.391495	147.260000
249.484344	147.120000
249.577179	146.780000
249.670029	147.200000
249.762878	147.480000
249.855728	147.560000
249.948563	147.240000
250.041412	146.720000
250.134262	147.040000
250.227112	146.980000
250.319962	146.840000
250.412827	147.200000
250.505692	146.920000
250.598541	146.700000
250.691391	146.180000
250.784241	146.300000
250.877106	146.240000
250.969955	146.240000
251.062805	146.740000
251.155670	147.480000
251.248520	146.940000
251.341385	147.100000
251.434235	147.340000
251.527100	146.740000
251.619965	146.120000
251.712814	147.220000
251.805695	146.840000
251.898560	147.060000
251.991425	147.280000
252.084290	147.540000
252.177155	146.940000
252.270020	146.800000
252.362885	146.960000
252.455750	146.840000
252.548615	146.520000
252.641479	146.260000
252.734360	146.300000
252.827240	145.900000
252.920105	146.240000
253.012970	146.160000
253.105850	146.400000
253.198715	146.360000
253.291595	146.560000
253.384460	146.040000
253.477341	145.900000
253.570221	146.220000
253.663086	146.140000
253.755966	146.720000
253.848846	146.940000
253.941727	147.600000
254.034592	147.500000
254.127472	147.160000
254.220367	146.880000
254.313248	146.800000
254.406128	146.100000
254.499008	146.100000
254.591904	147.200000
254.684784	147.600000
254.777664	147.700000
254.870544	147.820000
254.963440	147.880000
255.056335	147.360000
255.149216	146.920000
255.242111	147.360000
255.334991	147.580000
255.427887	147.540000
255.520767	147.620000
255.613663	147.620000
255.706558	146.980000
255.799438	146.640000
255.892334	146.320000
255.985229	146.240000
256.078125	146.100000
256.171021	146.160000
256.263916	146.620000
256.356812	147.060000
256.449707	147.260000
256.542603	147.180000
256.635498	147.900000
256.728394	147.840000
256.821289	147.420000
256.914215	147.380000
257.007080	147.580000
257.100006	147.480000
257.192932	147.740000
257.285828	147.780000
257.378723	147.440000
257.471619	147.360000
257.564545	146.440000
257.657440	146.320000
257.750336	146.760000
257.843262	146.600000
257.936157	147.440000
258.029053	148.080000
258.121979	148.140000
258.214874	147.600000
258.307800	147.820000
258.400696	146.840000
258.493622	146.700000
258.586517	145.960000
258.679443	146.600000
258.772339	146.260000
258.865265	146.120000
258.958160	145.700000
259.051086	146.680000
259.144012	146.180000
259.236938	146.940000
259.329834	146.960000
259.422791	147.160000
259.515717	146.520000
259.608612	146.300000
259.701538	146.320000
259.794464	146.400000
259.887390	146.060000
259.980316	146.020000
260.073212	145.940000
260.166138	145.080000
260.259064	145.580000
260.351990	146.360000
260.444916	146.500000
260.537842	146.980000
260.630768	147.600000
260.723694	147.400000
260.816620	147.240000
260.909546	147.400000
261.002472	147.260000
261.095398	146.900000
261.188354	146.620000
261.281281	146.100000
261.374207	146.080000
261.467133	146.500000
261.560089	146.640000
261.653015	146.460000
261.745972	147.060000
261.838867	147.260000
261.931824	147.200000
262.024780	146.880000
262.117706	147.380000
262.210663	147.440000
262.303589	147.000000
262.396515	146.940000
262.489471	147.860000
262.582397	147.680000
262.675354	147.280000
262.768280	147.500000
262.861237	147.480000
262.954163	147.220000
263.047119	147.360000
263.140045	147.100000
263.233002	146.960000
263.325958	146.820000
263.418884	146.200000
263.511841	146.060000
263.604797	146.220000
263.697723	146.360000
263.790680	146.400000
263.883636	147.100000
263.976593	146.820000
264.069550	146.880000
264.162476	146.420000
264.255463	146.400000
264.348419	146.000000
264.441376	146.720000
264.534332	146.520000
264.627289	147.000000
264.720245	147.540000
264.813202	147.400000
264.906158	147.080000
264.999115	147.560000
265.092072	147.500000
265.185028	147.520000
265.277985	147.960000
265.370941	147.780000
265.463898	147.620000
265.556854	147.400000
265.649811	146.560000
265.742798	146.180000
265.835754	146.320000
265.928711	146.580000
266.021667	146.660000
266.114655	146.860000
266.207611	147.080000
266.300568	146.660000
266.393585	145.920000
266.486511	146.140000
266.579498	145.400000
266.672485	145.580000
266.765442	145.660000
266.858429	146.480000
266.951385	146.120000
267.044342	146.800000
267.137329	146.480000
267.230316	146.920000
267.323273	146.460000
267.416260	147.260000
267.509216	146.960000
267.602203	147.000000
267.695160	147.320000
267.788147	147.220000
267.881134	146.440000
267.974091	147.020000
268.067078	146.820000
268.160065	146.320000
268.253052	146.280000
268.346008	146.620000
268.438995	146.420000
268.531982	146.760000
268.624969	146.500000
268.717987	147.040000
268.810944	146.960000
268.903961	147.000000
268.996948	146.740000
269.089905	147.200000
269.182892	146.920000
269.275879	147.040000
269.368866	146.520000
269.461853	146.760000
269.554871	146.900000
269.647858	147.060000
269.740845	147.400000
269.833832	147.740000
269.926819	147.600000
270.019806	147.480000
270.112793	146.960000
270.205811	146.660000
270.298798	146.460000
270.391785	146.840000
270.484772	146.500000
270.577789	146.680000
270.670776	146.360000
270.763763	146.720000
270.856750	146.500000
270.949768	146.140000
271.042786	146.440000
271.135773	146.480000
271.228790	146.440000
271.321808	146.020000
271.414795	146.000000
271.507782	145.580000
271.600800	145.360000
271.693817	145.280000
271.786804	145.980000
271.879822	146.400000
271.972809	146.700000
272.065826	147.380000
272.158844	147.000000
272.251831	147.200000
272.344849	147.240000
272.437866	146.820000
272.530853	146.880000
272.623871	147.540000
272.716888	146.480000
272.809906	146.660000
272.902893	146.960000
272.995911	146.240000
273.088928	145.960000
273.181946	146.460000
273.274963	146.440000
273.367981	146.240000
273.460999	146.560000
273.554047	147.000000
273.647003	147.580000
273.740051	147.480000
273.833069	148.000000
273.926086	148.080000
274.019135	147.640000
274.112152	147.080000
274.205170	147.200000
274.298187	147.120000
274.391205	146.720000
274.484222	146.640000
274.577240	146.680000
274.670258	146.440000
274.763306	146.000000
274.856323	146.580000
274.949341	146.800000
275.042358	147.160000
275.135406	147.140000
275.228424	147.340000
275.321442	147.000000
275.414490	146.520000
275.507507	146.640000
275.600525	147.060000
275.693573	147.080000
275.786591	146.740000
275.879669	147.020000
275.972656	146.460000
276.065735	146.080000
276.158752	146.840000
276.251801	147.700000
276.344818	148.120000
276.437866	148.460000
276.530884	148.320000
276.623932	147.240000
276.716980	147.140000
276.809998	146.960000
276.903046	146.720000
276.996094	147.680000
277.089111	148.140000
277.182159	148.440000
277.275208	148.120000
277.368256	147.960000
277.461304	147.380000
277.554321	146.860000
277.647369	146.400000
277.740417	146.500000
277.833466	146.440000
277.926514	146.000000
278.019562	146.740000
278.112610	146.180000
278.205688	146.300000
278.298706	146.560000
278.391785	146.440000
278.484833	145.760000
278.577881	145.920000
278.670929	146.060000
278.763977	145.960000
278.857025	146.620000
278.950073	146.680000
279.043121	146.800000
279.136169	146.580000
279.229248	146.420000
279.322296	146.300000
279.415344	146.200000
279.508392	146.320000
279.601440	146.340000
279.694519	146.240000
279.787567	146.080000
279.880615	145.980000
279.973694	145.640000
280.066742	145.680000
280.159790	145.940000
280.252869	145.820000
280.345917	146.300000
280.438995	146.620000
280.532074	146.780000
280.625122	147.200000
280.718201	148.040000
280.811279	148.040000
280.904327	147.560000
280.997406	147.200000
281.090454	146.820000
281.183533	146.200000
281.276581	145.980000
281.369659	146.080000
281.462738	146.520000
281.555786	146.620000
281.648865	146.500000
281.741943	146.280000
281.835022	147.340000
281.928070	146.900000
282.021149	146.640000
282.114227	146.580000
282.207306	146.820000
282.300385	146.520000
282.393433	146.800000
282.486511	147.020000
282.579590	147.500000
282.672668	148.100000
282.765747	147.700000
282.858856	147.440000
282.951904	147.480000
283.045013	147.480000
283.138062	147.520000
283.231171	147.620000
283.324249	148.240000
283.417328	148.440000
283.510406	148.020000
283.603485	147.500000
283.696564	147.380000
283.789642	147.240000
283.882751	146.840000
283.975830	147.280000
284.068909	147.080000
284.161987	148.040000
284.255066	147.340000
284.348175	147.280000
284.441254	146.820000
284.534332	147.580000
284.627441	146.740000
284.720520	146.660000
284.813599	147.080000
284.906708	147.300000
284.999786	146.260000
285.092896	146.100000
285.185974	147.120000
285.279053	146.300000
285.372192	146.140000
285.465240	146.880000
285.558380	146.820000
285.651459	146.260000
285.744568	147.220000
285.837677	146.860000
285.930756	146.900000
286.023865	146.800000
286.116943	146.580000
286.210052	146.600000
286.303162	146.620000
286.396240	146.260000
286.489349	146.160000
286.582458	146.500000
286.675568	146.100000
286.768646	146.380000
286.861755	146.880000
286.954865	147.700000
287.047974	147.400000
287.141083	147.320000
287.234161	147.100000
287.327271	146.600000
287.420380	146.540000
287.513519	146.720000
287.606598	146.720000
287.699738	147.020000
287.792816	147.280000
287.885956	146.900000
287.979034	146.540000
288.072174	146.620000
288.165283	146.520000
288.258392	146.700000
288.351501	146.220000
288.444611	146.660000
288.537720	147.060000
288.630859	146.860000
288.723969	146.900000
288.817078	147.440000
288.910187	147.140000
289.003296	146.680000
289.096436	146.460000
289.189545	146.060000
289.282654	145.640000
289.375763	146.040000
289.468903	146.400000
289.562012	146.920000
289.655121	146.840000
289.748260	147.060000
289.841400	147.420000
289.934509	147.340000
290.027649	147.420000
290.120728	147.580000
290.213898	147.500000
290.306976	147.100000
290.400146	147.160000
290.493256	146.720000
290.586395	146.780000
290.679535	147.320000
290.772644	147.000000
290.865784	146.140000
290.958893	146.300000
291.052032	146.000000
291.145172	145.780000
291.238281	145.680000
291.331421	146.300000
291.424561	146.840000
291.517670	147.000000
291.610809	147.200000
291.703949	147.140000
291.797089	147.180000
291.890228	146.700000
291.983337	146.840000
292.076477	146.420000
292.169617	146.780000
292.262756	146.720000
292.355927	146.760000
292.449036	146.420000
292.542206	146.300000
292.635315	146.400000
292.728485	146.500000
292.821625	145.940000
292.914764	146.920000
293.007904	147.020000
293.101044	147.080000
293.194183	146.840000
293.287323	147.360000
293.380463	146.520000
293.473602	146.320000
293.566742	146.320000
293.659882	147.000000
293.753021	147.180000
293.846191	147.280000
293.939331	147.100000
294.032471	146.880000
294.125610	146.480000
294.218781	146.660000
294.311920	146.800000
294.405060	147.400000
294.498230	147.440000
294.591370	147.400000
294.684540	146.820000
294.777679	146.300000
294.870850	146.340000
294.963959	146.080000
295.057159	145.880000
295.150299	146.060000
295.243469	146.360000
295.336609	145.740000
295.429779	145.860000
295.522919	146.360000
295.616089	146.620000
295.709229	146.900000
295.802399	147.220000
295.895569	147.020000
295.988708	146.520000
296.081879	146.500000
296.175018	146.100000
296.268188	146.160000
296.361359	146.540000
296.454529	146.820000
296.547668	146.760000
296.640839	147.160000
296.734009	146.740000
296.827179	146.980000
296.920319	146.920000
297.013519	146.960000
297.106659	146.820000
297.199860	146.960000
297.292999	146.720000
297.386200	146.600000
297.479309	146.080000
297.572510	145.960000
297.665680	145.960000
297.758850	145.900000
297.852020	145.740000
297.945190	145.920000
298.038361	145.680000
298.131531	146.640000
298.224701	146.580000
298.317871	146.160000
298.411072	145.580000
298.504242	145.480000
298.597412	144.660000
298.690582	144.820000
298.783752	145.440000
298.876923	146.260000
298.970093	146.600000
299.063293	147.160000
299.156464	147.680000
299.249634	147.960000
299.342834	148.080000
299.436005	148.220000
299.529205	147.880000
299.622345	147.480000
299.715576	146.760000
299.808716	146.320000
299.901917	146.440000
299.995117	146.920000
300.088287	147.040000
300.181488	146.860000
300.274658	147.020000
300.367828	146.940000
300.461029	146.640000
300.554199	146.900000
300.647400	147.280000
300.740601	147.760000
300.833771	147.460000
300.926971	147.340000
301.020142	146.700000
301.113342	146.620000
301.206512	146.220000
301.299713	146.640000
301.392914	146.800000
301.486084	147.100000
301.579285	147.200000
301.672516	147.620000
301.765686	147.420000
301.858887	147.440000
301.952057	147.420000
302.045288	147.380000
302.138458	146.980000
302.231659	146.840000
302.324860	146.420000
302.418060	146.100000
302.511261	146.100000
302.604462	146.440000
302.697662	146.280000
302.790863	146.240000
302.884064	146.140000
302.977264	146.040000
303.070465	146.200000
303.163666	147.040000
303.256866	147.560000
303.350067	147.460000
303.443268	147.600000
303.536469	147.440000
303.629669	146.700000
303.722870	146.760000
303.816071	146.640000
303.909271	146.620000
304.002472	145.820000
304.095673	145.700000
304.188934	144.960000
304.282104	146.160000
304.375336	146.040000
304.468506	146.300000
304.561768	146.100000
304.654968	146.460000
304.748169	145.640000
304.841370	145.540000
304.934601	145.980000
305.027802	146.120000
305.121002	145.820000
305.214233	145.760000
305.307434	145.960000
305.400665	146.440000
305.493866	146.320000
305.587097	146.480000
305.680298	146.280000
305.773499	146.600000
305.866730	145.860000
305.959930	146.240000
306.053162	146.760000
306.146393	146.820000
306.239594	146.360000
306.332825	146.700000
306.426025	147.100000
306.519287	146.460000
306.612488	146.560000
306.705719	146.700000
306.798920	146.580000
306.892181	145.800000
306.985352	145.840000
307.078613	145.600000
307.171844	145.940000
307.265045	145.520000
307.358276	145.520000
307.451508	146.000000
307.544739	146.460000
307.637970	145.900000
307.731201	145.880000
307.824402	146.440000
307.917633	146.460000
308.010864	146.640000
308.104095	147.260000
308.197327	147.560000
308.290558	147.540000
308.383789	147.160000
308.477020	146.820000
308.570251	146.000000
308.663483	145.460000
308.756714	145.280000
308.849976	145.300000
308.943176	145.700000
309.036438	145.880000
309.129639	146.200000
309.222900	146.040000
309.316101	146.100000
309.409393	145.620000
309.502625	145.660000
309.595856	145.680000
309.689087	145.760000
309.782318	145.600000
309.875580	145.640000
309.968811	145.540000
310.062042	145.260000
310.155273	145.180000
310.248535	145.600000
310.341766	145.840000
310.434998	146.160000
310.528259	146.280000
310.621490	146.860000
310.714722	146.340000
310.807983	146.540000
310.901215	146.160000
310.994476	146.680000
311.087708	146.460000
311.181000	146.600000
311.274200	145.640000
311.367462	145.940000
311.460693	145.400000
311.553986	145.880000
311.647186	146.260000
311.740479	147.440000
311.833710	147.360000
311.926971	147.540000
312.020203	146.460000
312.113464	146.360000
312.206726	145.500000
312.299957	145.460000
312.393219	145.980000
312.486481	146.320000
312.579712	145.900000
312.672974	146.140000
312.766235	146.360000
312.859497	145.960000
312.952759	146.120000
313.045990	147.040000
313.139252	146.660000
313.232513	146.520000
313.325775	146.580000
313.419037	146.340000
313.512299	145.220000
313.605530	146.080000
313.698822	146.540000
313.792053	146.660000
313.885345	146.420000
313.978577	146.880000
314.071869	146.140000
314.165131	146.020000
314.258392	146.140000
314.351654	146.420000
314.444916	145.980000
314.538177	146.740000
314.631439	146.780000
314.724701	146.340000
314.817993	146.220000
314.911255	146.880000
315.004517	146.360000
315.097778	146.160000
315.191040	146.660000
315.284302	147.140000
315.377594	146.800000
315.470856	146.620000
315.564117	146.000000
315.657379	145.300000
315.750671	144.720000
315.843933	145.180000
315.937195	144.740000
316.030518	144.780000
316.123749	145.140000
316.217041	146.260000
316.310303	145.840000
316.403595	146.480000
316.496857	146.840000
316.590149	147.040000
316.683411	146.140000
316.776703	146.140000
316.869965	146.080000
316.963257	146.220000
317.056519	145.600000
317.149811	145.600000
317.243073	145.680000
317.336365	145.380000
317.429626	145.600000
317.522919	146.300000
317.616180	146.200000
317.709473	145.900000
317.802765	146.160000
317.896027	146.080000
317.989319	146.200000
318.082611	146.040000
318.175873	146.120000
318.269165	146.040000
318.362488	145.620000
318.455750	145.100000
318.549042	145.600000
318.642303	146.380000
318.735626	146.340000
318.828888	146.800000
318.922211	146.440000
319.015472	146.780000
319.108765	145.860000
319.202057	145.580000
319.295349	145.520000
319.388641	145.820000
319.481934	145.360000
319.575226	145.540000
319.668518	146.060000
319.761810	146.100000
319.855103	146.240000
319.948395	146.440000
320.041687	146.720000
320.134979	146.700000
320.228271	146.540000
320.321564	146.360000
320.414856	146.140000
320.508148	145.520000
320.601440	145.280000
320.694763	145.160000
320.788025	145.720000
320.881348	145.720000
320.974640	145.860000
321.067963	145.520000
321.161224	145.640000
321.254547	145.200000
321.347839	146.020000
321.441162	145.740000
321.534454	146.140000
321.627747	145.800000
321.721069	146.240000
321.814362	145.880000
321.907654	146.140000
322.000946	146.180000
322.094269	147.040000
322.187561	146.480000
322.280884	146.540000
322.374176	146.920000
322.467468	147.160000
322.560791	146.720000
322.654083	147.100000
322.747406	147.140000
322.840698	147.380000
322.934021	147.400000
323.027344	147.780000
323.120636	147.360000
323.213959	147.100000
323.307251	146.600000
323.400574	146.220000
323.493866	145.760000
323.587219	146.460000
323.680511	146.700000
323.773834	146.860000
323.867157	147.140000
323.960449	147.220000
324.053772	146.740000
324.147095	146.400000
324.240387	146.720000
324.333710	146.860000
324.427032	147.020000
324.520355	147.180000
324.613647	147.040000
324.706970	146.760000
324.800293	146.740000
324.893616	146.740000
324.986938	146.960000
325.080231	146.860000
325.173553	146.980000
325.266876	147.300000
325.360199	147.460000
325.453522	146.760000
325.546875	146.800000
325.640167	147.220000
325.733521	147.280000
325.826813	147.300000
325.920166	147.480000
326.013489	147.200000
326.106812	146.160000
326.200134	145.440000
326.293457	144.620000
326.386780	144.820000
326.480103	145.060000
326.573425	145.120000
326.666748	145.340000
326.760071	145.960000
326.853424	145.980000
326.946747	146.100000
327.040070	147.040000
327.133392	146.740000
327.226715	145.980000
327.320068	145.760000
327.413391	145.980000
327.506714	145.100000
327.600037	145.260000
327.693390	145.840000
327.786713	145.800000
327.880066	145.700000
327.973358	146.000000
328.066742	146.320000
328.160034	146.480000
328.253418	146.840000
328.346710	146.600000
328.440063	146.540000
328.533417	146.120000
328.626740	146.220000
328.720093	145.940000
328.813416	146.000000
328.906769	146.120000
329.000092	146.440000
329.093445	146.240000
329.186768	146.160000
329.280121	146.680000
329.373444	146.920000
329.466797	146.900000
329.560120	146.720000
329.653473	146.960000
329.746796	146.440000
329.840149	146.100000
329.933502	145.880000
330.026825	146.060000
330.120178	145.660000
330.213562	145.460000
330.306854	145.460000
330.400238	145.640000
330.493561	145.240000
330.586945	145.980000
330.680237	146.360000
330.773621	146.520000
330.866974	146.600000
330.960327	147.200000
331.053680	146.820000
331.147003	147.100000
331.240356	147.340000
331.333710	147.240000
331.427063	146.820000
331.520416	146.760000
331.613770	146.340000
331.707123	146.120000
331.800476	146.300000
331.893829	147.300000
331.987152	147.620000
332.080505	147.440000
332.173859	147.520000
332.267212	146.960000
332.360565	146.240000
332.453918	145.640000
332.547333	145.840000
332.640656	145.920000
332.734039	146.180000
332.827362	145.880000
332.920746	146.560000
333.014069	146.760000
333.107452	146.900000
333.200806	147.360000
333.294159	147.660000
333.387543	146.960000
333.480896	146.320000
333.574249	145.800000
333.667603	145.320000
333.760956	145.480000
333.854340	145.860000
333.947693	146.100000
334.041046	146.440000
334.134430	146.760000
334.227783	146.320000
334.321136	146.060000
334.414520	146.000000
334.507874	145.980000
334.601227	145.880000
334.694611	145.960000
334.787964	146.280000
334.881348	146.380000
334.974701	146.260000
335.068085	145.700000
335.161438	145.960000
335.254822	145.640000
335.348175	146.080000
335.441559	145.700000
335.534943	146.540000
335.628296	146.360000
335.721680	146.700000
335.815033	146.540000
335.908417	147.100000
336.001770	146.820000
336.095154	146.840000
336.188538	146.480000
336.281891	146.000000
336.375275	145.260000
336.468658	144.900000
336.562012	144.780000
336.655396	145.000000
336.748779	145.520000
336.842133	146.080000
336.935516	146.660000
337.028900	146.720000
337.122284	146.720000
337.215637	146.860000
337.309021	146.480000
337.402435	145.840000
337.495789	145.620000
337.589203	145.460000
337.682526	145.100000
337.775940	145.760000
337.869324	146.080000
337.962708	145.920000
338.056091	146.700000
338.149475	146.480000
338.242859	146.060000
338.336243	145.580000
338.429626	146.260000
338.523010	146.060000
338.616394	146.160000
338.709778	146.560000
338.803162	146.960000
338.896545	146.680000
338.989929	146.040000
339.083313	146.220000
339.176697	145.700000
339.270081	145.700000
339.363464	146.140000
339.456848	146.580000
339.550232	146.220000
339.643616	146.120000
339.737030	146.400000
339.830383	145.820000
339.923828	145.380000
340.017181	145.640000
340.110596	145.900000
340.203949	145.660000
340.297363	145.500000
340.390778	145.840000
340.484161	145.920000
340.577545	145.780000
340.670959	145.700000
340.764343	145.800000
340.857727	145.800000
340.951111	145.300000
341.044525	145.740000
341.137909	145.480000
341.231293	145.500000
341.324707	145.220000
341.418091	146.200000
341.511505	146.040000
341.604889	146.500000
341.698303	146.760000
341.791687	147.180000
341.885071	146.340000
341.978485	146.300000
342.071899	146.280000
342.165283	146.320000
342.258698	146.480000
342.352081	147.240000
342.445496	147.500000
342.538879	147.420000
342.632324	147.140000
342.725708	146.700000
342.819122	146.480000
342.912506	146.080000
343.005920	145.920000
343.099335	146.900000
343.192719	146.880000
343.286133	146.740000
343.379547	147.120000
343.472931	147.280000
343.566345	146.480000
343.659760	146.720000
343.753143	146.720000
343.846558	146.480000
343.939972	146.520000
344.033386	146.960000
344.126770	146.780000
344.220184	146.480000
344.313599	146.820000
344.407043	146.980000
344.500427	146.480000
344.593872	146.900000
344.687225	146.900000
344.780670	146.280000
344.874054	146.040000
344.967499	146.320000
345.060913	146.320000
345.154327	146.440000
345.247742	146.340000
345.341156	146.360000
345.434570	146.120000
345.527985	145.880000
345.621399	146.000000
345.714813	146.280000
345.808228	146.380000
345.901642	146.040000
345.995056	145.680000
346.088470	145.580000
346.181885	145.580000
346.275299	145.320000
346.368713	145.540000
346.462128	145.620000
346.555573	145.820000
346.648987	145.880000
346.742401	145.840000
346.835815	146.300000
346.929260	146.220000
347.022644	146.100000
347.116119	146.240000
347.209503	146.480000
347.302948	147.020000
347.396362	147.320000
347.489807	147.280000
347.583221	147.760000
347.676636	147.720000
347.770050	146.500000
347.863495	146.000000
347.956909	146.120000
348.050323	145.520000
348.143768	145.300000
348.237183	145.360000
348.330597	145.840000
348.424042	146.300000
348.517456	146.560000
348.610901	147.040000
348.704315	147.140000
348.797760	146.820000
348.891174	145.860000
348.984619	145.020000
349.078033	145.260000
349.171448	145.740000
349.264923	145.660000
349.358337	145.920000
349.451782	146.380000
349.545197	145.540000
349.638641	145.220000
349.732086	144.920000
349.825500	145.220000
349.918945	145.020000
350.012390	145.660000
350.105804	146.160000
350.199249	146.820000
350.292664	147.340000
350.386108	147.840000
350.479553	148.020000
350.572968	147.760000
350.666412	147.680000
350.759857	147.300000
350.853302	147.500000
350.946716	147.000000
351.040161	146.920000
351.133606	146.780000
351.227081	146.360000
351.320465	146.780000
351.413940	146.940000
351.507355	147.260000
351.600830	147.380000
351.694244	147.260000
351.787720	146.720000
351.881104	146.760000
351.974579	146.340000
352.067993	147.200000
352.161469	147.240000
352.254883	147.000000
352.348358	146.720000
352.441803	146.680000
352.535248	146.300000
352.628693	146.780000
352.722137	146.720000
352.815582	146.940000
352.909027	147.260000
353.002472	146.820000
353.095917	146.720000
353.189362	147.080000
353.282806	147.020000
353.376251	146.760000
353.469696	146.240000
353.563141	146.400000
353.656586	145.820000
353.750061	145.300000
353.843475	145.200000
353.936981	146.120000
354.030396	145.540000
354.123871	145.700000
354.217285	146.740000
354.310760	147.180000
354.404175	146.780000
354.497681	146.700000
354.591095	146.840000
354.684570	145.700000
354.777985	144.920000
354.871490	144.580000
354.964935	145.480000
355.058380	145.560000
355.151855	145.940000
355.245300	146.620000
355.338745	147.280000
355.432220	146.960000
355.525665	146.620000
355.619110	147.020000
355.712585	146.440000
355.806030	146.060000
355.899475	145.740000
355.992950	146.320000
356.086426	146.460000
356.179871	146.800000
356.273346	146.920000
356.366791	147.040000
356.460266	146.920000
356.553711	146.200000
356.647186	146.180000
356.740631	145.900000
356.834106	145.740000
356.927551	145.480000
357.021027	145.560000
357.114471	145.540000
357.207947	145.940000
357.301422	146.140000
357.394867	146.460000
357.488342	147.020000
357.581818	146.920000
357.675262	146.780000
357.768738	146.440000
357.862213	145.880000
357.955658	145.820000
358.049133	145.840000
358.142609	145.820000
358.236053	145.980000
358.329529	146.200000
358.423035	146.280000
358.516449	146.140000
358.609955	146.940000
358.703400	147.520000
358.796906	147.600000
358.890350	147.220000
358.983826	147.720000
359.077271	146.200000
359.170776	145.840000
359.264221	145.600000
359.357727	145.740000
359.451172	145.940000
359.544647	146.600000
359.638123	146.120000
359.731598	146.520000
359.825073	147.020000
359.918549	146.600000
360.012024	146.740000
360.105499	146.520000
360.198975	146.580000
360.292450	146.280000
360.385925	146.260000
360.479401	145.840000
360.572876	146.560000
360.666351	146.540000
360.759857	146.160000
360.853302	146.360000
360.946808	146.300000
361.040253	145.900000
361.133759	145.420000
361.227203	145.520000
361.320709	144.880000
361.414154	145.540000
361.507660	145.980000
361.601105	146.840000
361.694641	147.740000
361.788086	147.880000
361.881592	147.880000
361.975067	147.580000
362.068542	147.420000
362.162018	146.700000
362.255524	146.520000
362.348999	146.340000
362.442474	146.520000
362.535950	146.120000
362.629456	145.860000
362.722931	146.120000
362.816406	146.440000
362.909882	146.780000
363.003387	146.500000
363.096863	146.920000
363.190338	146.920000
363.283875	146.360000
363.377319	146.040000
363.470825	146.620000
363.564301	145.940000
363.657806	146.000000
363.751282	145.940000
363.844788	146.680000
363.938232	146.120000
364.031769	147.160000
364.125214	147.280000
364.218750	148.060000
364.312225	146.960000
364.405731	147.140000
364.499207	146.420000
364.592712	146.140000
364.686188	145.660000
364.779694	146.140000
364.873169	145.960000
364.966675	145.920000
365.060150	145.940000
365.153656	146.140000
365.247131	146.000000
365.340637	146.280000
365.434143	146.780000
365.527618	147.120000
365.621155	146.400000
365.714600	146.120000
365.808136	146.160000
365.901611	145.200000
365.995117	145.060000
366.088593	145.200000
366.182129	145.260000
366.275604	145.500000
366.369110	145.740000
366.462585	145.520000
366.556122	146.180000
366.649567	146.200000
366.743103	146.000000
366.836609	145.860000
366.930115	146.220000
367.023590	146.080000
367.117096	146.180000
367.210602	146.000000
367.304108	146.820000
367.397614	146.920000
367.491119	146.700000
367.584595	146.860000
367.678101	147.240000
367.771606	146.600000
367.865112	146.240000
367.958649	145.840000
368.052124	145.720000
368.145660	145.340000
368.239136	145.900000
368.332672	146.040000
368.426147	146.460000
368.519684	146.280000
368.613159	146.440000
368.706696	145.860000
368.800171	145.760000
368.893707	145.680000
368.987183	145.660000
369.080719	145.560000
369.174225	145.700000
369.267731	146.080000
369.361237	146.060000
369.454742	146.100000
369.548248	146.540000
369.641754	146.420000
369.735260	146.120000
369.828766	145.340000
369.922272	145.980000
370.015808	145.580000
370.109314	145.580000
370.202820	145.300000
370.296356	146.700000
370.389832	146.040000
370.483368	145.900000
370.576874	145.980000
370.670410	146.360000
370.763885	145.540000
370.857422	145.700000
370.950928	145.460000
371.044464	146.200000
371.137939	146.240000
371.231476	146.600000
371.324982	147.100000
371.418518	147.440000
371.512024	147.000000
371.605560	146.960000
371.699066	146.980000
371.792572	146.420000
371.886108	146.760000
371.979614	146.640000
372.073120	146.940000
372.166656	146.680000
372.260162	147.000000
372.353668	146.620000
372.447205	146.380000
372.540710	146.020000
372.634277	145.980000
372.727753	146.160000
372.821320	146.180000
372.914795	146.440000
373.008362	146.480000
373.101837	146.820000
373.195404	146.380000
373.288879	146.380000
373.382446	147.080000
373.475922	147.220000
373.569489	147.620000
373.662964	147.880000
373.756531	147.960000
373.850037	147.600000
373.943573	147.360000
374.037109	146.320000
374.130615	146.440000
374.224152	146.480000
374.317657	146.040000
374.411194	146.780000
374.504730	147.060000
374.598236	146.680000
374.691772	146.420000
374.785309	146.620000
374.878815	145.780000
374.972351	146.160000
375.065887	145.820000
375.159454	146.900000
375.252930	146.760000
375.346497	147.000000
375.440002	147.260000
375.533569	147.380000
375.627045	146.280000
375.720612	146.260000
375.814117	146.420000
375.907684	146.060000
376.001160	145.980000
376.094727	145.660000
376.188232	146.440000
376.281799	146.660000
376.375336	146.520000
376.468872	147.240000
376.562408	147.640000
376.655914	146.880000
376.749451	146.680000
376.842987	146.920000
376.936523	146.440000
377.030060	146.240000
377.123596	146.580000
377.217133	145.960000
377.310669	145.820000
377.404205	146.120000
377.497772	146.760000
377.591278	146.380000
377.684845	147.420000
377.778351	147.460000
377.871918	147.140000
377.965424	146.480000
378.058990	146.520000
378.152496	146.000000
378.246063	146.320000
378.339569	146.540000
378.433136	146.540000
378.526642	146.580000
378.620209	146.580000
378.713745	146.100000
378.807312	146.600000
378.900848	146.660000
378.994385	147.060000
379.087921	146.680000
379.181458	146.900000
379.274994	145.940000
379.368530	146.320000
379.462097	146.180000
379.555634	146.620000
379.649170	146.200000
379.742706	146.460000
379.836273	146.340000
379.929810	145.860000
380.023376	145.160000
380.116882	145.340000
380.210449	145.420000
380.303986	144.720000
380.397552	144.740000
380.491058	145.340000
380.584656	144.940000
380.678162	145.060000
380.771729	145.660000
380.865265	146.480000
380.958832	146.460000
381.052368	147.160000
381.145935	147.320000
381.239471	147.840000
381.333008	147.340000
381.426575	147.260000
381.520111	147.140000
381.613647	147.380000
381.707214	146.900000
381.800751	146.460000
381.894318	146.680000
381.987854	146.280000
382.081421	145.720000
382.174988	145.740000
382.268524	145.680000
382.362091	145.560000
382.455627	146.420000
382.549194	146.240000
382.642731	145.580000
382.736298	145.700000
382.829834	145.320000
382.923401	145.680000
383.016937	146.220000
383.110504	146.940000
383.204041	146.980000
383.297607	147.700000
383.391174	146.660000
383.484741	147.240000
383.578278	146.600000
383.671844	146.700000
383.765411	145.780000
383.858948	146.380000
383.952515	145.660000
384.046051	146.540000
384.139618	146.760000
384.233185	147.000000
384.326721	146.900000
384.420288	147.600000
384.513855	147.360000
384.607422	147.620000
384.700989	148.180000
384.794525	147.760000
384.888123	147.420000
384.981659	147.720000
385.075226	147.200000
385.168762	146.720000
385.262360	146.660000
385.355896	145.760000
385.449463	145.500000
385.542999	145.460000
385.636597	146.120000
385.730164	146.400000
385.823730	146.560000
385.917267	146.200000
386.010834	146.560000
386.104401	146.360000
386.197968	146.520000
386.291534	147.280000
386.385101	147.680000
386.478668	147.780000
386.572235	147.840000
386.665802	147.280000
386.759338	146.440000
386.852905	146.220000
386.946472	146.000000
387.040070	145.760000
387.133606	146.040000
387.227203	145.960000
387.320740	146.360000
387.414337	146.100000
387.507874	145.920000
387.601471	146.020000
387.695007	146.180000
387.788605	145.660000
387.882141	145.860000
387.975739	145.840000
388.069275	145.700000
388.162872	145.940000
388.256439	145.740000
388.350037	145.340000
388.443604	145.560000
388.537170	145.400000
388.630737	145.980000
388.724304	146.660000
388.817871	146.700000
388.911438	146.600000
389.005005	147.020000
389.098602	147.100000
389.192169	146.720000
389.285736	147.380000
389.379333	147.200000
389.472870	146.620000
389.566467	145.980000
389.660034	145.860000
389.753632	145.520000
389.847168	145.960000
389.940765	146.220000
390.034332	146.400000
390.127930	146.080000
390.221466	146.020000
390.315063	145.520000
390.408630	144.900000
390.502228	144.020000
390.595795	144.500000
390.689362	144.660000
390.782959	145.280000
390.876526	146.140000
390.970093	146.500000
391.063690	146.900000
391.157257	146.860000
391.250824	147.000000
391.344421	146.500000
391.437988	147.080000
391.531555	146.860000
391.625153	146.860000
391.718750	146.840000
391.812317	147.040000
391.905914	146.640000
391.999481	146.800000
392.093079	146.840000
392.186615	146.960000
392.280243	146.700000
392.373779	146.840000
392.467407	147.080000
392.560944	146.880000
392.654572	146.200000
392.748108	146.440000
392.841736	146.520000
392.935303	145.640000
393.028900	145.820000
393.122467	146.100000
393.216064	145.800000
393.309631	145.200000
393.403229	145.240000
393.496796	145.060000
393.590393	144.500000
393.683990	145.060000
393.777557	146.040000
393.871155	146.220000
393.964722	146.800000
394.058350	147.120000
394.151917	147.040000
394.245514	146.260000
394.339081	146.680000
394.432678	146.500000
394.526245	146.580000
394.619873	145.840000
394.713409	146.160000
394.807037	145.720000
394.900604	145.660000
394.994202	145.600000
395.087769	146.280000
395.181396	145.800000
395.274994	146.540000
395.368561	145.880000
395.462158	146.160000
395.555756	145.700000
395.649353	146.480000
395.742920	145.940000
395.836517	146.960000
395.930115	146.160000
396.023712	146.780000
396.117279	146.700000
396.210876	146.180000
396.304474	145.720000
396.398071	146.100000
396.491669	145.960000
396.585266	145.720000
396.678833	146.100000
396.772461	146.200000
396.866028	146.140000
396.959656	146.660000
397.053223	147.400000
397.146851	147.780000
397.240417	148.680000
397.334015	150.500000
397.427582	151.660000
397.521210	153.580000
397.614807	156.700000
397.708405	160.280000
397.802002	164.780000
397.895599	171.760000
397.989197	179.880000
398.082794	190.100000
398.176392	203.320000
398.269989	218.420000
398.363586	235.680000
398.457184	256.420000
398.550781	279.400000
398.644379	302.840000
398.737976	328.400000
398.831573	354.100000
398.925201	377.640000
399.018768	399.900000
399.112396	420.800000
399.205963	440.800000
399.299591	459.980000
399.393158	480.240000
399.486786	500.620000
399.580353	521.000000
399.673981	537.720000
399.767578	552.920000
399.861206	562.680000
399.954773	568.320000
400.048401	566.600000
400.141998	560.300000
400.235596	548.860000
400.329193	534.380000
400.422791	515.280000
400.516418	495.860000
400.610016	476.740000
400.703613	457.320000
400.797211	435.840000
400.890808	414.740000
400.984436	393.880000
401.078033	371.420000
401.171631	347.560000
401.265259	324.100000
401.358826	301.980000
401.452484	278.740000
401.546051	258.040000
401.639679	237.580000
401.733246	221.260000
401.826904	205.540000
401.920471	192.860000
402.014099	181.880000
402.107697	174.260000
402.201324	167.220000
402.294891	162.140000
402.388550	158.420000
402.482147	155.580000
402.575745	152.820000
402.669373	150.640000
402.762970	149.380000
402.856567	148.940000
402.950195	148.460000
403.043793	148.040000
403.137390	148.700000
403.231018	147.800000
403.324615	148.020000
403.418243	147.300000
403.511841	147.800000
403.605469	147.360000
403.699066	148.000000
403.792694	147.740000
403.886292	147.920000
403.979919	147.600000
404.073517	147.120000
404.167145	147.140000
404.260712	147.000000
404.354370	146.980000
404.447937	147.360000
404.541595	147.900000
404.635162	147.920000
404.728821	148.240000
404.822418	147.960000
404.916046	147.300000
405.009644	147.380000
405.103271	147.680000
405.196899	147.240000
405.290497	147.460000
405.384125	148.000000
405.477722	147.540000
405.571350	146.720000
405.664948	147.020000
405.758575	147.100000
405.852203	146.640000
405.945801	146.620000
406.039429	147.140000
406.133057	146.720000
406.226654	146.600000
406.320312	146.580000
406.413879	146.740000
406.507538	146.860000
406.601135	146.500000
406.694763	146.840000
406.788361	146.680000
406.882019	146.540000
406.975586	146.620000
407.069244	147.340000
407.162872	147.240000
407.256470	147.060000
407.350098	146.800000
407.443726	146.440000
407.537323	146.020000
407.630951	146.280000
407.724579	146.460000
407.818207	147.180000
407.911804	147.060000
408.005432	147.120000
408.099060	146.860000
408.192688	147.320000
408.286285	146.860000
408.379913	146.860000
408.473572	147.000000
408.567169	146.620000
408.660828	146.180000
408.754395	146.300000
408.848053	146.240000
408.941650	146.400000
409.035309	146.240000
409.128906	146.340000
409.222565	146.520000
409.316132	146.760000
409.409790	146.000000
409.503387	146.280000
409.597046	146.360000
409.690674	146.060000
409.784302	145.980000
409.877930	146.000000
409.971558	145.940000
410.065186	145.780000
410.158783	145.980000
410.252411	145.740000
410.346039	146.460000
410.439667	146.580000
410.533295	146.760000
410.626923	146.940000
410.720551	147.040000
410.814209	147.320000
410.907806	147.440000
411.001465	147.080000
411.095062	146.860000
411.188721	147.160000
411.282318	146.720000
411.375977	146.140000
411.469574	146.160000
411.563232	145.840000
411.656830	145.500000
411.750488	145.300000
411.844086	145.340000
411.937744	145.700000
412.031372	146.100000
412.125000	146.060000
412.218628	146.240000
412.312256	146.940000
412.405884	147.340000
412.499512	146.860000
412.593170	147.220000
412.686798	147.140000
412.780426	146.580000
412.874054	146.420000
412.967682	146.580000
413.061310	147.080000
413.154968	147.140000
413.248566	147.540000
413.342224	147.300000
413.435852	147.640000
413.529510	146.760000
413.623108	146.420000
413.716766	145.940000
413.810364	146.240000
413.904022	145.660000
413.997650	145.440000
414.091309	146.340000
414.184906	146.460000
414.278564	145.960000
414.372192	146.520000
414.465851	147.220000
414.559479	146.360000
414.653107	147.240000
414.746735	147.240000
414.840393	147.120000
414.934021	147.120000
415.027649	146.760000
415.121277	146.180000
415.214935	146.840000
415.308563	147.020000
415.402191	146.420000
415.495850	146.980000
415.589478	147.080000
415.683136	146.460000
415.776733	146.380000
415.870422	146.900000
415.964020	146.340000
416.057678	146.140000
416.151306	146.320000
416.244965	146.020000
416.338562	146.080000
416.432251	146.980000
416.525848	147.820000
416.619507	147.960000
416.713165	148.560000
416.806793	148.500000
416.900421	148.460000
416.994080	147.300000
417.087708	147.160000
417.181366	146.580000
417.274994	146.480000
417.368622	146.580000
417.462280	147.460000
417.555908	147.320000
417.649567	147.180000
417.743195	147.080000
417.836853	146.960000
417.930481	147.020000
418.024170	147.100000
418.117767	147.740000
418.211426	147.920000
418.305054	148.020000
418.398712	147.180000
418.492340	147.280000
418.585999	147.340000
418.679626	147.140000
418.773285	146.940000
418.866913	147.540000
418.960571	147.440000
419.054230	147.200000
419.147858	147.400000
419.241516	147.660000
419.335144	147.120000
419.428802	147.300000
419.522461	147.060000
419.616089	146.820000
419.709747	146.600000
419.803375	147.120000
419.897034	146.640000
419.990662	146.740000
420.084320	147.080000
420.177979	147.360000
420.271606	146.980000
420.365295	147.720000
420.458893	147.820000
420.552582	147.820000
420.646210	147.580000
420.739868	147.620000
420.833496	147.200000
420.927155	146.820000
421.020782	146.560000
421.114471	146.320000
421.208069	146.480000
421.301758	146.480000
421.395386	146.740000
421.489044	146.540000
421.582703	146.620000
421.676361	147.100000
421.769989	146.860000
421.863647	147.460000
421.957306	147.960000
422.050934	148.220000
422.144592	147.760000
422.238251	147.820000
422.331909	147.040000
422.425537	146.480000
422.519196	146.440000
422.612854	146.200000
422.706543	146.000000
422.800140	146.260000
422.893829	146.240000
422.987457	145.840000
423.081146	145.940000
423.174744	146.440000
423.268433	146.320000
423.362061	146.440000
423.455750	146.220000
423.549347	146.440000
423.643036	145.940000
423.736664	146.180000
423.830353	146.280000
423.924011	146.980000
424.017639	146.240000
424.111298	146.020000
424.204956	145.940000
424.298615	145.820000
424.392273	145.400000
424.485931	145.620000
424.579559	146.040000
424.673218	145.860000
424.766876	145.700000
424.860535	145.380000
424.954193	145.440000
425.047882	145.800000
425.141510	145.880000
425.235199	146.280000
425.328796	146.200000
425.422485	146.240000
425.516113	145.300000
425.609802	145.100000
425.703430	145.020000
425.797119	144.920000
425.890747	144.760000
425.984436	145.280000
426.078064	145.320000
426.171753	145.040000
426.265411	145.100000
426.359070	145.600000
426.452728	145.640000
426.546356	145.680000
426.640015	145.720000
426.733673	145.920000
426.827332	145.200000
426.920990	146.060000
427.014648	145.880000
427.108307	146.060000
427.201965	146.300000
427.295624	146.940000
427.389282	145.940000
427.482941	146.300000
427.576630	146.240000
427.670258	145.680000
427.763947	145.380000
427.857574	145.680000
427.951263	145.480000
428.044922	145.300000
428.138611	145.740000
428.232239	146.320000
428.325928	146.560000
428.419556	147.000000
428.513245	146.960000
428.606903	147.120000
428.700562	146.340000
428.794220	145.860000
428.887878	145.080000
428.981537	145.340000
429.075195	145.460000
429.168854	146.080000
429.262512	146.320000
429.356201	146.800000
429.449860	146.600000
429.543518	146.460000
429.637177	146.780000
429.730835	146.560000
429.824493	146.040000
429.918182	146.400000
430.011810	146.100000
430.105530	145.280000
430.199158	145.620000
430.292847	145.960000
430.386475	145.700000
430.480164	145.400000
430.573792	145.220000
430.667511	145.080000
430.761139	145.100000
430.854828	145.560000
430.948456	145.900000
431.042145	146.700000
431.135834	146.440000
431.229492	146.540000
431.323151	146.420000
431.416809	146.460000
431.510468	146.020000
431.604156	146.160000
431.697815	146.200000
431.791473	145.800000
431.885132	145.720000
431.978821	146.200000
432.072479	146.420000
432.166138	146.880000
432.259827	147.140000
432.353485	147.460000
432.447174	147.180000
432.540802	146.960000
432.634491	146.740000
432.728149	146.900000
432.821838	147.360000
432.915466	147.100000
433.009186	147.060000
433.102814	146.400000
433.196503	146.080000
433.290131	146.120000
433.383850	146.380000
433.477509	146.380000
433.571167	147.300000
433.664856	147.860000
433.758514	147.620000
433.852173	147.700000
433.945862	147.640000
434.039520	147.320000
434.133179	146.560000
434.226868	146.160000
434.320526	145.620000
434.414185	146.320000
434.507874	146.100000
434.601562	146.780000
434.695221	146.820000
434.788910	147.440000
434.882538	146.980000
434.976257	146.780000
435.069885	146.480000
435.163574	146.400000
435.257233	145.400000
435.350922	145.320000
435.444580	145.180000
435.538269	145.000000
435.631897	145.340000
435.725616	146.320000
435.819275	146.840000
435.912964	147.380000
436.006622	148.100000
436.100311	147.860000
436.193970	147.340000
436.287628	146.860000
436.381317	146.400000
436.474976	145.540000
436.568665	145.280000
436.662323	145.340000
436.756012	145.480000
436.849670	145.520000
436.943390	145.420000
437.037018	145.620000
437.130737	145.840000
437.224365	145.640000
437.318085	145.960000
437.411713	146.540000
437.505432	146.880000
437.599060	147.160000
437.692780	147.580000
437.786407	147.660000
437.880127	147.400000
437.973755	147.000000
438.067474	146.420000
438.161133	146.420000
438.254822	146.360000
438.348480	146.460000
438.442169	147.200000
438.535828	147.400000
438.629517	147.000000
438.723175	146.440000
438.816864	146.680000
438.910553	145.940000
439.004211	145.960000
439.097900	145.820000
439.191559	146.100000
439.285248	145.440000
439.378906	145.800000
439.472626	145.600000
439.566284	145.620000
439.659973	146.100000
439.753632	146.140000
439.847321	146.180000
439.940979	146.720000
440.034698	146.880000
440.128326	146.140000
440.222046	146.020000
440.315674	145.280000
440.409393	144.940000
440.503082	144.540000
440.596741	145.040000
440.690430	145.540000
440.784088	145.760000
440.877777	145.380000
440.971466	145.540000
441.065125	145.360000
441.158813	145.020000
441.252502	145.220000
441.346161	145.540000
441.439850	146.000000
441.533539	145.840000
441.627197	146.100000
441.720886	145.860000
441.814606	146.140000
441.908234	146.080000
442.001953	145.920000
442.095612	145.960000
442.189301	146.300000
442.282959	146.540000
442.376678	145.920000
442.470306	146.760000
442.564026	146.680000
442.657684	146.600000
442.751404	146.180000
442.845032	147.180000
442.938751	146.400000
443.032440	146.660000
443.126099	146.400000
443.219788	147.120000
443.313477	146.760000
443.407166	147.320000
443.500824	147.220000
443.594513	147.500000
443.688202	147.240000
443.781891	146.620000
443.875549	146.040000
443.969238	145.960000
444.062927	145.900000
444.156647	145.360000
444.250275	146.000000
444.343994	146.200000
444.437653	146.260000
444.531372	146.260000
444.625031	146.020000
444.718719	145.520000
444.812378	145.660000
444.906097	145.320000
444.999756	144.920000
445.093445	145.320000
445.187103	145.480000
445.280823	146.000000
445.374512	145.940000
445.468201	146.180000
445.561859	146.040000
445.655548	146.120000
445.749237	145.460000
445.842926	145.420000
445.936615	146.020000
446.030304	145.860000
446.123962	146.200000
446.217651	146.140000
446.311340	146.300000
446.405029	145.760000
446.498749	145.660000
446.592407	145.100000
446.686096	145.420000
446.779755	145.620000
446.873474	145.800000
446.967133	146.300000
447.060852	146.260000
447.154510	146.100000
447.248230	145.840000
447.341858	145.940000
447.435577	145.340000
447.529236	145.120000
447.622955	144.840000
447.716644	145.180000
447.810333	145.240000
447.904022	145.820000
447.997711	146.320000
448.091400	146.860000
448.185059	146.960000
448.278748	147.000000
448.372437	146.580000
448.466125	146.500000
448.559814	146.160000
448.653503	146.320000
448.747192	146.760000
448.840912	147.500000
448.934570	147.600000
449.028290	148.080000
449.121948	147.440000
449.215637	146.600000
449.309296	146.180000
449.403015	146.720000
449.496674	146.640000
449.590393	147.140000
449.684052	147.040000
449.777771	147.700000
449.871429	146.680000
449.965149	146.420000
450.058838	146.240000
450.152527	146.960000
450.246216	146.420000
450.339905	146.580000
450.433594	146.500000
450.527283	147.080000
450.620972	146.780000
450.714661	146.880000
450.808350	146.920000
450.902039	147.160000
450.995728	146.480000
451.089417	146.000000
451.183105	145.780000
451.276794	146.620000
451.370514	145.940000
451.464172	145.560000
451.557892	145.940000
451.651550	146.240000
451.745270	145.500000
451.838928	145.660000
451.932648	145.920000
452.026306	146.280000
452.120026	145.800000
452.213684	145.980000
452.307404	145.960000
452.401062	146.180000
452.494781	146.000000
452.588470	145.980000
452.682159	145.640000
452.775848	145.660000
452.869537	145.420000
452.963226	145.160000
453.056915	145.140000
453.150604	145.560000
453.244293	145.960000
453.337982	146.320000
453.431671	146.560000
453.525360	147.200000
453.619049	147.060000
453.712769	146.980000
453.806427	146.820000
453.900146	146.420000
453.993805	145.840000
454.087555	146.240000
454.181213	146.280000
454.274933	146.200000
454.368591	146.320000
454.462311	146.340000
454.555969	145.800000
454.649689	146.460000
454.743347	146.320000
454.837067	147.100000
454.930756	147.640000
455.024445	147.960000
455.118134	147.220000
455.211853	147.520000
455.305542	146.800000
455.399231	146.900000
455.492920	146.440000
455.586609	146.860000
455.680298	146.940000
455.773987	146.920000
455.867676	146.420000
455.961365	146.840000
456.055084	146.320000
456.148773	145.880000
456.242493	145.880000
456.336151	146.260000
456.429871	146.420000
456.523529	146.920000
456.617249	147.120000
456.710907	147.760000
456.804626	147.400000
456.898315	146.860000
456.992035	146.480000
457.085693	146.220000
457.179413	145.480000
457.273102	146.240000
457.366791	146.520000
457.460480	147.100000
457.554199	147.780000
457.647888	147.880000
457.741577	147.180000
457.835266	147.240000
457.928955	146.960000
458.022644	146.760000
458.116364	147.040000
458.210052	147.220000
458.303741	147.320000
458.397461	146.720000
458.491119	146.260000
458.584839	146.000000
458.678528	145.420000
458.772247	144.980000
458.865906	145.340000
458.959625	146.340000
459.053284	146.500000
459.147003	146.680000
459.240692	147.360000
459.334412	147.300000
459.428070	146.600000
459.521790	146.560000
459.615479	146.680000
459.709198	147.020000
459.802887	146.860000
459.896576	146.820000
459.990265	146.920000
460.083954	147.000000
460.177673	146.180000
460.271362	146.500000
460.365051	146.680000
460.458740	146.240000
460.552429	145.740000
460.646149	146.200000
460.739838	145.600000
460.833527	145.380000
460.927246	145.300000
461.020905	145.580000
461.114655	145.120000
461.208313	145.780000
461.302032	145.240000
461.395691	145.660000
461.489441	145.740000
461.583099	145.580000
461.676819	145.200000
461.770477	145.720000
461.864197	145.240000
461.957916	145.100000
462.051605	145.060000
462.145294	145.840000
462.238983	145.860000
462.332703	146.580000
462.426392	147.300000
462.520081	147.560000
462.613770	146.940000
462.707489	147.160000
462.801178	147.000000
462.894867	146.560000
462.988556	147.000000
463.082275	147.060000
463.175964	146.640000
463.269684	146.660000
463.363342	146.300000
463.457092	145.140000
463.550751	145.160000
463.644470	145.440000
463.738129	145.400000
463.831879	145.500000
463.925537	146.680000
464.019257	146.680000
464.112946	146.640000
464.206665	146.240000
464.300323	146.340000
464.394043	145.840000
464.487762	145.860000
464.581451	146.260000
464.675140	146.440000
464.768829	146.840000
464.862549	146.860000
464.956238	146.900000
465.049927	146.700000
465.143646	147.000000
465.237335	146.520000
465.331024	147.240000
465.424713	147.420000
465.518433	147.520000
465.612152	147.200000
465.705811	147.420000
465.799561	146.680000
465.893219	146.300000
465.986938	146.060000
466.080597	145.980000
466.174347	146.360000
466.268005	146.620000
466.361725	146.800000
466.455414	146.840000
466.549133	146.600000
466.642792	146.520000
466.736542	146.160000
466.830231	146.100000
466.923920	146.160000
467.017609	146.560000
467.111328	145.960000
467.205017	145.980000
467.298706	145.920000
467.392426	146.060000
467.486115	146.180000
467.579803	146.180000
467.673523	146.620000
467.767212	146.820000
467.860901	146.400000
467.954651	146.300000
468.048309	146.660000
468.142029	146.420000
468.235718	146.220000
468.329437	146.200000
468.423096	146.140000
468.516846	145.920000
468.610504	145.820000
468.704224	145.720000
468.797913	145.880000
468.891632	145.860000
468.985291	146.040000
469.079010	145.820000
469.172729	145.660000
469.266418	145.860000
469.360107	145.840000
469.453827	145.640000
469.547516	146.020000
469.641205	146.540000
469.734924	146.780000
469.828613	147.200000
469.922302	147.420000
470.016022	147.400000
470.109711	147.100000
470.203430	146.360000
470.297150	145.780000
470.390808	146.040000
470.484558	145.560000
470.578217	145.900000
470.671936	146.340000
470.765625	146.880000
470.859344	146.180000
470.953003	146.600000
471.046753	146.360000
471.140411	145.800000
471.234131	145.960000
471.327820	146.900000
471.421539	147.140000
471.515228	146.800000
471.608948	147.320000
471.702637	146.560000
471.796326	146.120000
471.890045	146.120000
471.983734	146.360000
472.077423	146.020000
472.171143	146.400000
472.264832	146.300000
472.358521	145.740000
472.452240	145.320000
472.545929	146.120000
472.639648	146.260000
472.733337	146.580000
472.827057	147.100000
472.920746	147.460000
473.014465	146.940000
473.108124	146.820000
473.201874	146.700000
473.295532	146.520000
473.389252	146.840000
473.482941	147.220000
473.576660	147.040000
473.670319	146.840000
473.764069	147.180000
473.857727	147.600000
473.951477	147.640000
474.045166	148.320000
474.138855	148.120000
474.232574	147.660000
474.326263	147.220000
474.419952	147.120000
474.513672	146.820000
474.607361	146.880000
474.701050	147.180000
474.794769	147.180000
474.888458	147.040000
474.982178	146.960000
475.075867	147.040000
475.169586	147.140000
475.263275	147.040000
475.356995	147.280000
475.450653	146.840000
475.544403	146.660000
475.638062	147.100000
475.731812	146.860000
475.825470	146.340000
475.919189	146.860000
476.012878	147.180000
476.106598	146.320000
476.200256	146.620000
476.294006	146.880000
476.387695	146.680000
476.481384	146.600000
476.575104	146.460000
476.668793	146.200000
476.762512	145.740000
476.856201	146.000000
476.949890	145.560000
477.043610	145.320000
477.137299	145.400000
477.230988	145.860000
477.324707	145.440000
477.418396	146.100000
477.512146	146.460000
477.605804	146.320000
477.699524	146.280000
477.793213	146.200000
477.886932	145.680000
477.980591	145.600000
478.074341	145.600000
478.167999	145.120000
478.261749	145.280000
478.355408	145.260000
478.449127	145.760000
478.542816	146.780000
478.636536	147.580000
478.730225	147.760000
478.823944	148.400000
478.917633	148.200000
479.011322	147.880000
479.105042	147.760000
479.198730	147.860000
479.292450	147.360000
479.386139	147.660000
479.479828	147.540000
479.573547	147.640000
479.667267	147.520000
479.760925	147.580000
479.854675	147.300000
479.948334	147.100000
480.042084	146.680000
480.135742	146.820000
480.229462	146.560000
480.323151	146.440000
480.416870	145.880000
480.510529	145.840000
480.604279	145.280000
480.697937	145.860000
480.791656	145.640000
480.885345	145.920000
480.979065	145.980000
481.072754	146.700000
481.166473	146.920000
481.260132	147.020000
481.353882	147.080000
481.447540	146.920000
481.541260	146.700000
481.635010	145.880000
481.728668	145.880000
481.822388	145.680000
481.916077	145.740000
482.009796	145.420000
482.103485	146.120000
482.197205	146.280000
482.290863	146.580000
482.384613	146.540000
482.478271	146.620000
482.571991	146.380000
482.665680	146.360000
482.759399	146.960000
482.853058	147.460000
482.946808	147.620000
483.040466	147.380000
483.134216	147.280000
483.227875	146.600000
483.321594	146.600000
483.415283	146.560000
483.509003	146.480000
483.602661	146.540000
483.696411	146.980000
483.790070	146.620000
483.883789	146.480000
483.977478	146.560000
484.071198	146.540000
484.164917	146.140000
484.258606	145.900000
484.352325	146.240000
484.445984	146.560000
484.539734	146.480000
484.633392	145.880000
484.727142	146.600000
484.820801	146.320000
484.914520	146.000000
485.008209	146.240000
485.101929	147.180000
485.195587	146.540000
485.289337	146.580000
485.382996	146.820000
485.476715	146.860000
485.570404	146.760000
485.664124	146.900000
485.757782	147.380000
485.851532	147.000000
485.945190	146.720000
486.038910	146.880000
486.132599	147.460000
486.226318	146.520000
486.319977	146.520000
486.413727	146.960000
486.507446	146.260000
486.601105	145.700000
486.694855	145.880000
486.788513	145.820000
486.882233	145.380000
486.975922	145.600000
487.069641	145.280000
487.163300	145.180000
487.257050	146.260000
487.350708	146.080000
487.444427	146.040000
487.538116	146.380000
487.631836	146.440000
487.725494	146.120000
487.819214	146.240000
487.912903	146.140000
488.006622	146.260000
488.100281	146.640000
488.194031	146.400000
488.287689	146.920000
488.381409	147.760000
488.475098	147.580000
488.568817	147.480000
488.662476	147.340000
488.756226	146.460000
488.849945	145.440000
488.943604	145.540000
489.037354	145.860000
489.131012	145.660000
489.224731	145.860000
489.318390	145.880000
489.412140	146.080000
489.505798	145.780000
489.599518	145.420000
489.693207	145.900000
489.786926	146.080000
489.880585	145.840000
489.974335	146.200000
490.067993	147.780000
490.161713	147.780000
490.255371	148.300000
490.349121	148.280000
490.442780	147.760000
490.536499	146.620000
490.630188	146.480000
490.723907	145.900000
490.817566	145.940000
490.911285	146.020000
491.004974	145.820000
491.098694	145.640000
491.192413	146.360000
491.286102	146.220000
491.379822	146.520000
491.473480	147.080000
491.567200	147.180000
491.660889	146.520000
491.754608	146.460000
491.848267	146.360000
491.941986	146.160000
492.035675	145.940000
492.129395	146.500000
492.223053	146.560000
492.316772	146.720000
492.410461	146.480000
492.504181	146.640000
492.597839	146.140000
492.691559	146.320000
492.785248	146.220000
492.878967	146.440000
492.972626	146.460000
493.066345	146.740000
493.160034	146.080000
493.253754	145.920000
493.347412	145.440000
493.441132	145.600000
493.534882	145.900000
493.628540	146.620000
493.722260	146.760000
493.815918	147.480000
493.909668	147.920000
494.003326	148.040000
494.097046	147.880000
494.190704	147.600000
494.284454	147.360000
494.378113	147.180000
494.471832	146.520000
494.565491	146.560000
494.659210	146.600000
494.752899	146.520000
494.846619	145.960000
494.940277	146.320000
495.033997	146.340000
495.127686	146.360000
495.221405	146.160000
495.315063	146.500000
495.408783	146.260000
495.502441	146.620000
495.596191	146.700000
495.689850	146.460000
495.783569	146.600000
495.877228	146.660000
495.970947	145.960000
496.064697	145.580000
496.158356	146.620000
496.252075	146.500000
496.345734	146.580000
496.439453	147.320000
496.533142	147.640000
496.626862	147.600000
496.720520	147.480000
496.814240	147.380000
496.907898	147.100000
497.001617	147.360000
497.095306	146.600000
497.189026	146.700000
497.282684	146.860000
497.376404	147.000000
497.470062	146.460000
497.563782	146.620000
497.657471	146.540000
497.751190	146.080000
497.844849	145.820000
497.938568	146.240000
498.032227	146.440000
498.125946	146.380000
498.219635	146.460000
498.313354	146.660000
498.407074	146.280000
498.500732	146.360000
498.594452	146.500000
498.688110	146.020000
498.781830	145.320000
498.875519	145.300000
498.969238	144.760000
499.062897	144.420000
499.156616	145.300000
499.250275	145.680000
499.343994	145.500000
499.437653	145.860000
499.531372	146.200000
499.625061	146.740000
499.718781	146.960000
499.812439	147.700000
499.906158	147.500000
499.999817	147.240000
500.093536	146.540000
500.187195	146.400000
500.280914	146.220000
500.374573	146.740000
500.468323	146.500000
500.561981	146.460000
500.655701	145.880000
500.749420	145.620000
500.843079	145.140000
500.936798	145.680000
501.030457	146.260000
501.124176	147.100000
501.217834	147.180000
501.311554	147.200000
501.405212	147.040000
501.498962	146.080000
501.592621	145.780000
501.686340	145.880000
501.779999	146.160000
501.873718	146.160000
501.967377	146.440000
502.061096	146.720000
502.154755	146.400000
502.248474	146.300000
502.342133	146.480000
502.435852	146.300000
502.529510	146.700000
502.623230	147.340000
502.716888	146.700000
502.810608	146.700000
502.904266	147.240000
502.997986	146.660000
503.091705	146.080000
503.185364	146.460000
503.279083	146.460000
503.372772	146.440000
503.466492	146.000000
503.560150	146.340000
503.653870	146.600000
503.747528	146.440000
503.841248	146.060000
503.934906	146.680000
504.028625	146.480000
504.122284	146.600000
504.216003	147.380000
504.309662	147.020000
504.403381	147.020000
504.497040	146.820000
504.590759	146.720000
504.684418	146.400000
504.778137	147.220000
504.871796	147.180000
504.965515	147.200000
505.059174	147.000000
505.152893	146.300000
505.246521	145.640000
505.340240	145.240000
505.433899	145.380000
505.527618	145.520000
505.621338	146.060000
505.714996	146.340000
505.808716	146.420000
505.902374	146.840000
505.996094	146.580000
506.089752	146.280000
506.183472	146.440000
506.277130	146.500000
506.370850	146.340000
506.464508	146.640000
506.558228	146.720000
506.651886	146.280000
506.745605	146.720000
506.839264	146.580000
506.932983	146.540000
507.026611	146.620000
507.120331	147.500000
507.213989	146.560000
507.307709	146.660000
507.401367	146.800000
507.495087	147.520000
507.588745	146.900000
507.682465	147.880000
507.776123	147.920000
507.869843	147.900000
507.963531	147.200000
508.057190	147.620000
508.150909	147.080000
508.244568	147.140000
508.338287	146.640000
508.431946	146.500000
508.525665	146.080000
508.619324	146.020000
508.713013	145.900000
508.806671	146.540000
508.900391	147.440000
508.994049	147.700000
509.087769	147.500000
509.181427	147.620000
509.275146	146.980000
509.368774	145.980000
509.462494	145.760000
509.556152	145.920000
509.649872	146.300000
509.743530	146.680000
509.837250	146.940000
509.930878	147.000000
510.024597	147.060000
510.118256	146.540000
510.211975	146.360000
510.305695	146.040000
510.399353	146.360000
510.493042	146.960000
510.586700	146.920000
510.680420	147.600000
510.774078	147.740000
510.867798	147.740000
510.961426	147.080000
511.055145	147.600000
511.148804	147.180000
511.242523	147.520000
511.336151	147.460000
511.429871	147.860000
511.523529	147.320000
511.617249	147.040000
511.710876	146.760000
511.804596	146.280000
511.898254	145.960000
511.991974	146.160000
512.085632	146.000000
512.179321	146.300000
512.272949	146.800000
512.366699	147.300000
512.460327	147.240000
512.554077	148.400000
512.647766	147.860000
512.741394	147.700000
512.835144	147.720000
512.928772	147.460000
513.022461	146.760000
513.116150	146.940000
513.209839	147.120000
513.303467	146.720000
513.397217	146.460000
513.490845	146.380000
513.584595	146.180000
513.678223	145.560000
513.771912	145.100000
513.865601	145.660000
513.959290	145.420000
514.052917	145.560000
514.146667	146.460000
514.240295	146.960000
514.333984	147.160000
514.427673	147.080000
514.521362	147.460000
514.614990	146.820000
514.708740	147.080000
514.802368	147.000000
514.896057	147.600000
514.989746	148.340000
515.083435	148.460000
515.177124	148.500000
515.270752	148.080000
515.364502	147.660000
515.458130	147.280000
515.551819	146.980000
515.645508	146.640000
515.739197	146.740000
515.832825	146.720000
515.926575	146.100000
516.020203	146.420000
516.113892	147.100000
516.207520	146.760000
516.301270	146.940000
516.394897	147.060000
516.488586	147.580000
516.582275	147.300000
516.675964	146.900000
516.769592	146.600000
516.863281	147.120000
516.956970	146.940000
517.050659	146.600000
517.144287	147.180000
517.238037	147.280000
517.331665	146.660000
517.425354	146.420000
517.519043	146.200000
517.612732	146.720000
517.706421	146.820000
517.800049	146.440000
517.893738	146.100000
517.987427	146.260000
518.081116	145.940000
518.174744	145.900000
518.268433	146.280000
518.362122	146.900000
518.455811	146.640000
518.549438	147.020000
518.643127	147.800000
518.736816	147.540000
518.830505	147.000000
518.924133	146.980000
519.017822	146.980000
519.111511	146.080000
519.205200	146.740000
519.298828	147.040000
519.392517	146.800000
519.486206	146.880000
519.579895	147.280000
519.673523	147.040000
519.767212	146.560000
519.860901	147.240000
519.954590	146.540000
520.048279	146.080000
520.141907	145.660000
520.235596	146.720000
520.329224	146.780000
520.422974	147.040000
520.516602	147.260000
520.610291	147.240000
520.703918	147.160000
520.797607	146.800000
520.891296	146.880000
520.984985	147.020000
521.078613	147.800000
521.172302	146.880000
521.265930	147.600000
521.359680	147.780000
521.453308	147.560000
521.546997	146.840000
521.640625	147.360000
521.734314	146.580000
521.827942	146.220000
521.921692	146.380000
522.015320	146.740000
522.109009	146.320000
522.202698	146.260000
522.296326	146.160000
522.390015	146.320000
522.483704	146.300000
522.577393	146.360000
522.671021	146.640000
522.764709	146.420000
522.858337	146.660000
522.952026	146.460000
523.045654	146.980000
523.139404	147.300000
523.233032	147.800000
523.326721	147.160000
523.420349	147.260000
523.514038	146.580000
523.607666	146.620000
523.701355	145.860000
523.795044	146.000000
523.888733	146.100000
523.982361	146.240000
524.076050	145.980000
524.169678	146.760000
524.263367	146.600000
524.356995	146.200000
524.450684	145.940000
524.544373	145.460000
524.638062	145.400000
524.731750	145.580000
524.825378	145.740000
524.919067	145.380000
525.012695	145.760000
525.106384	145.320000
525.200012	145.480000
525.293701	145.720000
525.387329	146.800000
525.481018	146.820000
525.574646	147.400000
525.668396	147.300000
525.762024	147.520000
525.855713	147.460000
525.949341	147.120000
526.043030	147.240000
526.136658	146.880000
526.230347	146.460000
526.323975	145.940000
526.417664	146.120000
526.511292	146.160000
526.604980	146.580000
526.698608	146.860000
526.792297	147.000000
526.885925	147.420000
526.979614	147.180000
527.073303	147.260000
527.166931	147.100000
527.260620	147.220000
527.354309	147.340000
527.447998	147.060000
527.541626	146.720000
527.635315	146.680000
527.728943	147.060000
527.822632	147.040000
527.916260	147.120000
528.009949	147.400000
528.103577	147.380000
528.197266	146.740000
528.290894	146.560000
528.384583	146.600000
528.478210	146.180000
528.571899	146.380000
528.665527	146.720000
528.759216	146.460000
528.852844	146.960000
528.946533	147.380000
529.040161	147.120000
529.133850	146.900000
529.227478	147.440000
529.321167	147.520000
529.414856	147.760000
529.508484	148.140000
529.602173	147.940000
529.695801	147.580000
529.789490	147.080000
529.883057	146.640000
529.976746	146.700000
530.070374	147.080000
530.164062	146.940000
530.257690	147.420000
530.351379	147.880000
530.445007	147.520000
530.538696	146.920000
530.632324	147.360000
530.726013	146.920000
530.819641	146.520000
530.913330	146.620000
531.006958	147.000000
531.100647	147.060000
531.194275	147.040000
531.287964	146.620000
531.381592	146.340000
531.475220	146.260000
531.568848	145.840000
531.662537	145.660000
531.756226	146.380000
531.849854	146.420000
531.943542	146.620000
532.037170	146.020000
532.130859	146.580000
532.224487	146.280000
532.318176	146.020000
532.411804	146.360000
532.505432	146.980000
532.599060	146.420000
532.692749	145.980000
532.786377	146.600000
532.880066	145.760000
532.973694	145.240000
533.067383	145.460000
533.161011	145.620000
533.254639	145.180000
533.348267	145.520000
533.441956	146.060000
533.535583	145.720000
533.629272	146.080000
533.722900	145.820000
533.816589	145.520000
533.910156	145.940000
534.003845	145.740000
534.097534	145.920000
534.191162	146.860000
534.284851	147.120000
534.378479	146.620000
534.472107	147.260000
534.565735	146.760000
534.659424	146.440000
534.753052	146.740000
534.846741	146.480000
534.940369	146.700000
535.033997	146.920000
535.127625	146.780000
535.221313	147.120000
535.314941	147.260000
535.408630	146.520000
535.502197	146.700000
535.595886	146.320000
535.689514	145.540000
535.783203	146.140000
535.876831	146.720000
535.970459	146.600000
536.064087	146.980000
536.157776	147.260000
536.251404	146.900000
536.345093	146.440000
536.438721	146.680000
536.532349	146.560000
536.626038	146.400000
536.719666	146.780000
536.813293	146.520000
536.906921	146.180000
537.000610	146.620000
537.094238	146.640000
537.187866	146.180000
537.281494	146.500000
537.375183	146.680000
537.468811	146.240000
537.562439	146.120000
537.656067	145.800000
537.749756	145.900000
537.843384	146.260000
537.937012	146.700000
538.030640	146.620000
538.124329	146.820000
538.217896	146.920000
538.311584	146.960000
538.405212	146.840000
538.498901	147.320000
538.592468	147.740000
538.686157	147.240000
538.779785	146.340000
538.873413	145.980000
538.967102	145.760000
539.060730	145.260000
539.154358	145.600000
539.247986	146.340000
539.341675	146.500000
539.435242	146.360000
539.528931	146.620000
539.622559	146.340000
539.716187	146.600000
539.809814	146.640000
539.903503	146.860000
539.997070	146.820000
540.090759	147.140000
540.184387	146.700000
540.278015	147.280000
540.371643	147.300000
540.465332	147.300000
540.558899	147.180000
540.652588	147.280000
540.746216	146.380000
540.839844	146.700000
540.933472	146.560000
541.027100	146.600000
541.120728	146.680000
541.214417	146.960000
541.308044	146.940000
541.401672	146.920000
541.495300	146.740000
541.588928	146.280000
541.682617	146.360000
541.776184	146.080000
541.869873	146.200000
541.963440	146.740000
542.057129	146.900000
542.150757	146.760000
542.244385	146.340000
542.338013	146.160000
542.431641	145.860000
542.525269	145.520000
542.618958	145.840000
542.712524	146.300000
542.806213	146.340000
542.899780	146.480000
542.993469	146.580000
543.087036	145.800000
543.180725	145.420000
543.274292	145.780000
543.367981	145.900000
543.461548	146.440000
543.555237	146.820000
543.648926	147.380000
543.742493	147.820000
543.836182	147.540000
543.929749	147.300000
544.023437	147.240000
544.117004	147.060000
544.210693	146.960000
544.304260	147.180000
544.397949	146.840000
544.491516	147.240000
544.585205	147.080000
544.678772	146.160000
544.772461	146.180000
544.866028	146.300000
544.959717	146.300000
545.053284	145.900000
545.146973	146.540000
545.240540	146.480000
545.334229	147.020000
545.427795	147.060000
545.521423	147.440000
545.615051	147.100000
545.708679	147.500000
545.802307	147.040000
545.895935	147.080000
545.989624	147.760000
546.083191	148.040000
546.176880	147.640000
546.270447	147.360000
546.364136	147.620000
546.457703	147.160000
546.551331	147.040000
546.644958	147.140000
546.738586	147.440000
546.832214	146.980000
546.925842	146.840000
547.019409	146.900000
547.113098	146.440000
547.206665	146.560000
547.300354	146.580000
547.393921	146.940000
547.487549	147.440000
547.581177	147.460000
547.674805	147.280000
547.768433	146.560000
547.862061	146.300000
547.955627	145.320000
548.049316	146.000000
548.142883	146.300000
548.236572	147.180000
548.330139	147.360000
548.423767	147.400000
548.517456	147.200000
548.611023	147.280000
548.704651	146.440000
548.798279	146.240000
548.891907	146.900000
548.985474	146.760000
549.079163	146.920000
549.172729	147.240000
549.266357	146.820000
549.359985	146.600000
549.453613	146.140000
549.547180	145.600000
549.640869	146.140000
549.734436	146.020000
549.828064	146.100000
549.921631	146.400000
550.015320	146.180000
550.108887	146.100000
550.202515	146.560000
550.296143	146.060000
550.389771	146.180000
550.483337	146.400000
550.576965	145.900000
550.670593	146.300000
550.764221	146.680000
550.857849	146.400000
550.951477	145.740000
551.045105	145.920000
551.138672	145.700000
551.232300	145.500000
551.325928	145.780000
551.419556	146.520000
551.513123	146.600000
551.606750	146.320000
551.700378	146.440000
551.794006	146.480000
551.887573	146.380000
551.981201	146.680000
552.074768	146.520000
552.168457	146.160000
552.262024	146.780000
552.355652	146.720000
552.449219	146.940000
552.542847	147.240000
552.636475	147.140000
552.730103	146.140000
552.823669	145.900000
552.917297	145.380000
553.010864	145.340000
553.104553	145.700000
553.198181	145.740000
553.291748	146.400000
553.385376	146.660000
553.478943	146.600000
553.572571	147.080000
553.666199	147.480000
553.759827	147.000000
553.853394	146.540000
553.947021	146.740000
554.040588	146.120000
554.134216	145.980000
554.227783	146.860000
554.321411	147.520000
554.415039	146.940000
554.508667	146.940000
554.602234	147.040000
554.695862	146.000000
554.789429	145.800000
554.883057	145.980000
554.976624	145.860000
555.070251	145.640000
555.163818	145.540000
555.257507	145.200000
555.351074	145.140000
555.444702	146.580000
555.538330	146.480000
555.631897	147.380000
555.725525	147.540000
555.819092	147.540000
555.912720	146.180000
556.006287	146.800000
556.099915	146.280000
556.193481	146.280000
556.287109	146.460000
556.380676	146.520000
556.474304	146.140000
556.567871	146.320000
556.661499	145.940000
556.755066	145.840000
556.848694	145.900000
556.942261	145.860000
557.035889	145.920000
557.129517	146.340000
557.223145	146.820000
557.316711	147.160000
557.410339	147.360000
557.503906	147.000000
557.597473	147.020000
557.691040	146.780000
557.784668	146.580000
557.878296	146.340000
557.971863	146.840000
558.065491	146.900000
558.159058	146.700000
558.252686	147.200000
558.346252	147.700000
558.439880	146.960000
558.533447	146.840000
558.627075	146.720000
558.720642	146.120000
558.814270	145.780000
558.907837	146.020000
559.001465	145.860000
559.095032	146.500000
559.188660	146.720000
559.282227	146.280000
559.375854	146.880000
559.469360	146.900000
559.562988	147.020000
559.656555	146.740000
559.750183	146.900000
559.843750	146.720000
559.937378	146.760000
560.030945	146.300000
560.124573	0.000000
560.218140	0.000000
560.311707	0.000000
560.405334	0.000000
560.498901	0.000000
560.592529	0.000000
560.686096	0.000000
560.779724	0.000000
560.873291	0.000000
560.966858	0.000000
561.060425	0.000000
561.154053	0.000000
561.247620	0.000000
561.341248	0.000000
561.434814	0.000000
561.528381	0.000000
561.621948	0.000000
561.715576	0.000000
561.809143	0.000000
561.902771	0.000000
561.996277	0.000000
562.089905	0.000000
562.183472	0.000000
562.277100	0.000000
