Model Number: SPM-002-B   
Serial Number: 70087108
Firmware Version: 004.15.4
Exposure Time: 100000.000000us
Data Taken on: 11-12-2020 18:47:29.294
Wavelength	Amplitude
221.570786	0.000000
221.663406	0.000000
221.756027	0.000000
221.848648	0.000000
221.941269	0.000000
222.033905	0.000000
222.126526	0.000000
222.219162	0.000000
222.311798	0.000000
222.404419	0.000000
222.497055	0.000000
222.589676	0.000000
222.682312	0.000000
222.774933	0.000000
222.867569	0.000000
222.960205	0.000000
223.052841	0.000000
223.145462	0.000000
223.238098	0.000000
223.330734	0.000000
223.423386	0.000000
223.516022	0.000000
223.608658	0.000000
223.701309	0.000000
223.793945	0.000000
223.886581	0.000000
223.979218	0.000000
224.071869	0.000000
224.164505	0.000000
224.257156	0.000000
224.349792	0.000000
224.442444	0.000000
224.535095	0.000000
224.627747	0.000000
224.720398	0.000000
224.813034	0.000000
224.905685	0.000000
224.998337	146.360000
225.090988	145.960000
225.183640	146.220000
225.276291	146.140000
225.368942	146.060000
225.461594	146.540000
225.554245	146.480000
225.646912	146.300000
225.739578	146.840000
225.832230	147.200000
225.924896	146.420000
226.017548	146.940000
226.110199	147.320000
226.202866	146.540000
226.295532	146.420000
226.388184	146.100000
226.480850	145.500000
226.573517	145.120000
226.666168	145.620000
226.758835	145.940000
226.851501	146.940000
226.944183	146.880000
227.036850	146.540000
227.129517	146.020000
227.222183	146.200000
227.314850	145.920000
227.407516	146.280000
227.500198	147.300000
227.592865	147.460000
227.685532	146.960000
227.778214	146.520000
227.870880	146.840000
227.963562	146.760000
228.056229	147.020000
228.148926	146.940000
228.241592	147.980000
228.334274	147.660000
228.426956	147.200000
228.519638	147.340000
228.612305	147.380000
228.704987	146.980000
228.797668	147.040000
228.890350	146.980000
228.983032	146.100000
229.075714	146.560000
229.168396	146.200000
229.261108	145.880000
229.353790	145.940000
229.446472	146.600000
229.539169	146.040000
229.631851	145.900000
229.724533	146.040000
229.817230	146.180000
229.909912	147.120000
230.002609	147.500000
230.095306	147.540000
230.187988	147.660000
230.280685	147.460000
230.373383	146.340000
230.466095	145.920000
230.558792	146.500000
230.651474	146.460000
230.744171	146.200000
230.836868	146.000000
230.929581	146.560000
231.022278	146.100000
231.114975	146.120000
231.207672	146.480000
231.300369	147.120000
231.393082	147.000000
231.485779	146.780000
231.578506	146.620000
231.671204	146.540000
231.763916	146.200000
231.856613	146.080000
231.949326	146.480000
232.042023	146.580000
232.134735	146.620000
232.227448	146.460000
232.320160	146.620000
232.412872	146.520000
232.505585	147.280000
232.598297	147.620000
232.691010	147.500000
232.783722	147.060000
232.876450	147.600000
232.969162	146.920000
233.061874	146.260000
233.154587	146.180000
233.247314	146.640000
233.340027	145.820000
233.432739	146.380000
233.525467	146.440000
233.618179	146.760000
233.710907	146.360000
233.803635	147.180000
233.896347	146.540000
233.989090	147.240000
234.081818	147.200000
234.174545	147.500000
234.267258	146.780000
234.359985	146.940000
234.452713	146.620000
234.545441	146.480000
234.638168	146.360000
234.730896	146.880000
234.823639	146.960000
234.916367	147.160000
235.009094	147.320000
235.101822	147.000000
235.194580	146.700000
235.287308	146.700000
235.380051	145.980000
235.472778	146.300000
235.565521	146.880000
235.658249	146.580000
235.750992	146.560000
235.843719	146.980000
235.936462	146.880000
236.029205	146.260000
236.121948	145.880000
236.214691	146.380000
236.307449	146.780000
236.400192	146.560000
236.492935	146.680000
236.585678	147.280000
236.678421	147.000000
236.771164	146.900000
236.863907	147.420000
236.956665	147.720000
237.049408	149.240000
237.142151	148.480000
237.234909	148.940000
237.327652	148.420000
237.420410	148.220000
237.513153	146.900000
237.605927	147.120000
237.698669	146.580000
237.791428	146.260000
237.884186	146.600000
237.976944	146.060000
238.069702	146.500000
238.162445	146.000000
238.255203	146.180000
238.347961	146.460000
238.440720	146.960000
238.533478	146.480000
238.626266	146.180000
238.719025	146.480000
238.811783	146.160000
238.904541	146.020000
238.997314	146.000000
239.090073	145.860000
239.182831	145.840000
239.275604	146.520000
239.368362	146.500000
239.461136	147.080000
239.553909	147.660000
239.646667	147.500000
239.739441	146.740000
239.832214	146.980000
239.925003	146.920000
240.017761	147.360000
240.110535	147.940000
240.203308	147.740000
240.296082	147.860000
240.388855	147.720000
240.481628	147.480000
240.574417	147.260000
240.667191	147.220000
240.759964	146.700000
240.852737	146.420000
240.945526	146.200000
241.038315	145.840000
241.131088	145.960000
241.223877	146.280000
241.316650	146.380000
241.409439	146.720000
241.502228	146.360000
241.595001	146.880000
241.687790	146.760000
241.780579	146.780000
241.873367	146.820000
241.966141	147.300000
242.058929	146.580000
242.151718	146.740000
242.244507	147.260000
242.337311	146.480000
242.430099	146.880000
242.522903	146.980000
242.615692	146.440000
242.708481	146.160000
242.801270	146.920000
242.894073	146.640000
242.986862	146.880000
243.079651	147.720000
243.172455	147.200000
243.265244	147.140000
243.358063	146.660000
243.450867	146.760000
243.543655	146.200000
243.636459	146.520000
243.729263	146.840000
243.822067	147.360000
243.914856	147.640000
244.007660	147.760000
244.100464	147.640000
244.193268	146.800000
244.286072	146.520000
244.378876	145.840000
244.471680	145.620000
244.564499	145.960000
244.657318	147.020000
244.750122	147.300000
244.842926	147.040000
244.935745	147.540000
245.028549	146.880000
245.121368	146.400000
245.214172	146.180000
245.306992	146.860000
245.399796	146.460000
245.492615	146.980000
245.585434	146.620000
245.678253	146.620000
245.771072	146.380000
245.863892	146.800000
245.956711	146.820000
246.049530	146.900000
246.142349	146.640000
246.235168	146.840000
246.327988	147.220000
246.420807	146.980000
246.513626	146.960000
246.606445	146.720000
246.699280	146.320000
246.792099	145.760000
246.884918	145.700000
246.977753	145.360000
247.070587	145.840000
247.163422	145.940000
247.256241	145.880000
247.349075	146.260000
247.441895	146.480000
247.534729	146.320000
247.627563	146.000000
247.720383	146.480000
247.813217	146.120000
247.906052	145.920000
247.998886	145.920000
248.091736	146.080000
248.184570	145.660000
248.277405	145.720000
248.370239	146.780000
248.463074	147.780000
248.555908	148.200000
248.648743	148.000000
248.741592	148.020000
248.834427	147.360000
248.927261	146.160000
249.020111	146.360000
249.112946	147.040000
249.205795	147.000000
249.298630	147.440000
249.391495	147.760000
249.484344	147.000000
249.577179	146.640000
249.670029	146.620000
249.762878	146.640000
249.855728	147.000000
249.948563	147.440000
250.041412	146.740000
250.134262	147.400000
250.227112	147.520000
250.319962	147.420000
250.412827	147.300000
250.505692	147.360000
250.598541	147.080000
250.691391	146.480000
250.784241	146.440000
250.877106	146.800000
250.969955	146.560000
251.062805	146.940000
251.155670	147.380000
251.248520	147.200000
251.341385	147.120000
251.434235	147.580000
251.527100	147.200000
251.619965	146.800000
251.712814	147.480000
251.805695	147.220000
251.898560	147.360000
251.991425	147.260000
252.084290	147.520000
252.177155	146.380000
252.270020	146.360000
252.362885	146.300000
252.455750	146.400000
252.548615	146.000000
252.641479	146.380000
252.734360	146.520000
252.827240	146.320000
252.920105	146.220000
253.012970	146.260000
253.105850	146.060000
253.198715	145.980000
253.291595	146.360000
253.384460	145.980000
253.477341	145.840000
253.570221	146.220000
253.663086	145.780000
253.755966	146.300000
253.848846	146.600000
253.941727	146.900000
254.034592	146.780000
254.127472	146.480000
254.220367	145.880000
254.313248	145.820000
254.406128	145.620000
254.499008	146.080000
254.591904	147.300000
254.684784	147.960000
254.777664	147.840000
254.870544	147.540000
254.963440	147.300000
255.056335	146.800000
255.149216	146.340000
255.242111	146.940000
255.334991	147.420000
255.427887	147.420000
255.520767	147.200000
255.613663	147.240000
255.706558	146.560000
255.799438	146.360000
255.892334	145.860000
255.985229	145.820000
256.078125	145.580000
256.171021	145.660000
256.263916	146.140000
256.356812	146.600000
256.449707	147.060000
256.542603	147.260000
256.635498	147.740000
256.728394	147.260000
256.821289	146.920000
256.914215	147.100000
257.007080	146.980000
257.100006	147.040000
257.192932	147.320000
257.285828	147.600000
257.378723	147.340000
257.471619	147.300000
257.564545	146.620000
257.657440	146.660000
257.750336	147.460000
257.843262	147.140000
257.936157	148.000000
258.029053	148.600000
258.121979	148.720000
258.214874	147.600000
258.307800	147.620000
258.400696	146.740000
258.493622	146.340000
258.586517	145.460000
258.679443	146.000000
258.772339	145.740000
258.865265	145.600000
258.958160	145.440000
259.051086	146.480000
259.144012	146.120000
259.236938	146.880000
259.329834	147.180000
259.422791	147.260000
259.515717	146.360000
259.608612	146.160000
259.701538	146.360000
259.794464	146.020000
259.887390	145.940000
259.980316	146.040000
260.073212	145.860000
260.166138	144.500000
260.259064	144.860000
260.351990	145.180000
260.444916	145.180000
260.537842	145.900000
260.630768	147.200000
260.723694	147.000000
260.816620	146.960000
260.909546	147.000000
261.002472	146.400000
261.095398	145.840000
261.188354	145.960000
261.281281	145.580000
261.374207	145.760000
261.467133	146.660000
261.560089	146.800000
261.653015	146.200000
261.745972	147.240000
261.838867	147.720000
261.931824	147.540000
262.024780	146.960000
262.117706	147.520000
262.210663	147.440000
262.303589	147.180000
262.396515	147.020000
262.489471	148.060000
262.582397	147.820000
262.675354	146.820000
262.768280	146.740000
262.861237	146.500000
262.954163	146.080000
263.047119	146.440000
263.140045	146.520000
263.233002	146.520000
263.325958	146.340000
263.418884	145.880000
263.511841	146.040000
263.604797	146.260000
263.697723	146.160000
263.790680	146.360000
263.883636	146.880000
263.976593	146.520000
264.069550	146.700000
264.162476	146.620000
264.255463	146.740000
264.348419	146.300000
264.441376	146.340000
264.534332	145.780000
264.627289	146.040000
264.720245	146.160000
264.813202	145.860000
264.906158	146.060000
264.999115	146.640000
265.092072	146.280000
265.185028	146.960000
265.277985	147.580000
265.370941	147.400000
265.463898	146.960000
265.556854	146.720000
265.649811	145.600000
265.742798	145.540000
265.835754	145.600000
265.928711	146.240000
266.021667	146.400000
266.114655	146.860000
266.207611	147.140000
266.300568	146.700000
266.393585	146.180000
266.486511	146.920000
266.579498	146.360000
266.672485	146.140000
266.765442	146.320000
266.858429	146.980000
266.951385	146.300000
267.044342	146.420000
267.137329	146.320000
267.230316	146.520000
267.323273	145.900000
267.416260	146.460000
267.509216	146.400000
267.602203	146.380000
267.695160	146.520000
267.788147	146.840000
267.881134	146.400000
267.974091	146.720000
268.067078	146.620000
268.160065	146.640000
268.253052	146.480000
268.346008	146.360000
268.438995	146.040000
268.531982	146.180000
268.624969	145.860000
268.717987	146.120000
268.810944	146.100000
268.903961	146.400000
268.996948	146.240000
269.089905	146.700000
269.182892	146.640000
269.275879	147.160000
269.368866	146.580000
269.461853	146.720000
269.554871	146.520000
269.647858	146.300000
269.740845	146.580000
269.833832	147.380000
269.926819	147.220000
270.019806	147.160000
270.112793	146.980000
270.205811	146.660000
270.298798	146.220000
270.391785	147.000000
270.484772	146.880000
270.577789	146.900000
270.670776	146.420000
270.763763	146.600000
270.856750	146.300000
270.949768	146.080000
271.042786	146.260000
271.135773	146.580000
271.228790	146.740000
271.321808	146.140000
271.414795	146.100000
271.507782	145.940000
271.600800	145.500000
271.693817	145.300000
271.786804	145.860000
271.879822	146.160000
271.972809	146.140000
272.065826	147.000000
272.158844	146.720000
272.251831	147.180000
272.344849	147.120000
272.437866	146.940000
272.530853	146.820000
272.623871	147.240000
272.716888	146.100000
272.809906	146.540000
272.902893	146.720000
272.995911	145.960000
273.088928	145.800000
273.181946	146.440000
273.274963	146.000000
273.367981	146.040000
273.460999	146.420000
273.554047	146.960000
273.647003	147.300000
273.740051	147.420000
273.833069	147.640000
273.926086	147.960000
274.019135	147.380000
274.112152	147.000000
274.205170	146.940000
274.298187	146.960000
274.391205	146.540000
274.484222	146.640000
274.577240	146.520000
274.670258	146.360000
274.763306	146.160000
274.856323	146.320000
274.949341	146.600000
275.042358	147.240000
275.135406	147.300000
275.228424	147.380000
275.321442	147.280000
275.414490	146.780000
275.507507	146.660000
275.600525	147.360000
275.693573	147.200000
275.786591	147.020000
275.879669	147.080000
275.972656	146.660000
276.065735	146.160000
276.158752	146.760000
276.251801	147.680000
276.344818	147.980000
276.437866	148.100000
276.530884	147.780000
276.623932	146.920000
276.716980	146.680000
276.809998	146.380000
276.903046	146.360000
276.996094	147.240000
277.089111	148.020000
277.182159	148.300000
277.275208	148.380000
277.368256	148.240000
277.461304	147.920000
277.554321	147.020000
277.647369	146.840000
277.740417	147.040000
277.833466	147.080000
277.926514	146.800000
278.019562	147.600000
278.112610	146.600000
278.205688	146.680000
278.298706	146.700000
278.391785	146.500000
278.484833	145.960000
278.577881	146.060000
278.670929	146.100000
278.763977	146.240000
278.857025	146.760000
278.950073	146.820000
279.043121	146.700000
279.136169	146.660000
279.229248	146.380000
279.322296	146.180000
279.415344	146.000000
279.508392	146.420000
279.601440	146.380000
279.694519	146.400000
279.787567	146.300000
279.880615	146.500000
279.973694	146.520000
280.066742	146.340000
280.159790	146.380000
280.252869	146.040000
280.345917	145.940000
280.438995	145.820000
280.532074	145.920000
280.625122	146.060000
280.718201	147.120000
280.811279	147.380000
280.904327	147.420000
280.997406	147.740000
281.090454	147.880000
281.183533	147.140000
281.276581	146.960000
281.369659	146.700000
281.462738	146.640000
281.555786	146.780000
281.648865	146.800000
281.741943	147.140000
281.835022	147.760000
281.928070	147.180000
282.021149	146.960000
282.114227	146.880000
282.207306	146.560000
282.300385	146.920000
282.393433	147.280000
282.486511	147.080000
282.579590	147.680000
282.672668	148.040000
282.765747	147.080000
282.858856	146.720000
282.951904	146.940000
283.045013	146.700000
283.138062	146.640000
283.231171	147.120000
283.324249	147.560000
283.417328	147.640000
283.510406	147.320000
283.603485	147.540000
283.696564	147.600000
283.789642	147.660000
283.882751	147.160000
283.975830	147.440000
284.068909	146.760000
284.161987	147.180000
284.255066	146.760000
284.348175	147.260000
284.441254	147.040000
284.534332	147.640000
284.627441	146.860000
284.720520	146.640000
284.813599	146.140000
284.906708	146.220000
284.999786	145.420000
285.092896	145.460000
285.185974	146.540000
285.279053	146.240000
285.372192	146.140000
285.465240	146.560000
285.558380	146.560000
285.651459	145.680000
285.744568	146.660000
285.837677	146.500000
285.930756	146.700000
286.023865	146.540000
286.116943	146.340000
286.210052	146.320000
286.303162	146.160000
286.396240	146.260000
286.489349	146.160000
286.582458	146.760000
286.675568	146.300000
286.768646	146.720000
286.861755	146.980000
286.954865	147.980000
287.047974	147.520000
287.141083	147.560000
287.234161	147.280000
287.327271	146.720000
287.420380	146.440000
287.513519	146.540000
287.606598	146.800000
287.699738	146.940000
287.792816	146.960000
287.885956	147.080000
287.979034	147.000000
288.072174	146.740000
288.165283	146.760000
288.258392	146.920000
288.351501	146.000000
288.444611	146.180000
288.537720	146.460000
288.630859	146.240000
288.723969	146.400000
288.817078	146.700000
288.910187	146.580000
289.003296	146.060000
289.096436	145.800000
289.189545	145.620000
289.282654	145.400000
289.375763	145.680000
289.468903	146.260000
289.562012	146.760000
289.655121	146.940000
289.748260	147.220000
289.841400	147.700000
289.934509	147.860000
290.027649	147.780000
290.120728	147.440000
290.213898	147.720000
290.306976	147.180000
290.400146	146.800000
290.493256	146.660000
290.586395	146.880000
290.679535	147.120000
290.772644	147.100000
290.865784	146.380000
290.958893	146.440000
291.052032	146.320000
291.145172	145.900000
291.238281	145.480000
291.331421	145.560000
291.424561	146.100000
291.517670	145.700000
291.610809	145.960000
291.703949	146.340000
291.797089	146.800000
291.890228	146.100000
291.983337	146.500000
292.076477	146.340000
292.169617	146.460000
292.262756	146.620000
292.355927	146.680000
292.449036	146.260000
292.542206	146.580000
292.635315	146.460000
292.728485	146.300000
292.821625	146.140000
292.914764	147.240000
293.007904	146.880000
293.101044	146.800000
293.194183	147.200000
293.287323	147.360000
293.380463	146.880000
293.473602	146.920000
293.566742	147.360000
293.659882	147.340000
293.753021	147.660000
293.846191	147.680000
293.939331	147.240000
294.032471	146.900000
294.125610	146.480000
294.218781	146.660000
294.311920	146.800000
294.405060	147.240000
294.498230	147.200000
294.591370	147.200000
294.684540	146.140000
294.777679	145.600000
294.870850	145.720000
294.963959	145.500000
295.057159	145.440000
295.150299	146.280000
295.243469	146.340000
295.336609	145.660000
295.429779	145.900000
295.522919	146.260000
295.616089	146.460000
295.709229	147.060000
295.802399	147.540000
295.895569	147.160000
295.988708	147.060000
296.081879	147.000000
296.175018	146.420000
296.268188	146.160000
296.361359	146.740000
296.454529	146.980000
296.547668	146.400000
296.640839	146.720000
296.734009	146.740000
296.827179	146.840000
296.920319	146.800000
297.013519	147.080000
297.106659	147.080000
297.199860	147.100000
297.292999	146.840000
297.386200	146.760000
297.479309	146.640000
297.572510	146.480000
297.665680	146.280000
297.758850	146.260000
297.852020	145.980000
297.945190	145.960000
298.038361	145.760000
298.131531	146.820000
298.224701	146.820000
298.317871	146.620000
298.411072	146.380000
298.504242	146.280000
298.597412	145.540000
298.690582	145.620000
298.783752	145.620000
298.876923	146.320000
298.970093	146.440000
299.063293	147.020000
299.156464	147.320000
299.249634	148.000000
299.342834	147.980000
299.436005	148.280000
299.529205	147.780000
299.622345	147.420000
299.715576	146.440000
299.808716	145.820000
299.901917	145.840000
299.995117	146.360000
300.088287	146.700000
300.181488	146.840000
300.274658	146.920000
300.367828	146.900000
300.461029	146.280000
300.554199	146.480000
300.647400	146.820000
300.740601	147.500000
300.833771	147.280000
300.926971	147.680000
301.020142	147.240000
301.113342	147.280000
301.206512	146.780000
301.299713	146.860000
301.392914	146.900000
301.486084	147.020000
301.579285	146.740000
301.672516	147.220000
301.765686	147.040000
301.858887	146.860000
301.952057	146.640000
302.045288	146.980000
302.138458	146.320000
302.231659	146.380000
302.324860	145.980000
302.418060	146.040000
302.511261	145.640000
302.604462	146.140000
302.697662	145.880000
302.790863	145.820000
302.884064	145.340000
302.977264	145.500000
303.070465	145.720000
303.163666	146.620000
303.256866	146.960000
303.350067	147.220000
303.443268	147.100000
303.536469	146.900000
303.629669	145.900000
303.722870	146.160000
303.816071	145.960000
303.909271	146.360000
304.002472	145.660000
304.095673	145.960000
304.188934	145.120000
304.282104	146.140000
304.375336	145.900000
304.468506	146.380000
304.561768	146.280000
304.654968	146.980000
304.748169	146.180000
304.841370	146.220000
304.934601	146.340000
305.027802	146.060000
305.121002	145.640000
305.214233	145.900000
305.307434	145.920000
305.400665	146.420000
305.493866	146.520000
305.587097	146.920000
305.680298	146.720000
305.773499	146.960000
305.866730	146.380000
305.959930	147.100000
306.053162	147.100000
306.146393	146.840000
306.239594	146.160000
306.332825	146.140000
306.426025	146.360000
306.519287	145.900000
306.612488	146.060000
306.705719	146.340000
306.798920	146.780000
306.892181	145.980000
306.985352	146.080000
307.078613	145.720000
307.171844	146.280000
307.265045	145.120000
307.358276	144.940000
307.451508	145.540000
307.544739	146.400000
307.637970	145.720000
307.731201	146.360000
307.824402	147.120000
307.917633	146.820000
308.010864	147.060000
308.104095	147.560000
308.197327	147.540000
308.290558	147.360000
308.383789	147.000000
308.477020	146.300000
308.570251	145.860000
308.663483	145.840000
308.756714	145.580000
308.849976	145.860000
308.943176	146.560000
309.036438	146.500000
309.129639	146.260000
309.222900	146.420000
309.316101	146.440000
309.409393	145.680000
309.502625	145.560000
309.595856	145.880000
309.689087	146.220000
309.782318	146.120000
309.875580	146.200000
309.968811	146.400000
310.062042	146.120000
310.155273	145.540000
310.248535	145.740000
310.341766	145.940000
310.434998	145.940000
310.528259	145.900000
310.621490	146.280000
310.714722	145.820000
310.807983	145.820000
310.901215	146.120000
310.994476	146.580000
311.087708	146.160000
311.181000	146.460000
311.274200	146.100000
311.367462	145.640000
311.460693	145.160000
311.553986	145.840000
311.647186	145.960000
311.740479	146.880000
311.833710	146.560000
311.926971	146.700000
312.020203	146.040000
312.113464	146.000000
312.206726	144.940000
312.299957	145.720000
312.393219	146.240000
312.486481	146.480000
312.579712	146.640000
312.672974	147.120000
312.766235	146.980000
312.859497	146.580000
312.952759	146.660000
313.045990	147.200000
313.139252	146.680000
313.232513	146.840000
313.325775	147.040000
313.419037	146.700000
313.512299	146.100000
313.605530	147.160000
313.698822	147.240000
313.792053	147.040000
313.885345	147.000000
313.978577	146.800000
314.071869	145.840000
314.165131	145.660000
314.258392	146.040000
314.351654	146.140000
314.444916	145.680000
314.538177	146.660000
314.631439	147.180000
314.724701	146.800000
314.817993	146.760000
314.911255	147.480000
315.004517	146.440000
315.097778	146.000000
315.191040	146.360000
315.284302	146.740000
315.377594	146.180000
315.470856	146.420000
315.564117	146.120000
315.657379	145.780000
315.750671	145.300000
315.843933	145.780000
315.937195	145.420000
316.030518	144.980000
316.123749	144.920000
316.217041	145.680000
316.310303	145.520000
316.403595	145.900000
316.496857	146.580000
316.590149	147.020000
316.683411	146.300000
316.776703	146.280000
316.869965	146.020000
316.963257	145.720000
317.056519	144.820000
317.149811	144.860000
317.243073	144.900000
317.336365	145.540000
317.429626	146.060000
317.522919	146.880000
317.616180	146.720000
317.709473	146.400000
317.802765	146.020000
317.896027	145.640000
317.989319	145.860000
318.082611	145.940000
318.175873	145.900000
318.269165	145.660000
318.362488	145.880000
318.455750	145.340000
318.549042	145.780000
318.642303	146.300000
318.735626	146.120000
318.828888	146.040000
318.922211	145.740000
319.015472	146.100000
319.108765	145.440000
319.202057	145.480000
319.295349	145.600000
319.388641	145.900000
319.481934	145.740000
319.575226	146.000000
319.668518	146.260000
319.761810	146.480000
319.855103	146.200000
319.948395	146.080000
320.041687	146.080000
320.134979	146.200000
320.228271	145.400000
320.321564	145.560000
320.414856	145.440000
320.508148	145.340000
320.601440	145.400000
320.694763	145.480000
320.788025	146.220000
320.881348	146.080000
320.974640	145.980000
321.067963	145.460000
321.161224	145.620000
321.254547	144.800000
321.347839	145.280000
321.441162	145.380000
321.534454	145.940000
321.627747	145.660000
321.721069	146.560000
321.814362	146.480000
321.907654	146.720000
322.000946	146.420000
322.094269	147.120000
322.187561	146.720000
322.280884	146.720000
322.374176	146.780000
322.467468	147.540000
322.560791	147.360000
322.654083	147.420000
322.747406	147.540000
322.840698	147.860000
322.934021	147.300000
323.027344	147.500000
323.120636	147.340000
323.213959	147.040000
323.307251	146.280000
323.400574	146.360000
323.493866	145.840000
323.587219	145.940000
323.680511	146.320000
323.773834	146.700000
323.867157	146.720000
323.960449	147.100000
324.053772	146.740000
324.147095	146.660000
324.240387	146.980000
324.333710	146.940000
324.427032	146.900000
324.520355	147.140000
324.613647	146.500000
324.706970	146.300000
324.800293	146.100000
324.893616	146.420000
324.986938	146.420000
325.080231	146.440000
325.173553	146.660000
325.266876	147.200000
325.360199	146.980000
325.453522	146.260000
325.546875	146.140000
325.640167	146.180000
325.733521	146.240000
325.826813	146.520000
325.920166	146.880000
326.013489	146.980000
326.106812	146.280000
326.200134	145.760000
326.293457	145.080000
326.386780	145.220000
326.480103	145.320000
326.573425	145.260000
326.666748	145.480000
326.760071	146.060000
326.853424	146.300000
326.946747	146.260000
327.040070	147.320000
327.133392	147.040000
327.226715	146.240000
327.320068	145.840000
327.413391	146.280000
327.506714	145.300000
327.600037	145.300000
327.693390	145.480000
327.786713	145.500000
327.880066	145.480000
327.973358	145.820000
328.066742	146.280000
328.160034	146.740000
328.253418	146.900000
328.346710	146.480000
328.440063	146.080000
328.533417	146.040000
328.626740	146.200000
328.720093	146.060000
328.813416	146.300000
328.906769	146.600000
329.000092	146.520000
329.093445	146.080000
329.186768	146.260000
329.280121	146.540000
329.373444	146.980000
329.466797	146.920000
329.560120	147.240000
329.653473	147.140000
329.746796	146.540000
329.840149	146.180000
329.933502	146.100000
330.026825	145.580000
330.120178	145.620000
330.213562	145.960000
330.306854	146.000000
330.400238	145.880000
330.493561	146.120000
330.586945	146.860000
330.680237	146.900000
330.773621	146.920000
330.866974	146.980000
330.960327	147.120000
331.053680	146.540000
331.147003	146.740000
331.240356	146.920000
331.333710	147.240000
331.427063	146.700000
331.520416	146.580000
331.613770	146.300000
331.707123	146.340000
331.800476	146.040000
331.893829	147.280000
331.987152	147.480000
332.080505	147.480000
332.173859	147.200000
332.267212	146.980000
332.360565	146.340000
332.453918	145.860000
332.547333	145.660000
332.640656	145.880000
332.734039	145.800000
332.827362	145.720000
332.920746	146.400000
333.014069	146.500000
333.107452	146.900000
333.200806	147.200000
333.294159	147.360000
333.387543	146.800000
333.480896	146.660000
333.574249	145.940000
333.667603	145.940000
333.760956	145.940000
333.854340	146.140000
333.947693	146.180000
334.041046	146.520000
334.134430	146.880000
334.227783	146.500000
334.321136	146.460000
334.414520	146.580000
334.507874	146.620000
334.601227	146.480000
334.694611	146.600000
334.787964	146.660000
334.881348	146.920000
334.974701	146.800000
335.068085	146.520000
335.161438	146.840000
335.254822	146.780000
335.348175	146.600000
335.441559	146.160000
335.534943	146.620000
335.628296	146.320000
335.721680	146.360000
335.815033	146.480000
335.908417	147.240000
336.001770	147.040000
336.095154	147.040000
336.188538	146.800000
336.281891	146.380000
336.375275	145.680000
336.468658	145.540000
336.562012	145.680000
336.655396	146.000000
336.748779	146.320000
336.842133	146.640000
336.935516	146.780000
337.028900	146.320000
337.122284	146.400000
337.215637	146.360000
337.309021	146.160000
337.402435	145.820000
337.495789	146.000000
337.589203	145.740000
337.682526	145.560000
337.775940	145.900000
337.869324	146.180000
337.962708	145.940000
338.056091	146.420000
338.149475	146.100000
338.242859	146.200000
338.336243	146.000000
338.429626	146.440000
338.523010	146.180000
338.616394	146.380000
338.709778	146.520000
338.803162	146.800000
338.896545	146.500000
338.989929	146.200000
339.083313	146.400000
339.176697	145.900000
339.270081	145.520000
339.363464	146.180000
339.456848	146.620000
339.550232	146.080000
339.643616	145.920000
339.737030	146.260000
339.830383	145.820000
339.923828	145.780000
340.017181	146.000000
340.110596	146.260000
340.203949	146.080000
340.297363	145.400000
340.390778	145.360000
340.484161	145.860000
340.577545	145.740000
340.670959	145.780000
340.764343	146.460000
340.857727	146.420000
340.951111	145.840000
341.044525	146.060000
341.137909	145.760000
341.231293	145.700000
341.324707	145.380000
341.418091	146.100000
341.511505	145.980000
341.604889	146.460000
341.698303	146.520000
341.791687	146.560000
341.885071	145.900000
341.978485	145.680000
342.071899	145.840000
342.165283	145.800000
342.258698	146.040000
342.352081	146.780000
342.445496	147.480000
342.538879	147.120000
342.632324	147.100000
342.725708	147.100000
342.819122	146.300000
342.912506	145.840000
343.005920	146.180000
343.099335	146.940000
343.192719	146.980000
343.286133	147.220000
343.379547	147.440000
343.472931	147.380000
343.566345	146.560000
343.659760	146.700000
343.753143	146.520000
343.846558	146.360000
343.939972	146.060000
344.033386	146.720000
344.126770	146.260000
344.220184	146.620000
344.313599	146.780000
344.407043	146.940000
344.500427	146.100000
344.593872	146.640000
344.687225	146.500000
344.780670	146.180000
344.874054	146.000000
344.967499	146.680000
345.060913	146.600000
345.154327	146.780000
345.247742	146.440000
345.341156	146.240000
345.434570	145.700000
345.527985	145.460000
345.621399	145.100000
345.714813	145.420000
345.808228	145.760000
345.901642	145.580000
345.995056	145.240000
346.088470	145.460000
346.181885	145.520000
346.275299	145.240000
346.368713	145.520000
346.462128	145.260000
346.555573	145.220000
346.648987	145.500000
346.742401	145.660000
346.835815	146.200000
346.929260	146.160000
347.022644	146.160000
347.116119	146.160000
347.209503	146.360000
347.302948	146.760000
347.396362	147.780000
347.489807	148.000000
347.583221	148.260000
347.676636	147.880000
347.770050	146.960000
347.863495	146.220000
347.956909	146.160000
348.050323	145.660000
348.143768	145.960000
348.237183	145.760000
348.330597	146.480000
348.424042	146.760000
348.517456	147.480000
348.610901	147.380000
348.704315	147.280000
348.797760	146.520000
348.891174	145.760000
348.984619	144.580000
349.078033	145.020000
349.171448	145.960000
349.264923	146.140000
349.358337	146.500000
349.451782	146.920000
349.545197	146.080000
349.638641	145.140000
349.732086	144.760000
349.825500	145.020000
349.918945	144.640000
350.012390	145.360000
350.105804	146.140000
350.199249	146.480000
350.292664	146.680000
350.386108	146.940000
350.479553	147.020000
350.572968	146.500000
350.666412	146.860000
350.759857	146.360000
350.853302	146.880000
350.946716	146.500000
351.040161	146.540000
351.133606	146.340000
351.227081	146.260000
351.320465	146.700000
351.413940	146.520000
351.507355	146.780000
351.600830	146.980000
351.694244	146.840000
351.787720	146.140000
351.881104	146.240000
351.974579	145.920000
352.067993	146.400000
352.161469	146.620000
352.254883	146.260000
352.348358	146.340000
352.441803	146.580000
352.535248	145.940000
352.628693	146.560000
352.722137	146.660000
352.815582	146.840000
352.909027	146.920000
353.002472	146.840000
353.095917	146.220000
353.189362	146.520000
353.282806	146.320000
353.376251	146.280000
353.469696	145.820000
353.563141	146.260000
353.656586	146.020000
353.750061	145.620000
353.843475	145.560000
353.936981	146.500000
354.030396	145.980000
354.123871	146.160000
354.217285	147.180000
354.310760	147.080000
354.404175	146.740000
354.497681	146.700000
354.591095	146.460000
354.684570	145.580000
354.777985	145.360000
354.871490	145.200000
354.964935	145.680000
355.058380	146.100000
355.151855	146.060000
355.245300	146.340000
355.338745	146.480000
355.432220	146.140000
355.525665	145.620000
355.619110	145.800000
355.712585	145.780000
355.806030	145.820000
355.899475	145.720000
355.992950	146.100000
356.086426	146.540000
356.179871	146.600000
356.273346	146.480000
356.366791	146.840000
356.460266	147.340000
356.553711	146.900000
356.647186	146.920000
356.740631	146.780000
356.834106	146.440000
356.927551	146.000000
357.021027	146.080000
357.114471	146.140000
357.207947	146.400000
357.301422	146.420000
357.394867	146.280000
357.488342	146.600000
357.581818	146.720000
357.675262	146.660000
357.768738	146.700000
357.862213	146.180000
357.955658	145.780000
358.049133	145.380000
358.142609	145.620000
358.236053	145.560000
358.329529	146.040000
358.423035	146.120000
358.516449	145.920000
358.609955	146.180000
358.703400	146.540000
358.796906	146.540000
358.890350	146.280000
358.983826	146.680000
359.077271	145.660000
359.170776	145.440000
359.264221	145.140000
359.357727	145.600000
359.451172	145.740000
359.544647	146.160000
359.638123	145.940000
359.731598	146.560000
359.825073	146.800000
359.918549	146.600000
360.012024	146.720000
360.105499	146.440000
360.198975	146.060000
360.292450	145.780000
360.385925	145.880000
360.479401	145.500000
360.572876	145.980000
360.666351	146.380000
360.759857	146.340000
360.853302	146.300000
360.946808	146.120000
361.040253	146.080000
361.133759	145.600000
361.227203	145.720000
361.320709	145.240000
361.414154	145.860000
361.507660	146.040000
361.601105	146.560000
361.694641	146.940000
361.788086	147.060000
361.881592	147.300000
361.975067	146.760000
362.068542	146.820000
362.162018	146.200000
362.255524	145.820000
362.348999	145.460000
362.442474	146.200000
362.535950	145.740000
362.629456	145.740000
362.722931	146.080000
362.816406	146.480000
362.909882	146.580000
363.003387	146.480000
363.096863	146.880000
363.190338	147.000000
363.283875	146.740000
363.377319	146.560000
363.470825	147.020000
363.564301	146.600000
363.657806	146.980000
363.751282	146.880000
363.844788	147.440000
363.938232	146.760000
364.031769	147.300000
364.125214	147.220000
364.218750	147.300000
364.312225	145.980000
364.405731	146.260000
364.499207	145.680000
364.592712	145.100000
364.686188	144.980000
364.779694	145.640000
364.873169	145.700000
364.966675	145.560000
365.060150	145.800000
365.153656	146.100000
365.247131	145.900000
365.340637	146.000000
365.434143	146.400000
365.527618	146.520000
365.621155	145.960000
365.714600	146.120000
365.808136	146.380000
365.901611	145.480000
365.995117	145.400000
366.088593	145.480000
366.182129	145.160000
366.275604	145.160000
366.369110	145.740000
366.462585	145.560000
366.556122	146.340000
366.649567	146.420000
366.743103	146.480000
366.836609	146.500000
366.930115	146.820000
367.023590	146.540000
367.117096	146.580000
367.210602	146.180000
367.304108	146.960000
367.397614	147.600000
367.491119	147.640000
367.584595	147.700000
367.678101	147.960000
367.771606	147.460000
367.865112	146.800000
367.958649	146.060000
368.052124	145.860000
368.145660	145.900000
368.239136	146.320000
368.332672	146.300000
368.426147	146.900000
368.519684	146.980000
368.613159	147.260000
368.706696	146.760000
368.800171	146.880000
368.893707	146.440000
368.987183	146.560000
369.080719	146.000000
369.174225	145.900000
369.267731	146.060000
369.361237	146.520000
369.454742	146.480000
369.548248	147.000000
369.641754	146.600000
369.735260	146.220000
369.828766	145.140000
369.922272	145.600000
370.015808	144.940000
370.109314	145.280000
370.202820	145.540000
370.296356	147.160000
370.389832	146.720000
370.483368	146.680000
370.576874	146.120000
370.670410	146.060000
370.763885	144.780000
370.857422	144.860000
370.950928	144.880000
371.044464	145.880000
371.137939	145.920000
371.231476	146.520000
371.324982	147.040000
371.418518	147.240000
371.512024	147.020000
371.605560	146.780000
371.699066	146.920000
371.792572	146.040000
371.886108	146.520000
371.979614	146.380000
372.073120	146.980000
372.166656	146.620000
372.260162	147.060000
372.353668	146.760000
372.447205	146.340000
372.540710	146.040000
372.634277	146.060000
372.727753	146.120000
372.821320	146.040000
372.914795	146.600000
373.008362	146.320000
373.101837	146.180000
373.195404	146.180000
373.288879	146.080000
373.382446	146.460000
373.475922	146.280000
373.569489	147.280000
373.662964	147.540000
373.756531	147.520000
373.850037	147.360000
373.943573	147.460000
374.037109	146.060000
374.130615	146.380000
374.224152	146.520000
374.317657	146.400000
374.411194	147.320000
374.504730	147.580000
374.598236	146.940000
374.691772	146.760000
374.785309	146.540000
374.878815	145.500000
374.972351	146.360000
375.065887	146.240000
375.159454	146.960000
375.252930	147.060000
375.346497	147.420000
375.440002	147.540000
375.533569	147.460000
375.627045	146.740000
375.720612	146.700000
375.814117	147.200000
375.907684	146.600000
376.001160	146.460000
376.094727	145.900000
376.188232	146.580000
376.281799	146.480000
376.375336	146.440000
376.468872	147.160000
376.562408	147.700000
376.655914	147.140000
376.749451	146.760000
376.842987	146.820000
376.936523	146.260000
377.030060	146.300000
377.123596	146.360000
377.217133	146.140000
377.310669	146.120000
377.404205	146.720000
377.497772	147.040000
377.591278	146.840000
377.684845	147.760000
377.778351	147.940000
377.871918	147.300000
377.965424	146.700000
378.058990	146.440000
378.152496	145.780000
378.246063	145.940000
378.339569	146.460000
378.433136	146.620000
378.526642	146.920000
378.620209	146.800000
378.713745	146.400000
378.807312	146.420000
378.900848	146.580000
378.994385	146.800000
379.087921	146.540000
379.181458	147.000000
379.274994	146.260000
379.368530	145.920000
379.462097	145.960000
379.555634	146.520000
379.649170	146.020000
379.742706	146.120000
379.836273	146.480000
379.929810	146.120000
380.023376	145.580000
380.116882	145.520000
380.210449	145.540000
380.303986	144.860000
380.397552	144.620000
380.491058	145.100000
380.584656	144.980000
380.678162	145.400000
380.771729	145.840000
380.865265	146.660000
380.958832	146.380000
381.052368	146.860000
381.145935	146.760000
381.239471	146.960000
381.333008	146.480000
381.426575	146.560000
381.520111	146.800000
381.613647	147.000000
381.707214	146.660000
381.800751	146.380000
381.894318	146.620000
381.987854	146.020000
382.081421	145.860000
382.174988	146.280000
382.268524	146.180000
382.362091	146.200000
382.455627	147.020000
382.549194	146.780000
382.642731	146.080000
382.736298	146.120000
382.829834	145.760000
382.923401	146.160000
383.016937	146.580000
383.110504	147.280000
383.204041	147.580000
383.297607	147.860000
383.391174	146.600000
383.484741	147.120000
383.578278	146.700000
383.671844	146.060000
383.765411	145.620000
383.858948	146.120000
383.952515	145.740000
384.046051	146.320000
384.139618	147.100000
384.233185	147.520000
384.326721	147.480000
384.420288	147.640000
384.513855	147.300000
384.607422	147.360000
384.700989	147.280000
384.794525	146.880000
384.888123	146.860000
384.981659	147.000000
385.075226	146.280000
385.168762	146.040000
385.262360	146.100000
385.355896	145.220000
385.449463	145.120000
385.542999	145.400000
385.636597	146.060000
385.730164	146.440000
385.823730	146.360000
385.917267	146.080000
386.010834	146.280000
386.104401	146.260000
386.197968	146.300000
386.291534	146.780000
386.385101	146.980000
386.478668	147.380000
386.572235	146.920000
386.665802	146.160000
386.759338	145.780000
386.852905	145.440000
386.946472	144.840000
387.040070	145.000000
387.133606	145.280000
387.227203	145.360000
387.320740	146.020000
387.414337	145.980000
387.507874	145.880000
387.601471	146.420000
387.695007	146.380000
387.788605	145.840000
387.882141	146.200000
387.975739	146.060000
388.069275	145.720000
388.162872	145.780000
388.256439	146.220000
388.350037	145.740000
388.443604	145.960000
388.537170	145.780000
388.630737	146.480000
388.724304	146.100000
388.817871	146.400000
388.911438	146.420000
389.005005	146.860000
389.098602	146.560000
389.192169	146.360000
389.285736	146.640000
389.379333	146.600000
389.472870	145.900000
389.566467	146.200000
389.660034	146.420000
389.753632	145.760000
389.847168	145.900000
389.940765	146.440000
390.034332	146.340000
390.127930	146.100000
390.221466	146.220000
390.315063	145.820000
390.408630	145.040000
390.502228	144.080000
390.595795	144.640000
390.689362	144.720000
390.782959	145.380000
390.876526	146.020000
390.970093	146.260000
391.063690	146.340000
391.157257	146.560000
391.250824	146.400000
391.344421	146.200000
391.437988	146.820000
391.531555	146.720000
391.625153	146.580000
391.718750	146.640000
391.812317	146.660000
391.905914	146.260000
391.999481	146.140000
392.093079	146.160000
392.186615	146.180000
392.280243	146.280000
392.373779	146.360000
392.467407	146.820000
392.560944	146.740000
392.654572	146.240000
392.748108	146.000000
392.841736	145.900000
392.935303	145.500000
393.028900	145.640000
393.122467	145.920000
393.216064	145.700000
393.309631	145.440000
393.403229	145.180000
393.496796	145.080000
393.590393	144.320000
393.683990	144.720000
393.777557	145.440000
393.871155	145.540000
393.964722	146.040000
394.058350	146.860000
394.151917	146.920000
394.245514	146.680000
394.339081	147.220000
394.432678	147.380000
394.526245	147.300000
394.619873	146.880000
394.713409	146.880000
394.807037	146.260000
394.900604	146.140000
394.994202	146.040000
395.087769	146.580000
395.181396	146.180000
395.274994	147.400000
395.368561	146.600000
395.462158	146.600000
395.555756	146.240000
395.649353	146.760000
395.742920	145.780000
395.836517	146.720000
395.930115	146.120000
396.023712	146.360000
396.117279	146.340000
396.210876	146.000000
396.304474	145.620000
396.398071	146.260000
396.491669	146.360000
396.585266	146.140000
396.678833	146.320000
396.772461	146.740000
396.866028	146.680000
396.959656	146.800000
397.053223	147.500000
397.146851	147.820000
397.240417	148.400000
397.334015	149.780000
397.427582	150.900000
397.521210	152.400000
397.614807	155.280000
397.708405	158.180000
397.802002	162.060000
397.895599	168.320000
397.989197	175.700000
398.082794	184.600000
398.176392	196.680000
398.269989	210.460000
398.363586	226.660000
398.457184	245.580000
398.550781	266.860000
398.644379	288.160000
398.737976	311.420000
398.831573	334.400000
398.925201	356.120000
399.018768	376.820000
399.112396	396.980000
399.205963	416.000000
399.299591	435.620000
399.393158	456.980000
399.486786	479.100000
399.580353	501.620000
399.673981	522.020000
399.767578	539.700000
399.861206	552.900000
399.954773	561.420000
400.048401	562.940000
400.141998	559.580000
400.235596	551.540000
400.329193	538.360000
400.422791	521.140000
400.516418	502.700000
400.610016	484.360000
400.703613	464.540000
400.797211	443.060000
400.890808	422.700000
400.984436	402.500000
401.078033	380.140000
401.171631	357.460000
401.265259	335.220000
401.358826	312.140000
401.452484	288.140000
401.546051	266.360000
401.639679	245.120000
401.733246	227.300000
401.826904	211.160000
401.920471	197.240000
402.014099	185.320000
402.107697	176.260000
402.201324	168.400000
402.294891	162.420000
402.388550	158.720000
402.482147	155.860000
402.575745	153.140000
402.669373	151.020000
402.762970	149.720000
402.856567	148.600000
402.950195	148.000000
403.043793	147.600000
403.137390	148.440000
403.231018	147.720000
403.324615	148.160000
403.418243	147.420000
403.511841	147.880000
403.605469	147.040000
403.699066	147.280000
403.792694	147.040000
403.886292	147.520000
403.979919	147.360000
404.073517	147.440000
404.167145	147.880000
404.260712	147.800000
404.354370	147.400000
404.447937	147.380000
404.541595	147.360000
404.635162	147.220000
404.728821	147.440000
404.822418	147.340000
404.916046	147.040000
405.009644	147.120000
405.103271	147.120000
405.196899	146.860000
405.290497	147.000000
405.384125	147.480000
405.477722	147.040000
405.571350	146.760000
405.664948	146.600000
405.758575	146.620000
405.852203	146.080000
405.945801	146.400000
406.039429	146.000000
406.133057	145.680000
406.226654	145.340000
406.320312	145.360000
406.413879	145.380000
406.507538	146.080000
406.601135	146.000000
406.694763	146.640000
406.788361	146.340000
406.882019	146.180000
406.975586	146.380000
407.069244	147.020000
407.162872	147.060000
407.256470	147.340000
407.350098	147.340000
407.443726	146.840000
407.537323	146.600000
407.630951	146.640000
407.724579	146.400000
407.818207	146.660000
407.911804	146.560000
408.005432	146.720000
408.099060	146.820000
408.192688	147.200000
408.286285	147.120000
408.379913	147.100000
408.473572	146.960000
408.567169	146.020000
408.660828	145.700000
408.754395	145.720000
408.848053	145.800000
408.941650	145.720000
409.035309	145.840000
409.128906	145.920000
409.222565	145.780000
409.316132	146.180000
409.409790	145.980000
409.503387	146.060000
409.597046	146.240000
409.690674	146.340000
409.784302	145.940000
409.877930	146.000000
409.971558	146.020000
410.065186	145.980000
410.158783	145.840000
410.252411	145.820000
410.346039	146.160000
410.439667	146.480000
410.533295	146.700000
410.626923	146.960000
410.720551	146.780000
410.814209	146.980000
410.907806	146.800000
411.001465	146.080000
411.095062	145.920000
411.188721	146.360000
411.282318	145.920000
411.375977	145.720000
411.469574	146.200000
411.563232	146.320000
411.656830	145.800000
411.750488	145.680000
411.844086	145.520000
411.937744	145.420000
412.031372	144.860000
412.125000	144.960000
412.218628	145.140000
412.312256	146.100000
412.405884	146.280000
412.499512	146.680000
412.593170	147.180000
412.686798	147.200000
412.780426	146.780000
412.874054	146.980000
412.967682	147.000000
413.061310	147.280000
413.154968	147.360000
413.248566	147.460000
413.342224	147.160000
413.435852	147.260000
413.529510	146.720000
413.623108	146.240000
413.716766	145.740000
413.810364	145.960000
413.904022	145.560000
413.997650	145.280000
414.091309	146.300000
414.184906	146.340000
414.278564	146.060000
414.372192	146.280000
414.465851	146.720000
414.559479	145.920000
414.653107	146.640000
414.746735	146.520000
414.840393	146.940000
414.934021	146.880000
415.027649	146.800000
415.121277	146.640000
415.214935	147.240000
415.308563	146.960000
415.402191	146.440000
415.495850	146.380000
415.589478	146.160000
415.683136	145.860000
415.776733	145.900000
415.870422	146.660000
415.964020	146.400000
416.057678	146.540000
416.151306	146.720000
416.244965	146.600000
416.338562	146.200000
416.432251	146.920000
416.525848	147.360000
416.619507	147.540000
416.713165	148.000000
416.806793	147.880000
416.900421	147.860000
416.994080	146.820000
417.087708	146.440000
417.181366	145.840000
417.274994	145.880000
417.368622	146.020000
417.462280	147.040000
417.555908	147.040000
417.649567	147.100000
417.743195	147.240000
417.836853	147.000000
417.930481	146.760000
418.024170	147.000000
418.117767	147.320000
418.211426	147.700000
418.305054	147.940000
418.398712	147.340000
418.492340	147.220000
418.585999	147.460000
418.679626	147.160000
418.773285	147.120000
418.866913	147.740000
418.960571	147.500000
419.054230	147.640000
419.147858	147.920000
419.241516	147.820000
419.335144	147.260000
419.428802	147.480000
419.522461	146.560000
419.616089	146.000000
419.709747	145.920000
419.803375	146.360000
419.897034	145.620000
419.990662	146.060000
420.084320	146.560000
420.177979	146.900000
420.271606	147.060000
420.365295	147.980000
420.458893	148.000000
420.552582	147.920000
420.646210	147.780000
420.739868	147.340000
420.833496	146.860000
420.927155	146.600000
421.020782	146.400000
421.114471	146.100000
421.208069	146.100000
421.301758	146.640000
421.395386	146.660000
421.489044	146.400000
421.582703	146.300000
421.676361	146.760000
421.769989	145.960000
421.863647	146.100000
421.957306	146.420000
422.050934	146.640000
422.144592	146.320000
422.238251	146.340000
422.331909	146.040000
422.425537	145.840000
422.519196	145.920000
422.612854	145.620000
422.706543	145.720000
422.800140	146.040000
422.893829	145.880000
422.987457	145.380000
423.081146	145.680000
423.174744	146.380000
423.268433	146.260000
423.362061	146.100000
423.455750	146.340000
423.549347	146.260000
423.643036	145.400000
423.736664	145.980000
423.830353	146.220000
423.924011	146.720000
424.017639	146.260000
424.111298	146.660000
424.204956	146.140000
424.298615	146.280000
424.392273	145.600000
424.485931	145.800000
424.579559	145.720000
424.673218	145.680000
424.766876	145.860000
424.860535	145.820000
424.954193	145.620000
425.047882	146.040000
425.141510	146.080000
425.235199	146.020000
425.328796	145.860000
425.422485	146.080000
425.516113	145.480000
425.609802	145.320000
425.703430	144.860000
425.797119	144.980000
425.890747	145.180000
425.984436	145.640000
426.078064	145.780000
426.171753	146.380000
426.265411	146.380000
426.359070	146.300000
426.452728	145.940000
426.546356	145.880000
426.640015	145.280000
426.733673	145.420000
426.827332	145.200000
426.920990	145.780000
427.014648	145.360000
427.108307	145.560000
427.201965	145.960000
427.295624	146.380000
427.389282	145.800000
427.482941	146.380000
427.576630	146.380000
427.670258	145.640000
427.763947	145.140000
427.857574	145.300000
427.951263	145.120000
428.044922	145.100000
428.138611	145.500000
428.232239	146.420000
428.325928	147.000000
428.419556	147.220000
428.513245	147.020000
428.606903	147.120000
428.700562	146.240000
428.794220	145.400000
428.887878	144.780000
428.981537	145.420000
429.075195	145.320000
429.168854	146.180000
429.262512	146.220000
429.356201	146.940000
429.449860	146.540000
429.543518	146.300000
429.637177	146.040000
429.730835	146.360000
429.824493	146.000000
429.918182	146.280000
430.011810	146.120000
430.105530	145.660000
430.199158	145.620000
430.292847	145.660000
430.386475	145.140000
430.480164	145.460000
430.573792	145.300000
430.667511	145.180000
430.761139	145.180000
430.854828	145.720000
430.948456	145.740000
431.042145	146.180000
431.135834	145.860000
431.229492	146.120000
431.323151	145.980000
431.416809	146.040000
431.510468	145.700000
431.604156	146.080000
431.697815	145.920000
431.791473	145.600000
431.885132	145.180000
431.978821	145.840000
432.072479	145.900000
432.166138	146.180000
432.259827	146.640000
432.353485	147.180000
432.447174	147.080000
432.540802	146.900000
432.634491	146.840000
432.728149	146.780000
432.821838	147.280000
432.915466	146.820000
433.009186	147.060000
433.102814	146.380000
433.196503	146.300000
433.290131	145.900000
433.383850	146.080000
433.477509	145.980000
433.571167	147.040000
433.664856	147.280000
433.758514	147.780000
433.852173	147.700000
433.945862	147.380000
434.039520	146.920000
434.133179	146.560000
434.226868	145.760000
434.320526	145.320000
434.414185	146.080000
434.507874	145.800000
434.601562	145.960000
434.695221	145.740000
434.788910	146.300000
434.882538	146.140000
434.976257	145.920000
435.069885	145.800000
435.163574	146.220000
435.257233	145.980000
435.350922	145.880000
435.444580	145.860000
435.538269	145.520000
435.631897	145.680000
435.725616	146.160000
435.819275	146.360000
435.912964	146.820000
436.006622	147.460000
436.100311	147.340000
436.193970	146.380000
436.287628	146.240000
436.381317	145.900000
436.474976	145.460000
436.568665	144.900000
436.662323	145.140000
436.756012	144.720000
436.849670	144.900000
436.943390	144.520000
437.037018	144.860000
437.130737	144.900000
437.224365	144.980000
437.318085	144.880000
437.411713	145.500000
437.505432	145.860000
437.599060	146.720000
437.692780	147.360000
437.786407	147.360000
437.880127	147.180000
437.973755	146.860000
438.067474	146.120000
438.161133	145.720000
438.254822	146.060000
438.348480	146.060000
438.442169	146.580000
438.535828	147.200000
438.629517	146.880000
438.723175	146.420000
438.816864	146.740000
438.910553	145.840000
439.004211	145.340000
439.097900	145.040000
439.191559	145.120000
439.285248	144.640000
439.378906	145.340000
439.472626	145.360000
439.566284	145.520000
439.659973	145.760000
439.753632	145.620000
439.847321	145.700000
439.940979	145.800000
440.034698	145.900000
440.128326	145.680000
440.222046	145.800000
440.315674	145.200000
440.409393	145.220000
440.503082	145.240000
440.596741	145.340000
440.690430	145.660000
440.784088	145.700000
440.877777	145.220000
440.971466	145.320000
441.065125	145.260000
441.158813	145.180000
441.252502	145.400000
441.346161	145.840000
441.439850	146.180000
441.533539	145.760000
441.627197	145.760000
441.720886	145.540000
441.814606	145.920000
441.908234	146.080000
442.001953	146.540000
442.095612	146.680000
442.189301	146.820000
442.282959	146.740000
442.376678	145.860000
442.470306	146.340000
442.564026	145.800000
442.657684	145.840000
442.751404	145.540000
442.845032	146.500000
442.938751	145.760000
443.032440	146.180000
443.126099	145.920000
443.219788	146.160000
443.313477	145.780000
443.407166	146.240000
443.500824	146.160000
443.594513	146.720000
443.688202	146.640000
443.781891	146.120000
443.875549	145.720000
443.969238	145.880000
444.062927	145.680000
444.156647	145.620000
444.250275	146.160000
444.343994	146.380000
444.437653	146.360000
444.531372	146.280000
444.625031	146.120000
444.718719	145.760000
444.812378	145.760000
444.906097	145.640000
444.999756	145.220000
445.093445	145.240000
445.187103	145.540000
445.280823	146.120000
445.374512	145.620000
445.468201	146.060000
445.561859	146.000000
445.655548	145.960000
445.749237	145.000000
445.842926	145.720000
445.936615	146.020000
446.030304	145.900000
446.123962	146.100000
446.217651	146.200000
446.311340	145.960000
446.405029	145.580000
446.498749	145.400000
446.592407	145.160000
446.686096	145.540000
446.779755	145.560000
446.873474	145.860000
446.967133	146.300000
447.060852	146.060000
447.154510	146.040000
447.248230	146.240000
447.341858	145.600000
447.435577	145.160000
447.529236	145.140000
447.622955	145.040000
447.716644	144.980000
447.810333	145.600000
447.904022	146.060000
447.997711	146.340000
448.091400	146.620000
448.185059	146.700000
448.278748	146.560000
448.372437	146.260000
448.466125	146.260000
448.559814	145.840000
448.653503	145.960000
448.747192	146.080000
448.840912	146.640000
448.934570	146.560000
449.028290	147.040000
449.121948	146.380000
449.215637	146.020000
449.309296	145.340000
449.403015	145.440000
449.496674	145.120000
449.590393	145.380000
449.684052	145.340000
449.777771	146.200000
449.871429	145.720000
449.965149	145.640000
450.058838	146.180000
450.152527	146.720000
450.246216	146.260000
450.339905	146.100000
450.433594	146.120000
450.527283	146.580000
450.620972	146.160000
450.714661	146.200000
450.808350	146.980000
450.902039	146.980000
450.995728	146.640000
451.089417	146.520000
451.183105	146.620000
451.276794	147.020000
451.370514	146.660000
451.464172	145.640000
451.557892	145.680000
451.651550	146.000000
451.745270	145.220000
451.838928	145.060000
451.932648	145.520000
452.026306	145.900000
452.120026	145.120000
452.213684	145.600000
452.307404	145.840000
452.401062	146.160000
452.494781	146.180000
452.588470	146.500000
452.682159	146.160000
452.775848	146.580000
452.869537	145.880000
452.963226	145.560000
453.056915	145.340000
453.150604	145.240000
453.244293	145.280000
453.337982	146.100000
453.431671	146.500000
453.525360	147.080000
453.619049	146.900000
453.712769	146.660000
453.806427	146.140000
453.900146	145.620000
453.993805	145.240000
454.087555	145.840000
454.181213	145.920000
454.274933	145.860000
454.368591	145.780000
454.462311	145.640000
454.555969	145.460000
454.649689	146.460000
454.743347	146.340000
454.837067	147.040000
454.930756	147.620000
455.024445	147.740000
455.118134	146.720000
455.211853	146.840000
455.305542	146.420000
455.399231	146.080000
455.492920	145.840000
455.586609	145.600000
455.680298	146.060000
455.773987	145.920000
455.867676	146.000000
455.961365	146.460000
456.055084	146.700000
456.148773	146.160000
456.242493	146.180000
456.336151	146.160000
456.429871	145.980000
456.523529	146.180000
456.617249	146.180000
456.710907	146.980000
456.804626	146.840000
456.898315	146.540000
456.992035	146.580000
457.085693	146.440000
457.179413	145.440000
457.273102	146.440000
457.366791	146.520000
457.460480	146.840000
457.554199	147.640000
457.647888	147.760000
457.741577	146.640000
457.835266	146.480000
457.928955	146.080000
458.022644	145.700000
458.116364	146.200000
458.210052	146.420000
458.303741	146.320000
458.397461	145.820000
458.491119	145.420000
458.584839	145.140000
458.678528	144.700000
458.772247	144.700000
458.865906	145.240000
458.959625	145.980000
459.053284	145.960000
459.147003	146.220000
459.240692	146.760000
459.334412	146.800000
459.428070	146.640000
459.521790	146.680000
459.615479	146.600000
459.709198	146.920000
459.802887	146.500000
459.896576	146.080000
459.990265	146.180000
460.083954	146.380000
460.177673	145.600000
460.271362	146.080000
460.365051	146.360000
460.458740	145.920000
460.552429	145.600000
460.646149	145.780000
460.739838	145.220000
460.833527	145.060000
460.927246	145.000000
461.020905	145.100000
461.114655	145.180000
461.208313	145.480000
461.302032	145.180000
461.395691	145.520000
461.489441	145.600000
461.583099	145.220000
461.676819	144.920000
461.770477	145.380000
461.864197	144.920000
461.957916	144.660000
462.051605	144.320000
462.145294	145.540000
462.238983	145.400000
462.332703	146.000000
462.426392	146.740000
462.520081	147.020000
462.613770	145.760000
462.707489	146.020000
462.801178	145.760000
462.894867	145.400000
462.988556	145.560000
463.082275	146.060000
463.175964	145.360000
463.269684	145.620000
463.363342	145.480000
463.457092	145.160000
463.550751	145.420000
463.644470	145.980000
463.738129	145.780000
463.831879	145.840000
463.925537	146.460000
464.019257	146.300000
464.112946	146.160000
464.206665	146.180000
464.300323	146.060000
464.394043	146.180000
464.487762	146.280000
464.581451	146.660000
464.675140	146.880000
464.768829	147.280000
464.862549	147.240000
464.956238	147.200000
465.049927	146.980000
465.143646	147.200000
465.237335	146.820000
465.331024	147.220000
465.424713	146.960000
465.518433	146.920000
465.612152	146.380000
465.705811	146.780000
465.799561	146.200000
465.893219	146.120000
465.986938	146.160000
466.080597	146.060000
466.174347	146.080000
466.268005	146.300000
466.361725	146.220000
466.455414	145.940000
466.549133	145.980000
466.642792	145.780000
466.736542	145.360000
466.830231	145.400000
466.923920	145.600000
467.017609	145.460000
467.111328	145.000000
467.205017	144.840000
467.298706	145.020000
467.392426	145.140000
467.486115	145.540000
467.579803	145.420000
467.673523	145.960000
467.767212	145.900000
467.860901	145.700000
467.954651	145.880000
468.048309	146.340000
468.142029	146.120000
468.235718	146.100000
468.329437	145.840000
468.423096	145.760000
468.516846	145.620000
468.610504	145.260000
468.704224	145.060000
468.797913	145.100000
468.891632	145.080000
468.985291	144.980000
469.079010	145.200000
469.172729	145.080000
469.266418	145.660000
469.360107	145.800000
469.453827	145.960000
469.547516	145.940000
469.641205	146.520000
469.734924	146.440000
469.828613	146.480000
469.922302	146.600000
470.016022	146.960000
470.109711	146.660000
470.203430	146.100000
470.297150	145.240000
470.390808	145.440000
470.484558	144.680000
470.578217	145.240000
470.671936	146.000000
470.765625	147.080000
470.859344	146.640000
470.953003	147.460000
471.046753	146.800000
471.140411	146.120000
471.234131	146.020000
471.327820	146.840000
471.421539	146.780000
471.515228	146.580000
471.608948	146.900000
471.702637	146.160000
471.796326	145.620000
471.890045	145.640000
471.983734	146.160000
472.077423	145.720000
472.171143	146.180000
472.264832	145.940000
472.358521	145.560000
472.452240	145.160000
472.545929	145.920000
472.639648	145.740000
472.733337	146.560000
472.827057	146.620000
472.920746	146.740000
473.014465	146.640000
473.108124	147.000000
473.201874	146.400000
473.295532	146.460000
473.389252	146.780000
473.482941	147.020000
473.576660	146.480000
473.670319	146.540000
473.764069	146.960000
473.857727	147.020000
473.951477	147.000000
474.045166	147.760000
474.138855	147.640000
474.232574	147.280000
474.326263	147.340000
474.419952	147.220000
474.513672	146.920000
474.607361	146.720000
474.701050	147.040000
474.794769	147.200000
474.888458	147.160000
474.982178	147.000000
475.075867	147.460000
475.169586	147.120000
475.263275	146.580000
475.356995	146.520000
475.450653	146.000000
475.544403	145.620000
475.638062	146.500000
475.731812	146.260000
475.825470	146.040000
475.919189	146.740000
476.012878	146.740000
476.106598	145.980000
476.200256	146.540000
476.294006	146.700000
476.387695	146.540000
476.481384	146.600000
476.575104	146.640000
476.668793	146.080000
476.762512	145.700000
476.856201	146.240000
476.949890	146.180000
477.043610	145.560000
477.137299	145.780000
477.230988	146.240000
477.324707	145.500000
477.418396	145.980000
477.512146	146.400000
477.605804	146.260000
477.699524	146.120000
477.793213	146.200000
477.886932	146.000000
477.980591	145.940000
478.074341	145.880000
478.167999	145.420000
478.261749	145.440000
478.355408	144.880000
478.449127	145.180000
478.542816	146.300000
478.636536	147.120000
478.730225	147.220000
478.823944	147.920000
478.917633	147.960000
479.011322	147.540000
479.105042	147.100000
479.198730	147.540000
479.292450	147.180000
479.386139	146.900000
479.479828	146.680000
479.573547	146.820000
479.667267	146.380000
479.760925	146.600000
479.854675	146.800000
479.948334	146.940000
480.042084	146.580000
480.135742	146.660000
480.229462	146.260000
480.323151	146.340000
480.416870	145.720000
480.510529	145.940000
480.604279	145.500000
480.697937	145.860000
480.791656	145.300000
480.885345	145.380000
480.979065	145.180000
481.072754	145.600000
481.166473	146.120000
481.260132	146.360000
481.353882	146.440000
481.447540	146.340000
481.541260	145.980000
481.635010	145.120000
481.728668	145.140000
481.822388	145.100000
481.916077	145.500000
482.009796	145.780000
482.103485	146.280000
482.197205	146.180000
482.290863	146.540000
482.384613	146.280000
482.478271	146.240000
482.571991	146.160000
482.665680	146.080000
482.759399	146.420000
482.853058	146.780000
482.946808	146.940000
483.040466	146.800000
483.134216	146.900000
483.227875	146.240000
483.321594	146.760000
483.415283	146.360000
483.509003	146.140000
483.602661	146.060000
483.696411	146.580000
483.790070	146.080000
483.883789	146.160000
483.977478	146.280000
484.071198	146.460000
484.164917	146.220000
484.258606	145.820000
484.352325	146.200000
484.445984	146.380000
484.539734	146.140000
484.633392	145.580000
484.727142	145.920000
484.820801	145.760000
484.914520	145.820000
485.008209	146.220000
485.101929	146.700000
485.195587	146.580000
485.289337	146.700000
485.382996	146.600000
485.476715	146.240000
485.570404	146.600000
485.664124	146.500000
485.757782	146.520000
485.851532	146.180000
485.945190	146.260000
486.038910	146.020000
486.132599	146.480000
486.226318	146.020000
486.319977	145.840000
486.413727	146.580000
486.507446	146.080000
486.601105	145.380000
486.694855	145.240000
486.788513	145.340000
486.882233	144.920000
486.975922	145.100000
487.069641	145.060000
487.163300	145.240000
487.257050	146.640000
487.350708	146.060000
487.444427	146.160000
487.538116	146.340000
487.631836	145.960000
487.725494	145.120000
487.819214	145.480000
487.912903	145.260000
488.006622	145.660000
488.100281	146.360000
488.194031	146.320000
488.287689	146.580000
488.381409	147.340000
488.475098	147.000000
488.568817	147.220000
488.662476	146.780000
488.756226	146.340000
488.849945	145.280000
488.943604	145.400000
489.037354	145.260000
489.131012	145.400000
489.224731	145.420000
489.318390	145.740000
489.412140	145.720000
489.505798	145.580000
489.599518	145.460000
489.693207	146.020000
489.786926	145.920000
489.880585	145.840000
489.974335	145.880000
490.067993	147.280000
490.161713	147.160000
490.255371	148.080000
490.349121	148.300000
490.442780	148.240000
490.536499	146.820000
490.630188	146.840000
490.723907	146.000000
490.817566	146.020000
490.911285	146.280000
491.004974	146.500000
491.098694	146.080000
491.192413	146.740000
491.286102	146.380000
491.379822	146.260000
491.473480	146.400000
491.567200	146.520000
491.660889	145.940000
491.754608	145.880000
491.848267	145.640000
491.941986	145.380000
492.035675	145.260000
492.129395	145.440000
492.223053	145.500000
492.316772	146.080000
492.410461	145.960000
492.504181	145.980000
492.597839	145.920000
492.691559	146.260000
492.785248	145.720000
492.878967	146.340000
492.972626	146.320000
493.066345	146.260000
493.160034	145.660000
493.253754	145.740000
493.347412	145.000000
493.441132	145.060000
493.534882	145.420000
493.628540	146.000000
493.722260	146.220000
493.815918	146.560000
493.909668	147.040000
494.003326	147.460000
494.097046	147.300000
494.190704	146.920000
494.284454	147.020000
494.378113	147.080000
494.471832	146.420000
494.565491	146.520000
494.659210	146.840000
494.752899	146.800000
494.846619	146.240000
494.940277	146.640000
495.033997	146.660000
495.127686	146.240000
495.221405	146.200000
495.315063	146.240000
495.408783	146.180000
495.502441	146.280000
495.596191	146.520000
495.689850	146.300000
495.783569	146.640000
495.877228	146.400000
495.970947	146.060000
496.064697	145.820000
496.158356	146.500000
496.252075	146.340000
496.345734	146.180000
496.439453	147.080000
496.533142	147.500000
496.626862	147.300000
496.720520	147.300000
496.814240	147.680000
496.907898	147.060000
497.001617	146.900000
497.095306	146.380000
497.189026	146.280000
497.282684	146.140000
497.376404	146.380000
497.470062	146.420000
497.563782	146.780000
497.657471	146.580000
497.751190	146.420000
497.844849	145.920000
497.938568	146.260000
498.032227	146.040000
498.125946	146.360000
498.219635	146.280000
498.313354	146.760000
498.407074	146.180000
498.500732	146.560000
498.594452	146.560000
498.688110	146.060000
498.781830	145.340000
498.875519	145.160000
498.969238	144.800000
499.062897	144.620000
499.156616	145.320000
499.250275	145.780000
499.343994	145.900000
499.437653	146.060000
499.531372	146.300000
499.625061	146.780000
499.718781	146.840000
499.812439	147.180000
499.906158	147.140000
499.999817	146.740000
500.093536	145.860000
500.187195	145.820000
500.280914	145.940000
500.374573	146.140000
500.468323	146.160000
500.561981	146.360000
500.655701	145.880000
500.749420	145.760000
500.843079	145.760000
500.936798	146.240000
501.030457	146.720000
501.124176	147.220000
501.217834	147.220000
501.311554	146.840000
501.405212	146.420000
501.498962	145.700000
501.592621	145.320000
501.686340	145.740000
501.779999	146.140000
501.873718	146.380000
501.967377	146.780000
502.061096	147.280000
502.154755	146.460000
502.248474	146.380000
502.342133	146.380000
502.435852	146.160000
502.529510	146.560000
502.623230	147.200000
502.716888	146.660000
502.810608	146.880000
502.904266	147.440000
502.997986	146.820000
503.091705	146.280000
503.185364	146.420000
503.279083	146.020000
503.372772	145.820000
503.466492	145.420000
503.560150	145.620000
503.653870	145.940000
503.747528	146.300000
503.841248	145.920000
503.934906	146.780000
504.028625	146.160000
504.122284	146.460000
504.216003	146.760000
504.309662	146.640000
504.403381	146.420000
504.497040	146.840000
504.590759	146.420000
504.684418	146.400000
504.778137	146.900000
504.871796	147.120000
504.965515	147.160000
505.059174	147.320000
505.152893	146.700000
505.246521	146.240000
505.340240	145.720000
505.433899	146.000000
505.527618	146.220000
505.621338	146.640000
505.714996	146.460000
505.808716	146.220000
505.902374	146.740000
505.996094	146.620000
506.089752	146.220000
506.183472	146.920000
506.277130	147.220000
506.370850	146.660000
506.464508	146.420000
506.558228	146.620000
506.651886	146.080000
506.745605	146.000000
506.839264	146.100000
506.932983	146.140000
507.026611	146.160000
507.120331	146.820000
507.213989	146.420000
507.307709	146.320000
507.401367	146.820000
507.495087	147.560000
507.588745	146.740000
507.682465	147.760000
507.776123	147.840000
507.869843	147.280000
507.963531	146.740000
508.057190	147.480000
508.150909	146.600000
508.244568	146.480000
508.338287	146.360000
508.431946	145.800000
508.525665	145.300000
508.619324	145.300000
508.713013	145.320000
508.806671	145.800000
508.900391	146.840000
508.994049	147.140000
509.087769	147.140000
509.181427	147.120000
509.275146	146.640000
509.368774	145.780000
509.462494	145.460000
509.556152	145.780000
509.649872	146.040000
509.743530	146.460000
509.837250	146.580000
509.930878	146.880000
510.024597	146.560000
510.118256	146.400000
510.211975	146.420000
510.305695	146.080000
510.399353	146.280000
510.493042	147.020000
510.586700	147.120000
510.680420	147.220000
510.774078	147.400000
510.867798	147.440000
510.961426	146.500000
511.055145	146.180000
511.148804	145.740000
511.242523	146.120000
511.336151	146.040000
511.429871	146.440000
511.523529	146.800000
511.617249	146.620000
511.710876	146.240000
511.804596	145.780000
511.898254	145.800000
511.991974	145.880000
512.085632	145.920000
512.179321	146.020000
512.272949	146.540000
512.366699	146.820000
512.460327	146.540000
512.554077	147.380000
512.647766	147.360000
512.741394	147.040000
512.835144	147.120000
512.928772	146.560000
513.022461	146.160000
513.116150	145.940000
513.209839	146.460000
513.303467	145.860000
513.397217	146.160000
513.490845	145.980000
513.584595	145.980000
513.678223	145.220000
513.771912	145.080000
513.865601	144.960000
513.959290	144.740000
514.052917	144.720000
514.146667	145.700000
514.240295	146.100000
514.333984	146.640000
514.427673	146.880000
514.521362	147.320000
514.614990	146.520000
514.708740	146.760000
514.802368	146.640000
514.896057	146.680000
514.989746	147.420000
515.083435	147.280000
515.177124	147.360000
515.270752	147.160000
515.364502	147.200000
515.458130	146.660000
515.551819	146.620000
515.645508	146.400000
515.739197	146.620000
515.832825	146.720000
515.926575	146.400000
516.020203	146.800000
516.113892	147.380000
516.207520	147.100000
516.301270	146.880000
516.394897	147.260000
516.488586	147.700000
516.582275	147.240000
516.675964	146.780000
516.769592	146.760000
516.863281	147.020000
516.956970	146.940000
517.050659	146.940000
517.144287	147.420000
517.238037	147.460000
517.331665	146.820000
517.425354	146.360000
517.519043	146.180000
517.612732	146.460000
517.706421	146.520000
517.800049	146.160000
517.893738	145.780000
517.987427	145.800000
518.081116	145.340000
518.174744	144.840000
518.268433	145.320000
518.362122	146.260000
518.455811	146.060000
518.549438	146.840000
518.643127	147.880000
518.736816	147.700000
518.830505	147.120000
518.924133	147.100000
519.017822	146.840000
519.111511	146.220000
519.205200	146.600000
519.298828	146.740000
519.392517	146.780000
519.486206	146.960000
519.579895	147.060000
519.673523	146.800000
519.767212	146.580000
519.860901	147.000000
519.954590	146.820000
520.048279	146.380000
520.141907	146.140000
520.235596	146.820000
520.329224	146.860000
520.422974	146.800000
520.516602	147.000000
520.610291	146.800000
520.703918	146.720000
520.797607	146.560000
520.891296	146.560000
520.984985	146.860000
521.078613	147.720000
521.172302	146.880000
521.265930	147.640000
521.359680	147.940000
521.453308	147.780000
521.546997	147.340000
521.640625	148.000000
521.734314	146.840000
521.827942	146.440000
521.921692	146.420000
522.015320	146.280000
522.109009	145.720000
522.202698	146.140000
522.296326	146.060000
522.390015	146.120000
522.483704	146.400000
522.577393	146.380000
522.671021	146.200000
522.764709	146.080000
522.858337	146.860000
522.952026	146.520000
523.045654	147.340000
523.139404	147.640000
523.233032	147.940000
523.326721	147.420000
523.420349	147.620000
523.514038	147.080000
523.607666	147.400000
523.701355	147.080000
523.795044	146.800000
523.888733	146.920000
523.982361	147.040000
524.076050	146.380000
524.169678	146.780000
524.263367	146.500000
524.356995	146.260000
524.450684	145.980000
524.544373	145.840000
524.638062	145.680000
524.731750	145.880000
524.825378	145.900000
524.919067	145.620000
525.012695	145.820000
525.106384	145.460000
525.200012	145.740000
525.293701	145.700000
525.387329	146.120000
525.481018	146.460000
525.574646	146.980000
525.668396	146.940000
525.762024	147.580000
525.855713	147.860000
525.949341	147.240000
526.043030	147.420000
526.136658	147.040000
526.230347	146.600000
526.323975	146.200000
526.417664	146.100000
526.511292	145.880000
526.604980	146.460000
526.698608	146.360000
526.792297	146.320000
526.885925	146.980000
526.979614	147.120000
527.073303	146.760000
527.166931	146.880000
527.260620	147.180000
527.354309	147.440000
527.447998	147.100000
527.541626	146.920000
527.635315	146.820000
527.728943	147.140000
527.822632	146.780000
527.916260	146.940000
528.009949	147.340000
528.103577	147.220000
528.197266	146.460000
528.290894	146.660000
528.384583	146.480000
528.478210	146.480000
528.571899	146.740000
528.665527	147.300000
528.759216	147.240000
528.852844	147.780000
528.946533	147.840000
529.040161	147.760000
529.133850	147.380000
529.227478	147.600000
529.321167	147.540000
529.414856	147.720000
529.508484	148.160000
529.602173	147.760000
529.695801	147.540000
529.789490	147.160000
529.883057	146.740000
529.976746	146.500000
530.070374	147.300000
530.164062	147.440000
530.257690	147.900000
530.351379	148.120000
530.445007	147.920000
530.538696	147.280000
530.632324	147.480000
530.726013	147.120000
530.819641	147.020000
530.913330	147.140000
531.006958	147.380000
531.100647	146.980000
531.194275	147.000000
531.287964	146.880000
531.381592	146.560000
531.475220	146.940000
531.568848	146.820000
531.662537	146.740000
531.756226	147.000000
531.849854	146.980000
531.943542	146.780000
532.037170	146.540000
532.130859	147.080000
532.224487	146.780000
532.318176	146.800000
532.411804	147.020000
532.505432	147.280000
532.599060	146.660000
532.692749	146.520000
532.786377	147.040000
532.880066	146.320000
532.973694	145.900000
533.067383	146.040000
533.161011	145.920000
533.254639	145.560000
533.348267	145.700000
533.441956	146.120000
533.535583	145.760000
533.629272	146.060000
533.722900	145.700000
533.816589	145.840000
533.910156	145.740000
534.003845	145.680000
534.097534	145.620000
534.191162	146.300000
534.284851	146.660000
534.378479	146.360000
534.472107	146.380000
534.565735	146.440000
534.659424	146.280000
534.753052	146.140000
534.846741	146.420000
534.940369	147.380000
535.033997	147.580000
535.127625	147.480000
535.221313	147.960000
535.314941	147.800000
535.408630	146.720000
535.502197	146.820000
535.595886	146.760000
535.689514	146.140000
535.783203	146.440000
535.876831	147.140000
535.970459	147.000000
536.064087	146.760000
536.157776	146.840000
536.251404	147.040000
536.345093	146.660000
536.438721	146.600000
536.532349	146.940000
536.626038	146.980000
536.719666	147.280000
536.813293	147.280000
536.906921	147.180000
537.000610	147.500000
537.094238	147.460000
537.187866	146.860000
537.281494	146.580000
537.375183	146.660000
537.468811	146.220000
537.562439	146.280000
537.656067	146.320000
537.749756	146.600000
537.843384	147.300000
537.937012	147.580000
538.030640	147.240000
538.124329	147.100000
538.217896	147.180000
538.311584	146.860000
538.405212	146.780000
538.498901	147.260000
538.592468	148.160000
538.686157	147.780000
538.779785	147.020000
538.873413	146.900000
538.967102	146.660000
539.060730	145.760000
539.154358	146.260000
539.247986	146.900000
539.341675	147.100000
539.435242	146.880000
539.528931	147.080000
539.622559	146.620000
539.716187	146.840000
539.809814	146.760000
539.903503	147.060000
539.997070	146.860000
540.090759	147.000000
540.184387	146.600000
540.278015	146.840000
540.371643	147.040000
540.465332	147.040000
540.558899	147.160000
540.652588	147.080000
540.746216	146.480000
540.839844	146.500000
540.933472	146.720000
541.027100	146.620000
541.120728	147.000000
541.214417	147.460000
541.308044	147.580000
541.401672	147.220000
541.495300	147.440000
541.588928	146.920000
541.682617	146.460000
541.776184	146.140000
541.869873	146.880000
541.963440	146.900000
542.057129	147.060000
542.150757	147.460000
542.244385	147.000000
542.338013	146.480000
542.431641	146.120000
542.525269	146.020000
542.618958	146.220000
542.712524	146.660000
542.806213	146.360000
542.899780	146.840000
542.993469	146.840000
543.087036	146.280000
543.180725	145.700000
543.274292	146.400000
543.367981	146.260000
543.461548	146.400000
543.555237	146.440000
543.648926	146.920000
543.742493	147.080000
543.836182	147.120000
543.929749	147.140000
544.023437	147.380000
544.117004	147.400000
544.210693	147.000000
544.304260	146.960000
544.397949	146.820000
544.491516	147.120000
544.585205	147.060000
544.678772	146.680000
544.772461	147.120000
544.866028	147.180000
544.959717	146.980000
545.053284	146.820000
545.146973	147.200000
545.240540	147.020000
545.334229	147.540000
545.427795	147.620000
545.521423	148.040000
545.615051	148.140000
545.708679	148.140000
545.802307	147.600000
545.895935	147.800000
545.989624	148.100000
546.083191	147.760000
546.176880	147.640000
546.270447	147.380000
546.364136	147.400000
546.457703	146.860000
546.551331	146.780000
546.644958	146.800000
546.738586	147.020000
546.832214	146.660000
546.925842	146.640000
547.019409	147.060000
547.113098	146.760000
547.206665	146.540000
547.300354	146.540000
547.393921	147.040000
547.487549	147.060000
547.581177	146.800000
547.674805	147.100000
547.768433	146.420000
547.862061	146.000000
547.955627	145.340000
548.049316	146.260000
548.142883	146.480000
548.236572	147.440000
548.330139	147.880000
548.423767	148.020000
548.517456	147.420000
548.611023	147.580000
548.704651	146.580000
548.798279	146.240000
548.891907	146.900000
548.985474	146.780000
549.079163	146.720000
549.172729	146.720000
549.266357	146.060000
549.359985	145.740000
549.453613	145.380000
549.547180	144.760000
549.640869	145.380000
549.734436	145.700000
549.828064	146.100000
549.921631	146.620000
550.015320	146.880000
550.108887	147.160000
550.202515	147.200000
550.296143	146.560000
550.389771	146.400000
550.483337	146.400000
550.576965	146.080000
550.670593	146.460000
550.764221	146.580000
550.857849	146.660000
550.951477	146.240000
551.045105	145.820000
551.138672	145.580000
551.232300	145.380000
551.325928	145.540000
551.419556	145.920000
551.513123	146.260000
551.606750	146.140000
551.700378	146.480000
551.794006	146.080000
551.887573	145.880000
551.981201	146.180000
552.074768	146.300000
552.168457	146.060000
552.262024	147.160000
552.355652	147.220000
552.449219	147.400000
552.542847	147.400000
552.636475	147.160000
552.730103	146.200000
552.823669	146.140000
552.917297	145.700000
553.010864	145.580000
553.104553	146.260000
553.198181	146.120000
553.291748	146.580000
553.385376	146.940000
553.478943	146.920000
553.572571	146.880000
553.666199	147.040000
553.759827	146.460000
553.853394	145.820000
553.947021	145.760000
554.040588	145.520000
554.134216	145.680000
554.227783	146.600000
554.321411	147.540000
554.415039	147.460000
554.508667	147.340000
554.602234	147.540000
554.695862	146.740000
554.789429	146.420000
554.883057	146.660000
554.976624	146.900000
555.070251	146.900000
555.163818	147.080000
555.257507	146.960000
555.351074	146.980000
555.444702	147.940000
555.538330	147.380000
555.631897	147.880000
555.725525	147.860000
555.819092	147.860000
555.912720	146.580000
556.006287	147.300000
556.099915	146.840000
556.193481	147.040000
556.287109	147.140000
556.380676	147.380000
556.474304	147.240000
556.567871	147.400000
556.661499	146.520000
556.755066	146.520000
556.848694	146.540000
556.942261	146.280000
557.035889	146.400000
557.129517	146.860000
557.223145	147.180000
557.316711	147.280000
557.410339	147.440000
557.503906	146.940000
557.597473	147.140000
557.691040	146.760000
557.784668	146.740000
557.878296	146.640000
557.971863	146.920000
558.065491	147.080000
558.159058	147.060000
558.252686	147.700000
558.346252	148.560000
558.439880	148.160000
558.533447	147.620000
558.627075	147.120000
558.720642	146.100000
558.814270	145.320000
558.907837	145.360000
559.001465	145.380000
559.095032	146.440000
559.188660	146.740000
559.282227	146.260000
559.375854	146.880000
559.469360	146.700000
559.562988	146.500000
559.656555	146.600000
559.750183	146.920000
559.843750	147.000000
559.937378	147.560000
560.030945	147.320000
560.124573	0.000000
560.218140	0.000000
560.311707	0.000000
560.405334	0.000000
560.498901	0.000000
560.592529	0.000000
560.686096	0.000000
560.779724	0.000000
560.873291	0.000000
560.966858	0.000000
561.060425	0.000000
561.154053	0.000000
561.247620	0.000000
561.341248	0.000000
561.434814	0.000000
561.528381	0.000000
561.621948	0.000000
561.715576	0.000000
561.809143	0.000000
561.902771	0.000000
561.996277	0.000000
562.089905	0.000000
562.183472	0.000000
562.277100	0.000000
