Model Number: SPM-002-B   
Serial Number: 70087108
Firmware Version: 004.15.4
Exposure Time: 100000.000000us
Data Taken on: 11-12-2020 18:47:51.284
Wavelength	Amplitude
221.570786	0.000000
221.663406	0.000000
221.756027	0.000000
221.848648	0.000000
221.941269	0.000000
222.033905	0.000000
222.126526	0.000000
222.219162	0.000000
222.311798	0.000000
222.404419	0.000000
222.497055	0.000000
222.589676	0.000000
222.682312	0.000000
222.774933	0.000000
222.867569	0.000000
222.960205	0.000000
223.052841	0.000000
223.145462	0.000000
223.238098	0.000000
223.330734	0.000000
223.423386	0.000000
223.516022	0.000000
223.608658	0.000000
223.701309	0.000000
223.793945	0.000000
223.886581	0.000000
223.979218	0.000000
224.071869	0.000000
224.164505	0.000000
224.257156	0.000000
224.349792	0.000000
224.442444	0.000000
224.535095	0.000000
224.627747	0.000000
224.720398	0.000000
224.813034	0.000000
224.905685	0.000000
224.998337	145.280000
225.090988	145.100000
225.183640	144.980000
225.276291	144.660000
225.368942	144.880000
225.461594	145.480000
225.554245	146.000000
225.646912	146.160000
225.739578	146.900000
225.832230	147.140000
225.924896	146.140000
226.017548	146.120000
226.110199	146.480000
226.202866	145.680000
226.295532	145.520000
226.388184	145.640000
226.480850	145.180000
226.573517	144.860000
226.666168	145.060000
226.758835	145.320000
226.851501	146.180000
226.944183	146.240000
227.036850	145.700000
227.129517	145.940000
227.222183	146.120000
227.314850	145.880000
227.407516	146.400000
227.500198	147.300000
227.592865	146.920000
227.685532	146.280000
227.778214	146.060000
227.870880	145.780000
227.963562	146.020000
228.056229	146.360000
228.148926	146.760000
228.241592	147.600000
228.334274	147.700000
228.426956	147.300000
228.519638	147.240000
228.612305	146.580000
228.704987	146.260000
228.797668	146.220000
228.890350	146.120000
228.983032	145.620000
229.075714	146.420000
229.168396	145.840000
229.261108	145.240000
229.353790	145.040000
229.446472	145.400000
229.539169	144.960000
229.631851	144.880000
229.724533	145.240000
229.817230	145.720000
229.909912	146.720000
230.002609	146.960000
230.095306	146.800000
230.187988	146.880000
230.280685	146.680000
230.373383	145.480000
230.466095	145.360000
230.558792	145.760000
230.651474	145.900000
230.744171	145.380000
230.836868	145.360000
230.929581	145.580000
231.022278	145.700000
231.114975	145.540000
231.207672	145.900000
231.300369	146.320000
231.393082	146.380000
231.485779	146.120000
231.578506	145.960000
231.671204	145.960000
231.763916	146.100000
231.856613	145.840000
231.949326	146.060000
232.042023	146.140000
232.134735	145.980000
232.227448	145.600000
232.320160	145.820000
232.412872	145.620000
232.505585	146.400000
232.598297	146.840000
232.691010	146.900000
232.783722	146.420000
232.876450	147.080000
232.969162	146.560000
233.061874	145.920000
233.154587	145.480000
233.247314	146.140000
233.340027	145.480000
233.432739	145.840000
233.525467	146.160000
233.618179	146.740000
233.710907	146.180000
233.803635	146.760000
233.896347	146.420000
233.989090	147.060000
234.081818	146.620000
234.174545	146.680000
234.267258	146.060000
234.359985	146.220000
234.452713	145.820000
234.545441	146.060000
234.638168	146.160000
234.730896	146.700000
234.823639	146.500000
234.916367	146.900000
235.009094	146.880000
235.101822	146.940000
235.194580	146.700000
235.287308	146.720000
235.380051	146.160000
235.472778	146.520000
235.565521	146.600000
235.658249	146.220000
235.750992	146.240000
235.843719	146.260000
235.936462	146.060000
236.029205	145.800000
236.121948	145.900000
236.214691	146.480000
236.307449	147.040000
236.400192	146.900000
236.492935	146.500000
236.585678	146.740000
236.678421	146.280000
236.771164	145.920000
236.863907	146.520000
236.956665	147.060000
237.049408	148.440000
237.142151	148.140000
237.234909	148.900000
237.327652	148.640000
237.420410	148.420000
237.513153	147.360000
237.605927	147.340000
237.698669	146.340000
237.791428	145.760000
237.884186	146.380000
237.976944	145.960000
238.069702	146.180000
238.162445	145.940000
238.255203	146.180000
238.347961	146.260000
238.440720	146.520000
238.533478	146.140000
238.626266	145.960000
238.719025	146.180000
238.811783	145.740000
238.904541	145.420000
238.997314	145.660000
239.090073	145.740000
239.182831	146.100000
239.275604	146.580000
239.368362	146.500000
239.461136	146.460000
239.553909	146.660000
239.646667	146.060000
239.739441	145.700000
239.832214	146.040000
239.925003	146.100000
240.017761	146.640000
240.110535	147.280000
240.203308	146.920000
240.296082	146.980000
240.388855	146.980000
240.481628	146.800000
240.574417	146.780000
240.667191	147.300000
240.759964	146.900000
240.852737	146.960000
240.945526	146.480000
241.038315	146.140000
241.131088	145.820000
241.223877	146.120000
241.316650	145.740000
241.409439	146.340000
241.502228	145.820000
241.595001	146.460000
241.687790	146.320000
241.780579	146.440000
241.873367	146.680000
241.966141	147.040000
242.058929	146.260000
242.151718	146.260000
242.244507	146.780000
242.337311	145.660000
242.430099	146.280000
242.522903	146.560000
242.615692	146.460000
242.708481	146.120000
242.801270	147.020000
242.894073	146.540000
242.986862	146.740000
243.079651	146.900000
243.172455	146.860000
243.265244	146.920000
243.358063	146.460000
243.450867	146.720000
243.543655	146.560000
243.636459	146.340000
243.729263	146.220000
243.822067	146.560000
243.914856	146.900000
244.007660	147.300000
244.100464	147.520000
244.193268	147.180000
244.286072	147.060000
244.378876	146.220000
244.471680	145.620000
244.564499	145.880000
244.657318	146.500000
244.750122	146.620000
244.842926	146.240000
244.935745	146.660000
245.028549	146.240000
245.121368	145.840000
245.214172	145.760000
245.306992	146.220000
245.399796	146.160000
245.492615	146.480000
245.585434	146.460000
245.678253	146.500000
245.771072	146.420000
245.863892	146.640000
245.956711	146.720000
246.049530	146.360000
246.142349	146.300000
246.235168	146.520000
246.327988	146.760000
246.420807	146.520000
246.513626	146.660000
246.606445	146.340000
246.699280	146.080000
246.792099	145.840000
246.884918	145.460000
246.977753	145.380000
247.070587	145.580000
247.163422	145.640000
247.256241	145.720000
247.349075	146.180000
247.441895	146.280000
247.534729	146.480000
247.627563	146.180000
247.720383	146.560000
247.813217	146.480000
247.906052	146.260000
247.998886	146.460000
248.091736	146.580000
248.184570	146.040000
248.277405	145.880000
248.370239	146.680000
248.463074	147.220000
248.555908	147.620000
248.648743	147.460000
248.741592	147.860000
248.834427	147.300000
248.927261	145.980000
249.020111	145.940000
249.112946	146.660000
249.205795	145.940000
249.298630	145.820000
249.391495	146.140000
249.484344	145.940000
249.577179	145.580000
249.670029	146.000000
249.762878	146.580000
249.855728	146.760000
249.948563	146.820000
250.041412	146.240000
250.134262	146.700000
250.227112	146.820000
250.319962	146.740000
250.412827	146.700000
250.505692	146.520000
250.598541	146.200000
250.691391	145.700000
250.784241	145.520000
250.877106	145.500000
250.969955	145.220000
251.062805	145.620000
251.155670	146.280000
251.248520	146.360000
251.341385	146.580000
251.434235	147.180000
251.527100	146.940000
251.619965	146.080000
251.712814	146.880000
251.805695	146.560000
251.898560	146.600000
251.991425	146.540000
252.084290	146.860000
252.177155	146.000000
252.270020	145.960000
252.362885	145.640000
252.455750	145.660000
252.548615	145.340000
252.641479	145.580000
252.734360	145.680000
252.827240	145.720000
252.920105	145.820000
253.012970	145.820000
253.105850	145.900000
253.198715	145.880000
253.291595	146.240000
253.384460	145.840000
253.477341	146.040000
253.570221	146.080000
253.663086	145.880000
253.755966	146.420000
253.848846	146.500000
253.941727	146.720000
254.034592	146.460000
254.127472	146.000000
254.220367	145.640000
254.313248	145.680000
254.406128	145.100000
254.499008	145.360000
254.591904	146.160000
254.684784	146.460000
254.777664	146.900000
254.870544	146.900000
254.963440	146.820000
255.056335	146.880000
255.149216	146.580000
255.242111	146.680000
255.334991	147.020000
255.427887	146.920000
255.520767	146.600000
255.613663	146.460000
255.706558	145.840000
255.799438	145.580000
255.892334	145.420000
255.985229	145.680000
256.078125	145.580000
256.171021	145.740000
256.263916	146.140000
256.356812	146.520000
256.449707	146.680000
256.542603	146.700000
256.635498	147.160000
256.728394	146.940000
256.821289	146.720000
256.914215	146.620000
257.007080	146.860000
257.100006	146.800000
257.192932	147.220000
257.285828	147.580000
257.378723	147.380000
257.471619	147.120000
257.564545	146.360000
257.657440	146.240000
257.750336	146.500000
257.843262	146.300000
257.936157	147.380000
258.029053	147.840000
258.121979	147.880000
258.214874	147.240000
258.307800	147.300000
258.400696	146.060000
258.493622	146.080000
258.586517	145.360000
258.679443	145.560000
258.772339	145.180000
258.865265	145.140000
258.958160	144.600000
259.051086	145.500000
259.144012	145.380000
259.236938	146.100000
259.329834	146.640000
259.422791	146.860000
259.515717	146.200000
259.608612	146.160000
259.701538	146.440000
259.794464	146.220000
259.887390	146.280000
259.980316	146.480000
260.073212	146.500000
260.166138	145.260000
260.259064	145.480000
260.351990	145.800000
260.444916	145.680000
260.537842	145.800000
260.630768	146.800000
260.723694	146.780000
260.816620	146.740000
260.909546	146.700000
261.002472	146.540000
261.095398	146.000000
261.188354	145.880000
261.281281	145.420000
261.374207	145.520000
261.467133	145.980000
261.560089	146.460000
261.653015	146.200000
261.745972	146.880000
261.838867	147.440000
261.931824	147.560000
262.024780	146.880000
262.117706	147.120000
262.210663	147.220000
262.303589	146.800000
262.396515	146.500000
262.489471	147.620000
262.582397	147.480000
262.675354	146.820000
262.768280	146.680000
262.861237	146.840000
262.954163	146.540000
263.047119	146.840000
263.140045	146.900000
263.233002	146.780000
263.325958	146.400000
263.418884	145.800000
263.511841	145.520000
263.604797	145.640000
263.697723	146.020000
263.790680	146.180000
263.883636	146.460000
263.976593	146.280000
264.069550	146.360000
264.162476	145.960000
264.255463	145.940000
264.348419	145.780000
264.441376	146.140000
264.534332	145.460000
264.627289	145.620000
264.720245	145.960000
264.813202	145.640000
264.906158	145.840000
264.999115	146.940000
265.092072	146.920000
265.185028	147.320000
265.277985	147.700000
265.370941	147.220000
265.463898	146.520000
265.556854	146.340000
265.649811	145.320000
265.742798	145.180000
265.835754	145.220000
265.928711	145.740000
266.021667	145.700000
266.114655	146.160000
266.207611	146.760000
266.300568	146.100000
266.393585	145.500000
266.486511	145.880000
266.579498	145.140000
266.672485	144.640000
266.765442	145.020000
266.858429	145.640000
266.951385	145.380000
267.044342	145.720000
267.137329	145.860000
267.230316	146.460000
267.323273	145.800000
267.416260	146.660000
267.509216	146.540000
267.602203	146.320000
267.695160	146.220000
267.788147	146.260000
267.881134	145.780000
267.974091	146.140000
268.067078	146.300000
268.160065	146.260000
268.253052	146.480000
268.346008	146.020000
268.438995	145.900000
268.531982	146.100000
268.624969	145.640000
268.717987	145.840000
268.810944	145.920000
268.903961	145.880000
268.996948	145.240000
269.089905	145.820000
269.182892	145.980000
269.275879	146.380000
269.368866	146.080000
269.461853	146.520000
269.554871	146.320000
269.647858	146.220000
269.740845	146.420000
269.833832	146.900000
269.926819	146.560000
270.019806	146.660000
270.112793	146.100000
270.205811	146.200000
270.298798	145.860000
270.391785	146.660000
270.484772	145.940000
270.577789	146.320000
270.670776	145.580000
270.763763	145.840000
270.856750	145.420000
270.949768	145.640000
271.042786	145.820000
271.135773	146.020000
271.228790	145.940000
271.321808	145.620000
271.414795	145.440000
271.507782	145.020000
271.600800	144.700000
271.693817	144.720000
271.786804	145.360000
271.879822	145.840000
271.972809	145.700000
272.065826	146.380000
272.158844	146.140000
272.251831	146.320000
272.344849	146.320000
272.437866	146.400000
272.530853	146.260000
272.623871	146.420000
272.716888	145.440000
272.809906	145.500000
272.902893	145.680000
272.995911	144.820000
273.088928	144.580000
273.181946	145.100000
273.274963	144.680000
273.367981	144.480000
273.460999	145.220000
273.554047	145.720000
273.647003	145.940000
273.740051	146.240000
273.833069	146.680000
273.926086	146.720000
274.019135	146.520000
274.112152	146.240000
274.205170	146.360000
274.298187	146.220000
274.391205	145.620000
274.484222	145.580000
274.577240	145.720000
274.670258	145.480000
274.763306	145.400000
274.856323	146.060000
274.949341	146.420000
275.042358	146.380000
275.135406	146.380000
275.228424	146.420000
275.321442	145.960000
275.414490	145.440000
275.507507	146.360000
275.600525	146.560000
275.693573	146.420000
275.786591	146.300000
275.879669	146.620000
275.972656	145.700000
276.065735	145.920000
276.158752	146.600000
276.251801	147.580000
276.344818	147.440000
276.437866	147.440000
276.530884	147.060000
276.623932	146.040000
276.716980	145.780000
276.809998	145.780000
276.903046	145.900000
276.996094	146.820000
277.089111	147.600000
277.182159	147.920000
277.275208	147.940000
277.368256	147.680000
277.461304	147.200000
277.554321	146.580000
277.647369	146.200000
277.740417	146.340000
277.833466	146.480000
277.926514	146.140000
278.019562	146.960000
278.112610	146.540000
278.205688	146.640000
278.298706	146.880000
278.391785	146.560000
278.484833	146.020000
278.577881	146.020000
278.670929	146.100000
278.763977	146.140000
278.857025	146.880000
278.950073	146.820000
279.043121	146.800000
279.136169	146.440000
279.229248	145.780000
279.322296	145.600000
279.415344	145.640000
279.508392	145.320000
279.601440	145.220000
279.694519	145.520000
279.787567	145.280000
279.880615	145.160000
279.973694	145.280000
280.066742	145.380000
280.159790	145.360000
280.252869	145.240000
280.345917	145.400000
280.438995	145.520000
280.532074	145.680000
280.625122	146.040000
280.718201	146.880000
280.811279	147.080000
280.904327	147.020000
280.997406	147.200000
281.090454	147.200000
281.183533	146.460000
281.276581	146.320000
281.369659	146.260000
281.462738	146.000000
281.555786	146.020000
281.648865	145.860000
281.741943	145.420000
281.835022	146.240000
281.928070	146.300000
282.021149	145.880000
282.114227	146.040000
282.207306	146.220000
282.300385	146.240000
282.393433	146.380000
282.486511	146.560000
282.579590	147.100000
282.672668	147.540000
282.765747	146.860000
282.858856	146.320000
282.951904	146.060000
283.045013	146.080000
283.138062	146.180000
283.231171	146.500000
283.324249	146.980000
283.417328	147.440000
283.510406	146.860000
283.603485	146.440000
283.696564	146.440000
283.789642	146.380000
283.882751	145.880000
283.975830	146.700000
284.068909	146.480000
284.161987	146.960000
284.255066	146.800000
284.348175	147.180000
284.441254	146.540000
284.534332	147.380000
284.627441	146.540000
284.720520	146.080000
284.813599	146.040000
284.906708	146.240000
284.999786	145.440000
285.092896	145.640000
285.185974	146.860000
285.279053	146.340000
285.372192	146.660000
285.465240	147.180000
285.558380	147.340000
285.651459	146.860000
285.744568	148.040000
285.837677	147.100000
285.930756	147.040000
286.023865	146.680000
286.116943	146.300000
286.210052	146.020000
286.303162	146.320000
286.396240	146.020000
286.489349	145.920000
286.582458	146.400000
286.675568	146.040000
286.768646	146.040000
286.861755	146.600000
286.954865	147.420000
287.047974	146.540000
287.141083	146.240000
287.234161	146.120000
287.327271	145.740000
287.420380	145.780000
287.513519	146.160000
287.606598	146.460000
287.699738	146.580000
287.792816	146.320000
287.885956	145.880000
287.979034	145.980000
288.072174	145.740000
288.165283	145.740000
288.258392	146.320000
288.351501	145.920000
288.444611	146.100000
288.537720	146.460000
288.630859	146.560000
288.723969	146.440000
288.817078	146.880000
288.910187	146.840000
289.003296	146.400000
289.096436	145.600000
289.189545	145.260000
289.282654	144.940000
289.375763	144.940000
289.468903	145.340000
289.562012	146.120000
289.655121	146.280000
289.748260	146.340000
289.841400	146.560000
289.934509	146.680000
290.027649	146.900000
290.120728	146.780000
290.213898	147.120000
290.306976	147.080000
290.400146	146.940000
290.493256	146.080000
290.586395	146.200000
290.679535	146.000000
290.772644	145.440000
290.865784	144.800000
290.958893	145.120000
291.052032	145.040000
291.145172	144.960000
291.238281	144.800000
291.331421	145.000000
291.424561	145.560000
291.517670	145.200000
291.610809	145.440000
291.703949	145.720000
291.797089	145.960000
291.890228	145.460000
291.983337	145.440000
292.076477	145.180000
292.169617	145.360000
292.262756	145.360000
292.355927	145.340000
292.449036	145.540000
292.542206	145.640000
292.635315	145.920000
292.728485	146.280000
292.821625	146.080000
292.914764	146.820000
293.007904	147.260000
293.101044	146.780000
293.194183	146.360000
293.287323	146.720000
293.380463	146.540000
293.473602	146.040000
293.566742	146.660000
293.659882	147.320000
293.753021	147.420000
293.846191	146.880000
293.939331	146.700000
294.032471	146.420000
294.125610	145.640000
294.218781	145.960000
294.311920	146.400000
294.405060	146.500000
294.498230	146.440000
294.591370	146.680000
294.684540	146.040000
294.777679	145.440000
294.870850	145.940000
294.963959	145.860000
295.057159	145.760000
295.150299	146.080000
295.243469	146.220000
295.336609	145.480000
295.429779	145.540000
295.522919	146.080000
295.616089	146.260000
295.709229	147.040000
295.802399	147.460000
295.895569	147.100000
295.988708	146.700000
296.081879	146.700000
296.175018	145.980000
296.268188	145.700000
296.361359	146.480000
296.454529	146.400000
296.547668	146.040000
296.640839	146.360000
296.734009	146.460000
296.827179	146.120000
296.920319	146.500000
297.013519	146.300000
297.106659	146.280000
297.199860	146.040000
297.292999	146.100000
297.386200	145.700000
297.479309	145.760000
297.572510	145.560000
297.665680	145.720000
297.758850	145.840000
297.852020	145.880000
297.945190	145.960000
298.038361	145.680000
298.131531	146.340000
298.224701	145.700000
298.317871	145.620000
298.411072	145.240000
298.504242	145.340000
298.597412	144.880000
298.690582	145.480000
298.783752	145.280000
298.876923	146.000000
298.970093	146.040000
299.063293	146.260000
299.156464	146.340000
299.249634	146.780000
299.342834	146.780000
299.436005	147.260000
299.529205	147.140000
299.622345	146.960000
299.715576	146.460000
299.808716	146.180000
299.901917	145.820000
299.995117	145.840000
300.088287	145.980000
300.181488	145.940000
300.274658	146.040000
300.367828	146.080000
300.461029	146.020000
300.554199	146.180000
300.647400	146.280000
300.740601	146.840000
300.833771	146.700000
300.926971	146.920000
301.020142	146.400000
301.113342	146.540000
301.206512	146.080000
301.299713	146.360000
301.392914	146.280000
301.486084	146.980000
301.579285	146.780000
301.672516	147.180000
301.765686	147.160000
301.858887	147.060000
301.952057	146.340000
302.045288	146.400000
302.138458	145.860000
302.231659	145.380000
302.324860	145.160000
302.418060	145.120000
302.511261	145.000000
302.604462	145.360000
302.697662	145.380000
302.790863	145.520000
302.884064	145.500000
302.977264	145.880000
303.070465	146.160000
303.163666	147.100000
303.256866	147.380000
303.350067	147.400000
303.443268	147.380000
303.536469	147.220000
303.629669	146.400000
303.722870	146.460000
303.816071	146.340000
303.909271	146.160000
304.002472	145.300000
304.095673	145.280000
304.188934	144.560000
304.282104	145.640000
304.375336	145.620000
304.468506	145.680000
304.561768	145.660000
304.654968	146.380000
304.748169	145.600000
304.841370	145.360000
304.934601	145.980000
305.027802	145.740000
305.121002	145.180000
305.214233	145.280000
305.307434	145.800000
305.400665	146.400000
305.493866	146.460000
305.587097	147.020000
305.680298	146.840000
305.773499	147.300000
305.866730	146.600000
305.959930	147.080000
306.053162	146.940000
306.146393	146.740000
306.239594	145.500000
306.332825	145.280000
306.426025	145.500000
306.519287	145.220000
306.612488	145.540000
306.705719	146.040000
306.798920	146.200000
306.892181	145.580000
306.985352	145.340000
307.078613	144.800000
307.171844	144.980000
307.265045	144.560000
307.358276	144.560000
307.451508	145.340000
307.544739	146.020000
307.637970	145.640000
307.731201	145.580000
307.824402	146.160000
307.917633	145.920000
308.010864	146.160000
308.104095	146.780000
308.197327	147.160000
308.290558	147.120000
308.383789	146.580000
308.477020	145.940000
308.570251	145.300000
308.663483	145.080000
308.756714	144.720000
308.849976	145.160000
308.943176	145.880000
309.036438	145.800000
309.129639	145.780000
309.222900	145.940000
309.316101	145.720000
309.409393	145.080000
309.502625	145.000000
309.595856	145.200000
309.689087	145.240000
309.782318	145.460000
309.875580	145.760000
309.968811	146.100000
310.062042	146.340000
310.155273	146.080000
310.248535	146.560000
310.341766	146.460000
310.434998	146.020000
310.528259	145.680000
310.621490	146.180000
310.714722	145.220000
310.807983	145.300000
310.901215	145.700000
310.994476	145.960000
311.087708	145.520000
311.181000	146.040000
311.274200	145.660000
311.367462	145.720000
311.460693	145.060000
311.553986	145.780000
311.647186	145.840000
311.740479	146.720000
311.833710	146.260000
311.926971	146.560000
312.020203	145.920000
312.113464	145.800000
312.206726	144.840000
312.299957	145.340000
312.393219	146.060000
312.486481	146.040000
312.579712	146.000000
312.672974	146.120000
312.766235	146.100000
312.859497	145.720000
312.952759	145.720000
313.045990	146.560000
313.139252	146.200000
313.232513	146.380000
313.325775	146.240000
313.419037	146.020000
313.512299	144.800000
313.605530	145.460000
313.698822	145.460000
313.792053	145.600000
313.885345	145.600000
313.978577	145.900000
314.071869	145.360000
314.165131	145.260000
314.258392	145.640000
314.351654	145.660000
314.444916	145.160000
314.538177	145.760000
314.631439	146.020000
314.724701	145.460000
314.817993	145.340000
314.911255	145.740000
315.004517	145.100000
315.097778	144.780000
315.191040	145.380000
315.284302	146.020000
315.377594	145.920000
315.470856	146.260000
315.564117	146.040000
315.657379	145.540000
315.750671	145.080000
315.843933	145.500000
315.937195	145.100000
316.030518	145.020000
316.123749	145.000000
316.217041	145.800000
316.310303	145.380000
316.403595	145.780000
316.496857	145.940000
316.590149	146.200000
316.683411	145.240000
316.776703	145.200000
316.869965	145.420000
316.963257	145.460000
317.056519	144.500000
317.149811	144.560000
317.243073	144.760000
317.336365	144.520000
317.429626	144.680000
317.522919	145.440000
317.616180	145.300000
317.709473	144.940000
317.802765	144.980000
317.896027	145.200000
317.989319	145.560000
318.082611	145.840000
318.175873	145.860000
318.269165	146.100000
318.362488	145.880000
318.455750	145.320000
318.549042	145.560000
318.642303	146.080000
318.735626	145.500000
318.828888	145.700000
318.922211	145.480000
319.015472	146.000000
319.108765	145.440000
319.202057	145.160000
319.295349	145.400000
319.388641	145.460000
319.481934	144.980000
319.575226	144.920000
319.668518	145.540000
319.761810	145.480000
319.855103	145.760000
319.948395	145.740000
320.041687	146.280000
320.134979	146.300000
320.228271	145.740000
320.321564	145.660000
320.414856	145.760000
320.508148	145.300000
320.601440	144.980000
320.694763	145.060000
320.788025	145.860000
320.881348	145.660000
320.974640	145.800000
321.067963	145.700000
321.161224	145.720000
321.254547	144.840000
321.347839	145.520000
321.441162	145.220000
321.534454	145.520000
321.627747	145.520000
321.721069	146.220000
321.814362	145.960000
321.907654	146.140000
322.000946	146.040000
322.094269	146.680000
322.187561	146.060000
322.280884	146.260000
322.374176	146.460000
322.467468	147.020000
322.560791	146.820000
322.654083	147.200000
322.747406	146.880000
322.840698	146.960000
322.934021	147.260000
323.027344	147.120000
323.120636	146.900000
323.213959	146.580000
323.307251	146.140000
323.400574	145.520000
323.493866	145.400000
323.587219	145.560000
323.680511	146.120000
323.773834	146.520000
323.867157	146.380000
323.960449	146.320000
324.053772	145.760000
324.147095	145.380000
324.240387	145.820000
324.333710	146.020000
324.427032	145.920000
324.520355	146.120000
324.613647	145.700000
324.706970	145.260000
324.800293	145.280000
324.893616	145.840000
324.986938	146.060000
325.080231	146.300000
325.173553	146.720000
325.266876	147.100000
325.360199	146.480000
325.453522	146.520000
325.546875	146.560000
325.640167	146.700000
325.733521	146.580000
325.826813	146.840000
325.920166	146.560000
326.013489	146.220000
326.106812	144.940000
326.200134	144.600000
326.293457	144.080000
326.386780	144.380000
326.480103	144.380000
326.573425	144.820000
326.666748	144.740000
326.760071	145.420000
326.853424	145.480000
326.946747	145.940000
327.040070	146.500000
327.133392	146.340000
327.226715	145.620000
327.320068	145.220000
327.413391	145.240000
327.506714	144.680000
327.600037	144.680000
327.693390	145.140000
327.786713	145.040000
327.880066	144.780000
327.973358	145.440000
328.066742	146.020000
328.160034	146.300000
328.253418	146.840000
328.346710	146.840000
328.440063	146.180000
328.533417	145.980000
328.626740	145.860000
328.720093	145.560000
328.813416	145.800000
328.906769	145.880000
329.000092	145.960000
329.093445	145.540000
329.186768	145.300000
329.280121	145.660000
329.373444	146.120000
329.466797	145.780000
329.560120	146.180000
329.653473	146.520000
329.746796	145.880000
329.840149	145.600000
329.933502	145.640000
330.026825	145.220000
330.120178	144.940000
330.213562	145.160000
330.306854	145.060000
330.400238	145.180000
330.493561	145.360000
330.586945	146.180000
330.680237	146.320000
330.773621	146.780000
330.866974	146.840000
330.960327	147.060000
331.053680	146.300000
331.147003	146.380000
331.240356	146.400000
331.333710	146.460000
331.427063	146.040000
331.520416	146.240000
331.613770	145.940000
331.707123	145.900000
331.800476	145.640000
331.893829	146.820000
331.987152	146.880000
332.080505	146.780000
332.173859	146.740000
332.267212	146.640000
332.360565	145.680000
332.453918	145.260000
332.547333	145.220000
332.640656	145.480000
332.734039	145.520000
332.827362	145.460000
332.920746	146.060000
333.014069	146.540000
333.107452	146.400000
333.200806	146.680000
333.294159	146.980000
333.387543	146.240000
333.480896	145.620000
333.574249	145.340000
333.667603	145.000000
333.760956	145.060000
333.854340	145.340000
333.947693	145.580000
334.041046	145.620000
334.134430	145.880000
334.227783	145.680000
334.321136	145.660000
334.414520	145.440000
334.507874	145.560000
334.601227	145.520000
334.694611	145.560000
334.787964	145.840000
334.881348	146.360000
334.974701	146.240000
335.068085	146.100000
335.161438	146.140000
335.254822	146.120000
335.348175	145.980000
335.441559	145.740000
335.534943	146.240000
335.628296	146.160000
335.721680	146.200000
335.815033	146.380000
335.908417	146.900000
336.001770	146.660000
336.095154	146.260000
336.188538	146.000000
336.281891	145.260000
336.375275	144.880000
336.468658	144.780000
336.562012	145.180000
336.655396	145.540000
336.748779	146.340000
336.842133	146.540000
336.935516	146.740000
337.028900	146.540000
337.122284	146.280000
337.215637	146.340000
337.309021	146.020000
337.402435	145.740000
337.495789	145.880000
337.589203	145.620000
337.682526	145.180000
337.775940	145.500000
337.869324	145.600000
337.962708	145.200000
338.056091	145.960000
338.149475	145.660000
338.242859	145.440000
338.336243	145.420000
338.429626	145.780000
338.523010	145.480000
338.616394	145.700000
338.709778	146.260000
338.803162	146.200000
338.896545	146.060000
338.989929	145.700000
339.083313	146.060000
339.176697	145.400000
339.270081	145.340000
339.363464	145.700000
339.456848	146.080000
339.550232	145.700000
339.643616	145.600000
339.737030	145.700000
339.830383	145.480000
339.923828	145.340000
340.017181	145.400000
340.110596	145.820000
340.203949	145.480000
340.297363	145.220000
340.390778	145.060000
340.484161	144.940000
340.577545	144.780000
340.670959	145.140000
340.764343	145.400000
340.857727	145.680000
340.951111	145.280000
341.044525	145.420000
341.137909	144.960000
341.231293	144.860000
341.324707	144.260000
341.418091	145.200000
341.511505	144.880000
341.604889	145.380000
341.698303	145.620000
341.791687	145.940000
341.885071	145.260000
341.978485	145.180000
342.071899	145.320000
342.165283	145.520000
342.258698	145.960000
342.352081	146.560000
342.445496	147.360000
342.538879	147.160000
342.632324	146.620000
342.725708	146.540000
342.819122	145.940000
342.912506	145.260000
343.005920	145.520000
343.099335	146.440000
343.192719	146.140000
343.286133	146.460000
343.379547	146.740000
343.472931	146.560000
343.566345	145.820000
343.659760	146.040000
343.753143	145.760000
343.846558	145.440000
343.939972	145.300000
344.033386	145.980000
344.126770	145.880000
344.220184	146.120000
344.313599	146.440000
344.407043	146.280000
344.500427	145.260000
344.593872	145.760000
344.687225	145.280000
344.780670	144.880000
344.874054	145.000000
344.967499	145.640000
345.060913	145.060000
345.154327	145.480000
345.247742	145.420000
345.341156	145.120000
345.434570	144.760000
345.527985	144.780000
345.621399	144.780000
345.714813	144.980000
345.808228	145.300000
345.901642	145.100000
345.995056	145.100000
346.088470	145.260000
346.181885	145.420000
346.275299	145.320000
346.368713	145.400000
346.462128	145.340000
346.555573	145.320000
346.648987	145.240000
346.742401	145.360000
346.835815	146.040000
346.929260	145.960000
347.022644	146.060000
347.116119	146.000000
347.209503	146.280000
347.302948	146.800000
347.396362	147.480000
347.489807	147.460000
347.583221	148.360000
347.676636	147.940000
347.770050	146.560000
347.863495	145.680000
347.956909	145.500000
348.050323	144.540000
348.143768	144.760000
348.237183	144.940000
348.330597	145.800000
348.424042	146.100000
348.517456	146.640000
348.610901	146.580000
348.704315	146.680000
348.797760	145.880000
348.891174	145.140000
348.984619	144.420000
349.078033	144.960000
349.171448	145.520000
349.264923	145.740000
349.358337	146.120000
349.451782	146.440000
349.545197	145.400000
349.638641	144.920000
349.732086	144.400000
349.825500	144.940000
349.918945	144.500000
350.012390	145.400000
350.105804	145.860000
350.199249	146.420000
350.292664	146.600000
350.386108	146.940000
350.479553	146.980000
350.572968	146.620000
350.666412	146.780000
350.759857	146.280000
350.853302	146.940000
350.946716	146.480000
351.040161	146.360000
351.133606	146.160000
351.227081	145.920000
351.320465	146.300000
351.413940	146.440000
351.507355	146.860000
351.600830	147.020000
351.694244	146.720000
351.787720	146.280000
351.881104	146.480000
351.974579	146.120000
352.067993	146.600000
352.161469	146.820000
352.254883	145.940000
352.348358	145.540000
352.441803	145.560000
352.535248	144.980000
352.628693	145.680000
352.722137	145.820000
352.815582	145.920000
352.909027	146.020000
353.002472	146.080000
353.095917	145.540000
353.189362	145.960000
353.282806	145.800000
353.376251	145.600000
353.469696	145.220000
353.563141	145.760000
353.656586	145.320000
353.750061	144.920000
353.843475	144.860000
353.936981	145.820000
354.030396	145.300000
354.123871	145.560000
354.217285	146.620000
354.310760	147.220000
354.404175	146.720000
354.497681	146.460000
354.591095	146.200000
354.684570	145.320000
354.777985	144.880000
354.871490	144.460000
354.964935	145.060000
355.058380	145.360000
355.151855	145.140000
355.245300	145.460000
355.338745	145.840000
355.432220	145.420000
355.525665	145.240000
355.619110	146.120000
355.712585	145.940000
355.806030	145.580000
355.899475	145.460000
355.992950	145.960000
356.086426	146.000000
356.179871	145.660000
356.273346	145.880000
356.366791	146.220000
356.460266	146.360000
356.553711	145.760000
356.647186	145.960000
356.740631	145.860000
356.834106	145.540000
356.927551	145.160000
357.021027	145.500000
357.114471	145.920000
357.207947	145.920000
357.301422	146.000000
357.394867	146.120000
357.488342	146.360000
357.581818	145.920000
357.675262	146.080000
357.768738	145.940000
357.862213	145.400000
357.955658	145.160000
358.049133	145.180000
358.142609	145.440000
358.236053	145.520000
358.329529	145.900000
358.423035	145.900000
358.516449	145.680000
358.609955	145.960000
358.703400	146.620000
358.796906	146.600000
358.890350	146.200000
358.983826	146.600000
359.077271	145.800000
359.170776	145.400000
359.264221	145.280000
359.357727	145.780000
359.451172	146.100000
359.544647	146.420000
359.638123	146.140000
359.731598	146.380000
359.825073	146.260000
359.918549	145.800000
360.012024	145.860000
360.105499	145.700000
360.198975	145.540000
360.292450	145.240000
360.385925	145.100000
360.479401	144.460000
360.572876	144.780000
360.666351	144.720000
360.759857	145.120000
360.853302	145.540000
360.946808	145.520000
361.040253	145.540000
361.133759	145.500000
361.227203	145.300000
361.320709	144.800000
361.414154	145.380000
361.507660	145.600000
361.601105	145.920000
361.694641	146.860000
361.788086	146.980000
361.881592	147.180000
361.975067	146.820000
362.068542	147.140000
362.162018	146.720000
362.255524	146.560000
362.348999	146.320000
362.442474	146.320000
362.535950	145.780000
362.629456	145.380000
362.722931	145.480000
362.816406	145.620000
362.909882	146.020000
363.003387	145.700000
363.096863	146.040000
363.190338	146.060000
363.283875	145.920000
363.377319	145.720000
363.470825	146.620000
363.564301	145.940000
363.657806	146.260000
363.751282	146.300000
363.844788	147.200000
363.938232	146.400000
364.031769	147.180000
364.125214	146.940000
364.218750	147.240000
364.312225	146.040000
364.405731	146.420000
364.499207	145.760000
364.592712	145.540000
364.686188	145.180000
364.779694	145.460000
364.873169	145.400000
364.966675	145.800000
365.060150	145.740000
365.153656	146.280000
365.247131	146.320000
365.340637	146.260000
365.434143	146.420000
365.527618	146.400000
365.621155	145.440000
365.714600	145.220000
365.808136	145.440000
365.901611	144.500000
365.995117	144.520000
366.088593	144.920000
366.182129	144.860000
366.275604	144.780000
366.369110	145.160000
366.462585	145.320000
366.556122	146.040000
366.649567	146.500000
366.743103	146.640000
366.836609	146.620000
366.930115	147.000000
367.023590	146.800000
367.117096	146.380000
367.210602	146.100000
367.304108	146.640000
367.397614	146.860000
367.491119	146.560000
367.584595	147.060000
367.678101	147.460000
367.771606	147.020000
367.865112	146.360000
367.958649	145.940000
368.052124	145.520000
368.145660	145.160000
368.239136	145.660000
368.332672	146.040000
368.426147	146.260000
368.519684	145.960000
368.613159	146.140000
368.706696	145.740000
368.800171	145.580000
368.893707	145.700000
368.987183	146.020000
369.080719	146.060000
369.174225	146.000000
369.267731	146.220000
369.361237	146.000000
369.454742	145.660000
369.548248	145.760000
369.641754	145.520000
369.735260	145.200000
369.828766	144.500000
369.922272	145.180000
370.015808	144.740000
370.109314	144.620000
370.202820	144.500000
370.296356	145.920000
370.389832	145.480000
370.483368	145.420000
370.576874	145.540000
370.670410	145.840000
370.763885	144.460000
370.857422	144.640000
370.950928	144.520000
371.044464	145.460000
371.137939	145.180000
371.231476	146.160000
371.324982	146.520000
371.418518	146.720000
371.512024	146.260000
371.605560	146.420000
371.699066	146.420000
371.792572	145.900000
371.886108	146.140000
371.979614	145.920000
372.073120	146.400000
372.166656	146.160000
372.260162	146.520000
372.353668	146.420000
372.447205	146.060000
372.540710	145.720000
372.634277	145.480000
372.727753	145.500000
372.821320	145.300000
372.914795	145.840000
373.008362	145.660000
373.101837	146.160000
373.195404	146.040000
373.288879	146.000000
373.382446	146.460000
373.475922	146.540000
373.569489	146.860000
373.662964	147.180000
373.756531	147.340000
373.850037	146.900000
373.943573	146.900000
374.037109	145.940000
374.130615	146.060000
374.224152	146.600000
374.317657	146.240000
374.411194	146.940000
374.504730	147.020000
374.598236	146.220000
374.691772	145.480000
374.785309	145.740000
374.878815	144.720000
374.972351	145.160000
375.065887	145.300000
375.159454	146.120000
375.252930	145.680000
375.346497	146.180000
375.440002	146.500000
375.533569	146.740000
375.627045	145.800000
375.720612	146.260000
375.814117	146.200000
375.907684	145.640000
376.001160	145.540000
376.094727	145.480000
376.188232	146.060000
376.281799	146.200000
376.375336	146.260000
376.468872	146.500000
376.562408	146.660000
376.655914	146.300000
376.749451	146.340000
376.842987	146.520000
376.936523	146.300000
377.030060	146.980000
377.123596	146.900000
377.217133	146.180000
377.310669	146.020000
377.404205	146.260000
377.497772	146.020000
377.591278	145.860000
377.684845	146.740000
377.778351	146.920000
377.871918	146.800000
377.965424	146.320000
378.058990	146.180000
378.152496	145.780000
378.246063	145.860000
378.339569	146.020000
378.433136	146.140000
378.526642	146.440000
378.620209	146.540000
378.713745	146.280000
378.807312	146.560000
378.900848	146.560000
378.994385	146.380000
379.087921	145.680000
379.181458	145.880000
379.274994	144.820000
379.368530	144.680000
379.462097	145.060000
379.555634	145.720000
379.649170	145.220000
379.742706	145.460000
379.836273	145.920000
379.929810	145.460000
380.023376	145.080000
380.116882	145.260000
380.210449	145.340000
380.303986	144.800000
380.397552	144.680000
380.491058	144.880000
380.584656	144.740000
380.678162	145.000000
380.771729	145.260000
380.865265	146.000000
380.958832	146.300000
381.052368	146.580000
381.145935	146.860000
381.239471	147.100000
381.333008	146.280000
381.426575	146.000000
381.520111	146.420000
381.613647	146.380000
381.707214	146.020000
381.800751	145.860000
381.894318	145.840000
381.987854	145.220000
382.081421	145.100000
382.174988	145.300000
382.268524	145.360000
382.362091	145.300000
382.455627	145.960000
382.549194	145.380000
382.642731	144.580000
382.736298	144.660000
382.829834	144.600000
382.923401	144.860000
383.016937	145.680000
383.110504	146.480000
383.204041	146.620000
383.297607	146.820000
383.391174	145.720000
383.484741	145.900000
383.578278	145.520000
383.671844	145.400000
383.765411	145.180000
383.858948	145.860000
383.952515	145.140000
384.046051	145.580000
384.139618	145.960000
384.233185	146.160000
384.326721	145.960000
384.420288	146.760000
384.513855	146.540000
384.607422	146.500000
384.700989	146.480000
384.794525	145.720000
384.888123	145.340000
384.981659	145.540000
385.075226	145.080000
385.168762	145.060000
385.262360	145.580000
385.355896	144.860000
385.449463	144.680000
385.542999	145.060000
385.636597	145.640000
385.730164	145.740000
385.823730	145.840000
385.917267	145.520000
386.010834	145.640000
386.104401	145.300000
386.197968	145.720000
386.291534	145.980000
386.385101	146.340000
386.478668	146.460000
386.572235	146.200000
386.665802	145.680000
386.759338	145.480000
386.852905	145.420000
386.946472	145.020000
387.040070	145.520000
387.133606	145.940000
387.227203	145.940000
387.320740	146.020000
387.414337	146.040000
387.507874	145.740000
387.601471	145.460000
387.695007	145.520000
387.788605	145.240000
387.882141	145.320000
387.975739	145.300000
388.069275	145.400000
388.162872	145.640000
388.256439	145.760000
388.350037	145.780000
388.443604	145.880000
388.537170	145.800000
388.630737	146.200000
388.724304	146.200000
388.817871	145.720000
388.911438	145.660000
389.005005	145.920000
389.098602	146.160000
389.192169	146.040000
389.285736	146.820000
389.379333	146.680000
389.472870	146.120000
389.566467	145.500000
389.660034	145.620000
389.753632	144.920000
389.847168	145.140000
389.940765	145.820000
390.034332	146.280000
390.127930	145.960000
390.221466	145.980000
390.315063	145.420000
390.408630	144.600000
390.502228	143.640000
390.595795	143.880000
390.689362	144.280000
390.782959	144.900000
390.876526	145.460000
390.970093	145.700000
391.063690	146.480000
391.157257	146.600000
391.250824	146.920000
391.344421	146.720000
391.437988	147.000000
391.531555	146.620000
391.625153	146.760000
391.718750	146.520000
391.812317	146.320000
391.905914	146.280000
391.999481	146.240000
392.093079	146.160000
392.186615	146.420000
392.280243	146.640000
392.373779	146.520000
392.467407	146.960000
392.560944	146.920000
392.654572	146.220000
392.748108	146.200000
392.841736	146.400000
392.935303	145.880000
393.028900	145.840000
393.122467	146.220000
393.216064	145.800000
393.309631	145.220000
393.403229	144.760000
393.496796	144.380000
393.590393	143.580000
393.683990	144.000000
393.777557	144.680000
393.871155	145.220000
393.964722	145.920000
394.058350	146.440000
394.151917	146.460000
394.245514	146.080000
394.339081	146.040000
394.432678	146.120000
394.526245	146.260000
394.619873	145.880000
394.713409	146.060000
394.807037	145.820000
394.900604	145.600000
394.994202	145.460000
395.087769	145.840000
395.181396	145.700000
395.274994	146.740000
395.368561	146.080000
395.462158	146.300000
395.555756	146.020000
395.649353	146.340000
395.742920	145.480000
395.836517	146.180000
395.930115	145.560000
396.023712	145.860000
396.117279	146.040000
396.210876	145.700000
396.304474	145.700000
396.398071	146.020000
396.491669	145.940000
396.585266	145.300000
396.678833	145.460000
396.772461	145.240000
396.866028	145.320000
396.959656	145.580000
397.053223	146.140000
397.146851	146.360000
397.240417	146.920000
397.334015	148.000000
397.427582	148.640000
397.521210	150.040000
397.614807	152.040000
397.708405	153.880000
397.802002	156.200000
397.895599	160.260000
397.989197	164.520000
398.082794	170.240000
398.176392	178.120000
398.269989	186.880000
398.363586	197.400000
398.457184	209.780000
398.550781	223.940000
398.644379	238.000000
398.737976	254.360000
398.831573	271.520000
398.925201	288.660000
399.018768	304.960000
399.112396	322.420000
399.205963	339.300000
399.299591	356.040000
399.393158	373.460000
399.486786	392.520000
399.580353	411.060000
399.673981	428.980000
399.767578	446.600000
399.861206	462.320000
399.954773	474.800000
400.048401	482.660000
400.141998	486.080000
400.235596	484.840000
400.329193	479.120000
400.422791	469.940000
400.516418	459.260000
400.610016	448.260000
400.703613	436.460000
400.797211	423.760000
400.890808	408.860000
400.984436	393.860000
401.078033	375.980000
401.171631	356.380000
401.265259	334.500000
401.358826	313.680000
401.452484	291.120000
401.546051	269.800000
401.639679	248.600000
401.733246	230.860000
401.826904	213.920000
401.920471	199.580000
402.014099	187.400000
402.107697	177.900000
402.201324	169.780000
402.294891	164.040000
402.388550	159.720000
402.482147	156.660000
402.575745	153.660000
402.669373	151.220000
402.762970	149.660000
402.856567	148.540000
402.950195	148.060000
403.043793	147.580000
403.137390	148.360000
403.231018	147.360000
403.324615	147.760000
403.418243	147.020000
403.511841	147.480000
403.605469	146.660000
403.699066	147.480000
403.792694	146.920000
403.886292	147.060000
403.979919	146.760000
404.073517	146.540000
404.167145	146.400000
404.260712	146.660000
404.354370	146.360000
404.447937	146.480000
404.541595	146.860000
404.635162	147.060000
404.728821	147.360000
404.822418	147.100000
404.916046	146.760000
405.009644	146.720000
405.103271	146.880000
405.196899	146.340000
405.290497	146.700000
405.384125	147.080000
405.477722	146.760000
405.571350	145.980000
405.664948	146.340000
405.758575	145.900000
405.852203	145.080000
405.945801	145.240000
406.039429	145.280000
406.133057	144.440000
406.226654	144.560000
406.320312	144.880000
406.413879	145.080000
406.507538	145.400000
406.601135	145.420000
406.694763	145.860000
406.788361	145.740000
406.882019	145.060000
406.975586	145.180000
407.069244	145.760000
407.162872	145.520000
407.256470	145.360000
407.350098	145.640000
407.443726	145.320000
407.537323	145.180000
407.630951	145.320000
407.724579	145.220000
407.818207	145.760000
407.911804	145.640000
408.005432	145.540000
408.099060	145.840000
408.192688	146.600000
408.286285	146.140000
408.379913	146.160000
408.473572	146.120000
408.567169	145.360000
408.660828	145.340000
408.754395	145.220000
408.848053	145.120000
408.941650	145.300000
409.035309	145.020000
409.128906	144.800000
409.222565	144.980000
409.316132	145.580000
409.409790	145.240000
409.503387	145.800000
409.597046	145.820000
409.690674	145.940000
409.784302	145.580000
409.877930	145.660000
409.971558	145.680000
410.065186	145.660000
410.158783	145.400000
410.252411	145.340000
410.346039	145.540000
410.439667	145.720000
410.533295	145.740000
410.626923	146.120000
410.720551	146.000000
410.814209	146.500000
410.907806	146.720000
411.001465	146.420000
411.095062	146.660000
411.188721	147.100000
411.282318	146.360000
411.375977	145.720000
411.469574	146.160000
411.563232	145.440000
411.656830	144.860000
411.750488	145.260000
411.844086	145.260000
411.937744	145.140000
412.031372	145.500000
412.125000	145.740000
412.218628	145.660000
412.312256	146.480000
412.405884	147.000000
412.499512	146.740000
412.593170	147.060000
412.686798	146.980000
412.780426	146.040000
412.874054	145.760000
412.967682	146.020000
413.061310	146.400000
413.154968	146.740000
413.248566	147.200000
413.342224	146.920000
413.435852	146.480000
413.529510	145.860000
413.623108	145.020000
413.716766	144.760000
413.810364	145.200000
413.904022	145.300000
413.997650	144.940000
414.091309	145.840000
414.184906	145.960000
414.278564	145.440000
414.372192	145.960000
414.465851	146.660000
414.559479	146.280000
414.653107	147.140000
414.746735	147.260000
414.840393	147.220000
414.934021	147.220000
415.027649	146.760000
415.121277	146.080000
415.214935	146.500000
415.308563	146.360000
415.402191	145.700000
415.495850	145.760000
415.589478	145.800000
415.683136	145.400000
415.776733	145.380000
415.870422	146.100000
415.964020	145.860000
416.057678	145.740000
416.151306	145.700000
416.244965	145.860000
416.338562	145.540000
416.432251	146.400000
416.525848	147.060000
416.619507	147.300000
416.713165	147.400000
416.806793	147.380000
416.900421	147.560000
416.994080	146.820000
417.087708	146.500000
417.181366	146.260000
417.274994	146.140000
417.368622	145.860000
417.462280	146.300000
417.555908	146.620000
417.649567	146.640000
417.743195	146.740000
417.836853	146.620000
417.930481	146.680000
418.024170	146.540000
418.117767	146.620000
418.211426	147.000000
418.305054	147.240000
418.398712	146.820000
418.492340	146.880000
418.585999	147.380000
418.679626	147.240000
418.773285	147.260000
418.866913	147.400000
418.960571	147.480000
419.054230	146.940000
419.147858	146.880000
419.241516	146.780000
419.335144	146.440000
419.428802	146.300000
419.522461	146.280000
419.616089	145.940000
419.709747	146.120000
419.803375	146.660000
419.897034	146.240000
419.990662	146.160000
420.084320	146.700000
420.177979	146.680000
420.271606	146.520000
420.365295	147.420000
420.458893	147.700000
420.552582	147.740000
420.646210	147.780000
420.739868	147.560000
420.833496	147.060000
420.927155	146.760000
421.020782	146.320000
421.114471	145.600000
421.208069	145.380000
421.301758	145.480000
421.395386	145.640000
421.489044	145.800000
421.582703	146.180000
421.676361	146.780000
421.769989	146.460000
421.863647	146.700000
421.957306	146.480000
422.050934	146.560000
422.144592	146.480000
422.238251	146.540000
422.331909	145.900000
422.425537	146.000000
422.519196	145.720000
422.612854	145.380000
422.706543	144.960000
422.800140	145.360000
422.893829	144.880000
422.987457	144.920000
423.081146	144.760000
423.174744	145.660000
423.268433	145.080000
423.362061	145.160000
423.455750	144.880000
423.549347	144.880000
423.643036	143.880000
423.736664	144.800000
423.830353	145.060000
423.924011	145.820000
424.017639	145.940000
424.111298	146.240000
424.204956	145.760000
424.298615	145.920000
424.392273	145.380000
424.485931	145.320000
424.579559	145.420000
424.673218	145.580000
424.766876	145.460000
424.860535	145.460000
424.954193	145.340000
425.047882	145.880000
425.141510	145.760000
425.235199	145.560000
425.328796	145.360000
425.422485	145.320000
425.516113	144.560000
425.609802	144.500000
425.703430	144.780000
425.797119	144.960000
425.890747	145.220000
425.984436	145.620000
426.078064	145.780000
426.171753	145.960000
426.265411	145.900000
426.359070	146.000000
426.452728	145.780000
426.546356	145.660000
426.640015	145.220000
426.733673	145.260000
426.827332	144.700000
426.920990	145.360000
427.014648	145.140000
427.108307	145.520000
427.201965	146.080000
427.295624	146.500000
427.389282	145.620000
427.482941	145.940000
427.576630	145.780000
427.670258	144.680000
427.763947	144.500000
427.857574	144.780000
427.951263	144.640000
428.044922	144.520000
428.138611	145.020000
428.232239	145.780000
428.325928	146.180000
428.419556	146.660000
428.513245	146.500000
428.606903	146.500000
428.700562	145.620000
428.794220	145.160000
428.887878	144.400000
428.981537	144.520000
429.075195	144.800000
429.168854	145.120000
429.262512	145.420000
429.356201	145.660000
429.449860	145.520000
429.543518	145.400000
429.637177	145.840000
429.730835	145.620000
429.824493	145.700000
429.918182	146.300000
430.011810	145.800000
430.105530	144.980000
430.199158	145.060000
430.292847	144.780000
430.386475	144.340000
430.480164	144.620000
430.573792	144.480000
430.667511	144.380000
430.761139	144.380000
430.854828	144.680000
430.948456	144.840000
431.042145	145.380000
431.135834	145.300000
431.229492	145.640000
431.323151	145.580000
431.416809	145.460000
431.510468	145.640000
431.604156	145.520000
431.697815	145.580000
431.791473	145.220000
431.885132	144.560000
431.978821	145.040000
432.072479	145.500000
432.166138	145.560000
432.259827	145.340000
432.353485	146.060000
432.447174	145.940000
432.540802	145.600000
432.634491	145.620000
432.728149	146.060000
432.821838	146.320000
432.915466	145.680000
433.009186	145.720000
433.102814	145.140000
433.196503	144.900000
433.290131	144.780000
433.383850	145.100000
433.477509	145.200000
433.571167	146.160000
433.664856	146.600000
433.758514	147.020000
433.852173	146.740000
433.945862	146.680000
434.039520	146.420000
434.133179	146.140000
434.226868	145.560000
434.320526	144.880000
434.414185	145.360000
434.507874	144.880000
434.601562	145.040000
434.695221	144.920000
434.788910	145.860000
434.882538	145.800000
434.976257	145.660000
435.069885	145.600000
435.163574	145.960000
435.257233	145.660000
435.350922	145.440000
435.444580	145.160000
435.538269	144.680000
435.631897	144.820000
435.725616	145.500000
435.819275	145.760000
435.912964	146.480000
436.006622	147.280000
436.100311	147.300000
436.193970	146.300000
436.287628	145.940000
436.381317	145.580000
436.474976	145.020000
436.568665	144.440000
436.662323	144.800000
436.756012	144.940000
436.849670	144.860000
436.943390	144.880000
437.037018	144.900000
437.130737	144.740000
437.224365	144.440000
437.318085	144.680000
437.411713	145.140000
437.505432	145.480000
437.599060	146.080000
437.692780	147.100000
437.786407	146.980000
437.880127	146.640000
437.973755	146.620000
438.067474	146.100000
438.161133	145.400000
438.254822	145.920000
438.348480	145.900000
438.442169	146.500000
438.535828	146.980000
438.629517	146.600000
438.723175	146.120000
438.816864	146.820000
438.910553	146.140000
439.004211	145.900000
439.097900	145.880000
439.191559	145.900000
439.285248	145.340000
439.378906	145.540000
439.472626	145.160000
439.566284	145.340000
439.659973	145.620000
439.753632	145.260000
439.847321	145.680000
439.940979	146.100000
440.034698	146.220000
440.128326	145.640000
440.222046	145.760000
440.315674	144.580000
440.409393	144.560000
440.503082	144.420000
440.596741	145.000000
440.690430	145.220000
440.784088	145.580000
440.877777	145.040000
440.971466	145.240000
441.065125	144.740000
441.158813	144.500000
441.252502	144.900000
441.346161	145.360000
441.439850	145.560000
441.533539	145.280000
441.627197	145.680000
441.720886	145.260000
441.814606	145.780000
441.908234	146.180000
442.001953	146.500000
442.095612	146.460000
442.189301	146.700000
442.282959	146.320000
442.376678	145.240000
442.470306	146.060000
442.564026	145.900000
442.657684	145.840000
442.751404	145.740000
442.845032	146.820000
442.938751	146.120000
443.032440	146.220000
443.126099	146.240000
443.219788	146.540000
443.313477	145.980000
443.407166	146.380000
443.500824	146.240000
443.594513	146.620000
443.688202	146.260000
443.781891	145.780000
443.875549	145.320000
443.969238	145.540000
444.062927	145.400000
444.156647	145.820000
444.250275	146.340000
444.343994	146.520000
444.437653	146.740000
444.531372	146.760000
444.625031	146.320000
444.718719	146.140000
444.812378	146.260000
444.906097	145.700000
444.999756	145.140000
445.093445	145.260000
445.187103	145.260000
445.280823	145.840000
445.374512	145.520000
445.468201	145.860000
445.561859	145.680000
445.655548	145.720000
445.749237	144.720000
445.842926	144.940000
445.936615	145.280000
446.030304	145.220000
446.123962	145.480000
446.217651	145.540000
446.311340	145.740000
446.405029	145.200000
446.498749	145.100000
446.592407	144.480000
446.686096	144.820000
446.779755	145.020000
446.873474	145.200000
446.967133	145.380000
447.060852	145.400000
447.154510	145.240000
447.248230	145.080000
447.341858	145.200000
447.435577	144.960000
447.529236	145.020000
447.622955	144.860000
447.716644	144.700000
447.810333	144.740000
447.904022	145.320000
447.997711	145.280000
448.091400	145.720000
448.185059	145.860000
448.278748	145.840000
448.372437	145.300000
448.466125	145.760000
448.559814	145.440000
448.653503	145.940000
448.747192	146.200000
448.840912	146.700000
448.934570	146.560000
449.028290	146.940000
449.121948	146.320000
449.215637	145.700000
449.309296	145.420000
449.403015	145.180000
449.496674	145.040000
449.590393	145.140000
449.684052	145.120000
449.777771	145.780000
449.871429	145.460000
449.965149	145.120000
450.058838	145.340000
450.152527	145.960000
450.246216	145.600000
450.339905	145.900000
450.433594	145.860000
450.527283	146.420000
450.620972	145.840000
450.714661	145.580000
450.808350	145.720000
450.902039	146.160000
450.995728	145.580000
451.089417	145.640000
451.183105	145.980000
451.276794	146.460000
451.370514	145.800000
451.464172	145.040000
451.557892	145.140000
451.651550	144.960000
451.745270	144.300000
451.838928	144.380000
451.932648	145.200000
452.026306	145.760000
452.120026	145.540000
452.213684	145.980000
452.307404	145.920000
452.401062	145.920000
452.494781	145.740000
452.588470	145.960000
452.682159	145.620000
452.775848	146.280000
452.869537	145.600000
452.963226	145.060000
453.056915	144.760000
453.150604	144.940000
453.244293	144.900000
453.337982	145.800000
453.431671	146.240000
453.525360	146.860000
453.619049	146.720000
453.712769	146.520000
453.806427	145.880000
453.900146	145.460000
453.993805	145.180000
454.087555	145.940000
454.181213	145.960000
454.274933	145.960000
454.368591	146.260000
454.462311	145.960000
454.555969	145.040000
454.649689	145.940000
454.743347	145.560000
454.837067	146.060000
454.930756	146.760000
455.024445	147.220000
455.118134	146.340000
455.211853	147.020000
455.305542	146.380000
455.399231	146.200000
455.492920	146.100000
455.586609	146.300000
455.680298	146.560000
455.773987	146.360000
455.867676	146.020000
455.961365	146.140000
456.055084	145.940000
456.148773	145.120000
456.242493	145.300000
456.336151	145.500000
456.429871	145.480000
456.523529	146.100000
456.617249	146.060000
456.710907	146.600000
456.804626	146.160000
456.898315	145.680000
456.992035	144.760000
457.085693	145.020000
457.179413	144.180000
457.273102	145.200000
457.366791	145.360000
457.460480	146.000000
457.554199	146.500000
457.647888	146.760000
457.741577	146.060000
457.835266	146.320000
457.928955	146.140000
458.022644	146.140000
458.116364	146.460000
458.210052	146.540000
458.303741	146.420000
458.397461	145.700000
458.491119	145.040000
458.584839	144.960000
458.678528	144.400000
458.772247	144.080000
458.865906	144.900000
458.959625	145.580000
459.053284	145.300000
459.147003	145.460000
459.240692	146.160000
459.334412	145.900000
459.428070	145.580000
459.521790	145.800000
459.615479	145.980000
459.709198	146.440000
459.802887	146.280000
459.896576	146.100000
459.990265	145.900000
460.083954	146.000000
460.177673	145.160000
460.271362	145.500000
460.365051	145.580000
460.458740	145.620000
460.552429	145.040000
460.646149	145.120000
460.739838	144.740000
460.833527	145.240000
460.927246	144.940000
461.020905	145.160000
461.114655	145.060000
461.208313	145.240000
461.302032	144.340000
461.395691	144.680000
461.489441	144.940000
461.583099	144.900000
461.676819	144.820000
461.770477	145.560000
461.864197	145.460000
461.957916	145.220000
462.051605	144.980000
462.145294	145.860000
462.238983	145.440000
462.332703	146.260000
462.426392	146.760000
462.520081	146.820000
462.613770	145.900000
462.707489	146.480000
462.801178	145.740000
462.894867	145.560000
462.988556	145.780000
463.082275	145.980000
463.175964	145.140000
463.269684	145.480000
463.363342	145.400000
463.457092	145.020000
463.550751	145.540000
463.644470	146.180000
463.738129	145.840000
463.831879	146.180000
463.925537	147.040000
464.019257	146.400000
464.112946	145.980000
464.206665	146.100000
464.300323	146.040000
464.394043	145.520000
464.487762	145.740000
464.581451	146.120000
464.675140	146.100000
464.768829	146.140000
464.862549	146.240000
464.956238	146.180000
465.049927	146.580000
465.143646	146.440000
465.237335	146.080000
465.331024	146.500000
465.424713	146.380000
465.518433	145.640000
465.612152	145.680000
465.705811	145.880000
465.799561	145.260000
465.893219	145.180000
465.986938	145.340000
466.080597	144.900000
466.174347	145.300000
466.268005	145.680000
466.361725	145.740000
466.455414	145.860000
466.549133	146.080000
466.642792	145.760000
466.736542	145.120000
466.830231	144.980000
466.923920	144.820000
467.017609	144.960000
467.111328	144.380000
467.205017	144.520000
467.298706	145.040000
467.392426	145.080000
467.486115	145.580000
467.579803	145.880000
467.673523	146.620000
467.767212	146.380000
467.860901	146.600000
467.954651	146.600000
468.048309	146.940000
468.142029	146.640000
468.235718	146.520000
468.329437	145.820000
468.423096	145.580000
468.516846	145.440000
468.610504	145.180000
468.704224	145.040000
468.797913	145.420000
468.891632	145.440000
468.985291	145.160000
469.079010	145.380000
469.172729	145.000000
469.266418	145.360000
469.360107	145.200000
469.453827	145.220000
469.547516	145.520000
469.641205	146.480000
469.734924	146.540000
469.828613	147.120000
469.922302	147.340000
470.016022	146.760000
470.109711	146.200000
470.203430	145.660000
470.297150	144.700000
470.390808	144.680000
470.484558	144.700000
470.578217	145.240000
470.671936	145.920000
470.765625	146.760000
470.859344	146.520000
470.953003	147.120000
471.046753	146.640000
471.140411	145.820000
471.234131	145.620000
471.327820	146.320000
471.421539	146.040000
471.515228	145.940000
471.608948	146.300000
471.702637	145.980000
471.796326	145.300000
471.890045	145.240000
471.983734	145.680000
472.077423	145.660000
472.171143	145.940000
472.264832	145.940000
472.358521	145.960000
472.452240	145.460000
472.545929	145.980000
472.639648	146.060000
472.733337	146.780000
472.827057	146.800000
472.920746	146.820000
473.014465	146.760000
473.108124	146.900000
473.201874	146.920000
473.295532	146.560000
473.389252	147.240000
473.482941	146.960000
473.576660	146.120000
473.670319	145.500000
473.764069	145.880000
473.857727	145.940000
473.951477	146.260000
474.045166	147.180000
474.138855	147.180000
474.232574	147.160000
474.326263	146.880000
474.419952	146.760000
474.513672	146.660000
474.607361	146.740000
474.701050	147.080000
474.794769	147.260000
474.888458	147.660000
474.982178	147.660000
475.075867	147.560000
475.169586	147.120000
475.263275	146.540000
475.356995	146.060000
475.450653	145.780000
475.544403	145.540000
475.638062	146.200000
475.731812	146.180000
475.825470	146.020000
475.919189	145.940000
476.012878	146.220000
476.106598	145.320000
476.200256	145.620000
476.294006	145.500000
476.387695	145.580000
476.481384	145.300000
476.575104	145.740000
476.668793	145.540000
476.762512	145.400000
476.856201	145.840000
476.949890	145.740000
477.043610	145.160000
477.137299	145.500000
477.230988	145.700000
477.324707	145.240000
477.418396	145.740000
477.512146	146.240000
477.605804	145.780000
477.699524	146.320000
477.793213	146.140000
477.886932	146.000000
477.980591	145.680000
478.074341	145.620000
478.167999	144.740000
478.261749	145.020000
478.355408	145.040000
478.449127	145.280000
478.542816	146.100000
478.636536	146.680000
478.730225	146.500000
478.823944	146.560000
478.917633	146.280000
479.011322	146.280000
479.105042	146.480000
479.198730	146.940000
479.292450	146.680000
479.386139	147.140000
479.479828	146.700000
479.573547	146.660000
479.667267	146.140000
479.760925	146.260000
479.854675	146.160000
479.948334	146.320000
480.042084	145.840000
480.135742	146.280000
480.229462	146.060000
480.323151	145.840000
480.416870	145.100000
480.510529	145.260000
480.604279	144.680000
480.697937	145.140000
480.791656	144.800000
480.885345	145.100000
480.979065	144.940000
481.072754	145.280000
481.166473	145.460000
481.260132	145.720000
481.353882	145.680000
481.447540	145.680000
481.541260	145.740000
481.635010	145.100000
481.728668	145.020000
481.822388	144.940000
481.916077	145.280000
482.009796	145.100000
482.103485	145.620000
482.197205	145.860000
482.290863	145.980000
482.384613	145.640000
482.478271	145.640000
482.571991	145.380000
482.665680	145.380000
482.759399	146.100000
482.853058	146.680000
482.946808	146.640000
483.040466	146.760000
483.134216	146.640000
483.227875	146.260000
483.321594	146.460000
483.415283	146.400000
483.509003	146.300000
483.602661	146.040000
483.696411	146.160000
483.790070	145.820000
483.883789	145.980000
483.977478	146.200000
484.071198	146.200000
484.164917	145.540000
484.258606	145.000000
484.352325	145.200000
484.445984	145.200000
484.539734	145.220000
484.633392	145.320000
484.727142	145.820000
484.820801	145.400000
484.914520	145.160000
485.008209	145.460000
485.101929	145.940000
485.195587	145.440000
485.289337	145.640000
485.382996	145.860000
485.476715	146.160000
485.570404	146.240000
485.664124	146.360000
485.757782	147.060000
485.851532	146.700000
485.945190	146.180000
486.038910	146.100000
486.132599	146.540000
486.226318	145.380000
486.319977	145.380000
486.413727	146.020000
486.507446	145.480000
486.601105	144.780000
486.694855	145.120000
486.788513	145.020000
486.882233	144.860000
486.975922	145.220000
487.069641	145.520000
487.163300	145.440000
487.257050	146.640000
487.350708	146.200000
487.444427	145.880000
487.538116	145.680000
487.631836	145.480000
487.725494	144.540000
487.819214	144.960000
487.912903	145.080000
488.006622	145.620000
488.100281	146.140000
488.194031	146.360000
488.287689	146.380000
488.381409	147.040000
488.475098	146.760000
488.568817	146.940000
488.662476	146.560000
488.756226	145.980000
488.849945	145.080000
488.943604	145.140000
489.037354	144.720000
489.131012	144.780000
489.224731	144.600000
489.318390	144.940000
489.412140	144.760000
489.505798	144.600000
489.599518	144.320000
489.693207	145.180000
489.786926	144.740000
489.880585	144.960000
489.974335	145.700000
490.067993	146.880000
490.161713	146.800000
490.255371	147.980000
490.349121	147.720000
490.442780	147.140000
490.536499	146.200000
490.630188	146.100000
490.723907	145.280000
490.817566	145.520000
490.911285	145.860000
491.004974	146.000000
491.098694	145.260000
491.192413	146.020000
491.286102	145.700000
491.379822	145.800000
491.473480	146.080000
491.567200	146.420000
491.660889	145.320000
491.754608	145.420000
491.848267	145.100000
491.941986	144.860000
492.035675	145.040000
492.129395	145.640000
492.223053	145.460000
492.316772	145.700000
492.410461	145.460000
492.504181	145.480000
492.597839	145.380000
492.691559	145.660000
492.785248	145.720000
492.878967	146.080000
492.972626	145.640000
493.066345	145.840000
493.160034	145.440000
493.253754	145.260000
493.347412	144.860000
493.441132	145.440000
493.534882	145.400000
493.628540	146.000000
493.722260	145.800000
493.815918	146.080000
493.909668	146.520000
494.003326	146.740000
494.097046	146.520000
494.190704	146.580000
494.284454	146.600000
494.378113	146.040000
494.471832	145.580000
494.565491	145.520000
494.659210	145.300000
494.752899	145.160000
494.846619	145.160000
494.940277	145.580000
495.033997	145.540000
495.127686	145.440000
495.221405	145.320000
495.315063	145.320000
495.408783	145.040000
495.502441	145.180000
495.596191	145.580000
495.689850	145.420000
495.783569	145.680000
495.877228	145.860000
495.970947	145.560000
496.064697	145.340000
496.158356	146.200000
496.252075	145.980000
496.345734	145.400000
496.439453	146.380000
496.533142	146.440000
496.626862	146.580000
496.720520	146.740000
496.814240	147.100000
496.907898	146.640000
497.001617	146.880000
497.095306	145.960000
497.189026	145.760000
497.282684	145.940000
497.376404	145.740000
497.470062	145.400000
497.563782	145.740000
497.657471	145.720000
497.751190	145.300000
497.844849	145.000000
497.938568	145.360000
498.032227	145.160000
498.125946	145.360000
498.219635	145.380000
498.313354	145.800000
498.407074	145.580000
498.500732	146.020000
498.594452	146.040000
498.688110	145.880000
498.781830	145.660000
498.875519	145.480000
498.969238	145.000000
499.062897	144.740000
499.156616	145.480000
499.250275	145.660000
499.343994	145.380000
499.437653	145.660000
499.531372	145.660000
499.625061	145.920000
499.718781	146.100000
499.812439	146.420000
499.906158	146.220000
499.999817	146.240000
500.093536	145.520000
500.187195	145.320000
500.280914	145.400000
500.374573	145.560000
500.468323	145.300000
500.561981	145.480000
500.655701	145.220000
500.749420	145.280000
500.843079	145.760000
500.936798	146.180000
501.030457	146.540000
501.124176	146.820000
501.217834	147.020000
501.311554	146.660000
501.405212	146.320000
501.498962	145.600000
501.592621	145.400000
501.686340	145.540000
501.779999	145.420000
501.873718	145.740000
501.967377	146.320000
502.061096	146.520000
502.154755	145.860000
502.248474	145.960000
502.342133	145.960000
502.435852	145.280000
502.529510	145.760000
502.623230	146.460000
502.716888	145.780000
502.810608	145.700000
502.904266	146.560000
502.997986	145.960000
503.091705	145.160000
503.185364	145.340000
503.279083	145.260000
503.372772	144.940000
503.466492	144.860000
503.560150	145.140000
503.653870	145.580000
503.747528	145.340000
503.841248	145.280000
503.934906	145.440000
504.028625	145.160000
504.122284	145.340000
504.216003	146.080000
504.309662	145.540000
504.403381	145.660000
504.497040	145.960000
504.590759	145.340000
504.684418	145.380000
504.778137	146.220000
504.871796	146.340000
504.965515	145.980000
505.059174	146.440000
505.152893	145.700000
505.246521	145.200000
505.340240	145.140000
505.433899	145.580000
505.527618	145.480000
505.621338	145.920000
505.714996	145.700000
505.808716	145.340000
505.902374	145.880000
505.996094	145.960000
506.089752	145.800000
506.183472	146.060000
506.277130	146.220000
506.370850	145.840000
506.464508	145.460000
506.558228	145.620000
506.651886	145.320000
506.745605	145.420000
506.839264	145.460000
506.932983	145.820000
507.026611	145.600000
507.120331	146.260000
507.213989	145.760000
507.307709	145.420000
507.401367	145.720000
507.495087	146.360000
507.588745	145.840000
507.682465	146.860000
507.776123	146.840000
507.869843	146.560000
507.963531	146.040000
508.057190	146.480000
508.150909	145.420000
508.244568	145.960000
508.338287	145.720000
508.431946	145.560000
508.525665	145.280000
508.619324	145.420000
508.713013	145.220000
508.806671	145.660000
508.900391	146.600000
508.994049	146.680000
509.087769	146.780000
509.181427	146.720000
509.275146	146.140000
509.368774	145.000000
509.462494	145.080000
509.556152	145.080000
509.649872	145.400000
509.743530	145.960000
509.837250	146.460000
509.930878	146.500000
510.024597	146.440000
510.118256	146.060000
510.211975	145.700000
510.305695	145.360000
510.399353	145.480000
510.493042	145.940000
510.586700	146.120000
510.680420	146.620000
510.774078	146.680000
510.867798	146.820000
510.961426	146.260000
511.055145	146.380000
511.148804	146.100000
511.242523	146.600000
511.336151	146.580000
511.429871	147.220000
511.523529	146.660000
511.617249	146.120000
511.710876	145.720000
511.804596	145.220000
511.898254	145.120000
511.991974	145.520000
512.085632	145.740000
512.179321	145.980000
512.272949	146.080000
512.366699	145.880000
512.460327	145.560000
512.554077	146.520000
512.647766	146.140000
512.741394	145.920000
512.835144	146.660000
512.928772	146.640000
513.022461	146.100000
513.116150	146.140000
513.209839	146.700000
513.303467	145.880000
513.397217	145.700000
513.490845	145.460000
513.584595	145.300000
513.678223	144.980000
513.771912	144.480000
513.865601	144.860000
513.959290	144.780000
514.052917	144.980000
514.146667	145.640000
514.240295	146.360000
514.333984	146.520000
514.427673	146.300000
514.521362	146.740000
514.614990	145.860000
514.708740	145.800000
514.802368	145.860000
514.896057	146.120000
514.989746	146.560000
515.083435	146.720000
515.177124	146.920000
515.270752	146.440000
515.364502	146.500000
515.458130	146.120000
515.551819	145.820000
515.645508	145.580000
515.739197	145.800000
515.832825	146.060000
515.926575	145.900000
516.020203	146.380000
516.113892	146.580000
516.207520	146.400000
516.301270	145.920000
516.394897	145.860000
516.488586	146.300000
516.582275	146.160000
516.675964	145.760000
516.769592	145.820000
516.863281	146.420000
516.956970	146.100000
517.050659	145.760000
517.144287	146.160000
517.238037	146.340000
517.331665	145.520000
517.425354	145.100000
517.519043	145.300000
517.612732	145.700000
517.706421	145.440000
517.800049	145.240000
517.893738	145.400000
517.987427	145.320000
518.081116	145.100000
518.174744	145.060000
518.268433	145.700000
518.362122	146.240000
518.455811	146.160000
518.549438	146.740000
518.643127	147.780000
518.736816	147.180000
518.830505	146.580000
518.924133	146.580000
519.017822	146.300000
519.111511	145.740000
519.205200	146.500000
519.298828	146.880000
519.392517	146.840000
519.486206	147.080000
519.579895	146.760000
519.673523	146.220000
519.767212	145.960000
519.860901	146.380000
519.954590	145.500000
520.048279	145.560000
520.141907	145.580000
520.235596	146.400000
520.329224	146.280000
520.422974	146.660000
520.516602	146.360000
520.610291	145.920000
520.703918	145.380000
520.797607	145.060000
520.891296	145.000000
520.984985	145.460000
521.078613	145.920000
521.172302	145.360000
521.265930	146.460000
521.359680	146.940000
521.453308	146.420000
521.546997	146.420000
521.640625	146.680000
521.734314	145.840000
521.827942	145.540000
521.921692	146.200000
522.015320	146.120000
522.109009	145.900000
522.202698	145.940000
522.296326	145.840000
522.390015	145.940000
522.483704	146.220000
522.577393	146.100000
522.671021	145.840000
522.764709	145.560000
522.858337	145.700000
522.952026	145.380000
523.045654	146.380000
523.139404	147.080000
523.233032	147.340000
523.326721	147.040000
523.420349	147.220000
523.514038	146.660000
523.607666	146.860000
523.701355	146.660000
523.795044	146.340000
523.888733	146.380000
523.982361	146.820000
524.076050	145.820000
524.169678	146.360000
524.263367	146.280000
524.356995	145.740000
524.450684	145.420000
524.544373	145.720000
524.638062	145.600000
524.731750	145.920000
524.825378	146.280000
524.919067	145.500000
525.012695	145.480000
525.106384	144.880000
525.200012	144.620000
525.293701	144.640000
525.387329	145.320000
525.481018	145.200000
525.574646	145.600000
525.668396	145.660000
525.762024	145.900000
525.855713	145.860000
525.949341	145.460000
526.043030	145.600000
526.136658	145.600000
526.230347	145.280000
526.323975	144.820000
526.417664	144.900000
526.511292	144.680000
526.604980	144.800000
526.698608	144.800000
526.792297	145.100000
526.885925	145.860000
526.979614	145.840000
527.073303	145.660000
527.166931	145.760000
527.260620	146.100000
527.354309	146.140000
527.447998	146.340000
527.541626	146.220000
527.635315	145.860000
527.728943	146.000000
527.822632	146.040000
527.916260	146.020000
528.009949	146.360000
528.103577	146.360000
528.197266	145.840000
528.290894	145.460000
528.384583	145.140000
528.478210	144.960000
528.571899	145.360000
528.665527	145.540000
528.759216	145.820000
528.852844	146.260000
528.946533	146.420000
529.040161	145.920000
529.133850	145.700000
529.227478	145.680000
529.321167	145.700000
529.414856	145.920000
529.508484	146.900000
529.602173	146.800000
529.695801	146.440000
529.789490	146.260000
529.883057	146.100000
529.976746	145.920000
530.070374	146.380000
530.164062	146.580000
530.257690	146.660000
530.351379	146.580000
530.445007	146.020000
530.538696	145.520000
530.632324	145.720000
530.726013	145.720000
530.819641	145.660000
530.913330	145.940000
531.006958	145.960000
531.100647	145.740000
531.194275	145.720000
531.287964	145.540000
531.381592	145.480000
531.475220	145.760000
531.568848	145.960000
531.662537	145.660000
531.756226	146.340000
531.849854	146.260000
531.943542	146.220000
532.037170	145.620000
532.130859	145.960000
532.224487	145.360000
532.318176	145.140000
532.411804	145.480000
532.505432	146.120000
532.599060	145.760000
532.692749	145.740000
532.786377	146.040000
532.880066	145.280000
532.973694	144.580000
533.067383	144.340000
533.161011	144.380000
533.254639	144.200000
533.348267	144.300000
533.441956	144.600000
533.535583	144.880000
533.629272	144.940000
533.722900	144.560000
533.816589	144.940000
533.910156	145.300000
534.003845	145.020000
534.097534	145.200000
534.191162	146.100000
534.284851	146.280000
534.378479	146.080000
534.472107	146.320000
534.565735	146.160000
534.659424	146.220000
534.753052	146.100000
534.846741	145.600000
534.940369	146.500000
535.033997	146.380000
535.127625	145.880000
535.221313	146.300000
535.314941	146.480000
535.408630	145.500000
535.502197	146.000000
535.595886	145.800000
535.689514	145.160000
535.783203	145.560000
535.876831	146.000000
535.970459	145.700000
536.064087	145.840000
536.157776	145.920000
536.251404	145.840000
536.345093	145.460000
536.438721	145.620000
536.532349	145.740000
536.626038	145.560000
536.719666	145.800000
536.813293	146.200000
536.906921	146.100000
537.000610	146.420000
537.094238	146.680000
537.187866	146.520000
537.281494	146.100000
537.375183	146.220000
537.468811	145.980000
537.562439	145.740000
537.656067	145.740000
537.749756	145.840000
537.843384	146.260000
537.937012	146.400000
538.030640	146.340000
538.124329	146.100000
538.217896	146.580000
538.311584	146.440000
538.405212	145.860000
538.498901	146.260000
538.592468	147.080000
538.686157	146.620000
538.779785	145.640000
538.873413	145.900000
538.967102	145.300000
539.060730	144.440000
539.154358	144.680000
539.247986	145.300000
539.341675	145.340000
539.435242	145.720000
539.528931	145.780000
539.622559	145.360000
539.716187	145.940000
539.809814	145.820000
539.903503	145.520000
539.997070	145.520000
540.090759	145.720000
540.184387	145.160000
540.278015	145.780000
540.371643	146.220000
540.465332	146.300000
540.558899	146.120000
540.652588	146.080000
540.746216	145.740000
540.839844	145.840000
540.933472	145.680000
541.027100	145.960000
541.120728	145.980000
541.214417	146.080000
541.308044	146.400000
541.401672	146.320000
541.495300	145.820000
541.588928	145.800000
541.682617	145.420000
541.776184	144.740000
541.869873	145.120000
541.963440	145.640000
542.057129	145.500000
542.150757	145.820000
542.244385	145.680000
542.338013	145.220000
542.431641	145.080000
542.525269	144.920000
542.618958	145.000000
542.712524	145.500000
542.806213	145.640000
542.899780	145.640000
542.993469	145.800000
543.087036	145.180000
543.180725	144.440000
543.274292	144.740000
543.367981	144.980000
543.461548	145.120000
543.555237	145.400000
543.648926	146.380000
543.742493	146.860000
543.836182	146.600000
543.929749	146.480000
544.023437	146.600000
544.117004	146.240000
544.210693	146.000000
544.304260	146.100000
544.397949	145.840000
544.491516	146.140000
544.585205	146.160000
544.678772	145.500000
544.772461	145.900000
544.866028	145.800000
544.959717	145.560000
545.053284	145.420000
545.146973	146.000000
545.240540	145.620000
545.334229	146.700000
545.427795	146.760000
545.521423	146.680000
545.615051	146.300000
545.708679	146.700000
545.802307	146.260000
545.895935	146.540000
545.989624	147.200000
546.083191	147.320000
546.176880	146.920000
546.270447	146.440000
546.364136	146.440000
546.457703	145.700000
546.551331	145.580000
546.644958	145.580000
546.738586	145.960000
546.832214	145.560000
546.925842	145.500000
547.019409	146.100000
547.113098	145.980000
547.206665	145.720000
547.300354	146.020000
547.393921	146.160000
547.487549	146.080000
547.581177	146.100000
547.674805	145.820000
547.768433	145.200000
547.862061	145.320000
547.955627	144.480000
548.049316	144.900000
548.142883	145.300000
548.236572	145.760000
548.330139	145.980000
548.423767	146.060000
548.517456	145.800000
548.611023	146.100000
548.704651	145.460000
548.798279	145.440000
548.891907	145.940000
548.985474	145.540000
549.079163	145.580000
549.172729	145.600000
549.266357	145.100000
549.359985	145.360000
549.453613	145.060000
549.547180	144.600000
549.640869	145.300000
549.734436	145.260000
549.828064	145.100000
549.921631	145.640000
550.015320	145.480000
550.108887	145.540000
550.202515	145.860000
550.296143	145.460000
550.389771	145.500000
550.483337	145.720000
550.576965	145.380000
550.670593	145.500000
550.764221	145.900000
550.857849	145.900000
550.951477	145.540000
551.045105	145.380000
551.138672	145.560000
551.232300	145.020000
551.325928	145.440000
551.419556	146.020000
551.513123	146.300000
551.606750	145.880000
551.700378	146.020000
551.794006	145.540000
551.887573	145.320000
551.981201	145.500000
552.074768	145.300000
552.168457	145.080000
552.262024	146.040000
552.355652	146.080000
552.449219	146.460000
552.542847	146.740000
552.636475	146.640000
552.730103	145.660000
552.823669	145.480000
552.917297	144.860000
553.010864	144.800000
553.104553	145.080000
553.198181	144.960000
553.291748	145.560000
553.385376	146.080000
553.478943	146.040000
553.572571	146.340000
553.666199	146.520000
553.759827	146.140000
553.853394	145.380000
553.947021	145.320000
554.040588	145.120000
554.134216	145.420000
554.227783	145.940000
554.321411	146.660000
554.415039	146.480000
554.508667	146.400000
554.602234	146.360000
554.695862	145.540000
554.789429	145.200000
554.883057	145.460000
554.976624	145.720000
555.070251	145.520000
555.163818	145.780000
555.257507	145.540000
555.351074	145.580000
555.444702	146.740000
555.538330	146.780000
555.631897	147.240000
555.725525	147.540000
555.819092	147.540000
555.912720	146.040000
556.006287	146.520000
556.099915	146.320000
556.193481	146.280000
556.287109	146.420000
556.380676	146.400000
556.474304	146.220000
556.567871	146.360000
556.661499	145.840000
556.755066	145.860000
556.848694	146.180000
556.942261	145.880000
557.035889	145.980000
557.129517	146.440000
557.223145	146.600000
557.316711	146.660000
557.410339	147.000000
557.503906	146.540000
557.597473	146.780000
557.691040	146.460000
557.784668	146.140000
557.878296	145.920000
557.971863	145.920000
558.065491	146.040000
558.159058	145.920000
558.252686	146.640000
558.346252	147.200000
558.439880	147.000000
558.533447	146.360000
558.627075	145.980000
558.720642	145.360000
558.814270	144.720000
558.907837	144.700000
559.001465	144.520000
559.095032	145.380000
559.188660	145.640000
559.282227	145.340000
559.375854	145.940000
559.469360	145.940000
559.562988	146.000000
559.656555	145.660000
559.750183	146.120000
559.843750	146.060000
559.937378	146.420000
560.030945	146.100000
560.124573	0.000000
560.218140	0.000000
560.311707	0.000000
560.405334	0.000000
560.498901	0.000000
560.592529	0.000000
560.686096	0.000000
560.779724	0.000000
560.873291	0.000000
560.966858	0.000000
561.060425	0.000000
561.154053	0.000000
561.247620	0.000000
561.341248	0.000000
561.434814	0.000000
561.528381	0.000000
561.621948	0.000000
561.715576	0.000000
561.809143	0.000000
561.902771	0.000000
561.996277	0.000000
562.089905	0.000000
562.183472	0.000000
562.277100	0.000000
