Model Number: SPM-002-B   
Serial Number: 70087108
Firmware Version: 004.15.4
Exposure Time: 100000.000000us
Data Taken on: 11-12-2020 18:47:57.132
Wavelength	Amplitude
221.570786	0.000000
221.663406	0.000000
221.756027	0.000000
221.848648	0.000000
221.941269	0.000000
222.033905	0.000000
222.126526	0.000000
222.219162	0.000000
222.311798	0.000000
222.404419	0.000000
222.497055	0.000000
222.589676	0.000000
222.682312	0.000000
222.774933	0.000000
222.867569	0.000000
222.960205	0.000000
223.052841	0.000000
223.145462	0.000000
223.238098	0.000000
223.330734	0.000000
223.423386	0.000000
223.516022	0.000000
223.608658	0.000000
223.701309	0.000000
223.793945	0.000000
223.886581	0.000000
223.979218	0.000000
224.071869	0.000000
224.164505	0.000000
224.257156	0.000000
224.349792	0.000000
224.442444	0.000000
224.535095	0.000000
224.627747	0.000000
224.720398	0.000000
224.813034	0.000000
224.905685	0.000000
224.998337	145.500000
225.090988	145.020000
225.183640	144.620000
225.276291	144.520000
225.368942	144.860000
225.461594	145.400000
225.554245	145.820000
225.646912	146.300000
225.739578	146.660000
225.832230	146.800000
225.924896	146.040000
226.017548	146.440000
226.110199	146.700000
226.202866	146.140000
226.295532	146.220000
226.388184	146.140000
226.480850	145.460000
226.573517	145.160000
226.666168	145.580000
226.758835	145.760000
226.851501	146.620000
226.944183	146.920000
227.036850	146.600000
227.129517	146.320000
227.222183	146.280000
227.314850	145.880000
227.407516	146.200000
227.500198	147.120000
227.592865	147.040000
227.685532	146.600000
227.778214	146.320000
227.870880	146.260000
227.963562	146.300000
228.056229	146.620000
228.148926	146.620000
228.241592	147.600000
228.334274	147.200000
228.426956	146.900000
228.519638	147.000000
228.612305	146.840000
228.704987	146.400000
228.797668	146.780000
228.890350	146.260000
228.983032	145.640000
229.075714	146.260000
229.168396	145.880000
229.261108	145.300000
229.353790	145.320000
229.446472	145.600000
229.539169	145.280000
229.631851	144.920000
229.724533	145.380000
229.817230	145.580000
229.909912	146.620000
230.002609	146.660000
230.095306	147.140000
230.187988	147.140000
230.280685	147.220000
230.373383	146.040000
230.466095	146.040000
230.558792	146.120000
230.651474	145.960000
230.744171	145.820000
230.836868	145.600000
230.929581	145.620000
231.022278	145.720000
231.114975	145.860000
231.207672	145.900000
231.300369	146.680000
231.393082	146.800000
231.485779	146.700000
231.578506	146.640000
231.671204	146.940000
231.763916	146.660000
231.856613	146.640000
231.949326	146.720000
232.042023	146.540000
232.134735	146.500000
232.227448	146.020000
232.320160	146.340000
232.412872	146.220000
232.505585	147.120000
232.598297	147.320000
232.691010	147.560000
232.783722	147.000000
232.876450	147.600000
232.969162	146.820000
233.061874	146.120000
233.154587	145.820000
233.247314	146.120000
233.340027	145.400000
233.432739	146.140000
233.525467	145.820000
233.618179	146.160000
233.710907	145.600000
233.803635	146.160000
233.896347	145.680000
233.989090	146.780000
234.081818	146.780000
234.174545	147.440000
234.267258	146.700000
234.359985	146.620000
234.452713	146.020000
234.545441	145.920000
234.638168	145.440000
234.730896	146.360000
234.823639	146.480000
234.916367	147.020000
235.009094	147.220000
235.101822	147.500000
235.194580	147.180000
235.287308	147.120000
235.380051	146.440000
235.472778	146.800000
235.565521	146.900000
235.658249	146.500000
235.750992	146.720000
235.843719	146.860000
235.936462	146.720000
236.029205	146.200000
236.121948	146.000000
236.214691	145.920000
236.307449	146.540000
236.400192	146.100000
236.492935	146.060000
236.585678	146.460000
236.678421	146.160000
236.771164	146.000000
236.863907	146.240000
236.956665	146.600000
237.049408	147.880000
237.142151	147.620000
237.234909	148.120000
237.327652	148.340000
237.420410	148.260000
237.513153	147.280000
237.605927	147.580000
237.698669	147.000000
237.791428	146.360000
237.884186	146.580000
237.976944	146.200000
238.069702	146.300000
238.162445	145.780000
238.255203	146.100000
238.347961	146.300000
238.440720	146.140000
238.533478	145.980000
238.626266	145.920000
238.719025	146.140000
238.811783	145.740000
238.904541	145.920000
238.997314	146.000000
239.090073	145.840000
239.182831	146.220000
239.275604	146.960000
239.368362	146.840000
239.461136	146.560000
239.553909	146.740000
239.646667	146.180000
239.739441	145.700000
239.832214	146.040000
239.925003	146.540000
240.017761	147.240000
240.110535	147.840000
240.203308	147.580000
240.296082	147.240000
240.388855	146.820000
240.481628	146.520000
240.574417	146.340000
240.667191	146.580000
240.759964	146.340000
240.852737	146.520000
240.945526	146.040000
241.038315	145.640000
241.131088	145.600000
241.223877	146.160000
241.316650	146.020000
241.409439	146.380000
241.502228	146.040000
241.595001	146.460000
241.687790	146.180000
241.780579	146.380000
241.873367	146.720000
241.966141	147.340000
242.058929	146.460000
242.151718	146.760000
242.244507	147.000000
242.337311	146.200000
242.430099	146.400000
242.522903	146.940000
242.615692	146.520000
242.708481	146.400000
242.801270	147.160000
242.894073	146.900000
242.986862	146.860000
243.079651	147.360000
243.172455	147.300000
243.265244	147.100000
243.358063	146.540000
243.450867	146.680000
243.543655	146.380000
243.636459	146.320000
243.729263	146.660000
243.822067	147.220000
243.914856	147.320000
244.007660	147.480000
244.100464	147.180000
244.193268	146.620000
244.286072	146.420000
244.378876	146.100000
244.471680	145.880000
244.564499	146.440000
244.657318	147.100000
244.750122	147.460000
244.842926	147.160000
244.935745	147.440000
245.028549	146.820000
245.121368	146.380000
245.214172	146.320000
245.306992	146.660000
245.399796	146.340000
245.492615	146.540000
245.585434	146.280000
245.678253	146.080000
245.771072	145.840000
245.863892	146.340000
245.956711	146.720000
246.049530	146.840000
246.142349	146.680000
246.235168	147.060000
246.327988	147.520000
246.420807	147.440000
246.513626	147.240000
246.606445	147.300000
246.699280	147.380000
246.792099	146.600000
246.884918	146.060000
246.977753	145.900000
247.070587	146.160000
247.163422	145.740000
247.256241	145.960000
247.349075	146.440000
247.441895	146.860000
247.534729	146.480000
247.627563	146.360000
247.720383	146.860000
247.813217	146.680000
247.906052	146.320000
247.998886	146.500000
248.091736	146.380000
248.184570	145.700000
248.277405	145.960000
248.370239	147.060000
248.463074	148.180000
248.555908	148.660000
248.648743	148.400000
248.741592	148.080000
248.834427	147.240000
248.927261	145.580000
249.020111	146.080000
249.112946	146.880000
249.205795	146.480000
249.298630	146.480000
249.391495	146.860000
249.484344	146.300000
249.577179	146.100000
249.670029	146.820000
249.762878	147.420000
249.855728	147.720000
249.948563	147.680000
250.041412	146.920000
250.134262	146.820000
250.227112	146.720000
250.319962	146.340000
250.412827	146.460000
250.505692	146.540000
250.598541	146.600000
250.691391	146.120000
250.784241	146.460000
250.877106	146.380000
250.969955	146.440000
251.062805	146.600000
251.155670	147.280000
251.248520	146.840000
251.341385	146.960000
251.434235	146.900000
251.527100	146.620000
251.619965	146.100000
251.712814	146.920000
251.805695	147.000000
251.898560	147.040000
251.991425	147.300000
252.084290	147.500000
252.177155	146.940000
252.270020	146.340000
252.362885	146.400000
252.455750	146.360000
252.548615	146.140000
252.641479	145.980000
252.734360	146.240000
252.827240	146.240000
252.920105	146.360000
253.012970	146.180000
253.105850	146.040000
253.198715	145.920000
253.291595	146.040000
253.384460	145.560000
253.477341	145.480000
253.570221	145.900000
253.663086	145.800000
253.755966	146.360000
253.848846	146.300000
253.941727	146.700000
254.034592	146.640000
254.127472	146.240000
254.220367	145.780000
254.313248	145.900000
254.406128	145.460000
254.499008	145.720000
254.591904	146.720000
254.684784	147.360000
254.777664	147.380000
254.870544	147.020000
254.963440	146.580000
255.056335	146.320000
255.149216	145.380000
255.242111	145.860000
255.334991	146.460000
255.427887	146.820000
255.520767	146.980000
255.613663	147.280000
255.706558	146.760000
255.799438	146.760000
255.892334	146.400000
255.985229	146.420000
256.078125	146.540000
256.171021	146.520000
256.263916	146.700000
256.356812	146.760000
256.449707	146.700000
256.542603	146.500000
256.635498	146.800000
256.728394	146.500000
256.821289	146.360000
256.914215	146.340000
257.007080	146.460000
257.100006	146.320000
257.192932	146.740000
257.285828	147.080000
257.378723	146.880000
257.471619	146.780000
257.564545	146.340000
257.657440	146.160000
257.750336	146.200000
257.843262	146.060000
257.936157	147.000000
258.029053	147.520000
258.121979	147.300000
258.214874	147.220000
258.307800	146.940000
258.400696	145.620000
258.493622	145.560000
258.586517	145.060000
258.679443	145.440000
258.772339	145.400000
258.865265	145.640000
258.958160	145.120000
259.051086	146.060000
259.144012	145.440000
259.236938	146.180000
259.329834	146.400000
259.422791	146.540000
259.515717	145.860000
259.608612	145.680000
259.701538	145.920000
259.794464	145.880000
259.887390	145.940000
259.980316	146.020000
260.073212	145.960000
260.166138	145.000000
260.259064	145.260000
260.351990	145.680000
260.444916	145.440000
260.537842	145.880000
260.630768	146.600000
260.723694	146.560000
260.816620	146.320000
260.909546	146.620000
261.002472	146.140000
261.095398	145.620000
261.188354	145.600000
261.281281	145.380000
261.374207	145.300000
261.467133	146.240000
261.560089	146.320000
261.653015	145.860000
261.745972	146.640000
261.838867	147.360000
261.931824	147.300000
262.024780	147.120000
262.117706	147.420000
262.210663	147.280000
262.303589	147.000000
262.396515	146.840000
262.489471	147.460000
262.582397	147.320000
262.675354	146.940000
262.768280	146.560000
262.861237	146.500000
262.954163	146.320000
263.047119	146.760000
263.140045	146.380000
263.233002	146.660000
263.325958	146.680000
263.418884	146.480000
263.511841	146.040000
263.604797	146.400000
263.697723	146.400000
263.790680	146.320000
263.883636	146.640000
263.976593	146.260000
264.069550	146.160000
264.162476	145.960000
264.255463	145.760000
264.348419	145.400000
264.441376	146.300000
264.534332	146.060000
264.627289	146.060000
264.720245	146.740000
264.813202	146.200000
264.906158	145.960000
264.999115	146.520000
265.092072	146.360000
265.185028	146.720000
265.277985	147.360000
265.370941	147.100000
265.463898	146.740000
265.556854	146.900000
265.649811	145.580000
265.742798	145.740000
265.835754	146.060000
265.928711	146.400000
266.021667	146.280000
266.114655	146.700000
266.207611	146.660000
266.300568	146.040000
266.393585	145.480000
266.486511	146.220000
266.579498	145.660000
266.672485	145.580000
266.765442	145.440000
266.858429	146.100000
266.951385	145.340000
267.044342	145.720000
267.137329	145.640000
267.230316	146.340000
267.323273	145.780000
267.416260	146.760000
267.509216	146.800000
267.602203	146.720000
267.695160	147.060000
267.788147	147.280000
267.881134	146.080000
267.974091	146.320000
268.067078	146.360000
268.160065	145.620000
268.253052	145.600000
268.346008	145.920000
268.438995	145.620000
268.531982	145.600000
268.624969	145.560000
268.717987	146.020000
268.810944	146.140000
268.903961	146.420000
268.996948	146.180000
269.089905	146.840000
269.182892	146.380000
269.275879	146.480000
269.368866	145.980000
269.461853	146.560000
269.554871	146.320000
269.647858	146.540000
269.740845	146.540000
269.833832	146.900000
269.926819	146.540000
270.019806	146.580000
270.112793	146.000000
270.205811	146.480000
270.298798	146.300000
270.391785	146.920000
270.484772	146.640000
270.577789	146.920000
270.670776	146.140000
270.763763	146.260000
270.856750	146.020000
270.949768	145.880000
271.042786	145.960000
271.135773	146.140000
271.228790	146.140000
271.321808	145.740000
271.414795	145.680000
271.507782	145.560000
271.600800	145.060000
271.693817	145.400000
271.786804	145.780000
271.879822	145.900000
271.972809	145.600000
272.065826	146.320000
272.158844	145.840000
272.251831	146.200000
272.344849	146.160000
272.437866	146.120000
272.530853	146.160000
272.623871	146.440000
272.716888	145.360000
272.809906	145.940000
272.902893	146.380000
272.995911	145.840000
273.088928	145.600000
273.181946	146.120000
273.274963	145.780000
273.367981	145.480000
273.460999	146.060000
273.554047	146.660000
273.647003	147.040000
273.740051	146.760000
273.833069	147.460000
273.926086	147.500000
274.019135	146.920000
274.112152	146.560000
274.205170	146.740000
274.298187	146.700000
274.391205	146.240000
274.484222	146.540000
274.577240	146.680000
274.670258	146.500000
274.763306	146.180000
274.856323	146.600000
274.949341	146.480000
275.042358	146.520000
275.135406	146.720000
275.228424	146.920000
275.321442	146.560000
275.414490	146.380000
275.507507	146.600000
275.600525	146.860000
275.693573	146.520000
275.786591	146.260000
275.879669	146.380000
275.972656	145.940000
276.065735	145.840000
276.158752	146.520000
276.251801	147.280000
276.344818	147.480000
276.437866	147.880000
276.530884	147.540000
276.623932	146.620000
276.716980	146.480000
276.809998	146.280000
276.903046	146.120000
276.996094	147.140000
277.089111	147.620000
277.182159	147.720000
277.275208	147.540000
277.368256	147.280000
277.461304	146.460000
277.554321	145.700000
277.647369	145.640000
277.740417	145.760000
277.833466	145.760000
277.926514	145.820000
278.019562	146.760000
278.112610	146.500000
278.205688	147.000000
278.298706	147.160000
278.391785	147.020000
278.484833	146.480000
278.577881	145.860000
278.670929	145.700000
278.763977	145.460000
278.857025	145.940000
278.950073	146.180000
279.043121	146.820000
279.136169	146.540000
279.229248	146.680000
279.322296	146.540000
279.415344	146.380000
279.508392	146.160000
279.601440	146.140000
279.694519	146.060000
279.787567	145.860000
279.880615	145.900000
279.973694	145.980000
280.066742	145.940000
280.159790	146.240000
280.252869	146.100000
280.345917	146.460000
280.438995	146.420000
280.532074	146.520000
280.625122	146.640000
280.718201	147.400000
280.811279	147.240000
280.904327	147.120000
280.997406	147.200000
281.090454	147.000000
281.183533	146.080000
281.276581	146.020000
281.369659	145.700000
281.462738	145.660000
281.555786	145.840000
281.648865	146.200000
281.741943	146.040000
281.835022	147.180000
281.928070	147.040000
282.021149	146.660000
282.114227	146.640000
282.207306	146.740000
282.300385	146.520000
282.393433	146.740000
282.486511	147.000000
282.579590	147.260000
282.672668	147.700000
282.765747	147.040000
282.858856	146.880000
282.951904	147.040000
283.045013	147.080000
283.138062	147.000000
283.231171	147.600000
283.324249	148.100000
283.417328	148.080000
283.510406	147.680000
283.603485	147.240000
283.696564	146.740000
283.789642	146.480000
283.882751	146.000000
283.975830	146.560000
284.068909	146.260000
284.161987	147.260000
284.255066	146.620000
284.348175	146.960000
284.441254	146.740000
284.534332	147.220000
284.627441	146.740000
284.720520	146.600000
284.813599	146.460000
284.906708	146.260000
284.999786	145.700000
285.092896	145.100000
285.185974	146.660000
285.279053	146.260000
285.372192	146.480000
285.465240	147.540000
285.558380	147.440000
285.651459	146.620000
285.744568	147.500000
285.837677	147.180000
285.930756	146.980000
286.023865	147.520000
286.116943	147.160000
286.210052	147.060000
286.303162	147.320000
286.396240	146.960000
286.489349	146.580000
286.582458	146.960000
286.675568	146.960000
286.768646	146.660000
286.861755	147.000000
286.954865	147.700000
287.047974	147.220000
287.141083	146.760000
287.234161	146.540000
287.327271	146.400000
287.420380	146.500000
287.513519	146.440000
287.606598	146.760000
287.699738	147.200000
287.792816	146.860000
287.885956	146.720000
287.979034	146.920000
288.072174	146.760000
288.165283	146.660000
288.258392	146.940000
288.351501	146.480000
288.444611	146.920000
288.537720	147.240000
288.630859	147.020000
288.723969	147.280000
288.817078	147.280000
288.910187	146.820000
289.003296	146.280000
289.096436	146.200000
289.189545	145.740000
289.282654	145.520000
289.375763	146.040000
289.468903	146.540000
289.562012	146.800000
289.655121	146.860000
289.748260	146.980000
289.841400	146.880000
289.934509	146.600000
290.027649	146.640000
290.120728	146.500000
290.213898	146.700000
290.306976	146.360000
290.400146	146.600000
290.493256	146.260000
290.586395	146.980000
290.679535	147.220000
290.772644	147.020000
290.865784	146.120000
290.958893	146.320000
291.052032	145.740000
291.145172	145.520000
291.238281	145.440000
291.331421	145.940000
291.424561	146.300000
291.517670	146.060000
291.610809	146.120000
291.703949	146.220000
291.797089	146.240000
291.890228	145.720000
291.983337	145.620000
292.076477	145.460000
292.169617	145.920000
292.262756	146.080000
292.355927	145.860000
292.449036	146.160000
292.542206	146.080000
292.635315	145.920000
292.728485	146.040000
292.821625	146.100000
292.914764	147.020000
293.007904	147.380000
293.101044	147.160000
293.194183	146.820000
293.287323	147.040000
293.380463	146.200000
293.473602	145.920000
293.566742	146.220000
293.659882	146.780000
293.753021	146.900000
293.846191	146.820000
293.939331	146.600000
294.032471	146.460000
294.125610	145.880000
294.218781	146.100000
294.311920	146.460000
294.405060	146.600000
294.498230	146.580000
294.591370	146.480000
294.684540	145.960000
294.777679	145.140000
294.870850	145.660000
294.963959	145.460000
295.057159	145.460000
295.150299	145.860000
295.243469	146.040000
295.336609	145.280000
295.429779	145.460000
295.522919	145.840000
295.616089	145.760000
295.709229	146.460000
295.802399	146.840000
295.895569	146.540000
295.988708	146.580000
296.081879	146.620000
296.175018	146.120000
296.268188	145.820000
296.361359	146.460000
296.454529	146.420000
296.547668	146.280000
296.640839	146.680000
296.734009	146.660000
296.827179	146.660000
296.920319	147.080000
297.013519	147.120000
297.106659	147.220000
297.199860	147.240000
297.292999	147.080000
297.386200	146.600000
297.479309	146.380000
297.572510	146.040000
297.665680	145.780000
297.758850	145.820000
297.852020	145.700000
297.945190	145.720000
298.038361	145.520000
298.131531	146.600000
298.224701	146.380000
298.317871	146.140000
298.411072	145.740000
298.504242	145.600000
298.597412	145.000000
298.690582	145.320000
298.783752	145.520000
298.876923	146.300000
298.970093	146.560000
299.063293	146.700000
299.156464	146.940000
299.249634	147.240000
299.342834	147.120000
299.436005	147.460000
299.529205	147.540000
299.622345	147.220000
299.715576	146.500000
299.808716	146.220000
299.901917	146.180000
299.995117	146.140000
300.088287	146.380000
300.181488	146.660000
300.274658	146.620000
300.367828	146.440000
300.461029	146.440000
300.554199	146.580000
300.647400	146.620000
300.740601	147.040000
300.833771	147.040000
300.926971	147.200000
301.020142	146.600000
301.113342	146.360000
301.206512	146.460000
301.299713	146.740000
301.392914	146.720000
301.486084	147.080000
301.579285	147.300000
301.672516	147.520000
301.765686	147.040000
301.858887	146.900000
301.952057	146.840000
302.045288	147.240000
302.138458	146.640000
302.231659	146.380000
302.324860	146.160000
302.418060	145.980000
302.511261	145.700000
302.604462	146.080000
302.697662	146.400000
302.790863	146.380000
302.884064	146.380000
302.977264	146.360000
303.070465	146.720000
303.163666	147.320000
303.256866	147.800000
303.350067	147.700000
303.443268	148.020000
303.536469	147.900000
303.629669	147.260000
303.722870	147.320000
303.816071	147.340000
303.909271	147.180000
304.002472	146.300000
304.095673	146.220000
304.188934	145.160000
304.282104	145.840000
304.375336	145.580000
304.468506	145.920000
304.561768	145.800000
304.654968	146.820000
304.748169	146.060000
304.841370	145.780000
304.934601	146.260000
305.027802	146.140000
305.121002	145.800000
305.214233	146.220000
305.307434	146.620000
305.400665	146.660000
305.493866	146.580000
305.587097	146.620000
305.680298	146.220000
305.773499	146.560000
305.866730	146.340000
305.959930	147.000000
306.053162	147.240000
306.146393	147.000000
306.239594	146.300000
306.332825	146.120000
306.426025	146.260000
306.519287	145.660000
306.612488	145.980000
306.705719	146.200000
306.798920	146.400000
306.892181	146.020000
306.985352	146.060000
307.078613	145.680000
307.171844	146.300000
307.265045	145.740000
307.358276	145.440000
307.451508	146.000000
307.544739	146.520000
307.637970	145.680000
307.731201	145.720000
307.824402	146.360000
307.917633	146.320000
308.010864	146.680000
308.104095	147.380000
308.197327	147.700000
308.290558	147.740000
308.383789	147.380000
308.477020	146.760000
308.570251	145.860000
308.663483	145.640000
308.756714	145.240000
308.849976	145.220000
308.943176	145.480000
309.036438	145.580000
309.129639	145.320000
309.222900	145.200000
309.316101	145.140000
309.409393	144.920000
309.502625	145.040000
309.595856	145.440000
309.689087	145.800000
309.782318	145.940000
309.875580	146.140000
309.968811	146.420000
310.062042	146.080000
310.155273	145.740000
310.248535	146.200000
310.341766	145.900000
310.434998	145.540000
310.528259	145.720000
310.621490	146.420000
310.714722	145.660000
310.807983	145.780000
310.901215	145.720000
310.994476	145.780000
311.087708	144.840000
311.181000	145.300000
311.274200	144.980000
311.367462	145.420000
311.460693	144.980000
311.553986	145.900000
311.647186	146.100000
311.740479	147.000000
311.833710	146.640000
311.926971	146.880000
312.020203	145.980000
312.113464	145.380000
312.206726	144.620000
312.299957	144.800000
312.393219	145.380000
312.486481	146.060000
312.579712	146.340000
312.672974	146.340000
312.766235	146.520000
312.859497	146.120000
312.952759	145.800000
313.045990	146.460000
313.139252	146.500000
313.232513	146.680000
313.325775	146.840000
313.419037	146.600000
313.512299	145.640000
313.605530	145.980000
313.698822	145.800000
313.792053	146.020000
313.885345	145.800000
313.978577	145.940000
314.071869	145.580000
314.165131	145.640000
314.258392	145.440000
314.351654	145.880000
314.444916	145.260000
314.538177	145.820000
314.631439	145.980000
314.724701	145.720000
314.817993	145.640000
314.911255	146.320000
315.004517	145.380000
315.097778	145.360000
315.191040	145.980000
315.284302	146.200000
315.377594	145.980000
315.470856	146.520000
315.564117	145.820000
315.657379	145.040000
315.750671	144.800000
315.843933	144.960000
315.937195	144.380000
316.030518	144.400000
316.123749	144.820000
316.217041	145.280000
316.310303	145.440000
316.403595	146.060000
316.496857	146.720000
316.590149	146.840000
316.683411	146.160000
316.776703	146.020000
316.869965	145.800000
316.963257	145.140000
317.056519	144.280000
317.149811	144.420000
317.243073	144.420000
317.336365	144.320000
317.429626	144.860000
317.522919	145.760000
317.616180	145.660000
317.709473	145.360000
317.802765	145.400000
317.896027	145.200000
317.989319	145.220000
318.082611	145.280000
318.175873	145.340000
318.269165	145.580000
318.362488	145.620000
318.455750	145.520000
318.549042	145.780000
318.642303	146.400000
318.735626	146.060000
318.828888	146.040000
318.922211	145.600000
319.015472	146.260000
319.108765	145.500000
319.202057	145.280000
319.295349	145.740000
319.388641	146.000000
319.481934	145.340000
319.575226	145.600000
319.668518	146.140000
319.761810	146.080000
319.855103	146.060000
319.948395	146.100000
320.041687	146.060000
320.134979	145.880000
320.228271	145.620000
320.321564	145.500000
320.414856	145.780000
320.508148	145.480000
320.601440	145.500000
320.694763	145.240000
320.788025	145.920000
320.881348	145.540000
320.974640	145.760000
321.067963	145.380000
321.161224	145.400000
321.254547	144.620000
321.347839	145.380000
321.441162	145.380000
321.534454	145.680000
321.627747	146.000000
321.721069	146.840000
321.814362	146.640000
321.907654	146.740000
322.000946	146.740000
322.094269	146.980000
322.187561	146.320000
322.280884	146.500000
322.374176	146.560000
322.467468	146.980000
322.560791	146.880000
322.654083	147.200000
322.747406	147.020000
322.840698	147.600000
322.934021	147.860000
323.027344	147.880000
323.120636	147.820000
323.213959	147.580000
323.307251	146.720000
323.400574	146.260000
323.493866	145.920000
323.587219	145.960000
323.680511	146.100000
323.773834	146.280000
323.867157	146.220000
323.960449	146.280000
324.053772	146.160000
324.147095	145.920000
324.240387	146.360000
324.333710	146.540000
324.427032	146.720000
324.520355	146.580000
324.613647	146.540000
324.706970	146.320000
324.800293	145.920000
324.893616	146.100000
324.986938	146.340000
325.080231	146.220000
325.173553	146.260000
325.266876	146.840000
325.360199	146.860000
325.453522	146.360000
325.546875	146.020000
325.640167	146.240000
325.733521	146.380000
325.826813	146.560000
325.920166	146.620000
326.013489	146.620000
326.106812	145.820000
326.200134	145.360000
326.293457	144.640000
326.386780	144.800000
326.480103	144.820000
326.573425	144.940000
326.666748	145.140000
326.760071	145.580000
326.853424	145.880000
326.946747	146.300000
327.040070	147.120000
327.133392	146.760000
327.226715	146.100000
327.320068	145.640000
327.413391	145.980000
327.506714	145.220000
327.600037	145.280000
327.693390	145.660000
327.786713	145.720000
327.880066	145.380000
327.973358	145.660000
328.066742	146.280000
328.160034	146.480000
328.253418	147.000000
328.346710	146.960000
328.440063	147.080000
328.533417	146.720000
328.626740	146.960000
328.720093	146.600000
328.813416	146.700000
328.906769	146.620000
329.000092	146.560000
329.093445	146.060000
329.186768	146.060000
329.280121	146.340000
329.373444	146.440000
329.466797	146.540000
329.560120	146.500000
329.653473	146.540000
329.746796	145.800000
329.840149	145.560000
329.933502	145.200000
330.026825	145.200000
330.120178	144.880000
330.213562	145.200000
330.306854	145.400000
330.400238	145.680000
330.493561	145.520000
330.586945	146.520000
330.680237	146.940000
330.773621	146.660000
330.866974	146.660000
330.960327	147.300000
331.053680	146.560000
331.147003	146.500000
331.240356	147.040000
331.333710	147.100000
331.427063	146.520000
331.520416	146.320000
331.613770	145.700000
331.707123	145.500000
331.800476	145.460000
331.893829	146.400000
331.987152	146.940000
332.080505	147.260000
332.173859	147.380000
332.267212	146.840000
332.360565	146.040000
332.453918	145.560000
332.547333	145.380000
332.640656	145.260000
332.734039	145.760000
332.827362	145.860000
332.920746	146.520000
333.014069	147.060000
333.107452	147.400000
333.200806	147.680000
333.294159	147.940000
333.387543	147.180000
333.480896	146.460000
333.574249	145.960000
333.667603	145.280000
333.760956	145.120000
333.854340	145.300000
333.947693	145.700000
334.041046	145.840000
334.134430	146.140000
334.227783	145.700000
334.321136	145.500000
334.414520	145.240000
334.507874	145.240000
334.601227	145.380000
334.694611	145.720000
334.787964	146.080000
334.881348	146.480000
334.974701	146.520000
335.068085	146.340000
335.161438	146.620000
335.254822	146.380000
335.348175	146.120000
335.441559	145.840000
335.534943	146.460000
335.628296	146.020000
335.721680	146.200000
335.815033	146.220000
335.908417	146.640000
336.001770	146.140000
336.095154	146.140000
336.188538	145.700000
336.281891	145.600000
336.375275	145.060000
336.468658	144.860000
336.562012	144.940000
336.655396	145.760000
336.748779	146.140000
336.842133	146.480000
336.935516	146.580000
337.028900	146.300000
337.122284	146.040000
337.215637	146.100000
337.309021	146.000000
337.402435	145.860000
337.495789	146.180000
337.589203	145.820000
337.682526	145.500000
337.775940	145.580000
337.869324	145.880000
337.962708	145.620000
338.056091	146.200000
338.149475	145.980000
338.242859	146.220000
338.336243	145.940000
338.429626	146.200000
338.523010	145.780000
338.616394	145.700000
338.709778	145.720000
338.803162	146.100000
338.896545	146.240000
338.989929	146.000000
339.083313	146.320000
339.176697	146.040000
339.270081	145.800000
339.363464	145.740000
339.456848	146.220000
339.550232	145.860000
339.643616	145.480000
339.737030	145.700000
339.830383	145.640000
339.923828	145.800000
340.017181	145.900000
340.110596	146.400000
340.203949	146.060000
340.297363	145.660000
340.390778	145.480000
340.484161	145.440000
340.577545	144.880000
340.670959	145.060000
340.764343	145.260000
340.857727	145.400000
340.951111	145.200000
341.044525	145.580000
341.137909	145.260000
341.231293	145.400000
341.324707	144.700000
341.418091	145.560000
341.511505	145.640000
341.604889	146.080000
341.698303	146.080000
341.791687	146.460000
341.885071	145.960000
341.978485	145.600000
342.071899	145.900000
342.165283	146.080000
342.258698	146.120000
342.352081	146.560000
342.445496	147.240000
342.538879	146.980000
342.632324	146.460000
342.725708	146.580000
342.819122	146.040000
342.912506	145.740000
343.005920	145.460000
343.099335	146.400000
343.192719	146.160000
343.286133	146.120000
343.379547	146.280000
343.472931	146.480000
343.566345	145.900000
343.659760	146.320000
343.753143	146.020000
343.846558	145.580000
343.939972	145.380000
344.033386	146.140000
344.126770	145.940000
344.220184	146.460000
344.313599	146.960000
344.407043	147.220000
344.500427	146.100000
344.593872	146.540000
344.687225	146.400000
344.780670	145.860000
344.874054	145.580000
344.967499	146.180000
345.060913	145.900000
345.154327	145.620000
345.247742	145.400000
345.341156	145.460000
345.434570	145.260000
345.527985	145.220000
345.621399	145.620000
345.714813	145.980000
345.808228	146.120000
345.901642	145.840000
345.995056	145.440000
346.088470	145.620000
346.181885	145.900000
346.275299	145.660000
346.368713	145.840000
346.462128	145.460000
346.555573	145.240000
346.648987	145.360000
346.742401	145.620000
346.835815	146.120000
346.929260	146.380000
347.022644	146.560000
347.116119	146.400000
347.209503	146.060000
347.302948	146.760000
347.396362	147.020000
347.489807	146.940000
347.583221	147.700000
347.676636	147.860000
347.770050	146.580000
347.863495	146.240000
347.956909	146.320000
348.050323	145.480000
348.143768	145.400000
348.237183	145.260000
348.330597	146.140000
348.424042	146.340000
348.517456	146.660000
348.610901	146.960000
348.704315	147.160000
348.797760	146.420000
348.891174	145.660000
348.984619	145.060000
349.078033	145.540000
349.171448	146.040000
349.264923	146.160000
349.358337	146.040000
349.451782	146.380000
349.545197	145.520000
349.638641	144.780000
349.732086	144.340000
349.825500	145.160000
349.918945	144.820000
350.012390	145.440000
350.105804	146.440000
350.199249	146.820000
350.292664	147.000000
350.386108	147.120000
350.479553	147.220000
350.572968	146.600000
350.666412	146.560000
350.759857	146.240000
350.853302	146.900000
350.946716	146.200000
351.040161	146.200000
351.133606	146.420000
351.227081	146.060000
351.320465	146.500000
351.413940	146.640000
351.507355	146.860000
351.600830	147.140000
351.694244	147.220000
351.787720	146.460000
351.881104	146.600000
351.974579	146.360000
352.067993	146.680000
352.161469	146.980000
352.254883	146.680000
352.348358	146.680000
352.441803	146.700000
352.535248	146.300000
352.628693	146.340000
352.722137	146.240000
352.815582	146.220000
352.909027	146.400000
353.002472	146.040000
353.095917	145.980000
353.189362	146.200000
353.282806	146.220000
353.376251	146.140000
353.469696	145.700000
353.563141	146.140000
353.656586	146.100000
353.750061	145.720000
353.843475	145.700000
353.936981	146.680000
354.030396	145.760000
354.123871	145.800000
354.217285	146.720000
354.310760	146.800000
354.404175	146.440000
354.497681	146.740000
354.591095	146.820000
354.684570	145.860000
354.777985	145.380000
354.871490	145.280000
354.964935	145.580000
355.058380	145.380000
355.151855	145.380000
355.245300	145.920000
355.338745	146.240000
355.432220	146.180000
355.525665	145.960000
355.619110	146.460000
355.712585	146.360000
355.806030	146.080000
355.899475	145.480000
355.992950	145.880000
356.086426	146.220000
356.179871	146.260000
356.273346	146.320000
356.366791	146.660000
356.460266	146.820000
356.553711	146.560000
356.647186	146.220000
356.740631	146.020000
356.834106	145.980000
356.927551	145.940000
357.021027	145.780000
357.114471	146.240000
357.207947	146.240000
357.301422	146.560000
357.394867	146.620000
357.488342	146.800000
357.581818	146.520000
357.675262	147.020000
357.768738	146.600000
357.862213	146.000000
357.955658	145.840000
358.049133	145.720000
358.142609	145.680000
358.236053	145.360000
358.329529	145.400000
358.423035	145.660000
358.516449	145.460000
358.609955	145.840000
358.703400	146.700000
358.796906	146.980000
358.890350	146.340000
358.983826	146.760000
359.077271	145.960000
359.170776	145.760000
359.264221	145.320000
359.357727	145.980000
359.451172	146.200000
359.544647	146.420000
359.638123	146.420000
359.731598	146.920000
359.825073	146.700000
359.918549	146.540000
360.012024	146.480000
360.105499	146.080000
360.198975	146.220000
360.292450	146.140000
360.385925	146.180000
360.479401	145.920000
360.572876	146.060000
360.666351	146.040000
360.759857	145.940000
360.853302	145.700000
360.946808	145.420000
361.040253	145.300000
361.133759	144.800000
361.227203	145.060000
361.320709	144.620000
361.414154	145.140000
361.507660	145.500000
361.601105	146.220000
361.694641	146.660000
361.788086	147.080000
361.881592	147.400000
361.975067	147.120000
362.068542	147.300000
362.162018	146.800000
362.255524	146.500000
362.348999	146.300000
362.442474	146.560000
362.535950	145.800000
362.629456	145.660000
362.722931	145.780000
362.816406	145.840000
362.909882	146.100000
363.003387	146.120000
363.096863	146.520000
363.190338	146.520000
363.283875	146.360000
363.377319	145.940000
363.470825	146.420000
363.564301	145.920000
363.657806	146.080000
363.751282	145.660000
363.844788	146.560000
363.938232	146.200000
364.031769	146.920000
364.125214	147.040000
364.218750	147.960000
364.312225	146.680000
364.405731	146.920000
364.499207	146.020000
364.592712	145.680000
364.686188	145.260000
364.779694	145.600000
364.873169	145.380000
364.966675	145.460000
365.060150	145.380000
365.153656	145.680000
365.247131	145.860000
365.340637	146.060000
365.434143	146.760000
365.527618	147.340000
365.621155	146.480000
365.714600	146.320000
365.808136	145.980000
365.901611	144.900000
365.995117	144.160000
366.088593	144.380000
366.182129	144.460000
366.275604	144.620000
366.369110	144.880000
366.462585	144.980000
366.556122	145.580000
366.649567	145.600000
366.743103	145.860000
366.836609	146.060000
366.930115	146.520000
367.023590	146.440000
367.117096	146.440000
367.210602	146.320000
367.304108	146.800000
367.397614	147.140000
367.491119	147.180000
367.584595	147.320000
367.678101	147.620000
367.771606	147.300000
367.865112	146.820000
367.958649	146.260000
368.052124	146.020000
368.145660	145.680000
368.239136	146.220000
368.332672	146.240000
368.426147	146.520000
368.519684	146.380000
368.613159	146.720000
368.706696	146.080000
368.800171	146.300000
368.893707	146.140000
368.987183	146.160000
369.080719	146.440000
369.174225	146.320000
369.267731	146.260000
369.361237	146.440000
369.454742	146.420000
369.548248	146.500000
369.641754	146.640000
369.735260	146.460000
369.828766	145.540000
369.922272	146.380000
370.015808	145.600000
370.109314	145.520000
370.202820	145.440000
370.296356	146.920000
370.389832	146.160000
370.483368	146.180000
370.576874	145.900000
370.670410	146.420000
370.763885	145.320000
370.857422	145.220000
370.950928	145.120000
371.044464	146.040000
371.137939	145.820000
371.231476	146.280000
371.324982	146.980000
371.418518	147.140000
371.512024	146.660000
371.605560	146.560000
371.699066	146.840000
371.792572	146.180000
371.886108	146.720000
371.979614	146.380000
372.073120	146.640000
372.166656	146.200000
372.260162	146.500000
372.353668	145.960000
372.447205	146.080000
372.540710	145.980000
372.634277	146.180000
372.727753	146.360000
372.821320	146.360000
372.914795	146.640000
373.008362	146.480000
373.101837	146.540000
373.195404	145.940000
373.288879	145.840000
373.382446	146.140000
373.475922	145.780000
373.569489	146.300000
373.662964	146.960000
373.756531	146.820000
373.850037	146.700000
373.943573	146.920000
374.037109	145.600000
374.130615	145.560000
374.224152	145.900000
374.317657	145.760000
374.411194	146.680000
374.504730	147.120000
374.598236	146.860000
374.691772	146.320000
374.785309	146.320000
374.878815	145.240000
374.972351	145.640000
375.065887	145.600000
375.159454	146.480000
375.252930	146.120000
375.346497	146.620000
375.440002	147.080000
375.533569	146.900000
375.627045	146.240000
375.720612	146.380000
375.814117	146.340000
375.907684	145.580000
376.001160	145.320000
376.094727	145.080000
376.188232	145.840000
376.281799	146.020000
376.375336	146.080000
376.468872	147.040000
376.562408	147.480000
376.655914	146.920000
376.749451	146.640000
376.842987	147.180000
376.936523	146.360000
377.030060	146.220000
377.123596	146.100000
377.217133	145.860000
377.310669	145.620000
377.404205	146.300000
377.497772	147.000000
377.591278	147.060000
377.684845	147.700000
377.778351	147.700000
377.871918	147.420000
377.965424	146.320000
378.058990	146.300000
378.152496	145.740000
378.246063	146.120000
378.339569	146.420000
378.433136	146.800000
378.526642	146.880000
378.620209	146.860000
378.713745	145.980000
378.807312	146.280000
378.900848	146.240000
378.994385	146.320000
379.087921	145.820000
379.181458	146.360000
379.274994	145.780000
379.368530	145.800000
379.462097	145.980000
379.555634	146.760000
379.649170	146.160000
379.742706	146.240000
379.836273	146.320000
379.929810	146.060000
380.023376	145.440000
380.116882	145.660000
380.210449	145.400000
380.303986	145.140000
380.397552	144.840000
380.491058	145.460000
380.584656	145.260000
380.678162	145.580000
380.771729	145.640000
380.865265	146.360000
380.958832	146.120000
381.052368	146.440000
381.145935	146.500000
381.239471	146.900000
381.333008	146.480000
381.426575	146.580000
381.520111	146.720000
381.613647	146.740000
381.707214	146.400000
381.800751	145.820000
381.894318	145.980000
381.987854	145.620000
382.081421	145.420000
382.174988	145.740000
382.268524	145.860000
382.362091	145.980000
382.455627	146.900000
382.549194	146.680000
382.642731	146.060000
382.736298	145.920000
382.829834	145.580000
382.923401	145.740000
383.016937	146.120000
383.110504	146.680000
383.204041	147.060000
383.297607	147.600000
383.391174	146.420000
383.484741	146.920000
383.578278	146.540000
383.671844	146.320000
383.765411	145.420000
383.858948	146.140000
383.952515	145.440000
384.046051	145.880000
384.139618	146.500000
384.233185	146.800000
384.326721	146.300000
384.420288	146.960000
384.513855	146.860000
384.607422	146.940000
384.700989	147.240000
384.794525	147.300000
384.888123	146.860000
384.981659	146.900000
385.075226	146.160000
385.168762	145.700000
385.262360	145.800000
385.355896	145.120000
385.449463	145.160000
385.542999	145.340000
385.636597	146.420000
385.730164	146.340000
385.823730	146.380000
385.917267	145.760000
386.010834	145.800000
386.104401	145.300000
386.197968	145.520000
386.291534	146.020000
386.385101	146.320000
386.478668	146.800000
386.572235	146.320000
386.665802	145.700000
386.759338	145.320000
386.852905	145.400000
386.946472	144.880000
387.040070	145.100000
387.133606	145.440000
387.227203	145.240000
387.320740	145.660000
387.414337	145.520000
387.507874	145.560000
387.601471	145.800000
387.695007	145.820000
387.788605	145.520000
387.882141	145.740000
387.975739	145.800000
388.069275	145.320000
388.162872	145.760000
388.256439	145.600000
388.350037	145.240000
388.443604	145.120000
388.537170	145.520000
388.630737	145.920000
388.724304	146.000000
388.817871	146.200000
388.911438	146.200000
389.005005	146.300000
389.098602	146.380000
389.192169	145.820000
389.285736	146.380000
389.379333	146.360000
389.472870	145.860000
389.566467	145.500000
389.660034	146.020000
389.753632	145.280000
389.847168	145.520000
389.940765	145.860000
390.034332	146.140000
390.127930	145.820000
390.221466	145.920000
390.315063	145.340000
390.408630	144.920000
390.502228	143.840000
390.595795	144.000000
390.689362	144.360000
390.782959	144.960000
390.876526	145.720000
390.970093	146.180000
391.063690	146.660000
391.157257	146.380000
391.250824	146.280000
391.344421	145.660000
391.437988	146.080000
391.531555	146.340000
391.625153	146.760000
391.718750	147.040000
391.812317	147.120000
391.905914	146.400000
391.999481	146.000000
392.093079	145.740000
392.186615	145.780000
392.280243	146.180000
392.373779	146.800000
392.467407	147.240000
392.560944	147.060000
392.654572	146.780000
392.748108	146.360000
392.841736	146.320000
392.935303	145.720000
393.028900	145.780000
393.122467	145.800000
393.216064	145.520000
393.309631	144.880000
393.403229	144.660000
393.496796	144.520000
393.590393	143.880000
393.683990	144.700000
393.777557	145.480000
393.871155	145.960000
393.964722	146.400000
394.058350	146.860000
394.151917	146.380000
394.245514	146.060000
394.339081	146.180000
394.432678	146.240000
394.526245	146.240000
394.619873	146.160000
394.713409	146.420000
394.807037	146.000000
394.900604	146.140000
394.994202	146.380000
395.087769	146.740000
395.181396	146.220000
395.274994	147.040000
395.368561	146.480000
395.462158	146.440000
395.555756	146.000000
395.649353	146.660000
395.742920	146.160000
395.836517	146.840000
395.930115	146.160000
396.023712	146.620000
396.117279	146.680000
396.210876	146.360000
396.304474	146.280000
396.398071	146.760000
396.491669	146.800000
396.585266	146.680000
396.678833	146.640000
396.772461	146.620000
396.866028	146.720000
396.959656	146.980000
397.053223	147.180000
397.146851	147.320000
397.240417	147.940000
397.334015	149.240000
397.427582	149.760000
397.521210	151.000000
397.614807	153.280000
397.708405	155.600000
397.802002	158.000000
397.895599	162.380000
397.989197	167.580000
398.082794	173.720000
398.176392	181.860000
398.269989	191.800000
398.363586	203.600000
398.457184	217.300000
398.550781	233.140000
398.644379	248.660000
398.737976	266.300000
398.831573	284.320000
398.925201	301.720000
399.018768	318.960000
399.112396	335.980000
399.205963	352.920000
399.299591	370.340000
399.393158	389.020000
399.486786	408.480000
399.580353	428.900000
399.673981	447.160000
399.767578	463.580000
399.861206	477.500000
399.954773	487.760000
400.048401	491.760000
400.141998	491.980000
400.235596	489.000000
400.329193	481.780000
400.422791	471.000000
400.516418	460.960000
400.610016	450.620000
400.703613	439.160000
400.797211	425.460000
400.890808	412.040000
400.984436	396.780000
401.078033	378.320000
401.171631	357.080000
401.265259	335.640000
401.358826	312.980000
401.452484	289.200000
401.546051	267.280000
401.639679	246.360000
401.733246	228.660000
401.826904	211.820000
401.920471	197.940000
402.014099	186.360000
402.107697	177.500000
402.201324	169.720000
402.294891	164.300000
402.388550	160.240000
402.482147	157.060000
402.575745	154.200000
402.669373	151.380000
402.762970	149.880000
402.856567	149.020000
402.950195	148.140000
403.043793	147.480000
403.137390	148.140000
403.231018	147.360000
403.324615	147.640000
403.418243	147.080000
403.511841	147.760000
403.605469	147.280000
403.699066	147.780000
403.792694	147.300000
403.886292	147.620000
403.979919	146.980000
404.073517	146.740000
404.167145	146.980000
404.260712	147.020000
404.354370	146.640000
404.447937	146.880000
404.541595	147.200000
404.635162	147.040000
404.728821	147.120000
404.822418	146.980000
404.916046	146.720000
405.009644	146.680000
405.103271	146.720000
405.196899	146.340000
405.290497	146.680000
405.384125	146.980000
405.477722	146.580000
405.571350	145.980000
405.664948	146.260000
405.758575	146.000000
405.852203	145.440000
405.945801	145.880000
406.039429	146.140000
406.133057	145.940000
406.226654	146.020000
406.320312	146.340000
406.413879	146.460000
406.507538	146.840000
406.601135	146.520000
406.694763	146.920000
406.788361	146.760000
406.882019	146.320000
406.975586	146.440000
407.069244	147.340000
407.162872	147.200000
407.256470	147.200000
407.350098	147.280000
407.443726	146.680000
407.537323	145.760000
407.630951	146.020000
407.724579	145.680000
407.818207	145.780000
407.911804	145.800000
408.005432	146.100000
408.099060	146.020000
408.192688	146.380000
408.286285	146.420000
408.379913	146.100000
408.473572	146.200000
408.567169	145.500000
408.660828	145.740000
408.754395	145.560000
408.848053	145.680000
408.941650	145.680000
409.035309	145.560000
409.128906	145.180000
409.222565	145.100000
409.316132	145.240000
409.409790	144.880000
409.503387	145.340000
409.597046	145.360000
409.690674	145.660000
409.784302	145.700000
409.877930	145.580000
409.971558	145.380000
410.065186	145.480000
410.158783	145.380000
410.252411	145.320000
410.346039	146.000000
410.439667	145.740000
410.533295	146.100000
410.626923	146.240000
410.720551	146.020000
410.814209	146.440000
410.907806	147.120000
411.001465	146.580000
411.095062	146.880000
411.188721	147.200000
411.282318	146.560000
411.375977	146.400000
411.469574	146.820000
411.563232	146.240000
411.656830	146.100000
411.750488	146.040000
411.844086	145.820000
411.937744	145.720000
412.031372	145.780000
412.125000	145.780000
412.218628	145.480000
412.312256	146.200000
412.405884	146.680000
412.499512	146.640000
412.593170	146.940000
412.686798	147.480000
412.780426	146.500000
412.874054	146.320000
412.967682	146.300000
413.061310	146.680000
413.154968	146.680000
413.248566	147.020000
413.342224	146.320000
413.435852	146.640000
413.529510	146.240000
413.623108	145.600000
413.716766	145.700000
413.810364	146.380000
413.904022	146.100000
413.997650	146.060000
414.091309	146.980000
414.184906	146.800000
414.278564	146.540000
414.372192	146.900000
414.465851	147.240000
414.559479	146.940000
414.653107	147.840000
414.746735	147.600000
414.840393	147.400000
414.934021	147.240000
415.027649	146.560000
415.121277	146.180000
415.214935	146.720000
415.308563	146.560000
415.402191	145.860000
415.495850	145.920000
415.589478	145.180000
415.683136	144.740000
415.776733	145.000000
415.870422	145.720000
415.964020	145.760000
416.057678	146.360000
416.151306	146.400000
416.244965	146.620000
416.338562	146.820000
416.432251	147.600000
416.525848	148.320000
416.619507	148.720000
416.713165	148.580000
416.806793	148.220000
416.900421	147.800000
416.994080	146.680000
417.087708	146.220000
417.181366	145.960000
417.274994	145.880000
417.368622	146.300000
417.462280	146.940000
417.555908	147.100000
417.649567	146.920000
417.743195	146.840000
417.836853	146.840000
417.930481	147.060000
418.024170	147.160000
418.117767	147.780000
418.211426	148.240000
418.305054	147.940000
418.398712	147.100000
418.492340	147.140000
418.585999	146.980000
418.679626	146.660000
418.773285	146.940000
418.866913	147.380000
418.960571	147.400000
419.054230	147.500000
419.147858	147.620000
419.241516	147.460000
419.335144	147.480000
419.428802	147.300000
419.522461	146.940000
419.616089	146.680000
419.709747	146.860000
419.803375	146.920000
419.897034	146.800000
419.990662	146.900000
420.084320	147.220000
420.177979	147.280000
420.271606	147.260000
420.365295	147.580000
420.458893	147.560000
420.552582	147.420000
420.646210	147.040000
420.739868	146.460000
420.833496	146.120000
420.927155	145.860000
421.020782	145.600000
421.114471	145.060000
421.208069	145.380000
421.301758	145.560000
421.395386	145.660000
421.489044	145.660000
421.582703	146.220000
421.676361	146.580000
421.769989	146.340000
421.863647	146.800000
421.957306	147.000000
422.050934	147.180000
422.144592	147.080000
422.238251	146.920000
422.331909	146.200000
422.425537	145.960000
422.519196	145.860000
422.612854	145.380000
422.706543	145.340000
422.800140	146.000000
422.893829	145.860000
422.987457	145.300000
423.081146	145.460000
423.174744	146.040000
423.268433	145.320000
423.362061	145.380000
423.455750	145.380000
423.549347	145.480000
423.643036	144.820000
423.736664	145.400000
423.830353	145.720000
423.924011	146.500000
424.017639	146.080000
424.111298	146.340000
424.204956	146.640000
424.298615	146.620000
424.392273	146.120000
424.485931	146.640000
424.579559	146.960000
424.673218	146.400000
424.766876	146.380000
424.860535	146.200000
424.954193	145.640000
425.047882	145.980000
425.141510	145.960000
425.235199	146.080000
425.328796	146.100000
425.422485	146.020000
425.516113	145.100000
425.609802	145.160000
425.703430	145.160000
425.797119	145.200000
425.890747	145.440000
425.984436	145.780000
426.078064	145.980000
426.171753	146.140000
426.265411	145.920000
426.359070	146.220000
426.452728	146.120000
426.546356	145.680000
426.640015	145.420000
426.733673	145.600000
426.827332	145.300000
426.920990	145.960000
427.014648	145.740000
427.108307	145.880000
427.201965	146.560000
427.295624	146.680000
427.389282	145.980000
427.482941	146.620000
427.576630	146.180000
427.670258	145.300000
427.763947	145.080000
427.857574	145.280000
427.951263	145.300000
428.044922	145.440000
428.138611	145.540000
428.232239	146.300000
428.325928	146.660000
428.419556	146.720000
428.513245	146.600000
428.606903	146.880000
428.700562	146.140000
428.794220	145.440000
428.887878	144.980000
428.981537	145.260000
429.075195	145.060000
429.168854	145.280000
429.262512	145.380000
429.356201	145.660000
429.449860	145.460000
429.543518	145.380000
429.637177	145.900000
429.730835	146.120000
429.824493	146.020000
429.918182	146.460000
430.011810	146.340000
430.105530	145.340000
430.199158	145.500000
430.292847	145.340000
430.386475	144.660000
430.480164	144.540000
430.573792	144.620000
430.667511	144.180000
430.761139	144.420000
430.854828	145.300000
430.948456	145.700000
431.042145	146.520000
431.135834	146.600000
431.229492	146.400000
431.323151	146.020000
431.416809	145.780000
431.510468	145.360000
431.604156	145.360000
431.697815	145.720000
431.791473	145.240000
431.885132	145.140000
431.978821	145.600000
432.072479	145.680000
432.166138	145.900000
432.259827	146.140000
432.353485	146.420000
432.447174	146.600000
432.540802	146.720000
432.634491	146.620000
432.728149	146.720000
432.821838	147.380000
432.915466	146.780000
433.009186	146.680000
433.102814	145.920000
433.196503	145.800000
433.290131	145.300000
433.383850	145.460000
433.477509	145.600000
433.571167	146.560000
433.664856	146.900000
433.758514	147.220000
433.852173	147.180000
433.945862	146.740000
434.039520	146.660000
434.133179	145.940000
434.226868	145.660000
434.320526	145.200000
434.414185	146.060000
434.507874	145.560000
434.601562	146.400000
434.695221	146.040000
434.788910	146.400000
434.882538	146.140000
434.976257	146.020000
435.069885	145.640000
435.163574	146.120000
435.257233	145.700000
435.350922	145.420000
435.444580	145.160000
435.538269	145.060000
435.631897	145.100000
435.725616	145.780000
435.819275	146.220000
435.912964	147.220000
436.006622	147.700000
436.100311	147.560000
436.193970	146.860000
436.287628	146.680000
436.381317	145.980000
436.474976	145.500000
436.568665	145.020000
436.662323	145.400000
436.756012	145.480000
436.849670	145.620000
436.943390	145.340000
437.037018	145.640000
437.130737	145.640000
437.224365	145.160000
437.318085	145.240000
437.411713	145.660000
437.505432	146.060000
437.599060	146.500000
437.692780	147.340000
437.786407	147.380000
437.880127	147.380000
437.973755	147.260000
438.067474	146.680000
438.161133	146.460000
438.254822	146.920000
438.348480	146.880000
438.442169	147.240000
438.535828	147.780000
438.629517	147.360000
438.723175	146.720000
438.816864	147.200000
438.910553	146.720000
439.004211	146.260000
439.097900	146.220000
439.191559	145.940000
439.285248	145.100000
439.378906	145.340000
439.472626	145.340000
439.566284	145.420000
439.659973	145.960000
439.753632	145.880000
439.847321	146.040000
439.940979	145.960000
440.034698	145.880000
440.128326	145.260000
440.222046	145.640000
440.315674	144.700000
440.409393	145.220000
440.503082	145.040000
440.596741	145.500000
440.690430	145.560000
440.784088	145.840000
440.877777	144.780000
440.971466	145.060000
441.065125	144.920000
441.158813	144.760000
441.252502	144.980000
441.346161	145.580000
441.439850	145.780000
441.533539	145.540000
441.627197	145.920000
441.720886	145.880000
441.814606	146.340000
441.908234	146.460000
442.001953	146.560000
442.095612	146.560000
442.189301	146.720000
442.282959	146.780000
442.376678	145.900000
442.470306	146.520000
442.564026	146.020000
442.657684	146.020000
442.751404	145.460000
442.845032	146.640000
442.938751	146.180000
443.032440	146.340000
443.126099	145.880000
443.219788	146.700000
443.313477	146.400000
443.407166	146.640000
443.500824	146.840000
443.594513	147.320000
443.688202	146.800000
443.781891	146.220000
443.875549	145.900000
443.969238	145.520000
444.062927	145.540000
444.156647	145.460000
444.250275	145.620000
444.343994	146.080000
444.437653	146.360000
444.531372	146.100000
444.625031	146.020000
444.718719	146.020000
444.812378	145.800000
444.906097	145.720000
444.999756	145.340000
445.093445	145.360000
445.187103	145.500000
445.280823	146.020000
445.374512	145.480000
445.468201	145.900000
445.561859	145.760000
445.655548	145.720000
445.749237	144.800000
445.842926	145.180000
445.936615	145.680000
446.030304	145.740000
446.123962	145.800000
446.217651	145.640000
446.311340	145.980000
446.405029	145.320000
446.498749	145.220000
446.592407	144.820000
446.686096	145.280000
446.779755	145.440000
446.873474	145.800000
446.967133	146.100000
447.060852	146.180000
447.154510	145.980000
447.248230	145.720000
447.341858	145.340000
447.435577	144.840000
447.529236	144.660000
447.622955	144.440000
447.716644	144.360000
447.810333	144.660000
447.904022	145.280000
447.997711	145.400000
448.091400	145.700000
448.185059	145.700000
448.278748	146.040000
448.372437	145.800000
448.466125	146.240000
448.559814	146.380000
448.653503	147.060000
448.747192	146.940000
448.840912	147.080000
448.934570	146.840000
449.028290	147.200000
449.121948	146.660000
449.215637	146.300000
449.309296	145.900000
449.403015	146.040000
449.496674	145.940000
449.590393	145.960000
449.684052	145.880000
449.777771	146.680000
449.871429	146.080000
449.965149	145.700000
450.058838	145.760000
450.152527	146.240000
450.246216	145.840000
450.339905	146.200000
450.433594	146.060000
450.527283	146.680000
450.620972	146.620000
450.714661	146.520000
450.808350	146.620000
450.902039	146.760000
450.995728	145.900000
451.089417	145.380000
451.183105	145.480000
451.276794	145.980000
451.370514	145.760000
451.464172	145.280000
451.557892	145.280000
451.651550	145.420000
451.745270	144.640000
451.838928	144.240000
451.932648	144.880000
452.026306	145.420000
452.120026	144.640000
452.213684	145.220000
452.307404	145.740000
452.401062	145.700000
452.494781	145.740000
452.588470	146.080000
452.682159	145.400000
452.775848	145.660000
452.869537	145.360000
452.963226	145.000000
453.056915	144.940000
453.150604	145.440000
453.244293	145.580000
453.337982	146.400000
453.431671	146.680000
453.525360	147.280000
453.619049	147.540000
453.712769	147.420000
453.806427	146.760000
453.900146	146.320000
453.993805	145.960000
454.087555	146.000000
454.181213	145.980000
454.274933	146.140000
454.368591	146.340000
454.462311	146.160000
454.555969	145.660000
454.649689	146.260000
454.743347	146.240000
454.837067	146.780000
454.930756	147.520000
455.024445	147.880000
455.118134	147.140000
455.211853	147.160000
455.305542	146.580000
455.399231	146.100000
455.492920	146.000000
455.586609	146.140000
455.680298	146.380000
455.773987	146.320000
455.867676	146.260000
455.961365	146.300000
456.055084	146.340000
456.148773	146.240000
456.242493	146.160000
456.336151	146.180000
456.429871	146.380000
456.523529	146.680000
456.617249	145.860000
456.710907	146.540000
456.804626	146.340000
456.898315	145.720000
456.992035	145.720000
457.085693	146.020000
457.179413	145.080000
457.273102	146.200000
457.366791	146.300000
457.460480	146.180000
457.554199	147.060000
457.647888	147.320000
457.741577	146.280000
457.835266	146.460000
457.928955	146.620000
458.022644	146.580000
458.116364	146.840000
458.210052	146.960000
458.303741	147.000000
458.397461	146.280000
458.491119	145.380000
458.584839	145.560000
458.678528	145.420000
458.772247	145.220000
458.865906	145.540000
458.959625	146.440000
459.053284	146.340000
459.147003	146.320000
459.240692	146.860000
459.334412	146.800000
459.428070	146.440000
459.521790	145.860000
459.615479	146.020000
459.709198	146.260000
459.802887	145.960000
459.896576	145.460000
459.990265	146.260000
460.083954	146.380000
460.177673	145.700000
460.271362	145.940000
460.365051	146.340000
460.458740	146.040000
460.552429	145.600000
460.646149	145.500000
460.739838	145.180000
460.833527	145.540000
460.927246	145.020000
461.020905	144.940000
461.114655	144.980000
461.208313	145.260000
461.302032	144.700000
461.395691	145.120000
461.489441	145.360000
461.583099	145.380000
461.676819	145.200000
461.770477	145.520000
461.864197	145.040000
461.957916	144.900000
462.051605	144.600000
462.145294	145.680000
462.238983	145.400000
462.332703	145.940000
462.426392	146.560000
462.520081	146.640000
462.613770	145.840000
462.707489	146.040000
462.801178	146.160000
462.894867	145.740000
462.988556	145.780000
463.082275	146.060000
463.175964	145.540000
463.269684	145.800000
463.363342	145.860000
463.457092	145.660000
463.550751	145.560000
463.644470	145.900000
463.738129	145.620000
463.831879	145.780000
463.925537	146.500000
464.019257	146.820000
464.112946	146.740000
464.206665	146.380000
464.300323	146.160000
464.394043	145.840000
464.487762	145.120000
464.581451	145.580000
464.675140	145.580000
464.768829	145.580000
464.862549	145.560000
464.956238	145.780000
465.049927	145.920000
465.143646	146.160000
465.237335	146.020000
465.331024	146.440000
465.424713	146.780000
465.518433	146.360000
465.612152	146.040000
465.705811	146.120000
465.799561	145.840000
465.893219	145.380000
465.986938	145.380000
466.080597	145.340000
466.174347	145.640000
466.268005	145.820000
466.361725	146.000000
466.455414	145.980000
466.549133	146.160000
466.642792	146.200000
466.736542	145.720000
466.830231	145.600000
466.923920	145.500000
467.017609	145.500000
467.111328	144.960000
467.205017	145.060000
467.298706	145.040000
467.392426	145.340000
467.486115	145.840000
467.579803	145.720000
467.673523	146.240000
467.767212	146.460000
467.860901	146.460000
467.954651	146.220000
468.048309	146.820000
468.142029	146.420000
468.235718	146.460000
468.329437	146.020000
468.423096	145.860000
468.516846	145.480000
468.610504	145.100000
468.704224	144.460000
468.797913	144.500000
468.891632	144.780000
468.985291	145.000000
469.079010	145.440000
469.172729	145.400000
469.266418	146.000000
469.360107	146.160000
469.453827	145.760000
469.547516	145.720000
469.641205	146.500000
469.734924	146.580000
469.828613	146.480000
469.922302	147.120000
470.016022	147.340000
470.109711	146.980000
470.203430	146.380000
470.297150	145.560000
470.390808	145.500000
470.484558	145.060000
470.578217	145.340000
470.671936	146.000000
470.765625	147.180000
470.859344	146.820000
470.953003	147.320000
471.046753	147.000000
471.140411	146.320000
471.234131	146.080000
471.327820	146.580000
471.421539	146.560000
471.515228	146.620000
471.608948	146.840000
471.702637	146.320000
471.796326	145.960000
471.890045	145.820000
471.983734	145.840000
472.077423	145.600000
472.171143	145.680000
472.264832	145.480000
472.358521	145.140000
472.452240	144.720000
472.545929	145.240000
472.639648	145.380000
472.733337	145.900000
472.827057	146.260000
472.920746	146.680000
473.014465	146.860000
473.108124	146.880000
473.201874	146.620000
473.295532	146.300000
473.389252	146.920000
473.482941	146.540000
473.576660	146.400000
473.670319	146.340000
473.764069	147.140000
473.857727	146.760000
473.951477	147.140000
474.045166	147.720000
474.138855	147.760000
474.232574	147.220000
474.326263	147.080000
474.419952	147.060000
474.513672	146.720000
474.607361	146.740000
474.701050	147.040000
474.794769	147.480000
474.888458	147.500000
474.982178	147.420000
475.075867	147.500000
475.169586	147.180000
475.263275	146.760000
475.356995	146.420000
475.450653	146.340000
475.544403	146.180000
475.638062	147.040000
475.731812	146.620000
475.825470	146.520000
475.919189	146.680000
476.012878	146.760000
476.106598	145.960000
476.200256	146.480000
476.294006	146.420000
476.387695	146.380000
476.481384	146.160000
476.575104	146.080000
476.668793	145.940000
476.762512	145.740000
476.856201	145.940000
476.949890	145.960000
477.043610	145.660000
477.137299	145.540000
477.230988	145.960000
477.324707	145.560000
477.418396	145.960000
477.512146	146.120000
477.605804	146.160000
477.699524	146.440000
477.793213	146.440000
477.886932	145.940000
477.980591	145.680000
478.074341	145.280000
478.167999	144.660000
478.261749	144.880000
478.355408	144.900000
478.449127	145.420000
478.542816	146.560000
478.636536	147.080000
478.730225	147.140000
478.823944	147.560000
478.917633	147.600000
479.011322	147.280000
479.105042	147.020000
479.198730	147.080000
479.292450	146.940000
479.386139	147.020000
479.479828	147.100000
479.573547	147.440000
479.667267	147.200000
479.760925	147.140000
479.854675	147.060000
479.948334	146.840000
480.042084	145.920000
480.135742	146.100000
480.229462	145.660000
480.323151	145.420000
480.416870	144.980000
480.510529	145.460000
480.604279	144.940000
480.697937	145.420000
480.791656	145.160000
480.885345	144.960000
480.979065	144.980000
481.072754	145.760000
481.166473	146.040000
481.260132	146.260000
481.353882	146.460000
481.447540	146.500000
481.541260	146.320000
481.635010	145.880000
481.728668	145.720000
481.822388	145.820000
481.916077	145.600000
482.009796	145.420000
482.103485	145.800000
482.197205	145.840000
482.290863	146.100000
482.384613	146.060000
482.478271	145.620000
482.571991	145.140000
482.665680	145.200000
482.759399	145.760000
482.853058	146.220000
482.946808	146.500000
483.040466	146.500000
483.134216	146.400000
483.227875	145.440000
483.321594	145.720000
483.415283	145.820000
483.509003	145.700000
483.602661	145.580000
483.696411	146.120000
483.790070	145.740000
483.883789	145.780000
483.977478	146.400000
484.071198	146.700000
484.164917	146.240000
484.258606	145.740000
484.352325	145.680000
484.445984	145.600000
484.539734	145.300000
484.633392	145.160000
484.727142	145.980000
484.820801	146.080000
484.914520	145.640000
485.008209	146.240000
485.101929	146.780000
485.195587	146.180000
485.289337	146.020000
485.382996	146.440000
485.476715	146.280000
485.570404	146.440000
485.664124	146.280000
485.757782	146.300000
485.851532	145.720000
485.945190	145.420000
486.038910	145.060000
486.132599	145.860000
486.226318	145.400000
486.319977	145.760000
486.413727	146.460000
486.507446	146.420000
486.601105	145.580000
486.694855	145.900000
486.788513	145.580000
486.882233	145.120000
486.975922	145.100000
487.069641	145.200000
487.163300	145.020000
487.257050	146.260000
487.350708	146.140000
487.444427	145.980000
487.538116	146.060000
487.631836	145.920000
487.725494	145.140000
487.819214	145.400000
487.912903	145.460000
488.006622	146.020000
488.100281	146.440000
488.194031	146.320000
488.287689	146.500000
488.381409	147.060000
488.475098	146.380000
488.568817	146.600000
488.662476	146.320000
488.756226	145.580000
488.849945	144.880000
488.943604	145.340000
489.037354	145.020000
489.131012	145.300000
489.224731	145.460000
489.318390	145.500000
489.412140	145.180000
489.505798	145.340000
489.599518	144.960000
489.693207	145.320000
489.786926	145.180000
489.880585	145.160000
489.974335	145.260000
490.067993	146.380000
490.161713	146.420000
490.255371	147.340000
490.349121	147.560000
490.442780	147.380000
490.536499	146.220000
490.630188	146.240000
490.723907	145.360000
490.817566	145.060000
490.911285	145.020000
491.004974	145.240000
491.098694	144.700000
491.192413	145.660000
491.286102	145.720000
491.379822	146.060000
491.473480	146.400000
491.567200	146.660000
491.660889	145.640000
491.754608	145.580000
491.848267	145.260000
491.941986	144.920000
492.035675	144.760000
492.129395	145.420000
492.223053	145.360000
492.316772	145.320000
492.410461	145.640000
492.504181	145.760000
492.597839	145.260000
492.691559	145.680000
492.785248	145.860000
492.878967	145.480000
492.972626	145.260000
493.066345	145.480000
493.160034	144.760000
493.253754	144.700000
493.347412	144.680000
493.441132	145.080000
493.534882	145.540000
493.628540	146.300000
493.722260	146.440000
493.815918	146.860000
493.909668	147.520000
494.003326	147.300000
494.097046	147.080000
494.190704	146.960000
494.284454	147.080000
494.378113	146.540000
494.471832	146.300000
494.565491	146.320000
494.659210	146.460000
494.752899	146.220000
494.846619	145.860000
494.940277	145.960000
495.033997	145.840000
495.127686	145.320000
495.221405	145.120000
495.315063	145.240000
495.408783	145.320000
495.502441	145.280000
495.596191	145.740000
495.689850	145.660000
495.783569	146.100000
495.877228	146.420000
495.970947	146.420000
496.064697	146.300000
496.158356	147.240000
496.252075	146.880000
496.345734	146.720000
496.439453	147.380000
496.533142	147.260000
496.626862	147.080000
496.720520	146.960000
496.814240	146.900000
496.907898	146.460000
497.001617	146.760000
497.095306	145.960000
497.189026	146.080000
497.282684	145.860000
497.376404	146.220000
497.470062	145.800000
497.563782	146.120000
497.657471	146.100000
497.751190	145.900000
497.844849	145.380000
497.938568	145.840000
498.032227	145.680000
498.125946	145.500000
498.219635	145.340000
498.313354	145.580000
498.407074	145.020000
498.500732	145.460000
498.594452	145.940000
498.688110	146.160000
498.781830	145.700000
498.875519	145.960000
498.969238	145.500000
499.062897	145.120000
499.156616	145.540000
499.250275	145.940000
499.343994	145.360000
499.437653	145.720000
499.531372	146.080000
499.625061	146.420000
499.718781	146.440000
499.812439	147.380000
499.906158	146.660000
499.999817	146.260000
500.093536	145.500000
500.187195	145.540000
500.280914	145.280000
500.374573	145.940000
500.468323	145.800000
500.561981	146.120000
500.655701	145.760000
500.749420	145.820000
500.843079	145.980000
500.936798	146.180000
501.030457	146.500000
501.124176	146.760000
501.217834	146.580000
501.311554	146.340000
501.405212	146.280000
501.498962	145.460000
501.592621	145.500000
501.686340	145.660000
501.779999	145.420000
501.873718	145.580000
501.967377	146.040000
502.061096	146.240000
502.154755	145.840000
502.248474	146.140000
502.342133	146.360000
502.435852	146.080000
502.529510	146.620000
502.623230	147.520000
502.716888	147.140000
502.810608	146.880000
502.904266	147.520000
502.997986	146.700000
503.091705	145.980000
503.185364	146.000000
503.279083	146.120000
503.372772	145.680000
503.466492	145.500000
503.560150	145.540000
503.653870	145.880000
503.747528	145.780000
503.841248	145.760000
503.934906	146.140000
504.028625	145.740000
504.122284	146.080000
504.216003	146.800000
504.309662	146.500000
504.403381	146.560000
504.497040	147.000000
504.590759	146.260000
504.684418	145.900000
504.778137	146.560000
504.871796	146.620000
504.965515	146.440000
505.059174	146.780000
505.152893	146.140000
505.246521	145.200000
505.340240	144.680000
505.433899	145.020000
505.527618	145.120000
505.621338	145.380000
505.714996	145.680000
505.808716	145.800000
505.902374	146.060000
505.996094	145.740000
506.089752	145.700000
506.183472	145.960000
506.277130	146.260000
506.370850	146.140000
506.464508	146.300000
506.558228	146.540000
506.651886	146.260000
506.745605	146.340000
506.839264	146.080000
506.932983	146.180000
507.026611	146.020000
507.120331	146.480000
507.213989	145.680000
507.307709	145.600000
507.401367	145.760000
507.495087	146.400000
507.588745	146.000000
507.682465	147.420000
507.776123	147.520000
507.869843	147.280000
507.963531	146.560000
508.057190	147.020000
508.150909	145.880000
508.244568	146.200000
508.338287	145.900000
508.431946	145.740000
508.525665	145.440000
508.619324	145.420000
508.713013	145.200000
508.806671	146.000000
508.900391	146.860000
508.994049	147.160000
509.087769	147.060000
509.181427	147.020000
509.275146	146.480000
509.368774	145.940000
509.462494	145.360000
509.556152	145.400000
509.649872	145.860000
509.743530	146.000000
509.837250	145.820000
509.930878	145.980000
510.024597	146.160000
510.118256	145.920000
510.211975	145.720000
510.305695	145.680000
510.399353	145.960000
510.493042	146.480000
510.586700	146.260000
510.680420	146.920000
510.774078	146.840000
510.867798	146.940000
510.961426	146.300000
511.055145	146.380000
511.148804	145.680000
511.242523	146.160000
511.336151	146.000000
511.429871	146.320000
511.523529	146.260000
511.617249	146.380000
511.710876	146.040000
511.804596	145.660000
511.898254	145.400000
511.991974	145.560000
512.085632	145.280000
512.179321	145.320000
512.272949	145.940000
512.366699	146.560000
512.460327	146.340000
512.554077	147.080000
512.647766	147.160000
512.741394	146.800000
512.835144	146.940000
512.928772	146.660000
513.022461	146.460000
513.116150	146.100000
513.209839	146.740000
513.303467	145.880000
513.397217	145.800000
513.490845	145.440000
513.584595	145.720000
513.678223	145.000000
513.771912	144.760000
513.865601	145.120000
513.959290	145.220000
514.052917	145.320000
514.146667	146.240000
514.240295	147.080000
514.333984	147.340000
514.427673	147.280000
514.521362	147.400000
514.614990	146.220000
514.708740	146.080000
514.802368	146.100000
514.896057	146.420000
514.989746	147.380000
515.083435	147.700000
515.177124	147.700000
515.270752	147.360000
515.364502	147.100000
515.458130	146.400000
515.551819	146.300000
515.645508	146.000000
515.739197	146.040000
515.832825	146.040000
515.926575	145.860000
516.020203	146.100000
516.113892	146.920000
516.207520	146.860000
516.301270	146.880000
516.394897	146.740000
516.488586	147.040000
516.582275	146.580000
516.675964	145.880000
516.769592	145.720000
516.863281	146.200000
516.956970	146.240000
517.050659	146.080000
517.144287	146.760000
517.238037	146.900000
517.331665	146.040000
517.425354	145.760000
517.519043	145.600000
517.612732	145.920000
517.706421	145.900000
517.800049	146.060000
517.893738	145.700000
517.987427	145.580000
518.081116	145.320000
518.174744	145.040000
518.268433	145.280000
518.362122	146.100000
518.455811	146.080000
518.549438	146.700000
518.643127	147.720000
518.736816	147.580000
518.830505	147.040000
518.924133	147.100000
519.017822	146.940000
519.111511	146.460000
519.205200	146.920000
519.298828	147.060000
519.392517	146.800000
519.486206	146.820000
519.579895	146.660000
519.673523	145.880000
519.767212	145.660000
519.860901	146.320000
519.954590	145.600000
520.048279	145.340000
520.141907	145.520000
520.235596	146.460000
520.329224	146.580000
520.422974	146.820000
520.516602	146.760000
520.610291	146.660000
520.703918	146.320000
520.797607	145.940000
520.891296	146.000000
520.984985	146.220000
521.078613	146.840000
521.172302	146.220000
521.265930	146.740000
521.359680	147.100000
521.453308	146.840000
521.546997	146.420000
521.640625	146.500000
521.734314	145.660000
521.827942	145.320000
521.921692	145.880000
522.015320	146.200000
522.109009	146.100000
522.202698	146.480000
522.296326	146.520000
522.390015	146.600000
522.483704	146.420000
522.577393	146.160000
522.671021	145.820000
522.764709	145.260000
522.858337	145.400000
522.952026	145.500000
523.045654	146.380000
523.139404	147.040000
523.233032	147.260000
523.326721	146.980000
523.420349	147.000000
523.514038	146.320000
523.607666	146.660000
523.701355	146.420000
523.795044	146.320000
523.888733	146.340000
523.982361	147.000000
524.076050	146.440000
524.169678	147.180000
524.263367	147.000000
524.356995	146.640000
524.450684	146.140000
524.544373	145.880000
524.638062	145.600000
524.731750	145.780000
524.825378	145.820000
524.919067	145.640000
525.012695	145.820000
525.106384	145.600000
525.200012	145.500000
525.293701	145.200000
525.387329	145.380000
525.481018	145.420000
525.574646	145.920000
525.668396	145.780000
525.762024	146.380000
525.855713	146.620000
525.949341	146.360000
526.043030	146.280000
526.136658	146.200000
526.230347	145.940000
526.323975	145.400000
526.417664	145.340000
526.511292	145.120000
526.604980	145.540000
526.698608	145.440000
526.792297	145.560000
526.885925	146.000000
526.979614	146.240000
527.073303	145.760000
527.166931	145.740000
527.260620	146.260000
527.354309	146.400000
527.447998	146.120000
527.541626	146.200000
527.635315	146.340000
527.728943	146.560000
527.822632	146.480000
527.916260	146.620000
528.009949	146.920000
528.103577	146.860000
528.197266	145.940000
528.290894	145.840000
528.384583	145.640000
528.478210	145.560000
528.571899	145.560000
528.665527	146.260000
528.759216	146.260000
528.852844	146.960000
528.946533	147.160000
529.040161	147.240000
529.133850	146.880000
529.227478	147.000000
529.321167	146.960000
529.414856	147.120000
529.508484	147.440000
529.602173	147.120000
529.695801	146.920000
529.789490	146.680000
529.883057	146.400000
529.976746	146.480000
530.070374	147.000000
530.164062	146.720000
530.257690	146.760000
530.351379	146.520000
530.445007	146.280000
530.538696	145.720000
530.632324	146.260000
530.726013	146.000000
530.819641	146.060000
530.913330	145.960000
531.006958	146.060000
531.100647	145.840000
531.194275	145.900000
531.287964	146.020000
531.381592	145.860000
531.475220	146.040000
531.568848	145.900000
531.662537	145.580000
531.756226	145.900000
531.849854	145.840000
531.943542	145.700000
532.037170	145.360000
532.130859	145.860000
532.224487	145.320000
532.318176	145.260000
532.411804	145.760000
532.505432	146.120000
532.599060	145.900000
532.692749	145.780000
532.786377	146.020000
532.880066	145.280000
532.973694	144.840000
533.067383	144.740000
533.161011	145.140000
533.254639	145.100000
533.348267	145.440000
533.441956	146.020000
533.535583	145.880000
533.629272	145.860000
533.722900	145.740000
533.816589	145.740000
533.910156	145.940000
534.003845	145.700000
534.097534	145.980000
534.191162	146.520000
534.284851	146.540000
534.378479	146.040000
534.472107	146.080000
534.565735	145.720000
534.659424	145.640000
534.753052	145.600000
534.846741	145.220000
534.940369	146.020000
535.033997	145.880000
535.127625	145.640000
535.221313	146.180000
535.314941	146.320000
535.408630	145.600000
535.502197	146.300000
535.595886	146.140000
535.689514	145.620000
535.783203	146.160000
535.876831	146.500000
535.970459	145.980000
536.064087	145.900000
536.157776	146.100000
536.251404	146.240000
536.345093	146.000000
536.438721	145.760000
536.532349	146.040000
536.626038	145.700000
536.719666	145.600000
536.813293	145.400000
536.906921	145.520000
537.000610	145.540000
537.094238	145.700000
537.187866	145.740000
537.281494	145.760000
537.375183	146.100000
537.468811	145.940000
537.562439	145.840000
537.656067	145.640000
537.749756	145.840000
537.843384	145.900000
537.937012	146.280000
538.030640	146.240000
538.124329	146.480000
538.217896	146.880000
538.311584	146.800000
538.405212	146.200000
538.498901	146.620000
538.592468	146.940000
538.686157	146.420000
538.779785	145.520000
538.873413	145.860000
538.967102	145.300000
539.060730	144.860000
539.154358	145.400000
539.247986	146.200000
539.341675	146.300000
539.435242	146.600000
539.528931	146.620000
539.622559	146.180000
539.716187	146.940000
539.809814	146.840000
539.903503	146.740000
539.997070	146.480000
540.090759	146.620000
540.184387	145.700000
540.278015	145.920000
540.371643	146.000000
540.465332	146.200000
540.558899	145.900000
540.652588	145.960000
540.746216	145.640000
540.839844	145.960000
540.933472	145.900000
541.027100	146.040000
541.120728	146.140000
541.214417	146.340000
541.308044	146.340000
541.401672	146.160000
541.495300	146.100000
541.588928	145.980000
541.682617	145.720000
541.776184	145.260000
541.869873	145.600000
541.963440	145.960000
542.057129	145.880000
542.150757	145.920000
542.244385	145.900000
542.338013	145.640000
542.431641	145.500000
542.525269	145.400000
542.618958	145.840000
542.712524	146.160000
542.806213	145.960000
542.899780	145.920000
542.993469	145.840000
543.087036	145.360000
543.180725	144.880000
543.274292	145.260000
543.367981	145.380000
543.461548	145.940000
543.555237	145.940000
543.648926	146.580000
543.742493	147.140000
543.836182	147.260000
543.929749	146.940000
544.023437	146.960000
544.117004	147.000000
544.210693	146.560000
544.304260	146.440000
544.397949	146.320000
544.491516	146.620000
544.585205	146.180000
544.678772	145.720000
544.772461	146.220000
544.866028	146.320000
544.959717	146.360000
545.053284	146.320000
545.146973	146.860000
545.240540	146.700000
545.334229	147.120000
545.427795	147.060000
545.521423	147.220000
545.615051	146.820000
545.708679	147.120000
545.802307	146.800000
545.895935	147.100000
545.989624	147.660000
546.083191	147.760000
546.176880	147.280000
546.270447	146.940000
546.364136	147.260000
546.457703	147.000000
546.551331	147.060000
546.644958	147.180000
546.738586	147.780000
546.832214	147.060000
546.925842	146.700000
547.019409	147.100000
547.113098	146.620000
547.206665	146.260000
547.300354	146.240000
547.393921	146.460000
547.487549	146.320000
547.581177	146.380000
547.674805	146.240000
547.768433	145.460000
547.862061	145.700000
547.955627	145.040000
548.049316	145.660000
548.142883	146.140000
548.236572	146.920000
548.330139	146.640000
548.423767	146.620000
548.517456	146.260000
548.611023	146.500000
548.704651	146.020000
548.798279	146.280000
548.891907	146.880000
548.985474	146.880000
549.079163	146.740000
549.172729	146.760000
549.266357	146.020000
549.359985	146.080000
549.453613	145.460000
549.547180	145.280000
549.640869	145.860000
549.734436	145.980000
549.828064	146.260000
549.921631	146.500000
550.015320	146.020000
550.108887	146.220000
550.202515	146.540000
550.296143	145.960000
550.389771	146.360000
550.483337	146.400000
550.576965	145.940000
550.670593	146.020000
550.764221	146.060000
550.857849	145.580000
550.951477	145.440000
551.045105	145.380000
551.138672	145.500000
551.232300	145.020000
551.325928	145.260000
551.419556	145.640000
551.513123	145.740000
551.606750	145.160000
551.700378	145.480000
551.794006	145.460000
551.887573	145.340000
551.981201	145.740000
552.074768	146.380000
552.168457	146.120000
552.262024	147.080000
552.355652	147.220000
552.449219	147.520000
552.542847	147.300000
552.636475	147.200000
552.730103	146.140000
552.823669	145.900000
552.917297	145.400000
553.010864	145.040000
553.104553	145.620000
553.198181	145.400000
553.291748	145.840000
553.385376	145.700000
553.478943	145.680000
553.572571	145.840000
553.666199	146.380000
553.759827	146.160000
553.853394	145.900000
553.947021	146.020000
554.040588	145.700000
554.134216	145.740000
554.227783	146.260000
554.321411	147.060000
554.415039	146.800000
554.508667	146.940000
554.602234	146.940000
554.695862	145.840000
554.789429	145.560000
554.883057	145.960000
554.976624	145.740000
555.070251	145.440000
555.163818	145.720000
555.257507	145.520000
555.351074	145.560000
555.444702	146.680000
555.538330	146.600000
555.631897	147.140000
555.725525	147.260000
555.819092	146.940000
555.912720	145.800000
556.006287	146.320000
556.099915	146.040000
556.193481	145.860000
556.287109	146.400000
556.380676	146.440000
556.474304	146.140000
556.567871	146.340000
556.661499	146.180000
556.755066	146.020000
556.848694	146.500000
556.942261	146.600000
557.035889	146.740000
557.129517	146.700000
557.223145	146.940000
557.316711	146.620000
557.410339	146.480000
557.503906	146.220000
557.597473	146.680000
557.691040	146.240000
557.784668	146.360000
557.878296	146.360000
557.971863	146.400000
558.065491	146.340000
558.159058	146.320000
558.252686	146.700000
558.346252	146.960000
558.439880	146.620000
558.533447	146.440000
558.627075	146.040000
558.720642	145.620000
558.814270	145.560000
558.907837	145.760000
559.001465	145.500000
559.095032	146.240000
559.188660	146.380000
559.282227	145.960000
559.375854	146.220000
559.469360	145.940000
559.562988	146.380000
559.656555	145.860000
559.750183	146.240000
559.843750	146.600000
559.937378	146.960000
560.030945	146.340000
560.124573	0.000000
560.218140	0.000000
560.311707	0.000000
560.405334	0.000000
560.498901	0.000000
560.592529	0.000000
560.686096	0.000000
560.779724	0.000000
560.873291	0.000000
560.966858	0.000000
561.060425	0.000000
561.154053	0.000000
561.247620	0.000000
561.341248	0.000000
561.434814	0.000000
561.528381	0.000000
561.621948	0.000000
561.715576	0.000000
561.809143	0.000000
561.902771	0.000000
561.996277	0.000000
562.089905	0.000000
562.183472	0.000000
562.277100	0.000000
