Model Number: SPM-002-B   
Serial Number: 70087108
Firmware Version: 004.15.4
Exposure Time: 100000.000000us
Data Taken on: 11-12-2020 18:48:02.898
Wavelength	Amplitude
221.570786	0.000000
221.663406	0.000000
221.756027	0.000000
221.848648	0.000000
221.941269	0.000000
222.033905	0.000000
222.126526	0.000000
222.219162	0.000000
222.311798	0.000000
222.404419	0.000000
222.497055	0.000000
222.589676	0.000000
222.682312	0.000000
222.774933	0.000000
222.867569	0.000000
222.960205	0.000000
223.052841	0.000000
223.145462	0.000000
223.238098	0.000000
223.330734	0.000000
223.423386	0.000000
223.516022	0.000000
223.608658	0.000000
223.701309	0.000000
223.793945	0.000000
223.886581	0.000000
223.979218	0.000000
224.071869	0.000000
224.164505	0.000000
224.257156	0.000000
224.349792	0.000000
224.442444	0.000000
224.535095	0.000000
224.627747	0.000000
224.720398	0.000000
224.813034	0.000000
224.905685	0.000000
224.998337	145.540000
225.090988	145.360000
225.183640	145.200000
225.276291	145.020000
225.368942	145.160000
225.461594	145.640000
225.554245	145.860000
225.646912	146.140000
225.739578	146.720000
225.832230	147.200000
225.924896	146.340000
226.017548	146.860000
226.110199	147.540000
226.202866	146.700000
226.295532	146.160000
226.388184	146.280000
226.480850	145.680000
226.573517	144.860000
226.666168	145.300000
226.758835	145.540000
226.851501	146.140000
226.944183	146.400000
227.036850	146.020000
227.129517	146.040000
227.222183	146.400000
227.314850	146.100000
227.407516	146.080000
227.500198	147.120000
227.592865	146.580000
227.685532	146.140000
227.778214	146.040000
227.870880	146.260000
227.963562	146.620000
228.056229	147.220000
228.148926	147.120000
228.241592	147.720000
228.334274	147.360000
228.426956	146.840000
228.519638	146.900000
228.612305	146.620000
228.704987	146.300000
228.797668	146.260000
228.890350	145.700000
228.983032	144.900000
229.075714	145.780000
229.168396	145.580000
229.261108	145.320000
229.353790	145.400000
229.446472	146.180000
229.539169	145.900000
229.631851	145.440000
229.724533	145.760000
229.817230	146.100000
229.909912	146.920000
230.002609	146.460000
230.095306	146.700000
230.187988	146.540000
230.280685	146.500000
230.373383	145.020000
230.466095	145.160000
230.558792	145.580000
230.651474	145.700000
230.744171	145.640000
230.836868	146.120000
230.929581	146.400000
231.022278	146.480000
231.114975	146.740000
231.207672	146.280000
231.300369	146.440000
231.393082	146.400000
231.485779	145.940000
231.578506	145.800000
231.671204	146.260000
231.763916	146.120000
231.856613	146.140000
231.949326	146.680000
232.042023	146.440000
232.134735	146.260000
232.227448	146.280000
232.320160	146.680000
232.412872	146.300000
232.505585	147.340000
232.598297	147.960000
232.691010	147.780000
232.783722	147.320000
232.876450	147.820000
232.969162	146.700000
233.061874	145.880000
233.154587	145.480000
233.247314	145.620000
233.340027	144.980000
233.432739	145.760000
233.525467	145.700000
233.618179	146.520000
233.710907	146.080000
233.803635	146.880000
233.896347	146.400000
233.989090	147.160000
234.081818	146.660000
234.174545	146.980000
234.267258	146.060000
234.359985	146.320000
234.452713	146.100000
234.545441	146.040000
234.638168	145.580000
234.730896	146.260000
234.823639	146.140000
234.916367	146.260000
235.009094	146.480000
235.101822	146.900000
235.194580	146.700000
235.287308	146.720000
235.380051	146.340000
235.472778	146.560000
235.565521	147.060000
235.658249	146.900000
235.750992	146.600000
235.843719	146.580000
235.936462	146.460000
236.029205	145.400000
236.121948	144.900000
236.214691	145.260000
236.307449	145.840000
236.400192	145.660000
236.492935	146.000000
236.585678	146.160000
236.678421	146.280000
236.771164	146.200000
236.863907	146.600000
236.956665	146.860000
237.049408	148.440000
237.142151	147.860000
237.234909	148.080000
237.327652	147.740000
237.420410	147.240000
237.513153	146.240000
237.605927	146.200000
237.698669	145.660000
237.791428	145.240000
237.884186	145.840000
237.976944	145.380000
238.069702	145.880000
238.162445	145.460000
238.255203	145.620000
238.347961	146.000000
238.440720	146.020000
238.533478	145.860000
238.626266	145.880000
238.719025	146.420000
238.811783	145.960000
238.904541	146.260000
238.997314	146.220000
239.090073	145.960000
239.182831	146.360000
239.275604	146.960000
239.368362	146.600000
239.461136	146.900000
239.553909	147.280000
239.646667	146.680000
239.739441	146.100000
239.832214	146.460000
239.925003	146.160000
240.017761	146.880000
240.110535	147.340000
240.203308	147.160000
240.296082	147.340000
240.388855	147.300000
240.481628	147.160000
240.574417	147.040000
240.667191	147.420000
240.759964	146.800000
240.852737	146.700000
240.945526	145.960000
241.038315	145.660000
241.131088	145.520000
241.223877	145.720000
241.316650	145.720000
241.409439	146.300000
241.502228	146.000000
241.595001	146.380000
241.687790	146.480000
241.780579	146.340000
241.873367	146.560000
241.966141	146.940000
242.058929	146.240000
242.151718	146.740000
242.244507	147.240000
242.337311	146.420000
242.430099	146.680000
242.522903	147.220000
242.615692	146.560000
242.708481	146.280000
242.801270	146.940000
242.894073	146.640000
242.986862	146.220000
243.079651	146.860000
243.172455	146.880000
243.265244	146.840000
243.358063	146.440000
243.450867	146.900000
243.543655	146.300000
243.636459	146.660000
243.729263	146.880000
243.822067	147.480000
243.914856	147.820000
244.007660	147.940000
244.100464	147.400000
244.193268	146.820000
244.286072	146.460000
244.378876	145.600000
244.471680	145.300000
244.564499	145.780000
244.657318	146.460000
244.750122	146.860000
244.842926	146.560000
244.935745	147.320000
245.028549	147.200000
245.121368	146.620000
245.214172	146.480000
245.306992	146.980000
245.399796	146.420000
245.492615	146.160000
245.585434	146.120000
245.678253	146.040000
245.771072	145.820000
245.863892	146.380000
245.956711	146.820000
246.049530	146.720000
246.142349	146.580000
246.235168	146.760000
246.327988	146.920000
246.420807	146.520000
246.513626	146.740000
246.606445	146.500000
246.699280	146.700000
246.792099	146.180000
246.884918	145.760000
246.977753	145.500000
247.070587	145.740000
247.163422	145.620000
247.256241	145.720000
247.349075	146.400000
247.441895	146.640000
247.534729	146.620000
247.627563	146.160000
247.720383	146.480000
247.813217	146.240000
247.906052	145.840000
247.998886	145.580000
248.091736	145.800000
248.184570	145.380000
248.277405	145.280000
248.370239	146.580000
248.463074	147.800000
248.555908	147.720000
248.648743	147.900000
248.741592	148.400000
248.834427	147.080000
248.927261	146.220000
249.020111	146.920000
249.112946	147.440000
249.205795	146.920000
249.298630	147.520000
249.391495	147.140000
249.484344	146.720000
249.577179	146.160000
249.670029	146.240000
249.762878	146.680000
249.855728	146.940000
249.948563	147.060000
250.041412	146.800000
250.134262	146.880000
250.227112	146.540000
250.319962	146.780000
250.412827	146.700000
250.505692	146.500000
250.598541	146.560000
250.691391	146.360000
250.784241	146.160000
250.877106	146.160000
250.969955	145.960000
251.062805	146.280000
251.155670	146.820000
251.248520	146.580000
251.341385	146.720000
251.434235	146.900000
251.527100	146.580000
251.619965	145.940000
251.712814	147.160000
251.805695	147.140000
251.898560	147.420000
251.991425	147.760000
252.084290	148.040000
252.177155	146.920000
252.270020	146.560000
252.362885	146.580000
252.455750	146.380000
252.548615	146.240000
252.641479	146.380000
252.734360	146.540000
252.827240	146.260000
252.920105	146.420000
253.012970	145.920000
253.105850	145.920000
253.198715	145.740000
253.291595	145.900000
253.384460	145.580000
253.477341	146.060000
253.570221	146.220000
253.663086	146.060000
253.755966	146.660000
253.848846	146.500000
253.941727	146.340000
254.034592	146.000000
254.127472	145.800000
254.220367	145.480000
254.313248	145.720000
254.406128	145.240000
254.499008	145.840000
254.591904	146.720000
254.684784	147.360000
254.777664	147.240000
254.870544	147.260000
254.963440	146.940000
255.056335	146.800000
255.149216	146.200000
255.242111	146.740000
255.334991	147.320000
255.427887	147.360000
255.520767	147.280000
255.613663	147.400000
255.706558	146.540000
255.799438	146.040000
255.892334	145.660000
255.985229	145.460000
256.078125	145.160000
256.171021	145.500000
256.263916	146.260000
256.356812	146.620000
256.449707	147.180000
256.542603	147.100000
256.635498	147.540000
256.728394	147.220000
256.821289	146.940000
256.914215	146.560000
257.007080	146.940000
257.100006	147.000000
257.192932	147.440000
257.285828	147.620000
257.378723	147.740000
257.471619	147.300000
257.564545	146.740000
257.657440	146.340000
257.750336	146.800000
257.843262	146.220000
257.936157	147.260000
258.029053	147.580000
258.121979	147.600000
258.214874	147.300000
258.307800	147.500000
258.400696	146.460000
258.493622	146.340000
258.586517	145.820000
258.679443	145.780000
258.772339	145.320000
258.865265	145.280000
258.958160	145.100000
259.051086	145.940000
259.144012	145.900000
259.236938	146.720000
259.329834	146.960000
259.422791	146.580000
259.515717	146.060000
259.608612	146.080000
259.701538	146.020000
259.794464	146.040000
259.887390	146.300000
259.980316	146.060000
260.073212	145.740000
260.166138	144.880000
260.259064	145.040000
260.351990	145.500000
260.444916	145.900000
260.537842	146.400000
260.630768	147.340000
260.723694	147.200000
260.816620	147.220000
260.909546	147.260000
261.002472	146.560000
261.095398	145.900000
261.188354	145.800000
261.281281	144.920000
261.374207	144.720000
261.467133	145.740000
261.560089	146.200000
261.653015	145.880000
261.745972	146.920000
261.838867	147.240000
261.931824	146.920000
262.024780	146.400000
262.117706	146.920000
262.210663	146.760000
262.303589	146.880000
262.396515	146.780000
262.489471	147.780000
262.582397	147.620000
262.675354	147.220000
262.768280	147.040000
262.861237	147.080000
262.954163	146.580000
263.047119	146.520000
263.140045	146.240000
263.233002	146.100000
263.325958	145.920000
263.418884	145.460000
263.511841	145.280000
263.604797	145.460000
263.697723	145.560000
263.790680	145.540000
263.883636	146.400000
263.976593	146.380000
264.069550	146.720000
264.162476	146.200000
264.255463	146.180000
264.348419	145.560000
264.441376	145.780000
264.534332	145.360000
264.627289	145.880000
264.720245	146.240000
264.813202	146.060000
264.906158	146.320000
264.999115	146.720000
265.092072	146.820000
265.185028	147.160000
265.277985	147.340000
265.370941	147.120000
265.463898	147.180000
265.556854	146.640000
265.649811	145.680000
265.742798	145.840000
265.835754	145.960000
265.928711	146.320000
266.021667	146.500000
266.114655	146.960000
266.207611	147.080000
266.300568	146.360000
266.393585	145.640000
266.486511	146.220000
266.579498	145.620000
266.672485	145.500000
266.765442	145.740000
266.858429	146.200000
266.951385	145.480000
267.044342	146.000000
267.137329	145.940000
267.230316	146.100000
267.323273	145.680000
267.416260	146.620000
267.509216	146.440000
267.602203	146.620000
267.695160	147.120000
267.788147	147.380000
267.881134	146.840000
267.974091	147.140000
268.067078	146.700000
268.160065	146.460000
268.253052	146.140000
268.346008	146.000000
268.438995	145.620000
268.531982	146.160000
268.624969	145.760000
268.717987	146.320000
268.810944	146.240000
268.903961	146.360000
268.996948	145.720000
269.089905	146.280000
269.182892	146.100000
269.275879	146.560000
269.368866	146.140000
269.461853	146.600000
269.554871	146.320000
269.647858	146.120000
269.740845	146.120000
269.833832	146.700000
269.926819	146.340000
270.019806	146.600000
270.112793	146.400000
270.205811	146.260000
270.298798	145.840000
270.391785	146.620000
270.484772	146.120000
270.577789	146.200000
270.670776	145.720000
270.763763	145.740000
270.856750	145.380000
270.949768	145.360000
271.042786	145.520000
271.135773	145.800000
271.228790	146.540000
271.321808	145.880000
271.414795	145.680000
271.507782	145.480000
271.600800	145.220000
271.693817	145.140000
271.786804	145.980000
271.879822	146.420000
271.972809	146.380000
272.065826	147.100000
272.158844	146.500000
272.251831	146.840000
272.344849	146.880000
272.437866	146.720000
272.530853	146.520000
272.623871	146.680000
272.716888	145.340000
272.809906	145.240000
272.902893	145.300000
272.995911	144.660000
273.088928	144.660000
273.181946	145.340000
273.274963	145.240000
273.367981	145.540000
273.460999	145.880000
273.554047	146.460000
273.647003	147.000000
273.740051	147.420000
273.833069	147.580000
273.926086	147.780000
274.019135	147.200000
274.112152	146.760000
274.205170	146.500000
274.298187	146.800000
274.391205	146.320000
274.484222	146.500000
274.577240	146.640000
274.670258	146.380000
274.763306	145.900000
274.856323	146.280000
274.949341	146.200000
275.042358	146.380000
275.135406	146.560000
275.228424	146.400000
275.321442	146.280000
275.414490	146.240000
275.507507	146.420000
275.600525	146.580000
275.693573	146.700000
275.786591	146.420000
275.879669	146.540000
275.972656	146.040000
276.065735	145.800000
276.158752	146.040000
276.251801	146.880000
276.344818	147.020000
276.437866	146.960000
276.530884	146.960000
276.623932	146.060000
276.716980	145.660000
276.809998	145.640000
276.903046	145.460000
276.996094	146.220000
277.089111	147.220000
277.182159	147.800000
277.275208	147.460000
277.368256	147.900000
277.461304	147.420000
277.554321	146.600000
277.647369	146.040000
277.740417	145.900000
277.833466	145.580000
277.926514	145.440000
278.019562	146.340000
278.112610	145.880000
278.205688	146.240000
278.298706	146.460000
278.391785	146.020000
278.484833	145.340000
278.577881	145.340000
278.670929	145.220000
278.763977	145.340000
278.857025	146.180000
278.950073	146.460000
279.043121	146.660000
279.136169	146.640000
279.229248	146.100000
279.322296	145.760000
279.415344	145.520000
279.508392	145.300000
279.601440	145.400000
279.694519	145.360000
279.787567	145.200000
279.880615	145.080000
279.973694	145.260000
280.066742	145.180000
280.159790	145.500000
280.252869	145.440000
280.345917	145.980000
280.438995	146.100000
280.532074	145.960000
280.625122	146.280000
280.718201	147.300000
280.811279	147.100000
280.904327	147.060000
280.997406	147.200000
281.090454	147.320000
281.183533	146.480000
281.276581	146.500000
281.369659	146.180000
281.462738	146.060000
281.555786	145.560000
281.648865	145.600000
281.741943	145.380000
281.835022	146.400000
281.928070	146.500000
282.021149	146.540000
282.114227	146.340000
282.207306	146.400000
282.300385	146.200000
282.393433	146.420000
282.486511	146.240000
282.579590	147.000000
282.672668	147.140000
282.765747	146.420000
282.858856	146.060000
282.951904	146.340000
283.045013	146.060000
283.138062	146.520000
283.231171	147.160000
283.324249	147.260000
283.417328	147.420000
283.510406	146.880000
283.603485	146.400000
283.696564	146.160000
283.789642	146.540000
283.882751	146.120000
283.975830	146.760000
284.068909	146.460000
284.161987	146.900000
284.255066	146.300000
284.348175	146.580000
284.441254	146.280000
284.534332	146.740000
284.627441	146.040000
284.720520	145.940000
284.813599	145.960000
284.906708	146.160000
284.999786	145.800000
285.092896	145.460000
285.185974	146.680000
285.279053	146.320000
285.372192	146.120000
285.465240	146.780000
285.558380	147.020000
285.651459	146.260000
285.744568	147.320000
285.837677	147.060000
285.930756	146.680000
286.023865	147.040000
286.116943	146.460000
286.210052	146.020000
286.303162	146.660000
286.396240	146.760000
286.489349	146.300000
286.582458	147.100000
286.675568	146.580000
286.768646	146.200000
286.861755	146.580000
286.954865	147.420000
287.047974	146.640000
287.141083	146.580000
287.234161	146.220000
287.327271	145.820000
287.420380	146.040000
287.513519	146.160000
287.606598	146.240000
287.699738	146.660000
287.792816	146.680000
287.885956	146.120000
287.979034	146.140000
288.072174	146.460000
288.165283	146.440000
288.258392	146.540000
288.351501	146.000000
288.444611	146.320000
288.537720	146.460000
288.630859	146.140000
288.723969	146.000000
288.817078	146.560000
288.910187	146.440000
289.003296	145.900000
289.096436	145.620000
289.189545	145.600000
289.282654	145.100000
289.375763	145.700000
289.468903	146.100000
289.562012	146.580000
289.655121	146.440000
289.748260	146.740000
289.841400	146.640000
289.934509	146.380000
290.027649	146.440000
290.120728	146.380000
290.213898	146.320000
290.306976	146.000000
290.400146	146.340000
290.493256	146.140000
290.586395	146.380000
290.679535	146.780000
290.772644	146.680000
290.865784	145.860000
290.958893	145.540000
291.052032	145.180000
291.145172	145.000000
291.238281	144.760000
291.331421	144.980000
291.424561	145.840000
291.517670	145.760000
291.610809	146.140000
291.703949	146.320000
291.797089	146.780000
291.890228	146.020000
291.983337	146.020000
292.076477	145.300000
292.169617	145.780000
292.262756	145.760000
292.355927	145.960000
292.449036	146.140000
292.542206	146.480000
292.635315	146.240000
292.728485	146.380000
292.821625	146.300000
292.914764	147.260000
293.007904	147.180000
293.101044	147.100000
293.194183	146.760000
293.287323	146.920000
293.380463	145.900000
293.473602	145.620000
293.566742	145.820000
293.659882	146.300000
293.753021	146.340000
293.846191	146.480000
293.939331	146.080000
294.032471	145.900000
294.125610	145.620000
294.218781	145.920000
294.311920	146.140000
294.405060	146.800000
294.498230	146.820000
294.591370	146.800000
294.684540	146.020000
294.777679	145.700000
294.870850	145.980000
294.963959	145.700000
295.057159	145.480000
295.150299	146.000000
295.243469	146.060000
295.336609	145.160000
295.429779	145.500000
295.522919	145.980000
295.616089	145.820000
295.709229	146.060000
295.802399	146.560000
295.895569	146.060000
295.988708	145.700000
296.081879	146.080000
296.175018	145.600000
296.268188	145.640000
296.361359	146.300000
296.454529	146.520000
296.547668	146.200000
296.640839	146.800000
296.734009	146.520000
296.827179	146.340000
296.920319	146.520000
297.013519	146.240000
297.106659	146.020000
297.199860	146.020000
297.292999	145.880000
297.386200	145.400000
297.479309	145.460000
297.572510	145.480000
297.665680	145.420000
297.758850	145.520000
297.852020	145.660000
297.945190	145.400000
298.038361	145.080000
298.131531	145.840000
298.224701	145.420000
298.317871	145.260000
298.411072	145.220000
298.504242	145.300000
298.597412	144.960000
298.690582	145.280000
298.783752	145.380000
298.876923	146.160000
298.970093	146.080000
299.063293	146.260000
299.156464	146.620000
299.249634	146.880000
299.342834	146.860000
299.436005	147.640000
299.529205	147.480000
299.622345	147.260000
299.715576	146.680000
299.808716	146.300000
299.901917	145.720000
299.995117	146.000000
300.088287	146.260000
300.181488	146.260000
300.274658	146.360000
300.367828	146.580000
300.461029	146.380000
300.554199	146.500000
300.647400	146.480000
300.740601	146.800000
300.833771	146.780000
300.926971	146.820000
301.020142	146.320000
301.113342	146.680000
301.206512	146.300000
301.299713	146.340000
301.392914	146.360000
301.486084	146.600000
301.579285	146.340000
301.672516	147.020000
301.765686	146.780000
301.858887	146.560000
301.952057	146.680000
302.045288	146.720000
302.138458	146.060000
302.231659	145.920000
302.324860	145.960000
302.418060	145.580000
302.511261	145.640000
302.604462	145.920000
302.697662	146.000000
302.790863	146.040000
302.884064	145.860000
302.977264	145.880000
303.070465	146.100000
303.163666	146.740000
303.256866	146.760000
303.350067	146.780000
303.443268	146.660000
303.536469	146.640000
303.629669	146.060000
303.722870	146.120000
303.816071	146.060000
303.909271	146.520000
304.002472	145.780000
304.095673	145.520000
304.188934	144.900000
304.282104	145.960000
304.375336	145.940000
304.468506	146.440000
304.561768	146.360000
304.654968	147.080000
304.748169	146.400000
304.841370	145.980000
304.934601	146.060000
305.027802	146.260000
305.121002	145.980000
305.214233	146.020000
305.307434	146.020000
305.400665	146.620000
305.493866	146.260000
305.587097	146.760000
305.680298	146.340000
305.773499	146.840000
305.866730	146.540000
305.959930	147.160000
306.053162	147.340000
306.146393	147.540000
306.239594	146.940000
306.332825	146.340000
306.426025	146.660000
306.519287	146.000000
306.612488	146.100000
306.705719	146.180000
306.798920	146.500000
306.892181	145.820000
306.985352	145.600000
307.078613	145.220000
307.171844	145.600000
307.265045	145.160000
307.358276	145.060000
307.451508	145.600000
307.544739	146.040000
307.637970	145.580000
307.731201	145.860000
307.824402	146.460000
307.917633	146.460000
308.010864	146.680000
308.104095	147.380000
308.197327	147.380000
308.290558	147.440000
308.383789	147.100000
308.477020	146.680000
308.570251	145.720000
308.663483	145.400000
308.756714	144.860000
308.849976	144.900000
308.943176	145.520000
309.036438	145.520000
309.129639	145.560000
309.222900	145.940000
309.316101	145.820000
309.409393	145.000000
309.502625	145.120000
309.595856	145.400000
309.689087	145.080000
309.782318	145.140000
309.875580	145.680000
309.968811	145.780000
310.062042	145.600000
310.155273	145.880000
310.248535	146.280000
310.341766	146.120000
310.434998	146.040000
310.528259	145.580000
310.621490	145.900000
310.714722	145.180000
310.807983	145.220000
310.901215	145.760000
310.994476	146.280000
311.087708	145.700000
311.181000	146.240000
311.274200	145.780000
311.367462	145.300000
311.460693	145.120000
311.553986	145.860000
311.647186	145.680000
311.740479	146.360000
311.833710	146.200000
311.926971	146.120000
312.020203	145.500000
312.113464	145.460000
312.206726	144.740000
312.299957	145.380000
312.393219	145.820000
312.486481	145.680000
312.579712	145.600000
312.672974	145.940000
312.766235	145.880000
312.859497	146.060000
312.952759	146.120000
313.045990	146.760000
313.139252	146.300000
313.232513	146.220000
313.325775	146.000000
313.419037	146.020000
313.512299	145.420000
313.605530	146.000000
313.698822	146.200000
313.792053	146.180000
313.885345	145.880000
313.978577	146.300000
314.071869	145.780000
314.165131	145.740000
314.258392	146.020000
314.351654	146.400000
314.444916	145.620000
314.538177	146.580000
314.631439	147.020000
314.724701	146.800000
314.817993	146.820000
314.911255	147.560000
315.004517	146.620000
315.097778	146.060000
315.191040	146.480000
315.284302	146.640000
315.377594	146.380000
315.470856	146.480000
315.564117	146.140000
315.657379	145.140000
315.750671	144.560000
315.843933	144.640000
315.937195	144.420000
316.030518	144.500000
316.123749	144.900000
316.217041	145.900000
316.310303	145.880000
316.403595	146.240000
316.496857	146.360000
316.590149	146.580000
316.683411	145.660000
316.776703	145.660000
316.869965	145.540000
316.963257	145.240000
317.056519	144.380000
317.149811	144.300000
317.243073	143.860000
317.336365	144.120000
317.429626	144.540000
317.522919	145.300000
317.616180	145.580000
317.709473	145.780000
317.802765	145.760000
317.896027	145.660000
317.989319	145.860000
318.082611	145.960000
318.175873	146.020000
318.269165	145.960000
318.362488	145.840000
318.455750	145.480000
318.549042	145.620000
318.642303	146.080000
318.735626	146.220000
318.828888	146.420000
318.922211	146.180000
319.015472	146.720000
319.108765	145.980000
319.202057	145.440000
319.295349	145.620000
319.388641	145.900000
319.481934	145.320000
319.575226	145.640000
319.668518	146.040000
319.761810	145.880000
319.855103	145.980000
319.948395	145.860000
320.041687	145.920000
320.134979	146.200000
320.228271	146.000000
320.321564	145.920000
320.414856	146.200000
320.508148	145.760000
320.601440	145.180000
320.694763	145.460000
320.788025	146.040000
320.881348	145.700000
320.974640	145.840000
321.067963	145.640000
321.161224	145.760000
321.254547	145.040000
321.347839	145.800000
321.441162	145.680000
321.534454	146.160000
321.627747	145.840000
321.721069	146.500000
321.814362	146.200000
321.907654	146.360000
322.000946	146.140000
322.094269	146.740000
322.187561	146.340000
322.280884	146.340000
322.374176	146.720000
322.467468	147.180000
322.560791	146.660000
322.654083	147.020000
322.747406	147.120000
322.840698	147.260000
322.934021	147.320000
323.027344	147.700000
323.120636	147.180000
323.213959	147.320000
323.307251	146.660000
323.400574	146.160000
323.493866	145.800000
323.587219	146.000000
323.680511	145.800000
323.773834	146.020000
323.867157	146.540000
323.960449	146.420000
324.053772	146.200000
324.147095	146.060000
324.240387	146.320000
324.333710	146.280000
324.427032	146.640000
324.520355	146.580000
324.613647	146.460000
324.706970	146.500000
324.800293	146.360000
324.893616	146.460000
324.986938	146.640000
325.080231	146.380000
325.173553	146.780000
325.266876	147.120000
325.360199	146.880000
325.453522	146.580000
325.546875	146.560000
325.640167	145.960000
325.733521	146.040000
325.826813	146.220000
325.920166	146.240000
326.013489	146.140000
326.106812	145.400000
326.200134	144.760000
326.293457	144.120000
326.386780	144.280000
326.480103	144.200000
326.573425	144.540000
326.666748	144.680000
326.760071	145.000000
326.853424	144.960000
326.946747	145.160000
327.040070	146.100000
327.133392	145.760000
327.226715	145.280000
327.320068	144.920000
327.413391	145.680000
327.506714	144.600000
327.600037	144.660000
327.693390	145.140000
327.786713	145.380000
327.880066	144.860000
327.973358	145.660000
328.066742	146.240000
328.160034	146.340000
328.253418	146.620000
328.346710	146.200000
328.440063	145.560000
328.533417	145.280000
328.626740	145.620000
328.720093	145.320000
328.813416	145.420000
328.906769	145.820000
329.000092	145.900000
329.093445	145.840000
329.186768	145.980000
329.280121	146.480000
329.373444	146.740000
329.466797	146.660000
329.560120	146.540000
329.653473	146.820000
329.746796	146.460000
329.840149	146.160000
329.933502	146.360000
330.026825	146.060000
330.120178	145.620000
330.213562	145.720000
330.306854	145.640000
330.400238	145.440000
330.493561	145.360000
330.586945	146.040000
330.680237	146.420000
330.773621	146.520000
330.866974	146.580000
330.960327	146.700000
331.053680	146.160000
331.147003	145.720000
331.240356	145.740000
331.333710	145.680000
331.427063	145.380000
331.520416	145.320000
331.613770	145.580000
331.707123	145.680000
331.800476	145.760000
331.893829	147.020000
331.987152	147.160000
332.080505	146.520000
332.173859	146.180000
332.267212	145.740000
332.360565	144.720000
332.453918	144.840000
332.547333	145.340000
332.640656	145.680000
332.734039	145.920000
332.827362	146.020000
332.920746	146.280000
333.014069	146.380000
333.107452	146.880000
333.200806	147.100000
333.294159	147.300000
333.387543	146.580000
333.480896	146.140000
333.574249	145.420000
333.667603	145.100000
333.760956	144.960000
333.854340	145.240000
333.947693	145.220000
334.041046	145.360000
334.134430	145.780000
334.227783	145.480000
334.321136	145.320000
334.414520	145.440000
334.507874	145.880000
334.601227	145.600000
334.694611	145.720000
334.787964	145.900000
334.881348	146.120000
334.974701	145.680000
335.068085	145.240000
335.161438	145.420000
335.254822	145.300000
335.348175	145.100000
335.441559	144.720000
335.534943	145.860000
335.628296	145.760000
335.721680	145.880000
335.815033	146.400000
335.908417	146.980000
336.001770	146.620000
336.095154	146.480000
336.188538	146.080000
336.281891	145.540000
336.375275	145.200000
336.468658	144.680000
336.562012	144.960000
336.655396	145.600000
336.748779	146.100000
336.842133	146.100000
336.935516	146.380000
337.028900	146.020000
337.122284	145.620000
337.215637	145.760000
337.309021	145.600000
337.402435	145.020000
337.495789	144.960000
337.589203	144.860000
337.682526	144.240000
337.775940	144.800000
337.869324	145.540000
337.962708	145.240000
338.056091	145.900000
338.149475	145.860000
338.242859	145.360000
338.336243	144.940000
338.429626	145.160000
338.523010	144.800000
338.616394	144.640000
338.709778	145.040000
338.803162	145.140000
338.896545	145.760000
338.989929	145.620000
339.083313	146.040000
339.176697	145.780000
339.270081	145.580000
339.363464	145.460000
339.456848	145.720000
339.550232	145.100000
339.643616	145.040000
339.737030	145.560000
339.830383	145.200000
339.923828	145.140000
340.017181	145.500000
340.110596	145.520000
340.203949	145.060000
340.297363	145.220000
340.390778	145.100000
340.484161	145.380000
340.577545	145.480000
340.670959	145.580000
340.764343	145.440000
340.857727	145.480000
340.951111	144.880000
341.044525	145.080000
341.137909	145.120000
341.231293	145.140000
341.324707	144.720000
341.418091	145.960000
341.511505	145.900000
341.604889	146.200000
341.698303	146.460000
341.791687	146.740000
341.885071	145.620000
341.978485	145.460000
342.071899	145.620000
342.165283	145.720000
342.258698	146.220000
342.352081	146.740000
342.445496	147.200000
342.538879	146.900000
342.632324	146.420000
342.725708	146.260000
342.819122	146.020000
342.912506	145.280000
343.005920	145.280000
343.099335	146.500000
343.192719	146.000000
343.286133	146.080000
343.379547	146.840000
343.472931	146.660000
343.566345	145.560000
343.659760	146.180000
343.753143	145.660000
343.846558	145.060000
343.939972	145.180000
344.033386	145.820000
344.126770	145.340000
344.220184	145.840000
344.313599	146.200000
344.407043	146.160000
344.500427	145.600000
344.593872	146.380000
344.687225	146.060000
344.780670	145.640000
344.874054	145.580000
344.967499	146.000000
345.060913	145.640000
345.154327	145.820000
345.247742	145.480000
345.341156	145.540000
345.434570	145.400000
345.527985	145.140000
345.621399	145.260000
345.714813	145.520000
345.808228	145.540000
345.901642	145.040000
345.995056	145.020000
346.088470	144.980000
346.181885	145.260000
346.275299	144.980000
346.368713	145.280000
346.462128	145.000000
346.555573	144.940000
346.648987	144.900000
346.742401	145.280000
346.835815	145.260000
346.929260	145.100000
347.022644	145.340000
347.116119	145.380000
347.209503	145.440000
347.302948	146.220000
347.396362	147.240000
347.489807	147.180000
347.583221	148.000000
347.676636	147.760000
347.770050	146.920000
347.863495	146.200000
347.956909	146.240000
348.050323	145.300000
348.143768	145.340000
348.237183	145.060000
348.330597	145.880000
348.424042	146.180000
348.517456	146.680000
348.610901	146.740000
348.704315	146.800000
348.797760	145.840000
348.891174	145.040000
348.984619	144.440000
349.078033	144.940000
349.171448	145.720000
349.264923	145.880000
349.358337	145.980000
349.451782	146.360000
349.545197	145.600000
349.638641	144.720000
349.732086	144.340000
349.825500	144.760000
349.918945	144.080000
350.012390	144.720000
350.105804	145.440000
350.199249	146.140000
350.292664	146.680000
350.386108	147.160000
350.479553	147.460000
350.572968	147.060000
350.666412	147.180000
350.759857	146.640000
350.853302	147.020000
350.946716	146.540000
351.040161	146.980000
351.133606	146.760000
351.227081	146.740000
351.320465	147.340000
351.413940	147.220000
351.507355	147.220000
351.600830	147.340000
351.694244	147.000000
351.787720	146.580000
351.881104	146.620000
351.974579	146.300000
352.067993	146.760000
352.161469	146.880000
352.254883	146.140000
352.348358	146.160000
352.441803	146.180000
352.535248	145.780000
352.628693	146.480000
352.722137	146.520000
352.815582	146.680000
352.909027	146.960000
353.002472	146.760000
353.095917	146.380000
353.189362	147.020000
353.282806	146.920000
353.376251	146.500000
353.469696	146.280000
353.563141	146.360000
353.656586	145.780000
353.750061	145.320000
353.843475	145.400000
353.936981	145.860000
354.030396	145.620000
354.123871	145.880000
354.217285	146.900000
354.310760	147.140000
354.404175	147.000000
354.497681	146.540000
354.591095	146.380000
354.684570	145.540000
354.777985	144.960000
354.871490	144.700000
354.964935	145.560000
355.058380	145.780000
355.151855	145.640000
355.245300	146.360000
355.338745	146.620000
355.432220	146.280000
355.525665	145.840000
355.619110	146.380000
355.712585	146.180000
355.806030	146.000000
355.899475	145.760000
355.992950	146.340000
356.086426	146.360000
356.179871	146.280000
356.273346	146.380000
356.366791	146.780000
356.460266	146.740000
356.553711	146.380000
356.647186	146.260000
356.740631	145.960000
356.834106	145.620000
356.927551	145.540000
357.021027	145.380000
357.114471	145.700000
357.207947	146.000000
357.301422	146.340000
357.394867	146.280000
357.488342	146.780000
357.581818	146.740000
357.675262	147.000000
357.768738	146.420000
357.862213	145.980000
357.955658	145.720000
358.049133	145.300000
358.142609	145.160000
358.236053	145.340000
358.329529	145.580000
358.423035	145.540000
358.516449	145.440000
358.609955	145.820000
358.703400	146.460000
358.796906	146.920000
358.890350	146.760000
358.983826	147.280000
359.077271	146.640000
359.170776	146.440000
359.264221	145.800000
359.357727	146.140000
359.451172	146.320000
359.544647	146.360000
359.638123	146.040000
359.731598	146.600000
359.825073	146.600000
359.918549	146.200000
360.012024	146.400000
360.105499	146.100000
360.198975	145.800000
360.292450	145.580000
360.385925	145.640000
360.479401	145.360000
360.572876	145.840000
360.666351	146.140000
360.759857	146.240000
360.853302	146.560000
360.946808	146.280000
361.040253	146.120000
361.133759	145.740000
361.227203	145.720000
361.320709	144.940000
361.414154	145.760000
361.507660	146.060000
361.601105	146.520000
361.694641	147.140000
361.788086	147.380000
361.881592	147.400000
361.975067	146.820000
362.068542	146.920000
362.162018	146.620000
362.255524	146.240000
362.348999	145.980000
362.442474	146.600000
362.535950	146.020000
362.629456	145.800000
362.722931	146.180000
362.816406	146.340000
362.909882	146.300000
363.003387	146.380000
363.096863	146.520000
363.190338	146.340000
363.283875	146.120000
363.377319	145.680000
363.470825	146.120000
363.564301	145.520000
363.657806	145.920000
363.751282	145.520000
363.844788	146.400000
363.938232	145.820000
364.031769	146.680000
364.125214	146.880000
364.218750	147.680000
364.312225	146.620000
364.405731	146.780000
364.499207	146.340000
364.592712	145.520000
364.686188	145.240000
364.779694	145.720000
364.873169	146.080000
364.966675	145.840000
365.060150	146.240000
365.153656	146.300000
365.247131	146.220000
365.340637	145.860000
365.434143	146.500000
365.527618	146.900000
365.621155	146.280000
365.714600	146.140000
365.808136	146.360000
365.901611	145.220000
365.995117	144.540000
366.088593	144.800000
366.182129	144.500000
366.275604	144.300000
366.369110	144.960000
366.462585	145.220000
366.556122	145.840000
366.649567	146.220000
366.743103	146.460000
366.836609	146.080000
366.930115	146.380000
367.023590	146.120000
367.117096	146.000000
367.210602	145.920000
367.304108	146.680000
367.397614	147.020000
367.491119	147.300000
367.584595	147.580000
367.678101	147.880000
367.771606	147.500000
367.865112	146.860000
367.958649	146.060000
368.052124	145.840000
368.145660	145.600000
368.239136	145.960000
368.332672	146.180000
368.426147	146.700000
368.519684	146.580000
368.613159	146.860000
368.706696	146.360000
368.800171	146.200000
368.893707	145.840000
368.987183	145.840000
369.080719	145.520000
369.174225	145.580000
369.267731	145.900000
369.361237	145.960000
369.454742	145.880000
369.548248	146.020000
369.641754	146.100000
369.735260	145.840000
369.828766	144.920000
369.922272	145.640000
370.015808	145.500000
370.109314	145.400000
370.202820	145.220000
370.296356	146.780000
370.389832	146.180000
370.483368	145.780000
370.576874	145.600000
370.670410	145.720000
370.763885	144.620000
370.857422	144.860000
370.950928	145.060000
371.044464	146.020000
371.137939	146.060000
371.231476	146.660000
371.324982	147.020000
371.418518	147.040000
371.512024	146.680000
371.605560	146.520000
371.699066	146.600000
371.792572	146.080000
371.886108	146.500000
371.979614	146.080000
372.073120	146.860000
372.166656	146.560000
372.260162	146.960000
372.353668	146.320000
372.447205	146.140000
372.540710	145.620000
372.634277	145.680000
372.727753	145.420000
372.821320	145.960000
372.914795	146.100000
373.008362	146.220000
373.101837	146.400000
373.195404	145.960000
373.288879	145.580000
373.382446	146.400000
373.475922	146.220000
373.569489	146.880000
373.662964	147.780000
373.756531	148.020000
373.850037	147.540000
373.943573	147.580000
374.037109	146.320000
374.130615	146.180000
374.224152	146.260000
374.317657	146.180000
374.411194	146.800000
374.504730	147.180000
374.598236	146.760000
374.691772	146.540000
374.785309	146.480000
374.878815	145.540000
374.972351	145.700000
375.065887	145.660000
375.159454	146.300000
375.252930	146.400000
375.346497	146.820000
375.440002	147.480000
375.533569	147.560000
375.627045	146.600000
375.720612	146.640000
375.814117	146.900000
375.907684	146.280000
376.001160	146.260000
376.094727	146.200000
376.188232	146.720000
376.281799	146.680000
376.375336	146.500000
376.468872	147.080000
376.562408	147.300000
376.655914	146.740000
376.749451	146.480000
376.842987	146.700000
376.936523	145.920000
377.030060	146.140000
377.123596	146.280000
377.217133	146.000000
377.310669	146.080000
377.404205	146.480000
377.497772	146.620000
377.591278	146.240000
377.684845	147.000000
377.778351	146.960000
377.871918	146.920000
377.965424	146.140000
378.058990	146.060000
378.152496	145.800000
378.246063	146.180000
378.339569	146.480000
378.433136	147.260000
378.526642	147.580000
378.620209	147.200000
378.713745	146.660000
378.807312	146.640000
378.900848	146.220000
378.994385	146.320000
379.087921	145.960000
379.181458	146.020000
379.274994	145.220000
379.368530	145.100000
379.462097	145.260000
379.555634	146.120000
379.649170	145.760000
379.742706	146.020000
379.836273	146.620000
379.929810	146.220000
380.023376	145.680000
380.116882	145.860000
380.210449	145.860000
380.303986	145.360000
380.397552	145.060000
380.491058	145.280000
380.584656	144.940000
380.678162	145.020000
380.771729	145.220000
380.865265	145.980000
380.958832	146.100000
381.052368	146.620000
381.145935	147.040000
381.239471	147.640000
381.333008	147.260000
381.426575	146.680000
381.520111	146.920000
381.613647	146.900000
381.707214	146.060000
381.800751	145.720000
381.894318	146.300000
381.987854	145.600000
382.081421	145.320000
382.174988	145.540000
382.268524	145.520000
382.362091	145.560000
382.455627	146.540000
382.549194	146.320000
382.642731	145.660000
382.736298	145.600000
382.829834	145.180000
382.923401	145.560000
383.016937	145.740000
383.110504	146.420000
383.204041	146.780000
383.297607	147.160000
383.391174	145.900000
383.484741	146.740000
383.578278	146.480000
383.671844	146.220000
383.765411	145.800000
383.858948	146.320000
383.952515	145.660000
384.046051	146.260000
384.139618	146.680000
384.233185	146.860000
384.326721	147.120000
384.420288	147.700000
384.513855	147.480000
384.607422	147.620000
384.700989	147.740000
384.794525	146.960000
384.888123	146.680000
384.981659	146.580000
385.075226	146.080000
385.168762	145.940000
385.262360	146.180000
385.355896	145.460000
385.449463	145.520000
385.542999	145.660000
385.636597	146.200000
385.730164	146.700000
385.823730	146.400000
385.917267	146.020000
386.010834	146.220000
386.104401	145.960000
386.197968	145.740000
386.291534	146.760000
386.385101	146.560000
386.478668	146.540000
386.572235	146.460000
386.665802	145.900000
386.759338	145.180000
386.852905	145.200000
386.946472	144.840000
387.040070	144.840000
387.133606	145.200000
387.227203	144.980000
387.320740	145.340000
387.414337	145.440000
387.507874	145.280000
387.601471	145.060000
387.695007	145.160000
387.788605	144.980000
387.882141	145.120000
387.975739	145.060000
388.069275	144.960000
388.162872	145.180000
388.256439	145.300000
388.350037	144.940000
388.443604	145.060000
388.537170	145.440000
388.630737	145.960000
388.724304	146.200000
388.817871	146.440000
388.911438	146.400000
389.005005	146.480000
389.098602	146.700000
389.192169	146.280000
389.285736	146.320000
389.379333	146.120000
389.472870	145.700000
389.566467	145.200000
389.660034	145.680000
389.753632	145.240000
389.847168	145.780000
389.940765	146.320000
390.034332	146.340000
390.127930	145.560000
390.221466	145.900000
390.315063	145.280000
390.408630	144.400000
390.502228	143.720000
390.595795	144.460000
390.689362	144.520000
390.782959	144.960000
390.876526	145.580000
390.970093	146.060000
391.063690	146.220000
391.157257	146.540000
391.250824	146.800000
391.344421	146.600000
391.437988	146.860000
391.531555	146.920000
391.625153	146.880000
391.718750	147.160000
391.812317	147.440000
391.905914	147.160000
391.999481	147.040000
392.093079	146.760000
392.186615	146.440000
392.280243	146.020000
392.373779	146.020000
392.467407	146.520000
392.560944	146.560000
392.654572	145.920000
392.748108	146.200000
392.841736	146.320000
392.935303	145.420000
393.028900	145.360000
393.122467	145.940000
393.216064	145.480000
393.309631	145.080000
393.403229	144.980000
393.496796	144.640000
393.590393	143.900000
393.683990	144.300000
393.777557	144.720000
393.871155	145.020000
393.964722	145.680000
394.058350	146.080000
394.151917	145.960000
394.245514	145.740000
394.339081	145.880000
394.432678	145.940000
394.526245	145.960000
394.619873	145.660000
394.713409	145.780000
394.807037	145.420000
394.900604	145.440000
394.994202	145.720000
395.087769	146.340000
395.181396	145.740000
395.274994	146.840000
395.368561	145.900000
395.462158	145.940000
395.555756	145.580000
395.649353	146.620000
395.742920	145.820000
395.836517	146.940000
395.930115	146.180000
396.023712	146.480000
396.117279	146.600000
396.210876	146.100000
396.304474	146.100000
396.398071	146.740000
396.491669	147.040000
396.585266	146.680000
396.678833	146.860000
396.772461	146.800000
396.866028	146.660000
396.959656	146.920000
397.053223	147.200000
397.146851	147.280000
397.240417	147.420000
397.334015	148.580000
397.427582	148.840000
397.521210	149.860000
397.614807	151.860000
397.708405	153.840000
397.802002	156.240000
397.895599	160.400000
397.989197	164.960000
398.082794	170.880000
398.176392	179.280000
398.269989	188.540000
398.363586	199.840000
398.457184	214.320000
398.550781	229.880000
398.644379	245.620000
398.737976	263.500000
398.831573	282.100000
398.925201	300.040000
399.018768	318.360000
399.112396	336.360000
399.205963	355.280000
399.299591	374.160000
399.393158	394.780000
399.486786	417.960000
399.580353	441.880000
399.673981	463.640000
399.767578	485.140000
399.861206	502.160000
399.954773	513.560000
400.048401	518.900000
400.141998	519.660000
400.235596	515.620000
400.329193	508.160000
400.422791	497.720000
400.516418	487.840000
400.610016	478.620000
400.703613	467.680000
400.797211	455.080000
400.890808	441.840000
400.984436	426.160000
401.078033	405.460000
401.171631	382.760000
401.265259	358.780000
401.358826	333.740000
401.452484	307.280000
401.546051	283.580000
401.639679	260.700000
401.733246	240.980000
401.826904	222.480000
401.920471	207.000000
402.014099	193.660000
402.107697	183.000000
402.201324	173.640000
402.294891	166.960000
402.388550	161.900000
402.482147	157.980000
402.575745	154.540000
402.669373	151.920000
402.762970	150.000000
402.856567	149.180000
402.950195	148.280000
403.043793	147.640000
403.137390	148.360000
403.231018	147.640000
403.324615	147.680000
403.418243	147.340000
403.511841	147.620000
403.605469	146.540000
403.699066	147.080000
403.792694	147.060000
403.886292	146.980000
403.979919	146.940000
404.073517	147.060000
404.167145	147.220000
404.260712	146.800000
404.354370	146.620000
404.447937	146.700000
404.541595	147.040000
404.635162	146.940000
404.728821	147.600000
404.822418	147.620000
404.916046	147.280000
405.009644	147.160000
405.103271	147.360000
405.196899	146.760000
405.290497	146.800000
405.384125	147.260000
405.477722	146.520000
405.571350	145.940000
405.664948	146.080000
405.758575	146.080000
405.852203	145.300000
405.945801	145.860000
406.039429	146.220000
406.133057	145.860000
406.226654	145.780000
406.320312	145.860000
406.413879	145.760000
406.507538	145.920000
406.601135	145.500000
406.694763	146.000000
406.788361	146.240000
406.882019	145.960000
406.975586	146.240000
407.069244	147.240000
407.162872	147.140000
407.256470	146.800000
407.350098	146.880000
407.443726	146.100000
407.537323	145.380000
407.630951	145.580000
407.724579	145.340000
407.818207	145.620000
407.911804	145.680000
408.005432	146.060000
408.099060	145.860000
408.192688	146.480000
408.286285	146.120000
408.379913	145.920000
408.473572	145.980000
408.567169	145.380000
408.660828	145.060000
408.754395	145.000000
408.848053	144.800000
408.941650	144.480000
409.035309	144.460000
409.128906	144.640000
409.222565	144.880000
409.316132	145.500000
409.409790	145.360000
409.503387	145.720000
409.597046	146.100000
409.690674	146.180000
409.784302	146.200000
409.877930	146.100000
409.971558	146.380000
410.065186	145.940000
410.158783	146.120000
410.252411	145.980000
410.346039	146.600000
410.439667	146.360000
410.533295	146.820000
410.626923	146.800000
410.720551	146.580000
410.814209	146.780000
410.907806	146.900000
411.001465	146.420000
411.095062	146.500000
411.188721	146.860000
411.282318	146.500000
411.375977	146.140000
411.469574	146.160000
411.563232	145.640000
411.656830	145.340000
411.750488	145.200000
411.844086	145.180000
411.937744	145.300000
412.031372	145.100000
412.125000	144.940000
412.218628	144.940000
412.312256	145.820000
412.405884	146.260000
412.499512	146.500000
412.593170	146.980000
412.686798	147.420000
412.780426	146.580000
412.874054	146.760000
412.967682	147.040000
413.061310	147.260000
413.154968	146.960000
413.248566	147.120000
413.342224	146.640000
413.435852	146.580000
413.529510	146.240000
413.623108	145.860000
413.716766	145.660000
413.810364	145.980000
413.904022	145.500000
413.997650	145.360000
414.091309	146.280000
414.184906	146.480000
414.278564	145.820000
414.372192	146.500000
414.465851	146.680000
414.559479	145.940000
414.653107	146.780000
414.746735	146.920000
414.840393	146.700000
414.934021	146.960000
415.027649	146.400000
415.121277	145.940000
415.214935	146.400000
415.308563	146.700000
415.402191	145.820000
415.495850	146.440000
415.589478	145.920000
415.683136	145.440000
415.776733	145.440000
415.870422	146.420000
415.964020	145.880000
416.057678	146.260000
416.151306	146.300000
416.244965	146.000000
416.338562	145.500000
416.432251	146.400000
416.525848	147.040000
416.619507	147.360000
416.713165	147.620000
416.806793	147.800000
416.900421	147.720000
416.994080	146.620000
417.087708	146.420000
417.181366	146.060000
417.274994	145.980000
417.368622	145.920000
417.462280	146.500000
417.555908	146.480000
417.649567	146.460000
417.743195	146.420000
417.836853	146.180000
417.930481	146.540000
418.024170	146.840000
418.117767	147.500000
418.211426	147.720000
418.305054	148.020000
418.398712	147.180000
418.492340	147.040000
418.585999	147.080000
418.679626	147.080000
418.773285	146.860000
418.866913	147.480000
418.960571	147.860000
419.054230	147.640000
419.147858	147.680000
419.241516	148.100000
419.335144	147.740000
419.428802	147.380000
419.522461	147.000000
419.616089	146.560000
419.709747	146.400000
419.803375	146.540000
419.897034	146.200000
419.990662	146.440000
420.084320	147.020000
420.177979	146.800000
420.271606	146.860000
420.365295	147.540000
420.458893	147.440000
420.552582	147.420000
420.646210	147.620000
420.739868	147.420000
420.833496	147.220000
420.927155	147.140000
421.020782	146.720000
421.114471	146.500000
421.208069	146.380000
421.301758	146.320000
421.395386	146.260000
421.489044	146.200000
421.582703	146.180000
421.676361	147.060000
421.769989	146.580000
421.863647	147.100000
421.957306	147.200000
422.050934	147.160000
422.144592	146.620000
422.238251	146.740000
422.331909	146.060000
422.425537	146.000000
422.519196	146.300000
422.612854	145.920000
422.706543	145.680000
422.800140	146.360000
422.893829	145.860000
422.987457	145.420000
423.081146	145.700000
423.174744	146.340000
423.268433	145.440000
423.362061	145.640000
423.455750	145.700000
423.549347	145.500000
423.643036	144.700000
423.736664	145.740000
423.830353	146.000000
423.924011	146.440000
424.017639	146.120000
424.111298	146.320000
424.204956	145.920000
424.298615	145.840000
424.392273	145.320000
424.485931	145.860000
424.579559	146.100000
424.673218	145.920000
424.766876	146.140000
424.860535	145.780000
424.954193	145.380000
425.047882	145.660000
425.141510	145.780000
425.235199	145.660000
425.328796	145.720000
425.422485	145.620000
425.516113	145.020000
425.609802	144.860000
425.703430	144.980000
425.797119	145.060000
425.890747	145.260000
425.984436	145.360000
426.078064	145.480000
426.171753	145.520000
426.265411	145.200000
426.359070	145.360000
426.452728	145.340000
426.546356	145.020000
426.640015	144.320000
426.733673	144.780000
426.827332	144.440000
426.920990	145.180000
427.014648	145.160000
427.108307	145.820000
427.201965	146.620000
427.295624	146.720000
427.389282	146.100000
427.482941	146.580000
427.576630	146.400000
427.670258	145.220000
427.763947	145.180000
427.857574	145.320000
427.951263	144.940000
428.044922	144.540000
428.138611	145.200000
428.232239	145.740000
428.325928	146.200000
428.419556	146.680000
428.513245	146.640000
428.606903	146.600000
428.700562	145.900000
428.794220	145.000000
428.887878	144.320000
428.981537	144.840000
429.075195	144.820000
429.168854	145.340000
429.262512	145.820000
429.356201	146.120000
429.449860	145.920000
429.543518	145.740000
429.637177	145.640000
429.730835	145.280000
429.824493	145.240000
429.918182	145.480000
430.011810	144.860000
430.105530	144.480000
430.199158	144.680000
430.292847	144.780000
430.386475	144.540000
430.480164	144.780000
430.573792	144.540000
430.667511	144.540000
430.761139	144.460000
430.854828	144.960000
430.948456	145.540000
431.042145	146.180000
431.135834	146.040000
431.229492	145.820000
431.323151	145.860000
431.416809	145.800000
431.510468	145.720000
431.604156	145.600000
431.697815	145.900000
431.791473	145.320000
431.885132	144.800000
431.978821	144.920000
432.072479	145.620000
432.166138	145.920000
432.259827	145.800000
432.353485	146.660000
432.447174	146.800000
432.540802	146.480000
432.634491	146.440000
432.728149	147.060000
432.821838	146.900000
432.915466	146.400000
433.009186	146.160000
433.102814	145.280000
433.196503	144.920000
433.290131	144.760000
433.383850	145.180000
433.477509	145.460000
433.571167	146.700000
433.664856	146.900000
433.758514	147.460000
433.852173	147.480000
433.945862	147.420000
434.039520	146.900000
434.133179	146.620000
434.226868	145.960000
434.320526	145.280000
434.414185	145.700000
434.507874	145.400000
434.601562	145.840000
434.695221	145.940000
434.788910	146.200000
434.882538	145.900000
434.976257	145.740000
435.069885	145.360000
435.163574	145.560000
435.257233	145.040000
435.350922	145.160000
435.444580	145.180000
435.538269	145.260000
435.631897	145.380000
435.725616	146.400000
435.819275	146.660000
435.912964	147.100000
436.006622	147.300000
436.100311	147.140000
436.193970	146.560000
436.287628	146.200000
436.381317	146.020000
436.474976	145.680000
436.568665	145.280000
436.662323	145.400000
436.756012	145.500000
436.849670	145.220000
436.943390	145.060000
437.037018	145.040000
437.130737	145.180000
437.224365	144.660000
437.318085	145.220000
437.411713	145.720000
437.505432	146.140000
437.599060	146.620000
437.692780	147.780000
437.786407	147.380000
437.880127	147.340000
437.973755	147.180000
438.067474	146.580000
438.161133	145.740000
438.254822	146.240000
438.348480	145.860000
438.442169	146.400000
438.535828	146.900000
438.629517	146.660000
438.723175	145.900000
438.816864	146.660000
438.910553	145.940000
439.004211	145.560000
439.097900	145.680000
439.191559	146.280000
439.285248	145.400000
439.378906	145.760000
439.472626	145.720000
439.566284	145.540000
439.659973	145.540000
439.753632	145.380000
439.847321	145.720000
439.940979	145.680000
440.034698	145.640000
440.128326	144.960000
440.222046	145.240000
440.315674	144.320000
440.409393	144.480000
440.503082	144.580000
440.596741	145.180000
440.690430	145.360000
440.784088	145.600000
440.877777	145.160000
440.971466	145.300000
441.065125	145.160000
441.158813	144.540000
441.252502	144.560000
441.346161	145.100000
441.439850	145.560000
441.533539	145.240000
441.627197	146.080000
441.720886	145.860000
441.814606	145.820000
441.908234	145.800000
442.001953	145.960000
442.095612	145.880000
442.189301	146.160000
442.282959	146.180000
442.376678	145.200000
442.470306	145.700000
442.564026	145.620000
442.657684	145.620000
442.751404	145.740000
442.845032	147.160000
442.938751	146.540000
443.032440	146.420000
443.126099	146.100000
443.219788	146.200000
443.313477	145.700000
443.407166	146.120000
443.500824	146.100000
443.594513	146.640000
443.688202	146.600000
443.781891	145.820000
443.875549	145.540000
443.969238	145.180000
444.062927	144.940000
444.156647	144.580000
444.250275	145.420000
444.343994	145.480000
444.437653	146.300000
444.531372	146.140000
444.625031	145.960000
444.718719	145.280000
444.812378	145.560000
444.906097	145.240000
444.999756	145.060000
445.093445	145.480000
445.187103	145.840000
445.280823	146.340000
445.374512	145.800000
445.468201	146.100000
445.561859	145.780000
445.655548	145.920000
445.749237	145.020000
445.842926	145.260000
445.936615	145.700000
446.030304	145.400000
446.123962	145.500000
446.217651	145.260000
446.311340	145.660000
446.405029	145.020000
446.498749	145.200000
446.592407	144.600000
446.686096	145.240000
446.779755	144.940000
446.873474	145.180000
446.967133	145.440000
447.060852	145.340000
447.154510	145.280000
447.248230	145.520000
447.341858	145.440000
447.435577	144.840000
447.529236	144.980000
447.622955	144.580000
447.716644	144.380000
447.810333	144.820000
447.904022	145.740000
447.997711	145.680000
448.091400	146.240000
448.185059	146.360000
448.278748	146.340000
448.372437	146.040000
448.466125	146.600000
448.559814	146.060000
448.653503	146.480000
448.747192	146.620000
448.840912	146.820000
448.934570	146.720000
449.028290	147.040000
449.121948	146.480000
449.215637	146.080000
449.309296	145.720000
449.403015	145.700000
449.496674	145.960000
449.590393	146.000000
449.684052	145.720000
449.777771	146.500000
449.871429	145.840000
449.965149	145.560000
450.058838	145.920000
450.152527	146.540000
450.246216	146.000000
450.339905	146.280000
450.433594	145.920000
450.527283	146.240000
450.620972	145.900000
450.714661	145.880000
450.808350	146.180000
450.902039	146.780000
450.995728	146.680000
451.089417	146.400000
451.183105	146.260000
451.276794	146.400000
451.370514	145.760000
451.464172	144.880000
451.557892	144.780000
451.651550	144.820000
451.745270	144.640000
451.838928	144.220000
451.932648	144.620000
452.026306	145.380000
452.120026	145.100000
452.213684	145.200000
452.307404	145.900000
452.401062	145.940000
452.494781	145.640000
452.588470	146.060000
452.682159	145.660000
452.775848	145.580000
452.869537	145.180000
452.963226	144.920000
453.056915	144.460000
453.150604	144.900000
453.244293	145.160000
453.337982	146.100000
453.431671	146.560000
453.525360	147.280000
453.619049	147.160000
453.712769	146.900000
453.806427	146.140000
453.900146	145.680000
453.993805	145.380000
454.087555	145.980000
454.181213	146.280000
454.274933	146.460000
454.368591	146.600000
454.462311	146.380000
454.555969	145.540000
454.649689	146.000000
454.743347	145.780000
454.837067	146.420000
454.930756	147.020000
455.024445	147.380000
455.118134	146.800000
455.211853	147.020000
455.305542	146.300000
455.399231	145.940000
455.492920	145.660000
455.586609	145.680000
455.680298	145.820000
455.773987	145.640000
455.867676	145.860000
455.961365	146.120000
456.055084	146.040000
456.148773	145.500000
456.242493	145.840000
456.336151	145.760000
456.429871	146.180000
456.523529	146.320000
456.617249	146.260000
456.710907	146.780000
456.804626	146.620000
456.898315	145.800000
456.992035	145.620000
457.085693	145.660000
457.179413	144.620000
457.273102	145.360000
457.366791	145.640000
457.460480	146.280000
457.554199	147.340000
457.647888	147.440000
457.741577	146.700000
457.835266	146.740000
457.928955	146.480000
458.022644	146.280000
458.116364	146.940000
458.210052	146.640000
458.303741	146.740000
458.397461	145.820000
458.491119	145.100000
458.584839	144.660000
458.678528	144.300000
458.772247	143.940000
458.865906	144.620000
458.959625	145.640000
459.053284	146.000000
459.147003	146.340000
459.240692	146.860000
459.334412	146.900000
459.428070	146.220000
459.521790	145.760000
459.615479	145.900000
459.709198	146.400000
459.802887	145.900000
459.896576	145.780000
459.990265	146.140000
460.083954	146.300000
460.177673	145.560000
460.271362	145.880000
460.365051	146.000000
460.458740	145.780000
460.552429	145.340000
460.646149	145.320000
460.739838	145.140000
460.833527	145.140000
460.927246	144.860000
461.020905	145.160000
461.114655	145.240000
461.208313	145.580000
461.302032	145.180000
461.395691	145.500000
461.489441	145.600000
461.583099	145.180000
461.676819	144.980000
461.770477	145.580000
461.864197	145.480000
461.957916	145.360000
462.051605	145.200000
462.145294	146.000000
462.238983	145.560000
462.332703	146.080000
462.426392	146.560000
462.520081	146.820000
462.613770	145.980000
462.707489	146.360000
462.801178	146.160000
462.894867	145.860000
462.988556	146.200000
463.082275	146.340000
463.175964	145.880000
463.269684	146.040000
463.363342	145.940000
463.457092	145.140000
463.550751	145.580000
463.644470	146.120000
463.738129	145.960000
463.831879	146.200000
463.925537	147.080000
464.019257	146.960000
464.112946	146.700000
464.206665	146.020000
464.300323	145.640000
464.394043	145.300000
464.487762	144.920000
464.581451	145.000000
464.675140	145.660000
464.768829	145.920000
464.862549	146.200000
464.956238	146.500000
465.049927	146.720000
465.143646	146.560000
465.237335	146.340000
465.331024	146.540000
465.424713	146.480000
465.518433	146.360000
465.612152	146.180000
465.705811	146.160000
465.799561	145.780000
465.893219	145.440000
465.986938	145.180000
466.080597	145.320000
466.174347	145.620000
466.268005	145.660000
466.361725	145.740000
466.455414	145.480000
466.549133	144.860000
466.642792	145.160000
466.736542	144.980000
466.830231	145.100000
466.923920	145.260000
467.017609	145.740000
467.111328	145.020000
467.205017	145.100000
467.298706	145.120000
467.392426	145.520000
467.486115	145.980000
467.579803	145.860000
467.673523	146.100000
467.767212	146.120000
467.860901	145.740000
467.954651	145.720000
468.048309	146.140000
468.142029	145.940000
468.235718	145.840000
468.329437	145.680000
468.423096	145.380000
468.516846	145.240000
468.610504	145.040000
468.704224	144.780000
468.797913	144.920000
468.891632	145.200000
468.985291	145.200000
469.079010	145.360000
469.172729	145.340000
469.266418	146.020000
469.360107	145.960000
469.453827	145.920000
469.547516	146.060000
469.641205	146.800000
469.734924	146.600000
469.828613	146.900000
469.922302	147.260000
470.016022	147.360000
470.109711	146.820000
470.203430	146.040000
470.297150	144.960000
470.390808	144.640000
470.484558	144.180000
470.578217	144.660000
470.671936	145.440000
470.765625	146.420000
470.859344	146.200000
470.953003	146.580000
471.046753	145.780000
471.140411	145.280000
471.234131	145.100000
471.327820	145.820000
471.421539	145.960000
471.515228	145.960000
471.608948	146.020000
471.702637	145.540000
471.796326	144.980000
471.890045	144.880000
471.983734	145.180000
472.077423	144.960000
472.171143	145.460000
472.264832	145.500000
472.358521	145.260000
472.452240	145.260000
472.545929	146.040000
472.639648	146.020000
472.733337	146.200000
472.827057	146.440000
472.920746	146.620000
473.014465	146.640000
473.108124	146.620000
473.201874	146.560000
473.295532	146.140000
473.389252	146.520000
473.482941	146.360000
473.576660	145.820000
473.670319	145.780000
473.764069	146.460000
473.857727	146.340000
473.951477	146.540000
474.045166	147.280000
474.138855	147.040000
474.232574	146.600000
474.326263	146.240000
474.419952	146.240000
474.513672	146.240000
474.607361	146.440000
474.701050	146.560000
474.794769	147.160000
474.888458	147.080000
474.982178	146.880000
475.075867	146.980000
475.169586	147.100000
475.263275	146.440000
475.356995	146.320000
475.450653	146.100000
475.544403	145.620000
475.638062	146.120000
475.731812	146.000000
475.825470	145.660000
475.919189	145.820000
476.012878	146.140000
476.106598	145.460000
476.200256	146.160000
476.294006	146.200000
476.387695	146.640000
476.481384	146.860000
476.575104	146.940000
476.668793	146.400000
476.762512	146.660000
476.856201	146.860000
476.949890	146.540000
477.043610	146.180000
477.137299	146.400000
477.230988	146.460000
477.324707	145.900000
477.418396	146.280000
477.512146	146.500000
477.605804	146.360000
477.699524	146.140000
477.793213	145.940000
477.886932	145.820000
477.980591	145.600000
478.074341	145.400000
478.167999	145.040000
478.261749	144.980000
478.355408	144.660000
478.449127	145.260000
478.542816	146.400000
478.636536	147.060000
478.730225	147.440000
478.823944	147.900000
478.917633	147.720000
479.011322	147.180000
479.105042	147.100000
479.198730	147.140000
479.292450	147.040000
479.386139	147.200000
479.479828	146.980000
479.573547	147.280000
479.667267	146.880000
479.760925	146.880000
479.854675	146.840000
479.948334	147.060000
480.042084	146.340000
480.135742	146.540000
480.229462	146.120000
480.323151	145.940000
480.416870	145.360000
480.510529	145.700000
480.604279	145.080000
480.697937	145.680000
480.791656	145.080000
480.885345	145.100000
480.979065	144.940000
481.072754	145.660000
481.166473	145.780000
481.260132	146.080000
481.353882	146.240000
481.447540	146.020000
481.541260	146.080000
481.635010	145.380000
481.728668	145.460000
481.822388	145.240000
481.916077	145.560000
482.009796	145.120000
482.103485	145.640000
482.197205	145.740000
482.290863	145.920000
482.384613	145.640000
482.478271	145.660000
482.571991	145.520000
482.665680	145.380000
482.759399	146.060000
482.853058	146.320000
482.946808	146.300000
483.040466	146.280000
483.134216	146.380000
483.227875	145.800000
483.321594	146.260000
483.415283	146.420000
483.509003	146.320000
483.602661	145.940000
483.696411	146.040000
483.790070	145.600000
483.883789	145.600000
483.977478	145.720000
484.071198	146.020000
484.164917	145.740000
484.258606	145.320000
484.352325	145.460000
484.445984	145.580000
484.539734	145.380000
484.633392	145.040000
484.727142	145.440000
484.820801	145.200000
484.914520	144.940000
485.008209	145.340000
485.101929	146.020000
485.195587	146.040000
485.289337	146.220000
485.382996	146.680000
485.476715	146.620000
485.570404	146.880000
485.664124	146.600000
485.757782	146.880000
485.851532	146.480000
485.945190	146.280000
486.038910	146.020000
486.132599	146.540000
486.226318	145.780000
486.319977	145.880000
486.413727	146.600000
486.507446	146.140000
486.601105	145.620000
486.694855	145.880000
486.788513	145.700000
486.882233	145.520000
486.975922	145.620000
487.069641	145.520000
487.163300	145.520000
487.257050	146.620000
487.350708	146.140000
487.444427	146.300000
487.538116	146.260000
487.631836	146.060000
487.725494	145.200000
487.819214	145.220000
487.912903	145.100000
488.006622	145.740000
488.100281	145.980000
488.194031	145.820000
488.287689	146.040000
488.381409	146.680000
488.475098	146.360000
488.568817	146.580000
488.662476	146.300000
488.756226	145.920000
488.849945	144.820000
488.943604	145.220000
489.037354	145.260000
489.131012	145.500000
489.224731	145.560000
489.318390	145.800000
489.412140	145.500000
489.505798	145.180000
489.599518	144.940000
489.693207	145.340000
489.786926	145.240000
489.880585	144.700000
489.974335	145.180000
490.067993	146.360000
490.161713	146.540000
490.255371	147.480000
490.349121	148.160000
490.442780	147.940000
490.536499	147.000000
490.630188	146.640000
490.723907	146.060000
490.817566	145.860000
490.911285	145.600000
491.004974	145.380000
491.098694	145.040000
491.192413	145.660000
491.286102	145.400000
491.379822	145.920000
491.473480	146.420000
491.567200	146.680000
491.660889	145.900000
491.754608	145.840000
491.848267	145.480000
491.941986	145.240000
492.035675	145.360000
492.129395	145.880000
492.223053	145.980000
492.316772	146.380000
492.410461	146.180000
492.504181	146.320000
492.597839	145.860000
492.691559	145.660000
492.785248	145.420000
492.878967	145.640000
492.972626	145.120000
493.066345	145.020000
493.160034	145.100000
493.253754	145.020000
493.347412	144.580000
493.441132	144.880000
493.534882	145.340000
493.628540	145.640000
493.722260	145.900000
493.815918	146.080000
493.909668	146.520000
494.003326	146.600000
494.097046	146.760000
494.190704	146.380000
494.284454	146.580000
494.378113	146.440000
494.471832	146.200000
494.565491	145.940000
494.659210	146.100000
494.752899	146.120000
494.846619	145.840000
494.940277	145.980000
495.033997	146.020000
495.127686	145.440000
495.221405	145.160000
495.315063	145.160000
495.408783	145.060000
495.502441	145.040000
495.596191	145.460000
495.689850	145.260000
495.783569	145.700000
495.877228	146.080000
495.970947	145.920000
496.064697	145.820000
496.158356	147.020000
496.252075	146.920000
496.345734	146.400000
496.439453	147.100000
496.533142	147.200000
496.626862	146.880000
496.720520	146.520000
496.814240	146.740000
496.907898	146.560000
497.001617	146.780000
497.095306	146.220000
497.189026	146.060000
497.282684	145.960000
497.376404	146.020000
497.470062	145.720000
497.563782	146.000000
497.657471	146.240000
497.751190	146.140000
497.844849	145.740000
497.938568	145.860000
498.032227	145.760000
498.125946	145.520000
498.219635	145.260000
498.313354	145.480000
498.407074	145.420000
498.500732	145.620000
498.594452	145.840000
498.688110	145.940000
498.781830	145.620000
498.875519	145.300000
498.969238	145.020000
499.062897	144.880000
499.156616	145.520000
499.250275	145.720000
499.343994	145.520000
499.437653	145.740000
499.531372	146.020000
499.625061	146.240000
499.718781	146.260000
499.812439	147.120000
499.906158	146.640000
499.999817	146.200000
500.093536	145.480000
500.187195	145.400000
500.280914	145.160000
500.374573	145.640000
500.468323	145.680000
500.561981	145.940000
500.655701	145.580000
500.749420	145.460000
500.843079	145.360000
500.936798	145.620000
501.030457	145.900000
501.124176	146.240000
501.217834	146.160000
501.311554	146.140000
501.405212	145.860000
501.498962	145.300000
501.592621	145.200000
501.686340	145.680000
501.779999	145.960000
501.873718	146.120000
501.967377	146.340000
502.061096	146.620000
502.154755	146.020000
502.248474	145.800000
502.342133	146.240000
502.435852	146.100000
502.529510	146.540000
502.623230	146.980000
502.716888	146.460000
502.810608	146.100000
502.904266	146.700000
502.997986	146.080000
503.091705	145.660000
503.185364	145.960000
503.279083	146.160000
503.372772	145.640000
503.466492	145.460000
503.560150	145.780000
503.653870	145.900000
503.747528	145.760000
503.841248	145.920000
503.934906	146.280000
504.028625	146.140000
504.122284	146.440000
504.216003	146.880000
504.309662	146.520000
504.403381	146.720000
504.497040	146.760000
504.590759	146.240000
504.684418	146.100000
504.778137	146.660000
504.871796	146.900000
504.965515	146.660000
505.059174	147.100000
505.152893	146.500000
505.246521	145.900000
505.340240	145.500000
505.433899	145.680000
505.527618	145.420000
505.621338	145.920000
505.714996	146.020000
505.808716	145.820000
505.902374	146.380000
505.996094	146.660000
506.089752	146.340000
506.183472	146.240000
506.277130	146.460000
506.370850	146.040000
506.464508	145.660000
506.558228	145.700000
506.651886	145.680000
506.745605	145.620000
506.839264	145.700000
506.932983	145.860000
507.026611	145.760000
507.120331	146.340000
507.213989	146.040000
507.307709	145.900000
507.401367	146.280000
507.495087	147.280000
507.588745	146.540000
507.682465	147.420000
507.776123	147.340000
507.869843	147.040000
507.963531	146.460000
508.057190	147.380000
508.150909	146.480000
508.244568	147.080000
508.338287	146.660000
508.431946	146.200000
508.525665	145.720000
508.619324	145.800000
508.713013	145.440000
508.806671	146.220000
508.900391	147.320000
508.994049	147.400000
509.087769	147.260000
509.181427	147.480000
509.275146	146.880000
509.368774	146.080000
509.462494	145.920000
509.556152	146.020000
509.649872	146.100000
509.743530	146.480000
509.837250	146.740000
509.930878	146.840000
510.024597	146.820000
510.118256	146.660000
510.211975	146.440000
510.305695	145.840000
510.399353	146.000000
510.493042	146.600000
510.586700	146.440000
510.680420	146.900000
510.774078	146.920000
510.867798	146.960000
510.961426	146.300000
511.055145	146.380000
511.148804	145.940000
511.242523	146.760000
511.336151	146.720000
511.429871	147.180000
511.523529	146.960000
511.617249	146.620000
511.710876	146.280000
511.804596	145.660000
511.898254	145.420000
511.991974	145.820000
512.085632	145.860000
512.179321	146.120000
512.272949	147.080000
512.366699	147.400000
512.460327	146.860000
512.554077	147.980000
512.647766	147.580000
512.741394	147.060000
512.835144	147.080000
512.928772	147.080000
513.022461	146.820000
513.116150	146.740000
513.209839	147.000000
513.303467	146.400000
513.397217	146.280000
513.490845	145.720000
513.584595	145.380000
513.678223	144.780000
513.771912	144.600000
513.865601	144.920000
513.959290	144.600000
514.052917	144.640000
514.146667	145.880000
514.240295	146.400000
514.333984	146.420000
514.427673	146.580000
514.521362	147.080000
514.614990	145.880000
514.708740	145.940000
514.802368	146.180000
514.896057	146.320000
514.989746	146.860000
515.083435	146.940000
515.177124	146.940000
515.270752	146.740000
515.364502	146.700000
515.458130	146.380000
515.551819	146.280000
515.645508	145.920000
515.739197	145.680000
515.832825	145.820000
515.926575	145.180000
516.020203	145.560000
516.113892	146.280000
516.207520	146.280000
516.301270	146.200000
516.394897	146.760000
516.488586	147.060000
516.582275	146.660000
516.675964	146.260000
516.769592	146.180000
516.863281	146.480000
516.956970	146.660000
517.050659	146.460000
517.144287	146.620000
517.238037	146.900000
517.331665	146.140000
517.425354	145.480000
517.519043	145.420000
517.612732	145.940000
517.706421	145.660000
517.800049	145.720000
517.893738	145.540000
517.987427	145.440000
518.081116	145.200000
518.174744	144.920000
518.268433	145.360000
518.362122	146.020000
518.455811	146.360000
518.549438	147.020000
518.643127	147.920000
518.736816	147.200000
518.830505	146.420000
518.924133	146.260000
519.017822	145.860000
519.111511	145.220000
519.205200	145.900000
519.298828	146.160000
519.392517	145.860000
519.486206	146.340000
519.579895	146.520000
519.673523	146.160000
519.767212	146.220000
519.860901	146.960000
519.954590	146.060000
520.048279	145.400000
520.141907	145.340000
520.235596	146.040000
520.329224	145.880000
520.422974	146.060000
520.516602	146.160000
520.610291	146.060000
520.703918	145.780000
520.797607	145.580000
520.891296	145.880000
520.984985	146.400000
521.078613	146.980000
521.172302	146.480000
521.265930	147.200000
521.359680	147.460000
521.453308	147.380000
521.546997	147.080000
521.640625	147.300000
521.734314	146.520000
521.827942	146.400000
521.921692	146.580000
522.015320	146.740000
522.109009	146.280000
522.202698	146.120000
522.296326	146.000000
522.390015	146.060000
522.483704	145.940000
522.577393	146.420000
522.671021	146.480000
522.764709	145.860000
522.858337	146.200000
522.952026	146.060000
523.045654	146.480000
523.139404	147.260000
523.233032	147.880000
523.326721	147.460000
523.420349	147.680000
523.514038	147.200000
523.607666	147.080000
523.701355	146.780000
523.795044	146.780000
523.888733	146.760000
523.982361	147.020000
524.076050	146.620000
524.169678	147.100000
524.263367	146.940000
524.356995	146.500000
524.450684	146.120000
524.544373	145.940000
524.638062	145.560000
524.731750	145.720000
524.825378	146.060000
524.919067	145.820000
525.012695	146.060000
525.106384	145.940000
525.200012	145.900000
525.293701	145.540000
525.387329	146.120000
525.481018	146.240000
525.574646	146.540000
525.668396	146.580000
525.762024	147.400000
525.855713	147.560000
525.949341	147.040000
526.043030	146.920000
526.136658	146.600000
526.230347	146.100000
526.323975	145.280000
526.417664	145.420000
526.511292	145.420000
526.604980	145.600000
526.698608	145.380000
526.792297	145.700000
526.885925	145.780000
526.979614	145.860000
527.073303	145.880000
527.166931	146.120000
527.260620	146.260000
527.354309	146.680000
527.447998	146.760000
527.541626	146.500000
527.635315	146.480000
527.728943	147.060000
527.822632	146.940000
527.916260	146.920000
528.009949	147.280000
528.103577	146.960000
528.197266	146.160000
528.290894	146.280000
528.384583	146.100000
528.478210	146.080000
528.571899	146.520000
528.665527	146.780000
528.759216	146.600000
528.852844	147.100000
528.946533	147.020000
529.040161	147.100000
529.133850	146.860000
529.227478	147.180000
529.321167	147.100000
529.414856	147.380000
529.508484	147.640000
529.602173	147.500000
529.695801	147.040000
529.789490	146.940000
529.883057	146.400000
529.976746	146.180000
530.070374	146.800000
530.164062	146.800000
530.257690	146.740000
530.351379	147.100000
530.445007	147.000000
530.538696	146.160000
530.632324	146.240000
530.726013	146.240000
530.819641	146.040000
530.913330	145.840000
531.006958	146.280000
531.100647	146.300000
531.194275	145.840000
531.287964	145.780000
531.381592	145.760000
531.475220	145.740000
531.568848	145.700000
531.662537	145.800000
531.756226	146.340000
531.849854	146.360000
531.943542	146.280000
532.037170	145.600000
532.130859	146.060000
532.224487	145.440000
532.318176	144.900000
532.411804	145.560000
532.505432	146.060000
532.599060	145.320000
532.692749	145.380000
532.786377	146.140000
532.880066	145.160000
532.973694	144.700000
533.067383	144.800000
533.161011	144.920000
533.254639	144.840000
533.348267	144.940000
533.441956	145.560000
533.535583	145.740000
533.629272	145.860000
533.722900	145.160000
533.816589	145.480000
533.910156	145.740000
534.003845	145.520000
534.097534	145.760000
534.191162	146.560000
534.284851	146.460000
534.378479	145.760000
534.472107	145.940000
534.565735	145.520000
534.659424	145.620000
534.753052	145.860000
534.846741	145.720000
534.940369	146.100000
535.033997	146.120000
535.127625	145.860000
535.221313	146.320000
535.314941	146.680000
535.408630	146.040000
535.502197	146.540000
535.595886	146.160000
535.689514	145.480000
535.783203	146.040000
535.876831	146.740000
535.970459	146.220000
536.064087	146.420000
536.157776	146.440000
536.251404	146.120000
536.345093	145.520000
536.438721	145.800000
536.532349	145.780000
536.626038	145.940000
536.719666	146.060000
536.813293	146.220000
536.906921	146.300000
537.000610	146.740000
537.094238	146.680000
537.187866	146.420000
537.281494	146.340000
537.375183	146.460000
537.468811	146.200000
537.562439	146.120000
537.656067	145.880000
537.749756	145.920000
537.843384	146.320000
537.937012	146.660000
538.030640	146.760000
538.124329	147.220000
538.217896	147.880000
538.311584	147.600000
538.405212	147.240000
538.498901	147.400000
538.592468	147.840000
538.686157	147.200000
538.779785	146.260000
538.873413	146.160000
538.967102	145.920000
539.060730	145.080000
539.154358	145.440000
539.247986	146.160000
539.341675	146.380000
539.435242	146.200000
539.528931	146.400000
539.622559	145.960000
539.716187	146.240000
539.809814	146.080000
539.903503	146.180000
539.997070	146.160000
540.090759	146.360000
540.184387	146.020000
540.278015	146.460000
540.371643	146.700000
540.465332	146.720000
540.558899	146.620000
540.652588	146.720000
540.746216	146.060000
540.839844	146.280000
540.933472	146.620000
541.027100	146.520000
541.120728	146.540000
541.214417	147.000000
541.308044	147.120000
541.401672	146.540000
541.495300	146.640000
541.588928	146.380000
541.682617	146.120000
541.776184	145.580000
541.869873	146.220000
541.963440	146.460000
542.057129	146.260000
542.150757	146.180000
542.244385	145.920000
542.338013	145.320000
542.431641	144.880000
542.525269	145.040000
542.618958	145.560000
542.712524	145.880000
542.806213	145.820000
542.899780	146.180000
542.993469	146.000000
543.087036	145.620000
543.180725	145.100000
543.274292	145.620000
543.367981	145.580000
543.461548	145.980000
543.555237	146.000000
543.648926	146.640000
543.742493	147.220000
543.836182	147.220000
543.929749	147.000000
544.023437	146.920000
544.117004	146.820000
544.210693	146.340000
544.304260	146.340000
544.397949	146.340000
544.491516	146.600000
544.585205	146.640000
544.678772	146.220000
544.772461	146.620000
544.866028	146.500000
544.959717	146.580000
545.053284	146.500000
545.146973	146.780000
545.240540	146.620000
545.334229	147.400000
545.427795	147.700000
545.521423	147.860000
545.615051	147.780000
545.708679	148.000000
545.802307	147.260000
545.895935	146.920000
545.989624	147.380000
546.083191	147.140000
546.176880	146.960000
546.270447	146.820000
546.364136	147.020000
546.457703	146.380000
546.551331	146.320000
546.644958	146.240000
546.738586	146.760000
546.832214	146.280000
546.925842	146.140000
547.019409	146.560000
547.113098	146.120000
547.206665	145.640000
547.300354	145.900000
547.393921	146.220000
547.487549	146.340000
547.581177	146.480000
547.674805	146.660000
547.768433	146.060000
547.862061	145.960000
547.955627	145.280000
548.049316	145.740000
548.142883	145.900000
548.236572	146.520000
548.330139	146.880000
548.423767	147.020000
548.517456	146.580000
548.611023	146.520000
548.704651	145.860000
548.798279	145.460000
548.891907	146.100000
548.985474	146.280000
549.079163	146.360000
549.172729	146.240000
549.266357	145.800000
549.359985	145.660000
549.453613	145.100000
549.547180	144.960000
549.640869	145.660000
549.734436	145.900000
549.828064	146.260000
549.921631	146.240000
550.015320	146.020000
550.108887	146.300000
550.202515	146.600000
550.296143	145.660000
550.389771	146.260000
550.483337	146.580000
550.576965	146.040000
550.670593	146.060000
550.764221	146.160000
550.857849	145.840000
550.951477	145.180000
551.045105	144.940000
551.138672	144.880000
551.232300	144.720000
551.325928	145.160000
551.419556	145.540000
551.513123	145.900000
551.606750	145.440000
551.700378	145.900000
551.794006	145.500000
551.887573	145.680000
551.981201	145.880000
552.074768	146.240000
552.168457	145.440000
552.262024	146.320000
552.355652	146.220000
552.449219	146.460000
552.542847	146.560000
552.636475	146.920000
552.730103	145.820000
552.823669	145.800000
552.917297	145.280000
553.010864	145.260000
553.104553	145.560000
553.198181	145.580000
553.291748	145.920000
553.385376	145.820000
553.478943	145.700000
553.572571	145.720000
553.666199	145.960000
553.759827	145.600000
553.853394	145.620000
553.947021	145.600000
554.040588	145.780000
554.134216	146.140000
554.227783	146.700000
554.321411	147.480000
554.415039	147.020000
554.508667	146.680000
554.602234	146.640000
554.695862	145.920000
554.789429	145.440000
554.883057	145.880000
554.976624	146.200000
555.070251	145.680000
555.163818	145.740000
555.257507	145.580000
555.351074	145.600000
555.444702	146.600000
555.538330	146.760000
555.631897	147.140000
555.725525	147.020000
555.819092	146.880000
555.912720	145.560000
556.006287	145.880000
556.099915	145.280000
556.193481	145.520000
556.287109	145.900000
556.380676	145.960000
556.474304	145.940000
556.567871	146.640000
556.661499	146.100000
556.755066	145.880000
556.848694	146.020000
556.942261	145.860000
557.035889	145.900000
557.129517	146.580000
557.223145	147.200000
557.316711	146.920000
557.410339	147.080000
557.503906	146.780000
557.597473	146.560000
557.691040	145.840000
557.784668	146.140000
557.878296	146.060000
557.971863	146.180000
558.065491	146.640000
558.159058	146.780000
558.252686	147.320000
558.346252	147.840000
558.439880	147.520000
558.533447	146.980000
558.627075	146.700000
558.720642	146.000000
558.814270	145.480000
558.907837	145.420000
559.001465	145.120000
559.095032	145.960000
559.188660	146.380000
559.282227	145.840000
559.375854	146.560000
559.469360	146.460000
559.562988	146.080000
559.656555	145.860000
559.750183	146.480000
559.843750	146.560000
559.937378	146.920000
560.030945	146.940000
560.124573	0.000000
560.218140	0.000000
560.311707	0.000000
560.405334	0.000000
560.498901	0.000000
560.592529	0.000000
560.686096	0.000000
560.779724	0.000000
560.873291	0.000000
560.966858	0.000000
561.060425	0.000000
561.154053	0.000000
561.247620	0.000000
561.341248	0.000000
561.434814	0.000000
561.528381	0.000000
561.621948	0.000000
561.715576	0.000000
561.809143	0.000000
561.902771	0.000000
561.996277	0.000000
562.089905	0.000000
562.183472	0.000000
562.277100	0.000000
