Model Number: SPM-002-B   
Serial Number: 70087108
Firmware Version: 004.15.4
Exposure Time: 100000.000000us
Data Taken on: 11-12-2020 18:48:17.159
Wavelength	Amplitude
221.570786	0.000000
221.663406	0.000000
221.756027	0.000000
221.848648	0.000000
221.941269	0.000000
222.033905	0.000000
222.126526	0.000000
222.219162	0.000000
222.311798	0.000000
222.404419	0.000000
222.497055	0.000000
222.589676	0.000000
222.682312	0.000000
222.774933	0.000000
222.867569	0.000000
222.960205	0.000000
223.052841	0.000000
223.145462	0.000000
223.238098	0.000000
223.330734	0.000000
223.423386	0.000000
223.516022	0.000000
223.608658	0.000000
223.701309	0.000000
223.793945	0.000000
223.886581	0.000000
223.979218	0.000000
224.071869	0.000000
224.164505	0.000000
224.257156	0.000000
224.349792	0.000000
224.442444	0.000000
224.535095	0.000000
224.627747	0.000000
224.720398	0.000000
224.813034	0.000000
224.905685	0.000000
224.998337	145.300000
225.090988	145.120000
225.183640	144.960000
225.276291	144.880000
225.368942	145.680000
225.461594	146.220000
225.554245	146.160000
225.646912	146.360000
225.739578	147.140000
225.832230	147.160000
225.924896	146.420000
226.017548	146.960000
226.110199	147.440000
226.202866	146.440000
226.295532	146.200000
226.388184	145.940000
226.480850	145.340000
226.573517	144.680000
226.666168	145.180000
226.758835	145.540000
226.851501	146.280000
226.944183	146.400000
227.036850	146.180000
227.129517	146.300000
227.222183	146.160000
227.314850	145.980000
227.407516	146.060000
227.500198	147.160000
227.592865	146.480000
227.685532	146.420000
227.778214	146.020000
227.870880	146.300000
227.963562	146.200000
228.056229	146.820000
228.148926	146.620000
228.241592	147.640000
228.334274	147.360000
228.426956	147.060000
228.519638	146.960000
228.612305	146.700000
228.704987	146.440000
228.797668	146.560000
228.890350	146.000000
228.983032	145.540000
229.075714	146.180000
229.168396	145.840000
229.261108	145.600000
229.353790	145.780000
229.446472	146.220000
229.539169	146.000000
229.631851	145.600000
229.724533	145.760000
229.817230	146.020000
229.909912	146.940000
230.002609	147.000000
230.095306	147.200000
230.187988	147.260000
230.280685	147.020000
230.373383	145.900000
230.466095	145.480000
230.558792	145.880000
230.651474	145.800000
230.744171	145.620000
230.836868	145.480000
230.929581	145.940000
231.022278	145.760000
231.114975	145.580000
231.207672	145.700000
231.300369	146.140000
231.393082	146.160000
231.485779	146.000000
231.578506	146.140000
231.671204	146.260000
231.763916	146.500000
231.856613	146.440000
231.949326	146.700000
232.042023	146.680000
232.134735	146.540000
232.227448	145.780000
232.320160	146.060000
232.412872	145.980000
232.505585	146.920000
232.598297	147.260000
232.691010	147.340000
232.783722	146.780000
232.876450	147.500000
232.969162	146.660000
233.061874	146.180000
233.154587	146.000000
233.247314	146.300000
233.340027	145.620000
233.432739	146.120000
233.525467	146.380000
233.618179	146.900000
233.710907	146.540000
233.803635	146.860000
233.896347	146.560000
233.989090	147.140000
234.081818	147.020000
234.174545	147.400000
234.267258	146.740000
234.359985	146.940000
234.452713	146.580000
234.545441	146.520000
234.638168	146.280000
234.730896	146.860000
234.823639	146.500000
234.916367	146.720000
235.009094	146.820000
235.101822	146.920000
235.194580	146.660000
235.287308	146.760000
235.380051	146.020000
235.472778	146.380000
235.565521	146.560000
235.658249	146.140000
235.750992	146.040000
235.843719	146.140000
235.936462	146.000000
236.029205	145.580000
236.121948	145.640000
236.214691	146.240000
236.307449	146.900000
236.400192	146.480000
236.492935	146.260000
236.585678	146.500000
236.678421	145.980000
236.771164	145.880000
236.863907	146.340000
236.956665	146.860000
237.049408	148.180000
237.142151	148.160000
237.234909	148.620000
237.327652	148.400000
237.420410	148.320000
237.513153	147.520000
237.605927	147.400000
237.698669	146.920000
237.791428	146.420000
237.884186	146.960000
237.976944	146.240000
238.069702	146.540000
238.162445	145.980000
238.255203	146.340000
238.347961	146.260000
238.440720	146.520000
238.533478	146.260000
238.626266	146.480000
238.719025	146.860000
238.811783	146.420000
238.904541	146.140000
238.997314	146.220000
239.090073	145.960000
239.182831	145.900000
239.275604	146.560000
239.368362	146.400000
239.461136	146.560000
239.553909	146.620000
239.646667	146.220000
239.739441	145.660000
239.832214	146.340000
239.925003	146.320000
240.017761	147.060000
240.110535	147.840000
240.203308	147.640000
240.296082	147.520000
240.388855	147.280000
240.481628	147.080000
240.574417	147.020000
240.667191	147.060000
240.759964	146.740000
240.852737	146.740000
240.945526	146.220000
241.038315	145.800000
241.131088	146.080000
241.223877	146.220000
241.316650	145.660000
241.409439	146.200000
241.502228	145.840000
241.595001	145.900000
241.687790	145.780000
241.780579	146.440000
241.873367	146.280000
241.966141	146.720000
242.058929	146.040000
242.151718	146.220000
242.244507	146.640000
242.337311	146.200000
242.430099	146.400000
242.522903	147.160000
242.615692	147.000000
242.708481	146.760000
242.801270	147.260000
242.894073	146.860000
242.986862	146.540000
243.079651	147.260000
243.172455	146.900000
243.265244	146.780000
243.358063	146.340000
243.450867	146.780000
243.543655	146.280000
243.636459	146.580000
243.729263	146.880000
243.822067	147.460000
243.914856	147.660000
244.007660	147.820000
244.100464	147.640000
244.193268	146.960000
244.286072	146.780000
244.378876	145.920000
244.471680	145.680000
244.564499	146.100000
244.657318	147.000000
244.750122	147.100000
244.842926	146.640000
244.935745	146.760000
245.028549	146.260000
245.121368	145.760000
245.214172	145.900000
245.306992	146.740000
245.399796	146.620000
245.492615	146.640000
245.585434	146.540000
245.678253	146.360000
245.771072	146.040000
245.863892	146.460000
245.956711	146.940000
246.049530	147.000000
246.142349	147.080000
246.235168	147.440000
246.327988	147.640000
246.420807	146.940000
246.513626	146.980000
246.606445	146.340000
246.699280	146.160000
246.792099	145.560000
246.884918	145.440000
246.977753	145.120000
247.070587	145.700000
247.163422	145.480000
247.256241	145.360000
247.349075	145.900000
247.441895	146.200000
247.534729	146.080000
247.627563	146.140000
247.720383	146.880000
247.813217	146.700000
247.906052	146.400000
247.998886	146.500000
248.091736	146.180000
248.184570	145.620000
248.277405	145.620000
248.370239	146.620000
248.463074	147.520000
248.555908	148.060000
248.648743	148.020000
248.741592	148.140000
248.834427	147.480000
248.927261	146.200000
249.020111	146.600000
249.112946	147.160000
249.205795	146.780000
249.298630	146.800000
249.391495	146.980000
249.484344	146.380000
249.577179	146.060000
249.670029	146.180000
249.762878	146.520000
249.855728	146.680000
249.948563	146.600000
250.041412	146.320000
250.134262	146.700000
250.227112	146.760000
250.319962	146.660000
250.412827	146.780000
250.505692	146.320000
250.598541	146.100000
250.691391	145.540000
250.784241	145.520000
250.877106	145.620000
250.969955	145.880000
251.062805	146.220000
251.155670	146.920000
251.248520	146.800000
251.341385	146.900000
251.434235	147.020000
251.527100	146.840000
251.619965	146.000000
251.712814	146.920000
251.805695	146.920000
251.898560	146.780000
251.991425	146.900000
252.084290	147.080000
252.177155	146.240000
252.270020	146.120000
252.362885	146.260000
252.455750	146.000000
252.548615	145.880000
252.641479	145.860000
252.734360	145.620000
252.827240	145.500000
252.920105	145.560000
253.012970	145.240000
253.105850	145.320000
253.198715	145.260000
253.291595	145.620000
253.384460	145.200000
253.477341	145.560000
253.570221	145.840000
253.663086	145.840000
253.755966	146.200000
253.848846	146.500000
253.941727	146.660000
254.034592	146.440000
254.127472	146.080000
254.220367	145.840000
254.313248	146.000000
254.406128	145.780000
254.499008	145.920000
254.591904	146.980000
254.684784	147.200000
254.777664	147.180000
254.870544	146.880000
254.963440	146.560000
255.056335	146.180000
255.149216	145.780000
255.242111	146.220000
255.334991	147.000000
255.427887	147.460000
255.520767	147.480000
255.613663	147.640000
255.706558	147.020000
255.799438	146.440000
255.892334	146.020000
255.985229	146.020000
256.078125	145.500000
256.171021	145.600000
256.263916	146.100000
256.356812	146.540000
256.449707	146.620000
256.542603	146.520000
256.635498	147.020000
256.728394	146.820000
256.821289	146.560000
256.914215	146.800000
257.007080	147.480000
257.100006	147.060000
257.192932	147.140000
257.285828	147.460000
257.378723	146.960000
257.471619	146.480000
257.564545	145.940000
257.657440	146.060000
257.750336	146.320000
257.843262	146.420000
257.936157	147.620000
258.029053	148.340000
258.121979	148.500000
258.214874	147.740000
258.307800	147.300000
258.400696	146.140000
258.493622	145.880000
258.586517	144.680000
258.679443	145.060000
258.772339	145.060000
258.865265	144.900000
258.958160	144.720000
259.051086	146.100000
259.144012	145.920000
259.236938	146.700000
259.329834	147.300000
259.422791	147.100000
259.515717	146.220000
259.608612	145.840000
259.701538	145.700000
259.794464	145.160000
259.887390	145.560000
259.980316	145.760000
260.073212	145.920000
260.166138	145.200000
260.259064	145.780000
260.351990	145.880000
260.444916	146.100000
260.537842	146.660000
260.630768	147.400000
260.723694	147.060000
260.816620	146.800000
260.909546	146.620000
261.002472	146.220000
261.095398	145.700000
261.188354	145.860000
261.281281	145.840000
261.374207	145.940000
261.467133	146.320000
261.560089	146.720000
261.653015	146.220000
261.745972	146.660000
261.838867	146.780000
261.931824	146.920000
262.024780	146.320000
262.117706	146.880000
262.210663	147.020000
262.303589	146.920000
262.396515	146.800000
262.489471	147.880000
262.582397	147.540000
262.675354	147.080000
262.768280	146.920000
262.861237	146.860000
262.954163	146.300000
263.047119	146.500000
263.140045	146.440000
263.233002	146.520000
263.325958	146.400000
263.418884	146.080000
263.511841	146.080000
263.604797	146.180000
263.697723	145.900000
263.790680	145.760000
263.883636	146.340000
263.976593	146.140000
264.069550	146.020000
264.162476	145.980000
264.255463	145.960000
264.348419	145.660000
264.441376	145.980000
264.534332	145.900000
264.627289	146.320000
264.720245	146.800000
264.813202	146.540000
264.906158	146.780000
264.999115	147.320000
265.092072	147.120000
265.185028	147.740000
265.277985	147.760000
265.370941	147.420000
265.463898	147.100000
265.556854	146.880000
265.649811	145.760000
265.742798	146.080000
265.835754	145.980000
265.928711	146.340000
266.021667	146.380000
266.114655	146.560000
266.207611	146.580000
266.300568	146.200000
266.393585	145.540000
266.486511	145.960000
266.579498	145.540000
266.672485	145.460000
266.765442	145.780000
266.858429	146.460000
266.951385	145.960000
267.044342	146.320000
267.137329	146.300000
267.230316	146.320000
267.323273	145.780000
267.416260	146.740000
267.509216	146.480000
267.602203	146.520000
267.695160	147.080000
267.788147	147.280000
267.881134	146.480000
267.974091	146.840000
268.067078	146.600000
268.160065	146.260000
268.253052	146.180000
268.346008	146.300000
268.438995	145.920000
268.531982	145.980000
268.624969	145.600000
268.717987	146.000000
268.810944	146.000000
268.903961	146.200000
268.996948	145.840000
269.089905	146.560000
269.182892	146.240000
269.275879	146.360000
269.368866	145.880000
269.461853	146.460000
269.554871	145.940000
269.647858	146.240000
269.740845	146.540000
269.833832	147.200000
269.926819	146.820000
270.019806	146.900000
270.112793	146.420000
270.205811	146.540000
270.298798	146.020000
270.391785	146.660000
270.484772	146.440000
270.577789	146.520000
270.670776	145.820000
270.763763	145.740000
270.856750	145.540000
270.949768	145.440000
271.042786	145.360000
271.135773	145.520000
271.228790	146.060000
271.321808	145.560000
271.414795	145.220000
271.507782	145.040000
271.600800	144.860000
271.693817	144.800000
271.786804	145.320000
271.879822	145.840000
271.972809	145.840000
272.065826	146.320000
272.158844	145.920000
272.251831	146.480000
272.344849	146.420000
272.437866	146.380000
272.530853	146.240000
272.623871	146.620000
272.716888	145.580000
272.809906	145.840000
272.902893	146.260000
272.995911	145.800000
273.088928	145.820000
273.181946	146.100000
273.274963	145.680000
273.367981	145.420000
273.460999	145.920000
273.554047	146.440000
273.647003	147.020000
273.740051	147.200000
273.833069	147.620000
273.926086	147.500000
274.019135	146.920000
274.112152	146.320000
274.205170	146.240000
274.298187	146.180000
274.391205	145.940000
274.484222	145.980000
274.577240	146.300000
274.670258	146.360000
274.763306	146.240000
274.856323	146.720000
274.949341	146.760000
275.042358	146.780000
275.135406	146.780000
275.228424	146.580000
275.321442	146.260000
275.414490	145.920000
275.507507	146.080000
275.600525	146.600000
275.693573	146.540000
275.786591	146.560000
275.879669	146.640000
275.972656	146.280000
276.065735	145.920000
276.158752	146.360000
276.251801	146.880000
276.344818	147.240000
276.437866	147.120000
276.530884	146.960000
276.623932	146.020000
276.716980	145.780000
276.809998	145.860000
276.903046	146.160000
276.996094	146.940000
277.089111	148.160000
277.182159	148.520000
277.275208	148.200000
277.368256	147.880000
277.461304	147.260000
277.554321	146.440000
277.647369	146.220000
277.740417	146.260000
277.833466	146.420000
277.926514	146.600000
278.019562	147.320000
278.112610	146.880000
278.205688	146.920000
278.298706	146.860000
278.391785	146.640000
278.484833	145.960000
278.577881	146.000000
278.670929	146.320000
278.763977	146.640000
278.857025	147.180000
278.950073	147.500000
279.043121	147.440000
279.136169	147.160000
279.229248	146.300000
279.322296	145.860000
279.415344	145.580000
279.508392	145.480000
279.601440	145.420000
279.694519	145.840000
279.787567	145.740000
279.880615	145.980000
279.973694	146.140000
280.066742	146.460000
280.159790	146.620000
280.252869	146.400000
280.345917	146.340000
280.438995	146.400000
280.532074	146.000000
280.625122	146.180000
280.718201	147.060000
280.811279	147.060000
280.904327	146.700000
280.997406	146.860000
281.090454	146.820000
281.183533	145.880000
281.276581	145.680000
281.369659	145.700000
281.462738	145.900000
281.555786	145.980000
281.648865	146.580000
281.741943	146.420000
281.835022	147.120000
281.928070	146.760000
282.021149	146.380000
282.114227	146.180000
282.207306	146.280000
282.300385	146.280000
282.393433	146.440000
282.486511	146.540000
282.579590	146.860000
282.672668	147.340000
282.765747	146.600000
282.858856	146.240000
282.951904	146.380000
283.045013	146.420000
283.138062	146.540000
283.231171	147.140000
283.324249	147.720000
283.417328	147.880000
283.510406	147.240000
283.603485	147.140000
283.696564	146.880000
283.789642	146.580000
283.882751	146.420000
283.975830	147.040000
284.068909	146.480000
284.161987	147.140000
284.255066	146.880000
284.348175	146.880000
284.441254	146.640000
284.534332	147.020000
284.627441	146.420000
284.720520	146.280000
284.813599	146.380000
284.906708	146.380000
284.999786	145.940000
285.092896	145.700000
285.185974	146.920000
285.279053	146.400000
285.372192	146.420000
285.465240	147.340000
285.558380	147.380000
285.651459	146.600000
285.744568	147.660000
285.837677	147.280000
285.930756	146.820000
286.023865	147.060000
286.116943	146.820000
286.210052	146.240000
286.303162	146.500000
286.396240	146.680000
286.489349	146.200000
286.582458	146.600000
286.675568	146.400000
286.768646	146.360000
286.861755	146.480000
286.954865	147.420000
287.047974	146.900000
287.141083	146.660000
287.234161	146.460000
287.327271	146.060000
287.420380	146.280000
287.513519	146.280000
287.606598	146.740000
287.699738	147.120000
287.792816	146.920000
287.885956	146.240000
287.979034	146.400000
288.072174	146.200000
288.165283	146.020000
288.258392	146.320000
288.351501	146.180000
288.444611	146.480000
288.537720	146.900000
288.630859	146.840000
288.723969	147.000000
288.817078	147.340000
288.910187	147.200000
289.003296	146.720000
289.096436	146.480000
289.189545	146.200000
289.282654	145.840000
289.375763	146.220000
289.468903	146.560000
289.562012	146.940000
289.655121	147.040000
289.748260	147.380000
289.841400	147.180000
289.934509	147.240000
290.027649	147.140000
290.120728	147.000000
290.213898	147.040000
290.306976	146.780000
290.400146	146.640000
290.493256	146.560000
290.586395	146.840000
290.679535	146.920000
290.772644	146.900000
290.865784	146.160000
290.958893	146.100000
291.052032	145.780000
291.145172	145.580000
291.238281	145.280000
291.331421	145.720000
291.424561	146.240000
291.517670	146.340000
291.610809	146.600000
291.703949	147.000000
291.797089	147.100000
291.890228	146.340000
291.983337	146.100000
292.076477	145.780000
292.169617	146.240000
292.262756	146.180000
292.355927	146.460000
292.449036	146.400000
292.542206	146.380000
292.635315	146.040000
292.728485	146.400000
292.821625	146.300000
292.914764	147.300000
293.007904	147.360000
293.101044	147.440000
293.194183	147.320000
293.287323	147.500000
293.380463	147.040000
293.473602	146.720000
293.566742	146.900000
293.659882	147.100000
293.753021	147.300000
293.846191	147.060000
293.939331	146.920000
294.032471	146.500000
294.125610	146.200000
294.218781	146.580000
294.311920	146.900000
294.405060	147.220000
294.498230	147.340000
294.591370	147.200000
294.684540	145.980000
294.777679	145.540000
294.870850	145.860000
294.963959	145.980000
295.057159	146.000000
295.150299	147.040000
295.243469	147.040000
295.336609	146.380000
295.429779	146.220000
295.522919	146.700000
295.616089	146.180000
295.709229	146.900000
295.802399	147.080000
295.895569	146.620000
295.988708	146.160000
296.081879	146.280000
296.175018	145.460000
296.268188	145.420000
296.361359	146.140000
296.454529	146.300000
296.547668	146.220000
296.640839	146.480000
296.734009	146.460000
296.827179	146.660000
296.920319	146.940000
297.013519	146.660000
297.106659	146.860000
297.199860	147.200000
297.292999	146.680000
297.386200	145.980000
297.479309	146.100000
297.572510	145.980000
297.665680	145.520000
297.758850	145.820000
297.852020	145.920000
297.945190	145.940000
298.038361	145.420000
298.131531	146.240000
298.224701	145.680000
298.317871	145.540000
298.411072	145.080000
298.504242	144.980000
298.597412	144.380000
298.690582	144.920000
298.783752	145.220000
298.876923	145.900000
298.970093	146.060000
299.063293	146.500000
299.156464	146.880000
299.249634	147.140000
299.342834	147.340000
299.436005	148.080000
299.529205	147.760000
299.622345	147.440000
299.715576	146.800000
299.808716	146.440000
299.901917	146.280000
299.995117	146.620000
300.088287	146.600000
300.181488	146.460000
300.274658	146.520000
300.367828	146.620000
300.461029	146.340000
300.554199	146.600000
300.647400	147.020000
300.740601	147.360000
300.833771	147.120000
300.926971	147.200000
301.020142	146.680000
301.113342	146.680000
301.206512	146.340000
301.299713	146.560000
301.392914	146.800000
301.486084	146.840000
301.579285	146.700000
301.672516	147.240000
301.765686	146.740000
301.858887	146.440000
301.952057	146.420000
302.045288	146.440000
302.138458	146.000000
302.231659	145.840000
302.324860	145.780000
302.418060	145.540000
302.511261	145.520000
302.604462	145.840000
302.697662	146.000000
302.790863	146.120000
302.884064	146.380000
302.977264	146.440000
303.070465	146.620000
303.163666	147.020000
303.256866	147.060000
303.350067	147.140000
303.443268	147.440000
303.536469	147.380000
303.629669	146.980000
303.722870	146.940000
303.816071	146.440000
303.909271	146.120000
304.002472	145.260000
304.095673	145.020000
304.188934	144.220000
304.282104	145.300000
304.375336	145.420000
304.468506	145.580000
304.561768	145.680000
304.654968	146.560000
304.748169	146.080000
304.841370	145.660000
304.934601	145.860000
305.027802	146.080000
305.121002	145.780000
305.214233	145.640000
305.307434	146.040000
305.400665	146.560000
305.493866	146.240000
305.587097	146.520000
305.680298	146.380000
305.773499	146.920000
305.866730	146.740000
305.959930	147.680000
306.053162	147.980000
306.146393	147.720000
306.239594	146.760000
306.332825	146.480000
306.426025	146.460000
306.519287	145.660000
306.612488	146.080000
306.705719	146.000000
306.798920	146.140000
306.892181	145.340000
306.985352	145.260000
307.078613	144.500000
307.171844	145.280000
307.265045	144.840000
307.358276	144.740000
307.451508	144.900000
307.544739	145.600000
307.637970	145.080000
307.731201	144.980000
307.824402	145.800000
307.917633	146.280000
308.010864	146.440000
308.104095	146.880000
308.197327	147.160000
308.290558	146.680000
308.383789	146.220000
308.477020	146.020000
308.570251	145.440000
308.663483	145.120000
308.756714	145.120000
308.849976	145.100000
308.943176	145.660000
309.036438	145.540000
309.129639	145.640000
309.222900	145.800000
309.316101	145.820000
309.409393	145.100000
309.502625	145.260000
309.595856	145.260000
309.689087	145.260000
309.782318	145.460000
309.875580	145.380000
309.968811	145.640000
310.062042	145.600000
310.155273	145.340000
310.248535	145.900000
310.341766	146.220000
310.434998	145.900000
310.528259	146.100000
310.621490	146.420000
310.714722	145.580000
310.807983	145.440000
310.901215	145.660000
310.994476	145.840000
311.087708	145.360000
311.181000	145.720000
311.274200	145.180000
311.367462	145.340000
311.460693	145.020000
311.553986	145.820000
311.647186	145.900000
311.740479	146.800000
311.833710	146.620000
311.926971	146.760000
312.020203	146.140000
312.113464	146.060000
312.206726	145.320000
312.299957	145.660000
312.393219	146.260000
312.486481	146.480000
312.579712	146.280000
312.672974	146.640000
312.766235	146.180000
312.859497	145.860000
312.952759	145.740000
313.045990	146.480000
313.139252	146.180000
313.232513	146.760000
313.325775	146.840000
313.419037	146.560000
313.512299	145.740000
313.605530	146.500000
313.698822	146.440000
313.792053	146.420000
313.885345	146.440000
313.978577	146.540000
314.071869	146.100000
314.165131	146.140000
314.258392	146.160000
314.351654	146.440000
314.444916	146.260000
314.538177	146.600000
314.631439	146.680000
314.724701	146.660000
314.817993	146.600000
314.911255	146.820000
315.004517	146.160000
315.097778	145.540000
315.191040	145.820000
315.284302	146.080000
315.377594	145.760000
315.470856	146.080000
315.564117	146.100000
315.657379	145.320000
315.750671	144.940000
315.843933	145.480000
315.937195	145.120000
316.030518	144.800000
316.123749	144.980000
316.217041	145.960000
316.310303	145.680000
316.403595	145.900000
316.496857	146.420000
316.590149	146.620000
316.683411	145.780000
316.776703	145.840000
316.869965	145.880000
316.963257	145.860000
317.056519	145.340000
317.149811	145.260000
317.243073	145.180000
317.336365	145.220000
317.429626	145.540000
317.522919	145.960000
317.616180	145.840000
317.709473	145.680000
317.802765	145.640000
317.896027	145.480000
317.989319	145.700000
318.082611	145.840000
318.175873	145.620000
318.269165	145.460000
318.362488	145.260000
318.455750	144.840000
318.549042	145.060000
318.642303	146.040000
318.735626	146.360000
318.828888	146.640000
318.922211	146.620000
319.015472	147.160000
319.108765	146.560000
319.202057	145.780000
319.295349	145.860000
319.388641	146.020000
319.481934	145.380000
319.575226	145.280000
319.668518	146.220000
319.761810	146.420000
319.855103	146.300000
319.948395	146.400000
320.041687	146.740000
320.134979	146.480000
320.228271	145.940000
320.321564	146.020000
320.414856	145.940000
320.508148	145.460000
320.601440	145.320000
320.694763	145.480000
320.788025	145.940000
320.881348	146.100000
320.974640	146.180000
321.067963	145.620000
321.161224	145.280000
321.254547	144.740000
321.347839	145.540000
321.441162	145.440000
321.534454	145.920000
321.627747	146.040000
321.721069	146.620000
321.814362	145.780000
321.907654	146.060000
322.000946	146.100000
322.094269	146.580000
322.187561	146.040000
322.280884	146.200000
322.374176	146.300000
322.467468	146.560000
322.560791	146.540000
322.654083	146.960000
322.747406	147.060000
322.840698	147.380000
322.934021	147.620000
323.027344	147.720000
323.120636	147.240000
323.213959	147.160000
323.307251	146.380000
323.400574	145.920000
323.493866	145.240000
323.587219	145.620000
323.680511	145.800000
323.773834	145.980000
323.867157	146.380000
323.960449	146.800000
324.053772	146.600000
324.147095	146.260000
324.240387	146.780000
324.333710	146.460000
324.427032	146.460000
324.520355	146.180000
324.613647	146.000000
324.706970	145.440000
324.800293	145.580000
324.893616	145.660000
324.986938	146.100000
325.080231	146.020000
325.173553	146.140000
325.266876	146.380000
325.360199	146.180000
325.453522	145.560000
325.546875	145.300000
325.640167	145.580000
325.733521	145.800000
325.826813	146.060000
325.920166	146.260000
326.013489	146.500000
326.106812	145.740000
326.200134	145.120000
326.293457	144.680000
326.386780	145.100000
326.480103	145.220000
326.573425	145.520000
326.666748	145.640000
326.760071	146.180000
326.853424	146.060000
326.946747	146.100000
327.040070	146.980000
327.133392	146.880000
327.226715	146.220000
327.320068	145.800000
327.413391	146.120000
327.506714	145.300000
327.600037	145.220000
327.693390	145.640000
327.786713	145.960000
327.880066	145.500000
327.973358	146.300000
328.066742	146.840000
328.160034	146.700000
328.253418	147.200000
328.346710	147.420000
328.440063	146.420000
328.533417	145.960000
328.626740	146.380000
328.720093	145.620000
328.813416	145.640000
328.906769	145.960000
329.000092	146.480000
329.093445	146.220000
329.186768	146.520000
329.280121	146.740000
329.373444	146.940000
329.466797	146.400000
329.560120	146.420000
329.653473	146.420000
329.746796	146.020000
329.840149	145.960000
329.933502	146.080000
330.026825	145.860000
330.120178	145.940000
330.213562	146.040000
330.306854	146.100000
330.400238	146.100000
330.493561	146.000000
330.586945	146.600000
330.680237	146.880000
330.773621	146.740000
330.866974	147.000000
330.960327	147.260000
331.053680	146.600000
331.147003	146.560000
331.240356	146.580000
331.333710	146.300000
331.427063	146.080000
331.520416	146.080000
331.613770	145.740000
331.707123	146.000000
331.800476	146.240000
331.893829	147.060000
331.987152	147.220000
332.080505	147.320000
332.173859	147.280000
332.267212	146.840000
332.360565	145.940000
332.453918	145.800000
332.547333	145.760000
332.640656	145.500000
332.734039	145.860000
332.827362	146.040000
332.920746	146.560000
333.014069	146.620000
333.107452	147.020000
333.200806	146.840000
333.294159	147.000000
333.387543	146.200000
333.480896	145.640000
333.574249	145.380000
333.667603	145.320000
333.760956	145.360000
333.854340	145.620000
333.947693	146.060000
334.041046	146.040000
334.134430	146.260000
334.227783	145.920000
334.321136	145.820000
334.414520	145.520000
334.507874	145.560000
334.601227	145.480000
334.694611	145.660000
334.787964	145.780000
334.881348	146.360000
334.974701	146.240000
335.068085	145.700000
335.161438	145.900000
335.254822	145.680000
335.348175	145.420000
335.441559	145.200000
335.534943	146.400000
335.628296	146.080000
335.721680	146.340000
335.815033	146.640000
335.908417	147.400000
336.001770	146.860000
336.095154	146.780000
336.188538	146.320000
336.281891	145.700000
336.375275	144.820000
336.468658	144.640000
336.562012	144.600000
336.655396	145.220000
336.748779	145.720000
336.842133	145.980000
336.935516	146.320000
337.028900	146.480000
337.122284	146.420000
337.215637	146.700000
337.309021	146.760000
337.402435	146.420000
337.495789	146.420000
337.589203	146.280000
337.682526	145.760000
337.775940	145.980000
337.869324	146.120000
337.962708	145.660000
338.056091	145.860000
338.149475	145.680000
338.242859	145.880000
338.336243	145.720000
338.429626	146.160000
338.523010	145.860000
338.616394	145.880000
338.709778	145.720000
338.803162	145.880000
338.896545	145.880000
338.989929	145.540000
339.083313	146.040000
339.176697	145.700000
339.270081	145.680000
339.363464	145.920000
339.456848	146.300000
339.550232	145.640000
339.643616	145.600000
339.737030	145.500000
339.830383	145.340000
339.923828	145.420000
340.017181	145.740000
340.110596	145.880000
340.203949	145.760000
340.297363	145.400000
340.390778	145.380000
340.484161	145.080000
340.577545	145.100000
340.670959	145.420000
340.764343	145.640000
340.857727	145.400000
340.951111	145.260000
341.044525	145.100000
341.137909	144.440000
341.231293	144.520000
341.324707	144.520000
341.418091	145.480000
341.511505	145.400000
341.604889	146.100000
341.698303	146.180000
341.791687	146.540000
341.885071	145.940000
341.978485	146.100000
342.071899	145.740000
342.165283	145.820000
342.258698	145.680000
342.352081	145.860000
342.445496	146.680000
342.538879	146.940000
342.632324	146.760000
342.725708	146.780000
342.819122	146.500000
342.912506	145.720000
343.005920	145.680000
343.099335	146.400000
343.192719	146.360000
343.286133	146.500000
343.379547	146.660000
343.472931	146.660000
343.566345	146.140000
343.659760	146.560000
343.753143	146.440000
343.846558	146.100000
343.939972	145.800000
344.033386	146.280000
344.126770	145.840000
344.220184	146.200000
344.313599	146.660000
344.407043	146.940000
344.500427	146.320000
344.593872	146.880000
344.687225	146.280000
344.780670	145.580000
344.874054	145.520000
344.967499	145.980000
345.060913	145.440000
345.154327	145.560000
345.247742	145.620000
345.341156	145.380000
345.434570	144.820000
345.527985	144.800000
345.621399	145.100000
345.714813	145.420000
345.808228	145.580000
345.901642	145.360000
345.995056	145.120000
346.088470	145.340000
346.181885	145.540000
346.275299	145.400000
346.368713	145.560000
346.462128	145.280000
346.555573	144.820000
346.648987	144.760000
346.742401	144.940000
346.835815	145.540000
346.929260	145.840000
347.022644	146.040000
347.116119	146.300000
347.209503	146.540000
347.302948	147.100000
347.396362	147.800000
347.489807	148.080000
347.583221	148.420000
347.676636	148.020000
347.770050	146.780000
347.863495	146.220000
347.956909	146.080000
348.050323	145.300000
348.143768	145.360000
348.237183	145.240000
348.330597	145.400000
348.424042	145.900000
348.517456	146.340000
348.610901	146.400000
348.704315	146.620000
348.797760	146.460000
348.891174	145.540000
348.984619	145.080000
349.078033	145.660000
349.171448	146.380000
349.264923	146.180000
349.358337	146.420000
349.451782	146.640000
349.545197	146.060000
349.638641	145.220000
349.732086	145.120000
349.825500	145.560000
349.918945	145.520000
350.012390	145.760000
350.105804	146.360000
350.199249	146.740000
350.292664	146.940000
350.386108	147.080000
350.479553	147.380000
350.572968	147.200000
350.666412	147.120000
350.759857	146.660000
350.853302	147.120000
350.946716	146.720000
351.040161	146.540000
351.133606	146.680000
351.227081	146.680000
351.320465	147.260000
351.413940	147.260000
351.507355	147.480000
351.600830	147.520000
351.694244	147.180000
351.787720	146.320000
351.881104	146.360000
351.974579	146.280000
352.067993	146.800000
352.161469	146.620000
352.254883	146.040000
352.348358	146.080000
352.441803	146.240000
352.535248	145.780000
352.628693	146.580000
352.722137	146.900000
352.815582	146.720000
352.909027	146.540000
353.002472	146.120000
353.095917	146.020000
353.189362	146.580000
353.282806	146.740000
353.376251	146.520000
353.469696	146.380000
353.563141	146.640000
353.656586	146.120000
353.750061	145.420000
353.843475	145.340000
353.936981	146.040000
354.030396	145.480000
354.123871	145.760000
354.217285	146.920000
354.310760	147.520000
354.404175	147.220000
354.497681	147.140000
354.591095	146.720000
354.684570	145.740000
354.777985	145.160000
354.871490	145.120000
354.964935	145.600000
355.058380	145.680000
355.151855	145.860000
355.245300	146.360000
355.338745	146.420000
355.432220	146.140000
355.525665	146.020000
355.619110	146.160000
355.712585	145.920000
355.806030	145.880000
355.899475	145.560000
355.992950	145.720000
356.086426	146.480000
356.179871	146.660000
356.273346	146.700000
356.366791	146.920000
356.460266	146.980000
356.553711	146.000000
356.647186	146.020000
356.740631	145.800000
356.834106	145.600000
356.927551	145.700000
357.021027	145.900000
357.114471	146.080000
357.207947	146.420000
357.301422	146.660000
357.394867	146.760000
357.488342	147.280000
357.581818	147.080000
357.675262	147.160000
357.768738	146.800000
357.862213	145.920000
357.955658	145.720000
358.049133	145.560000
358.142609	145.760000
358.236053	145.840000
358.329529	146.220000
358.423035	146.120000
358.516449	145.760000
358.609955	145.860000
358.703400	146.940000
358.796906	147.280000
358.890350	146.860000
358.983826	147.380000
359.077271	146.560000
359.170776	145.360000
359.264221	144.920000
359.357727	144.960000
359.451172	144.960000
359.544647	145.180000
359.638123	145.360000
359.731598	145.920000
359.825073	146.140000
359.918549	146.020000
360.012024	146.240000
360.105499	145.900000
360.198975	145.880000
360.292450	145.840000
360.385925	145.600000
360.479401	145.100000
360.572876	145.760000
360.666351	146.020000
360.759857	146.120000
360.853302	146.420000
360.946808	146.280000
361.040253	145.880000
361.133759	145.240000
361.227203	145.340000
361.320709	144.800000
361.414154	145.360000
361.507660	145.800000
361.601105	146.140000
361.694641	146.600000
361.788086	146.640000
361.881592	147.040000
361.975067	146.860000
362.068542	147.200000
362.162018	146.820000
362.255524	146.700000
362.348999	146.320000
362.442474	146.540000
362.535950	146.020000
362.629456	145.980000
362.722931	146.340000
362.816406	146.860000
362.909882	146.980000
363.003387	146.680000
363.096863	147.080000
363.190338	147.120000
363.283875	146.700000
363.377319	146.540000
363.470825	147.180000
363.564301	146.380000
363.657806	146.660000
363.751282	146.320000
363.844788	146.840000
363.938232	146.480000
364.031769	147.360000
364.125214	147.320000
364.218750	148.080000
364.312225	147.180000
364.405731	147.360000
364.499207	146.720000
364.592712	146.280000
364.686188	145.900000
364.779694	146.260000
364.873169	145.820000
364.966675	145.640000
365.060150	145.960000
365.153656	146.320000
365.247131	146.320000
365.340637	147.040000
365.434143	147.680000
365.527618	147.440000
365.621155	146.760000
365.714600	146.680000
365.808136	146.580000
365.901611	145.720000
365.995117	145.700000
366.088593	145.500000
366.182129	145.480000
366.275604	145.440000
366.369110	145.880000
366.462585	145.980000
366.556122	146.780000
366.649567	146.800000
366.743103	146.760000
366.836609	146.620000
366.930115	146.680000
367.023590	146.360000
367.117096	145.980000
367.210602	145.700000
367.304108	146.280000
367.397614	146.580000
367.491119	146.660000
367.584595	147.000000
367.678101	147.180000
367.771606	146.560000
367.865112	146.340000
367.958649	145.760000
368.052124	145.760000
368.145660	145.520000
368.239136	146.060000
368.332672	145.980000
368.426147	146.540000
368.519684	146.360000
368.613159	146.860000
368.706696	146.300000
368.800171	146.280000
368.893707	145.940000
368.987183	145.900000
369.080719	145.760000
369.174225	145.680000
369.267731	146.060000
369.361237	146.040000
369.454742	145.980000
369.548248	146.120000
369.641754	146.000000
369.735260	145.400000
369.828766	144.860000
369.922272	145.580000
370.015808	145.020000
370.109314	144.940000
370.202820	144.980000
370.296356	146.340000
370.389832	145.900000
370.483368	145.800000
370.576874	145.900000
370.670410	146.240000
370.763885	145.060000
370.857422	144.640000
370.950928	144.780000
371.044464	145.560000
371.137939	145.540000
371.231476	146.260000
371.324982	146.980000
371.418518	147.200000
371.512024	146.900000
371.605560	146.540000
371.699066	146.440000
371.792572	146.060000
371.886108	146.020000
371.979614	145.780000
372.073120	146.480000
372.166656	146.440000
372.260162	146.980000
372.353668	146.820000
372.447205	146.760000
372.540710	146.380000
372.634277	146.100000
372.727753	145.800000
372.821320	145.960000
372.914795	146.040000
373.008362	145.880000
373.101837	146.000000
373.195404	145.680000
373.288879	145.500000
373.382446	146.020000
373.475922	145.880000
373.569489	146.520000
373.662964	147.160000
373.756531	147.140000
373.850037	147.020000
373.943573	147.140000
374.037109	146.240000
374.130615	146.000000
374.224152	146.380000
374.317657	146.060000
374.411194	146.740000
374.504730	146.580000
374.598236	146.440000
374.691772	146.100000
374.785309	146.200000
374.878815	145.480000
374.972351	145.900000
375.065887	145.680000
375.159454	146.320000
375.252930	145.960000
375.346497	146.320000
375.440002	146.600000
375.533569	146.520000
375.627045	145.840000
375.720612	146.040000
375.814117	145.980000
375.907684	145.540000
376.001160	145.260000
376.094727	144.840000
376.188232	145.460000
376.281799	145.640000
376.375336	145.780000
376.468872	146.880000
376.562408	147.280000
376.655914	146.740000
376.749451	146.560000
376.842987	146.700000
376.936523	145.980000
377.030060	145.980000
377.123596	146.220000
377.217133	145.780000
377.310669	145.860000
377.404205	146.160000
377.497772	146.500000
377.591278	146.100000
377.684845	146.920000
377.778351	146.740000
377.871918	146.200000
377.965424	145.620000
378.058990	145.260000
378.152496	144.840000
378.246063	145.180000
378.339569	145.600000
378.433136	145.860000
378.526642	146.200000
378.620209	146.180000
378.713745	145.800000
378.807312	146.080000
378.900848	146.000000
378.994385	146.500000
379.087921	145.900000
379.181458	146.280000
379.274994	145.460000
379.368530	145.500000
379.462097	145.440000
379.555634	146.180000
379.649170	145.620000
379.742706	146.060000
379.836273	146.080000
379.929810	145.820000
380.023376	145.300000
380.116882	145.360000
380.210449	145.040000
380.303986	144.880000
380.397552	144.620000
380.491058	145.060000
380.584656	144.940000
380.678162	145.560000
380.771729	145.660000
380.865265	146.380000
380.958832	146.560000
381.052368	147.160000
381.145935	147.500000
381.239471	147.700000
381.333008	147.560000
381.426575	147.460000
381.520111	147.480000
381.613647	147.140000
381.707214	146.780000
381.800751	146.300000
381.894318	146.380000
381.987854	145.900000
382.081421	145.640000
382.174988	146.300000
382.268524	146.180000
382.362091	146.300000
382.455627	147.020000
382.549194	146.920000
382.642731	145.920000
382.736298	145.920000
382.829834	145.360000
382.923401	145.800000
383.016937	145.820000
383.110504	146.360000
383.204041	146.260000
383.297607	146.860000
383.391174	145.720000
383.484741	146.460000
383.578278	146.220000
383.671844	146.120000
383.765411	145.400000
383.858948	145.980000
383.952515	145.460000
384.046051	145.920000
384.139618	146.620000
384.233185	146.780000
384.326721	146.560000
384.420288	147.160000
384.513855	146.920000
384.607422	146.780000
384.700989	147.120000
384.794525	146.960000
384.888123	146.540000
384.981659	146.780000
385.075226	146.220000
385.168762	145.840000
385.262360	145.860000
385.355896	145.380000
385.449463	144.960000
385.542999	145.380000
385.636597	146.000000
385.730164	146.360000
385.823730	146.360000
385.917267	145.980000
386.010834	146.080000
386.104401	146.040000
386.197968	145.960000
386.291534	146.140000
386.385101	146.760000
386.478668	147.120000
386.572235	146.920000
386.665802	146.360000
386.759338	146.040000
386.852905	145.560000
386.946472	144.940000
387.040070	145.020000
387.133606	145.160000
387.227203	145.240000
387.320740	145.700000
387.414337	145.420000
387.507874	144.960000
387.601471	145.180000
387.695007	145.140000
387.788605	145.120000
387.882141	145.380000
387.975739	145.800000
388.069275	145.620000
388.162872	145.960000
388.256439	145.960000
388.350037	145.900000
388.443604	145.580000
388.537170	145.680000
388.630737	146.240000
388.724304	146.520000
388.817871	146.640000
388.911438	146.880000
389.005005	146.800000
389.098602	146.660000
389.192169	146.340000
389.285736	146.720000
389.379333	146.700000
389.472870	146.400000
389.566467	146.260000
389.660034	146.300000
389.753632	145.780000
389.847168	146.060000
389.940765	146.620000
390.034332	146.660000
390.127930	146.140000
390.221466	146.220000
390.315063	145.720000
390.408630	144.760000
390.502228	144.240000
390.595795	144.860000
390.689362	145.060000
390.782959	145.460000
390.876526	146.320000
390.970093	146.120000
391.063690	146.480000
391.157257	146.500000
391.250824	146.620000
391.344421	146.280000
391.437988	146.980000
391.531555	146.960000
391.625153	146.960000
391.718750	146.920000
391.812317	146.760000
391.905914	146.320000
391.999481	146.380000
392.093079	146.200000
392.186615	146.640000
392.280243	147.060000
392.373779	146.960000
392.467407	147.040000
392.560944	147.060000
392.654572	145.900000
392.748108	145.800000
392.841736	146.180000
392.935303	145.680000
393.028900	145.620000
393.122467	146.240000
393.216064	145.840000
393.309631	145.440000
393.403229	145.020000
393.496796	145.280000
393.590393	144.880000
393.683990	145.580000
393.777557	145.940000
393.871155	146.480000
393.964722	146.460000
394.058350	146.700000
394.151917	146.320000
394.245514	146.260000
394.339081	146.620000
394.432678	146.680000
394.526245	146.520000
394.619873	146.140000
394.713409	146.240000
394.807037	145.680000
394.900604	146.040000
394.994202	145.860000
395.087769	146.560000
395.181396	146.000000
395.274994	146.960000
395.368561	146.000000
395.462158	146.380000
395.555756	145.940000
395.649353	146.560000
395.742920	145.680000
395.836517	146.680000
395.930115	146.100000
396.023712	146.320000
396.117279	146.420000
396.210876	146.460000
396.304474	146.120000
396.398071	146.560000
396.491669	146.640000
396.585266	146.220000
396.678833	146.220000
396.772461	146.700000
396.866028	146.620000
396.959656	146.800000
397.053223	147.360000
397.146851	147.240000
397.240417	147.340000
397.334015	148.740000
397.427582	149.380000
397.521210	150.420000
397.614807	152.620000
397.708405	154.720000
397.802002	156.780000
397.895599	161.020000
397.989197	165.600000
398.082794	171.180000
398.176392	178.720000
398.269989	187.720000
398.363586	198.300000
398.457184	211.080000
398.550781	225.380000
398.644379	239.900000
398.737976	256.420000
398.831573	273.700000
398.925201	290.540000
399.018768	307.360000
399.112396	324.600000
399.205963	341.680000
399.299591	358.180000
399.393158	376.520000
399.486786	396.140000
399.580353	416.460000
399.673981	435.580000
399.767578	453.940000
399.861206	469.480000
399.954773	481.100000
400.048401	487.020000
400.141998	487.560000
400.235596	483.320000
400.329193	475.020000
400.422791	463.400000
400.516418	450.540000
400.610016	438.760000
400.703613	427.700000
400.797211	414.340000
400.890808	400.860000
400.984436	386.800000
401.078033	368.700000
401.171631	348.340000
401.265259	327.640000
401.358826	305.860000
401.452484	283.340000
401.546051	263.160000
401.639679	243.160000
401.733246	225.720000
401.826904	210.080000
401.920471	196.560000
402.014099	185.640000
402.107697	176.940000
402.201324	169.660000
402.294891	164.480000
402.388550	160.600000
402.482147	157.140000
402.575745	154.420000
402.669373	152.100000
402.762970	150.220000
402.856567	149.300000
402.950195	148.900000
403.043793	148.280000
403.137390	148.900000
403.231018	147.860000
403.324615	147.780000
403.418243	146.840000
403.511841	147.180000
403.605469	146.700000
403.699066	147.640000
403.792694	147.600000
403.886292	147.840000
403.979919	147.620000
404.073517	147.060000
404.167145	146.860000
404.260712	146.600000
404.354370	146.740000
404.447937	146.800000
404.541595	146.880000
404.635162	147.340000
404.728821	147.640000
404.822418	147.020000
404.916046	146.800000
405.009644	147.300000
405.103271	147.140000
405.196899	146.540000
405.290497	146.540000
405.384125	147.060000
405.477722	146.220000
405.571350	145.680000
405.664948	146.080000
405.758575	146.220000
405.852203	145.540000
405.945801	146.020000
406.039429	146.240000
406.133057	146.020000
406.226654	146.200000
406.320312	146.420000
406.413879	146.640000
406.507538	146.880000
406.601135	146.600000
406.694763	146.820000
406.788361	146.440000
406.882019	146.020000
406.975586	146.180000
407.069244	146.680000
407.162872	146.900000
407.256470	147.000000
407.350098	146.940000
407.443726	146.500000
407.537323	146.200000
407.630951	146.340000
407.724579	146.060000
407.818207	146.620000
407.911804	146.380000
408.005432	146.440000
408.099060	146.480000
408.192688	146.980000
408.286285	146.680000
408.379913	146.640000
408.473572	146.740000
408.567169	145.980000
408.660828	145.720000
408.754395	145.440000
408.848053	145.420000
408.941650	145.500000
409.035309	145.260000
409.128906	145.380000
409.222565	145.600000
409.316132	145.720000
409.409790	145.260000
409.503387	145.500000
409.597046	145.520000
409.690674	145.920000
409.784302	146.280000
409.877930	146.400000
409.971558	146.560000
410.065186	146.380000
410.158783	146.200000
410.252411	145.860000
410.346039	146.280000
410.439667	146.260000
410.533295	146.780000
410.626923	146.600000
410.720551	146.560000
410.814209	146.740000
410.907806	146.560000
411.001465	145.720000
411.095062	146.160000
411.188721	146.460000
411.282318	146.160000
411.375977	146.220000
411.469574	146.940000
411.563232	146.220000
411.656830	146.100000
411.750488	145.840000
411.844086	145.720000
411.937744	145.780000
412.031372	145.940000
412.125000	145.940000
412.218628	146.140000
412.312256	146.800000
412.405884	147.080000
412.499512	147.000000
412.593170	147.020000
412.686798	147.280000
412.780426	146.640000
412.874054	146.540000
412.967682	146.980000
413.061310	147.520000
413.154968	147.440000
413.248566	147.800000
413.342224	147.320000
413.435852	147.100000
413.529510	146.540000
413.623108	145.700000
413.716766	145.400000
413.810364	145.980000
413.904022	145.740000
413.997650	145.460000
414.091309	146.680000
414.184906	146.700000
414.278564	146.100000
414.372192	146.560000
414.465851	146.860000
414.559479	146.260000
414.653107	146.860000
414.746735	146.860000
414.840393	146.540000
414.934021	146.820000
415.027649	146.600000
415.121277	146.420000
415.214935	146.980000
415.308563	147.100000
415.402191	146.420000
415.495850	146.120000
415.589478	145.720000
415.683136	145.000000
415.776733	145.300000
415.870422	145.960000
415.964020	145.760000
416.057678	145.840000
416.151306	145.880000
416.244965	145.520000
416.338562	145.400000
416.432251	146.340000
416.525848	147.260000
416.619507	147.840000
416.713165	148.120000
416.806793	147.900000
416.900421	147.880000
416.994080	146.700000
417.087708	146.340000
417.181366	146.000000
417.274994	146.180000
417.368622	146.040000
417.462280	146.640000
417.555908	146.720000
417.649567	146.640000
417.743195	146.540000
417.836853	146.980000
417.930481	146.920000
418.024170	147.020000
418.117767	147.620000
418.211426	148.260000
418.305054	147.920000
418.398712	147.640000
418.492340	147.740000
418.585999	147.860000
418.679626	147.420000
418.773285	147.400000
418.866913	147.700000
418.960571	147.820000
419.054230	147.780000
419.147858	147.600000
419.241516	147.620000
419.335144	147.360000
419.428802	147.220000
419.522461	146.840000
419.616089	146.780000
419.709747	147.000000
419.803375	147.360000
419.897034	146.980000
419.990662	147.000000
420.084320	147.320000
420.177979	147.320000
420.271606	147.580000
420.365295	148.280000
420.458893	148.260000
420.552582	148.140000
420.646210	147.940000
420.739868	147.320000
420.833496	146.640000
420.927155	146.040000
421.020782	145.800000
421.114471	145.120000
421.208069	145.320000
421.301758	145.360000
421.395386	145.860000
421.489044	145.820000
421.582703	146.160000
421.676361	146.920000
421.769989	146.880000
421.863647	147.080000
421.957306	147.440000
422.050934	147.840000
422.144592	147.140000
422.238251	147.060000
422.331909	146.840000
422.425537	146.600000
422.519196	146.520000
422.612854	146.320000
422.706543	146.320000
422.800140	146.540000
422.893829	146.220000
422.987457	145.760000
423.081146	145.800000
423.174744	146.260000
423.268433	146.040000
423.362061	146.340000
423.455750	146.720000
423.549347	146.880000
423.643036	146.160000
423.736664	146.640000
423.830353	146.460000
423.924011	146.420000
424.017639	146.200000
424.111298	146.280000
424.204956	145.840000
424.298615	146.200000
424.392273	146.040000
424.485931	146.220000
424.579559	146.700000
424.673218	146.780000
424.766876	146.520000
424.860535	146.480000
424.954193	146.000000
425.047882	146.240000
425.141510	146.100000
425.235199	145.940000
425.328796	145.680000
425.422485	145.600000
425.516113	144.960000
425.609802	145.080000
425.703430	145.600000
425.797119	145.640000
425.890747	145.940000
425.984436	146.100000
426.078064	145.980000
426.171753	145.760000
426.265411	145.700000
426.359070	146.140000
426.452728	146.320000
426.546356	146.440000
426.640015	146.160000
426.733673	146.080000
426.827332	145.380000
426.920990	145.900000
427.014648	145.280000
427.108307	145.660000
427.201965	146.520000
427.295624	146.840000
427.389282	146.020000
427.482941	146.380000
427.576630	146.200000
427.670258	145.480000
427.763947	145.520000
427.857574	145.480000
427.951263	145.700000
428.044922	145.460000
428.138611	145.520000
428.232239	145.900000
428.325928	146.680000
428.419556	147.040000
428.513245	146.920000
428.606903	147.080000
428.700562	146.500000
428.794220	145.580000
428.887878	144.920000
428.981537	145.260000
429.075195	145.340000
429.168854	145.680000
429.262512	146.180000
429.356201	146.460000
429.449860	146.380000
429.543518	146.300000
429.637177	146.420000
429.730835	146.380000
429.824493	146.360000
429.918182	146.560000
430.011810	146.340000
430.105530	145.600000
430.199158	145.560000
430.292847	145.440000
430.386475	145.020000
430.480164	144.960000
430.573792	145.080000
430.667511	145.120000
430.761139	145.180000
430.854828	145.960000
430.948456	146.220000
431.042145	146.740000
431.135834	146.380000
431.229492	146.700000
431.323151	146.460000
431.416809	146.380000
431.510468	145.900000
431.604156	146.160000
431.697815	145.900000
431.791473	145.340000
431.885132	145.180000
431.978821	145.840000
432.072479	146.240000
432.166138	146.600000
432.259827	146.900000
432.353485	147.400000
432.447174	147.140000
432.540802	146.540000
432.634491	146.440000
432.728149	146.400000
432.821838	146.620000
432.915466	146.140000
433.009186	146.240000
433.102814	145.500000
433.196503	145.700000
433.290131	145.460000
433.383850	145.880000
433.477509	146.280000
433.571167	147.340000
433.664856	147.720000
433.758514	147.940000
433.852173	148.140000
433.945862	147.900000
434.039520	147.700000
434.133179	147.100000
434.226868	146.600000
434.320526	145.780000
434.414185	146.280000
434.507874	145.780000
434.601562	146.100000
434.695221	146.020000
434.788910	146.540000
434.882538	146.300000
434.976257	146.140000
435.069885	146.060000
435.163574	146.320000
435.257233	145.860000
435.350922	145.860000
435.444580	145.820000
435.538269	145.420000
435.631897	145.680000
435.725616	146.500000
435.819275	146.720000
435.912964	147.220000
436.006622	147.720000
436.100311	147.380000
436.193970	146.520000
436.287628	146.060000
436.381317	145.920000
436.474976	145.280000
436.568665	144.900000
436.662323	145.540000
436.756012	145.340000
436.849670	145.160000
436.943390	145.340000
437.037018	145.380000
437.130737	145.080000
437.224365	144.980000
437.318085	145.000000
437.411713	145.160000
437.505432	145.840000
437.599060	146.660000
437.692780	147.540000
437.786407	147.640000
437.880127	147.680000
437.973755	147.220000
438.067474	146.440000
438.161133	146.040000
438.254822	146.220000
438.348480	146.420000
438.442169	147.160000
438.535828	147.640000
438.629517	147.300000
438.723175	146.800000
438.816864	146.800000
438.910553	145.980000
439.004211	145.460000
439.097900	145.360000
439.191559	145.800000
439.285248	145.140000
439.378906	145.620000
439.472626	145.540000
439.566284	145.360000
439.659973	145.400000
439.753632	145.600000
439.847321	145.960000
439.940979	146.100000
440.034698	146.660000
440.128326	146.060000
440.222046	146.020000
440.315674	145.040000
440.409393	145.140000
440.503082	144.880000
440.596741	145.520000
440.690430	145.720000
440.784088	145.700000
440.877777	145.320000
440.971466	145.420000
441.065125	145.020000
441.158813	144.960000
441.252502	145.520000
441.346161	145.540000
441.439850	145.840000
441.533539	145.760000
441.627197	146.000000
441.720886	145.460000
441.814606	146.140000
441.908234	146.240000
442.001953	146.280000
442.095612	146.280000
442.189301	146.720000
442.282959	146.700000
442.376678	145.960000
442.470306	146.720000
442.564026	146.360000
442.657684	146.400000
442.751404	146.080000
442.845032	147.020000
442.938751	146.260000
443.032440	146.560000
443.126099	146.180000
443.219788	146.660000
443.313477	146.360000
443.407166	146.700000
443.500824	146.660000
443.594513	146.900000
443.688202	146.540000
443.781891	146.040000
443.875549	145.720000
443.969238	145.980000
444.062927	146.120000
444.156647	146.020000
444.250275	146.560000
444.343994	146.640000
444.437653	146.760000
444.531372	146.720000
444.625031	146.620000
444.718719	146.300000
444.812378	146.460000
444.906097	145.900000
444.999756	145.380000
445.093445	145.540000
445.187103	145.780000
445.280823	146.020000
445.374512	145.340000
445.468201	145.460000
445.561859	145.300000
445.655548	145.040000
445.749237	144.600000
445.842926	145.140000
445.936615	145.820000
446.030304	145.800000
446.123962	146.160000
446.217651	145.960000
446.311340	146.460000
446.405029	145.660000
446.498749	145.400000
446.592407	144.940000
446.686096	145.320000
446.779755	145.100000
446.873474	145.300000
446.967133	145.860000
447.060852	145.800000
447.154510	145.500000
447.248230	145.480000
447.341858	145.400000
447.435577	144.880000
447.529236	144.660000
447.622955	144.660000
447.716644	144.500000
447.810333	145.260000
447.904022	145.940000
447.997711	145.920000
448.091400	146.420000
448.185059	146.780000
448.278748	146.420000
448.372437	145.980000
448.466125	146.360000
448.559814	146.000000
448.653503	146.200000
448.747192	146.600000
448.840912	146.760000
448.934570	146.760000
449.028290	147.280000
449.121948	146.660000
449.215637	146.020000
449.309296	145.960000
449.403015	145.960000
449.496674	145.700000
449.590393	145.960000
449.684052	145.800000
449.777771	146.480000
449.871429	146.080000
449.965149	145.900000
450.058838	146.040000
450.152527	146.700000
450.246216	146.100000
450.339905	146.200000
450.433594	146.200000
450.527283	146.600000
450.620972	146.020000
450.714661	146.060000
450.808350	146.420000
450.902039	146.640000
450.995728	146.460000
451.089417	146.260000
451.183105	146.460000
451.276794	146.540000
451.370514	145.540000
451.464172	144.740000
451.557892	145.140000
451.651550	145.140000
451.745270	144.880000
451.838928	145.080000
451.932648	145.600000
452.026306	145.580000
452.120026	145.140000
452.213684	145.420000
452.307404	145.900000
452.401062	145.640000
452.494781	146.200000
452.588470	146.240000
452.682159	145.960000
452.775848	145.920000
452.869537	145.720000
452.963226	145.140000
453.056915	145.160000
453.150604	145.320000
453.244293	145.500000
453.337982	146.240000
453.431671	146.420000
453.525360	146.820000
453.619049	146.620000
453.712769	146.400000
453.806427	145.700000
453.900146	145.380000
453.993805	145.140000
454.087555	145.500000
454.181213	145.880000
454.274933	146.020000
454.368591	146.020000
454.462311	145.840000
454.555969	145.440000
454.649689	145.960000
454.743347	145.720000
454.837067	146.380000
454.930756	146.860000
455.024445	147.100000
455.118134	146.400000
455.211853	146.760000
455.305542	146.180000
455.399231	145.800000
455.492920	145.780000
455.586609	146.000000
455.680298	146.240000
455.773987	146.280000
455.867676	146.340000
455.961365	146.600000
456.055084	146.380000
456.148773	146.080000
456.242493	146.120000
456.336151	146.260000
456.429871	146.080000
456.523529	146.480000
456.617249	146.260000
456.710907	147.000000
456.804626	146.820000
456.898315	146.440000
456.992035	146.040000
457.085693	146.140000
457.179413	145.260000
457.273102	146.160000
457.366791	146.340000
457.460480	146.760000
457.554199	147.280000
457.647888	147.300000
457.741577	146.500000
457.835266	146.500000
457.928955	146.500000
458.022644	146.320000
458.116364	146.440000
458.210052	146.240000
458.303741	146.300000
458.397461	145.600000
458.491119	145.160000
458.584839	145.280000
458.678528	145.140000
458.772247	144.840000
458.865906	145.240000
458.959625	146.200000
459.053284	146.260000
459.147003	146.160000
459.240692	146.820000
459.334412	146.840000
459.428070	146.280000
459.521790	145.880000
459.615479	145.840000
459.709198	146.060000
459.802887	145.840000
459.896576	145.560000
459.990265	146.260000
460.083954	146.760000
460.177673	146.080000
460.271362	145.960000
460.365051	146.020000
460.458740	145.240000
460.552429	144.620000
460.646149	144.820000
460.739838	144.740000
460.833527	144.800000
460.927246	144.860000
461.020905	145.080000
461.114655	145.240000
461.208313	145.440000
461.302032	145.140000
461.395691	145.600000
461.489441	145.540000
461.583099	145.080000
461.676819	145.000000
461.770477	145.360000
461.864197	144.960000
461.957916	145.220000
462.051605	145.020000
462.145294	146.000000
462.238983	145.820000
462.332703	146.280000
462.426392	146.760000
462.520081	147.120000
462.613770	146.300000
462.707489	146.880000
462.801178	146.820000
462.894867	146.360000
462.988556	146.460000
463.082275	146.640000
463.175964	145.880000
463.269684	146.080000
463.363342	146.280000
463.457092	145.880000
463.550751	146.200000
463.644470	146.460000
463.738129	145.800000
463.831879	145.560000
463.925537	146.280000
464.019257	145.900000
464.112946	145.980000
464.206665	146.060000
464.300323	146.020000
464.394043	145.520000
464.487762	145.440000
464.581451	145.640000
464.675140	145.700000
464.768829	146.160000
464.862549	146.360000
464.956238	146.680000
465.049927	146.800000
465.143646	146.960000
465.237335	146.560000
465.331024	146.780000
465.424713	146.320000
465.518433	146.120000
465.612152	145.780000
465.705811	145.820000
465.799561	145.460000
465.893219	145.440000
465.986938	145.480000
466.080597	145.580000
466.174347	145.740000
466.268005	145.720000
466.361725	145.480000
466.455414	145.460000
466.549133	145.300000
466.642792	145.280000
466.736542	145.060000
466.830231	145.600000
466.923920	145.480000
467.017609	145.740000
467.111328	145.380000
467.205017	145.360000
467.298706	145.440000
467.392426	145.280000
467.486115	145.340000
467.579803	145.300000
467.673523	145.840000
467.767212	145.600000
467.860901	145.760000
467.954651	145.880000
468.048309	146.100000
468.142029	146.040000
468.235718	145.940000
468.329437	145.920000
468.423096	145.800000
468.516846	145.620000
468.610504	145.160000
468.704224	144.980000
468.797913	144.940000
468.891632	145.080000
468.985291	145.080000
469.079010	145.360000
469.172729	145.240000
469.266418	145.720000
469.360107	145.580000
469.453827	145.580000
469.547516	145.680000
469.641205	146.580000
469.734924	146.360000
469.828613	146.600000
469.922302	146.980000
470.016022	147.000000
470.109711	146.560000
470.203430	145.940000
470.297150	145.360000
470.390808	145.420000
470.484558	145.080000
470.578217	145.700000
470.671936	146.600000
470.765625	147.480000
470.859344	147.200000
470.953003	147.540000
471.046753	146.740000
471.140411	145.760000
471.234131	145.420000
471.327820	145.680000
471.421539	145.540000
471.515228	145.240000
471.608948	145.820000
471.702637	145.620000
471.796326	145.060000
471.890045	145.340000
471.983734	145.660000
472.077423	145.560000
472.171143	145.560000
472.264832	145.760000
472.358521	145.360000
472.452240	145.000000
472.545929	145.480000
472.639648	145.520000
472.733337	145.980000
472.827057	146.200000
472.920746	146.520000
473.014465	146.360000
473.108124	146.520000
473.201874	146.300000
473.295532	146.100000
473.389252	146.260000
473.482941	146.320000
473.576660	145.800000
473.670319	145.660000
473.764069	146.240000
473.857727	146.460000
473.951477	146.740000
474.045166	147.280000
474.138855	147.080000
474.232574	146.660000
474.326263	146.500000
474.419952	146.160000
474.513672	146.000000
474.607361	146.160000
474.701050	146.180000
474.794769	145.980000
474.888458	146.420000
474.982178	146.520000
475.075867	146.440000
475.169586	146.300000
475.263275	146.280000
475.356995	145.640000
475.450653	145.360000
475.544403	145.100000
475.638062	145.940000
475.731812	145.640000
475.825470	145.540000
475.919189	145.840000
476.012878	146.220000
476.106598	145.120000
476.200256	145.820000
476.294006	146.040000
476.387695	146.040000
476.481384	145.820000
476.575104	146.340000
476.668793	145.680000
476.762512	145.020000
476.856201	145.240000
476.949890	145.220000
477.043610	144.580000
477.137299	144.940000
477.230988	145.440000
477.324707	145.000000
477.418396	145.860000
477.512146	146.340000
477.605804	146.080000
477.699524	146.180000
477.793213	146.160000
477.886932	145.680000
477.980591	145.300000
478.074341	145.400000
478.167999	144.920000
478.261749	144.880000
478.355408	144.500000
478.449127	145.140000
478.542816	145.980000
478.636536	147.040000
478.730225	147.600000
478.823944	147.980000
478.917633	147.720000
479.011322	147.560000
479.105042	147.160000
479.198730	146.900000
479.292450	146.780000
479.386139	147.000000
479.479828	146.680000
479.573547	146.840000
479.667267	147.000000
479.760925	146.880000
479.854675	147.000000
479.948334	147.280000
480.042084	146.500000
480.135742	146.480000
480.229462	146.120000
480.323151	145.940000
480.416870	145.060000
480.510529	145.200000
480.604279	144.500000
480.697937	145.220000
480.791656	144.940000
480.885345	145.220000
480.979065	145.400000
481.072754	146.340000
481.166473	146.640000
481.260132	146.700000
481.353882	146.900000
481.447540	146.760000
481.541260	146.580000
481.635010	145.800000
481.728668	145.640000
481.822388	145.400000
481.916077	145.700000
482.009796	145.400000
482.103485	145.760000
482.197205	146.060000
482.290863	146.520000
482.384613	146.400000
482.478271	146.060000
482.571991	145.920000
482.665680	146.000000
482.759399	146.180000
482.853058	146.700000
482.946808	146.780000
483.040466	146.620000
483.134216	146.400000
483.227875	145.660000
483.321594	145.780000
483.415283	146.000000
483.509003	146.220000
483.602661	145.860000
483.696411	146.640000
483.790070	146.220000
483.883789	146.120000
483.977478	146.160000
484.071198	146.360000
484.164917	145.780000
484.258606	145.560000
484.352325	145.920000
484.445984	146.000000
484.539734	146.200000
484.633392	145.780000
484.727142	145.920000
484.820801	145.520000
484.914520	145.360000
485.008209	145.600000
485.101929	146.000000
485.195587	145.860000
485.289337	145.800000
485.382996	145.820000
485.476715	145.740000
485.570404	146.340000
485.664124	146.180000
485.757782	147.000000
485.851532	146.820000
485.945190	146.420000
486.038910	146.140000
486.132599	146.700000
486.226318	145.820000
486.319977	145.800000
486.413727	146.340000
486.507446	145.760000
486.601105	144.920000
486.694855	144.900000
486.788513	144.880000
486.882233	144.680000
486.975922	145.140000
487.069641	145.380000
487.163300	145.360000
487.257050	146.500000
487.350708	146.200000
487.444427	145.700000
487.538116	145.800000
487.631836	145.760000
487.725494	144.820000
487.819214	144.960000
487.912903	145.340000
488.006622	145.800000
488.100281	146.320000
488.194031	146.780000
488.287689	147.000000
488.381409	147.520000
488.475098	147.120000
488.568817	147.040000
488.662476	146.700000
488.756226	146.220000
488.849945	145.120000
488.943604	145.180000
489.037354	145.360000
489.131012	145.020000
489.224731	144.920000
489.318390	145.300000
489.412140	145.440000
489.505798	145.160000
489.599518	145.140000
489.693207	145.720000
489.786926	145.920000
489.880585	145.500000
489.974335	145.780000
490.067993	146.920000
490.161713	146.660000
490.255371	147.080000
490.349121	147.300000
490.442780	146.880000
490.536499	145.580000
490.630188	145.740000
490.723907	145.100000
490.817566	145.500000
490.911285	145.660000
491.004974	145.700000
491.098694	145.280000
491.192413	146.080000
491.286102	145.500000
491.379822	145.660000
491.473480	146.060000
491.567200	146.340000
491.660889	145.460000
491.754608	145.660000
491.848267	145.660000
491.941986	145.760000
492.035675	145.760000
492.129395	146.240000
492.223053	145.800000
492.316772	145.840000
492.410461	145.500000
492.504181	145.380000
492.597839	144.900000
492.691559	145.460000
492.785248	145.400000
492.878967	145.700000
492.972626	145.540000
493.066345	145.800000
493.160034	145.460000
493.253754	145.320000
493.347412	144.880000
493.441132	145.440000
493.534882	146.140000
493.628540	146.720000
493.722260	146.680000
493.815918	146.940000
493.909668	147.300000
494.003326	147.260000
494.097046	146.720000
494.190704	146.800000
494.284454	146.960000
494.378113	146.660000
494.471832	146.420000
494.565491	146.620000
494.659210	146.700000
494.752899	146.580000
494.846619	146.420000
494.940277	146.360000
495.033997	146.240000
495.127686	145.880000
495.221405	145.660000
495.315063	145.600000
495.408783	145.520000
495.502441	145.400000
495.596191	145.660000
495.689850	145.740000
495.783569	146.020000
495.877228	146.020000
495.970947	146.000000
496.064697	146.040000
496.158356	146.820000
496.252075	146.580000
496.345734	146.560000
496.439453	147.480000
496.533142	147.660000
496.626862	147.780000
496.720520	147.680000
496.814240	147.500000
496.907898	146.840000
497.001617	146.760000
497.095306	145.620000
497.189026	145.440000
497.282684	145.560000
497.376404	145.940000
497.470062	145.540000
497.563782	145.900000
497.657471	146.100000
497.751190	145.780000
497.844849	145.460000
497.938568	145.980000
498.032227	146.280000
498.125946	146.460000
498.219635	146.500000
498.313354	146.440000
498.407074	145.920000
498.500732	145.920000
498.594452	145.940000
498.688110	145.640000
498.781830	145.420000
498.875519	145.380000
498.969238	144.900000
499.062897	144.580000
499.156616	145.160000
499.250275	145.400000
499.343994	145.000000
499.437653	145.300000
499.531372	145.680000
499.625061	146.420000
499.718781	146.480000
499.812439	147.540000
499.906158	147.640000
499.999817	147.120000
500.093536	146.220000
500.187195	146.360000
500.280914	146.040000
500.374573	145.940000
500.468323	146.000000
500.561981	146.280000
500.655701	146.000000
500.749420	145.880000
500.843079	145.980000
500.936798	146.460000
501.030457	146.640000
501.124176	147.020000
501.217834	147.180000
501.311554	146.900000
501.405212	146.460000
501.498962	145.860000
501.592621	145.420000
501.686340	145.700000
501.779999	145.940000
501.873718	146.140000
501.967377	146.440000
502.061096	146.600000
502.154755	145.840000
502.248474	145.920000
502.342133	145.900000
502.435852	146.100000
502.529510	146.940000
502.623230	147.900000
502.716888	147.340000
502.810608	147.260000
502.904266	147.620000
502.997986	146.900000
503.091705	145.940000
503.185364	146.140000
503.279083	146.040000
503.372772	145.420000
503.466492	144.900000
503.560150	145.060000
503.653870	145.420000
503.747528	145.720000
503.841248	145.420000
503.934906	145.980000
504.028625	146.000000
504.122284	146.040000
504.216003	146.620000
504.309662	146.500000
504.403381	146.520000
504.497040	146.660000
504.590759	146.420000
504.684418	146.260000
504.778137	147.000000
504.871796	147.380000
504.965515	147.200000
505.059174	147.340000
505.152893	146.520000
505.246521	145.980000
505.340240	145.320000
505.433899	145.480000
505.527618	145.580000
505.621338	146.020000
505.714996	145.880000
505.808716	145.760000
505.902374	146.160000
505.996094	145.920000
506.089752	145.640000
506.183472	145.860000
506.277130	145.860000
506.370850	145.600000
506.464508	145.800000
506.558228	145.720000
506.651886	145.480000
506.745605	146.080000
506.839264	146.080000
506.932983	146.200000
507.026611	146.340000
507.120331	147.080000
507.213989	146.400000
507.307709	146.380000
507.401367	146.380000
507.495087	147.260000
507.588745	146.420000
507.682465	147.380000
507.776123	147.220000
507.869843	146.860000
507.963531	146.420000
508.057190	147.140000
508.150909	146.120000
508.244568	146.520000
508.338287	146.260000
508.431946	145.740000
508.525665	145.400000
508.619324	145.500000
508.713013	145.260000
508.806671	146.060000
508.900391	146.680000
508.994049	146.680000
509.087769	146.720000
509.181427	146.860000
509.275146	146.480000
509.368774	146.040000
509.462494	146.020000
509.556152	145.940000
509.649872	146.260000
509.743530	146.360000
509.837250	146.300000
509.930878	146.320000
510.024597	146.380000
510.118256	146.080000
510.211975	145.760000
510.305695	145.560000
510.399353	146.040000
510.493042	146.520000
510.586700	146.380000
510.680420	147.060000
510.774078	147.180000
510.867798	147.140000
510.961426	146.540000
511.055145	146.680000
511.148804	146.280000
511.242523	146.880000
511.336151	146.780000
511.429871	147.440000
511.523529	147.380000
511.617249	146.840000
511.710876	146.460000
511.804596	145.920000
511.898254	145.300000
511.991974	145.480000
512.085632	145.600000
512.179321	145.520000
512.272949	146.360000
512.366699	146.980000
512.460327	147.100000
512.554077	148.240000
512.647766	148.320000
512.741394	147.820000
512.835144	147.900000
512.928772	147.220000
513.022461	146.720000
513.116150	146.520000
513.209839	146.780000
513.303467	145.980000
513.397217	145.740000
513.490845	145.240000
513.584595	145.020000
513.678223	144.620000
513.771912	144.140000
513.865601	144.640000
513.959290	144.600000
514.052917	145.020000
514.146667	145.760000
514.240295	146.720000
514.333984	146.960000
514.427673	147.080000
514.521362	147.400000
514.614990	146.420000
514.708740	146.340000
514.802368	146.320000
514.896057	146.220000
514.989746	146.760000
515.083435	146.980000
515.177124	147.220000
515.270752	146.860000
515.364502	147.160000
515.458130	146.760000
515.551819	146.800000
515.645508	146.640000
515.739197	146.780000
515.832825	146.760000
515.926575	146.160000
516.020203	146.400000
516.113892	147.200000
516.207520	147.180000
516.301270	146.960000
516.394897	147.520000
516.488586	147.980000
516.582275	147.280000
516.675964	147.060000
516.769592	147.000000
516.863281	147.020000
516.956970	147.040000
517.050659	146.960000
517.144287	146.880000
517.238037	147.160000
517.331665	146.700000
517.425354	146.180000
517.519043	146.060000
517.612732	146.660000
517.706421	146.460000
517.800049	146.140000
517.893738	145.820000
517.987427	145.700000
518.081116	145.220000
518.174744	145.100000
518.268433	145.460000
518.362122	146.180000
518.455811	146.260000
518.549438	146.740000
518.643127	147.500000
518.736816	147.360000
518.830505	146.680000
518.924133	146.600000
519.017822	146.740000
519.111511	146.100000
519.205200	146.480000
519.298828	146.500000
519.392517	146.460000
519.486206	146.340000
519.579895	146.400000
519.673523	146.240000
519.767212	146.080000
519.860901	146.540000
519.954590	146.520000
520.048279	146.200000
520.141907	145.860000
520.235596	146.860000
520.329224	146.700000
520.422974	146.580000
520.516602	146.600000
520.610291	146.380000
520.703918	145.960000
520.797607	145.660000
520.891296	145.440000
520.984985	146.000000
521.078613	146.720000
521.172302	146.060000
521.265930	147.000000
521.359680	147.340000
521.453308	146.920000
521.546997	146.720000
521.640625	147.160000
521.734314	146.380000
521.827942	145.960000
521.921692	146.420000
522.015320	146.300000
522.109009	146.200000
522.202698	146.020000
522.296326	146.340000
522.390015	146.080000
522.483704	146.240000
522.577393	146.080000
522.671021	146.020000
522.764709	145.500000
522.858337	146.060000
522.952026	146.080000
523.045654	146.700000
523.139404	147.440000
523.233032	147.860000
523.326721	147.360000
523.420349	147.420000
523.514038	146.860000
523.607666	146.860000
523.701355	146.420000
523.795044	146.380000
523.888733	146.240000
523.982361	146.440000
524.076050	146.020000
524.169678	146.560000
524.263367	146.500000
524.356995	146.060000
524.450684	145.660000
524.544373	145.380000
524.638062	145.220000
524.731750	145.340000
524.825378	145.580000
524.919067	145.620000
525.012695	145.700000
525.106384	145.500000
525.200012	145.600000
525.293701	145.420000
525.387329	146.020000
525.481018	146.580000
525.574646	147.040000
525.668396	146.880000
525.762024	147.440000
525.855713	147.140000
525.949341	146.440000
526.043030	146.380000
526.136658	146.200000
526.230347	145.780000
526.323975	145.580000
526.417664	145.580000
526.511292	145.320000
526.604980	145.700000
526.698608	145.620000
526.792297	145.800000
526.885925	146.040000
526.979614	146.260000
527.073303	145.740000
527.166931	145.960000
527.260620	146.540000
527.354309	146.900000
527.447998	146.660000
527.541626	146.720000
527.635315	146.360000
527.728943	146.380000
527.822632	146.300000
527.916260	146.620000
528.009949	147.000000
528.103577	147.560000
528.197266	146.860000
528.290894	146.860000
528.384583	146.740000
528.478210	146.680000
528.571899	146.860000
528.665527	147.120000
528.759216	146.900000
528.852844	147.020000
528.946533	146.740000
529.040161	146.200000
529.133850	146.040000
529.227478	146.340000
529.321167	146.280000
529.414856	146.820000
529.508484	147.260000
529.602173	146.780000
529.695801	146.620000
529.789490	146.600000
529.883057	146.220000
529.976746	146.220000
530.070374	147.080000
530.164062	147.080000
530.257690	147.360000
530.351379	147.780000
530.445007	147.740000
530.538696	147.060000
530.632324	147.040000
530.726013	146.840000
530.819641	146.460000
530.913330	146.540000
531.006958	146.460000
531.100647	146.640000
531.194275	146.220000
531.287964	146.140000
531.381592	145.760000
531.475220	146.080000
531.568848	145.720000
531.662537	145.780000
531.756226	146.060000
531.849854	146.060000
531.943542	146.160000
532.037170	145.640000
532.130859	146.180000
532.224487	145.580000
532.318176	145.280000
532.411804	145.460000
532.505432	146.280000
532.599060	145.580000
532.692749	145.640000
532.786377	146.360000
532.880066	145.820000
532.973694	145.260000
533.067383	145.440000
533.161011	145.640000
533.254639	145.360000
533.348267	145.400000
533.441956	145.620000
533.535583	145.500000
533.629272	145.520000
533.722900	145.020000
533.816589	144.940000
533.910156	145.440000
534.003845	145.180000
534.097534	145.600000
534.191162	146.240000
534.284851	146.560000
534.378479	145.860000
534.472107	146.400000
534.565735	145.920000
534.659424	145.900000
534.753052	145.900000
534.846741	145.680000
534.940369	145.860000
535.033997	146.060000
535.127625	145.960000
535.221313	146.760000
535.314941	147.200000
535.408630	146.760000
535.502197	147.300000
535.595886	146.840000
535.689514	146.140000
535.783203	146.460000
535.876831	146.860000
535.970459	146.580000
536.064087	146.980000
536.157776	146.760000
536.251404	146.580000
536.345093	146.140000
536.438721	146.060000
536.532349	146.220000
536.626038	146.080000
536.719666	146.420000
536.813293	146.140000
536.906921	146.140000
537.000610	146.120000
537.094238	146.480000
537.187866	146.120000
537.281494	146.320000
537.375183	146.240000
537.468811	146.120000
537.562439	146.180000
537.656067	145.980000
537.749756	146.180000
537.843384	146.600000
537.937012	146.760000
538.030640	146.200000
538.124329	146.340000
538.217896	146.840000
538.311584	146.900000
538.405212	146.700000
538.498901	147.140000
538.592468	147.760000
538.686157	147.040000
538.779785	146.100000
538.873413	146.100000
538.967102	145.840000
539.060730	144.980000
539.154358	145.520000
539.247986	145.980000
539.341675	145.920000
539.435242	145.920000
539.528931	146.360000
539.622559	145.740000
539.716187	146.200000
539.809814	146.140000
539.903503	146.260000
539.997070	145.740000
540.090759	146.200000
540.184387	145.780000
540.278015	146.040000
540.371643	146.340000
540.465332	146.740000
540.558899	146.460000
540.652588	146.240000
540.746216	146.080000
540.839844	146.120000
540.933472	146.020000
541.027100	145.800000
541.120728	145.820000
541.214417	146.120000
541.308044	146.280000
541.401672	146.100000
541.495300	146.460000
541.588928	146.320000
541.682617	146.140000
541.776184	145.300000
541.869873	145.680000
541.963440	145.820000
542.057129	146.060000
542.150757	146.060000
542.244385	146.160000
542.338013	145.920000
542.431641	145.880000
542.525269	145.780000
542.618958	146.220000
542.712524	146.800000
542.806213	146.640000
542.899780	146.600000
542.993469	146.340000
543.087036	145.640000
543.180725	145.000000
543.274292	144.940000
543.367981	145.060000
543.461548	145.540000
543.555237	145.500000
543.648926	146.100000
543.742493	146.880000
543.836182	146.580000
543.929749	146.320000
544.023437	146.740000
544.117004	146.540000
544.210693	146.200000
544.304260	146.360000
544.397949	146.360000
544.491516	146.200000
544.585205	146.260000
544.678772	146.080000
544.772461	146.200000
544.866028	146.260000
544.959717	146.240000
545.053284	146.020000
545.146973	146.140000
545.240540	146.000000
545.334229	146.500000
545.427795	146.600000
545.521423	146.920000
545.615051	147.080000
545.708679	147.660000
545.802307	147.120000
545.895935	147.220000
545.989624	147.880000
546.083191	147.620000
546.176880	147.220000
546.270447	146.780000
546.364136	147.220000
546.457703	146.660000
546.551331	146.480000
546.644958	146.440000
546.738586	146.940000
546.832214	146.320000
546.925842	145.800000
547.019409	146.200000
547.113098	145.960000
547.206665	145.820000
547.300354	146.020000
547.393921	146.520000
547.487549	146.720000
547.581177	146.720000
547.674805	146.800000
547.768433	146.120000
547.862061	146.100000
547.955627	145.380000
548.049316	145.660000
548.142883	145.640000
548.236572	146.300000
548.330139	146.260000
548.423767	146.340000
548.517456	146.300000
548.611023	146.460000
548.704651	145.980000
548.798279	145.940000
548.891907	146.540000
548.985474	146.200000
549.079163	146.400000
549.172729	146.120000
549.266357	145.560000
549.359985	145.440000
549.453613	145.020000
549.547180	144.640000
549.640869	145.560000
549.734436	145.760000
549.828064	146.100000
549.921631	146.780000
550.015320	146.460000
550.108887	146.320000
550.202515	146.460000
550.296143	145.720000
550.389771	145.560000
550.483337	146.000000
550.576965	145.640000
550.670593	146.160000
550.764221	146.400000
550.857849	146.020000
550.951477	145.640000
551.045105	145.560000
551.138672	145.180000
551.232300	144.860000
551.325928	145.500000
551.419556	146.000000
551.513123	146.220000
551.606750	146.100000
551.700378	146.240000
551.794006	145.900000
551.887573	145.700000
551.981201	145.860000
552.074768	145.900000
552.168457	145.860000
552.262024	146.760000
552.355652	146.640000
552.449219	147.260000
552.542847	147.480000
552.636475	147.280000
552.730103	146.240000
552.823669	146.060000
552.917297	145.380000
553.010864	145.260000
553.104553	145.580000
553.198181	145.720000
553.291748	146.180000
553.385376	146.220000
553.478943	145.940000
553.572571	146.180000
553.666199	146.260000
553.759827	145.920000
553.853394	145.480000
553.947021	145.500000
554.040588	145.060000
554.134216	145.320000
554.227783	145.980000
554.321411	146.680000
554.415039	146.380000
554.508667	146.400000
554.602234	146.580000
554.695862	145.660000
554.789429	145.180000
554.883057	145.600000
554.976624	145.660000
555.070251	145.520000
555.163818	145.660000
555.257507	145.740000
555.351074	145.640000
555.444702	146.780000
555.538330	146.480000
555.631897	147.100000
555.725525	147.020000
555.819092	146.700000
555.912720	145.420000
556.006287	145.780000
556.099915	145.200000
556.193481	145.100000
556.287109	145.600000
556.380676	145.440000
556.474304	145.260000
556.567871	145.440000
556.661499	145.140000
556.755066	144.920000
556.848694	145.240000
556.942261	145.200000
557.035889	145.320000
557.129517	145.720000
557.223145	146.320000
557.316711	146.280000
557.410339	146.580000
557.503906	146.480000
557.597473	146.780000
557.691040	146.440000
557.784668	146.460000
557.878296	146.340000
557.971863	146.540000
558.065491	146.640000
558.159058	146.400000
558.252686	147.260000
558.346252	147.680000
558.439880	147.160000
558.533447	146.600000
558.627075	146.420000
558.720642	145.640000
558.814270	145.280000
558.907837	145.560000
559.001465	145.680000
559.095032	146.320000
559.188660	146.580000
559.282227	145.880000
559.375854	146.380000
559.469360	146.300000
559.562988	146.500000
559.656555	146.060000
559.750183	146.740000
559.843750	146.780000
559.937378	146.860000
560.030945	146.300000
560.124573	0.000000
560.218140	0.000000
560.311707	0.000000
560.405334	0.000000
560.498901	0.000000
560.592529	0.000000
560.686096	0.000000
560.779724	0.000000
560.873291	0.000000
560.966858	0.000000
561.060425	0.000000
561.154053	0.000000
561.247620	0.000000
561.341248	0.000000
561.434814	0.000000
561.528381	0.000000
561.621948	0.000000
561.715576	0.000000
561.809143	0.000000
561.902771	0.000000
561.996277	0.000000
562.089905	0.000000
562.183472	0.000000
562.277100	0.000000
