Model Number: SPM-002-B   
Serial Number: 70087108
Firmware Version: 004.15.4
Exposure Time: 100000.000000us
Data Taken on: 11-12-2020 18:48:37.881
Wavelength	Amplitude
221.570786	0.000000
221.663406	0.000000
221.756027	0.000000
221.848648	0.000000
221.941269	0.000000
222.033905	0.000000
222.126526	0.000000
222.219162	0.000000
222.311798	0.000000
222.404419	0.000000
222.497055	0.000000
222.589676	0.000000
222.682312	0.000000
222.774933	0.000000
222.867569	0.000000
222.960205	0.000000
223.052841	0.000000
223.145462	0.000000
223.238098	0.000000
223.330734	0.000000
223.423386	0.000000
223.516022	0.000000
223.608658	0.000000
223.701309	0.000000
223.793945	0.000000
223.886581	0.000000
223.979218	0.000000
224.071869	0.000000
224.164505	0.000000
224.257156	0.000000
224.349792	0.000000
224.442444	0.000000
224.535095	0.000000
224.627747	0.000000
224.720398	0.000000
224.813034	0.000000
224.905685	0.000000
224.998337	145.640000
225.090988	145.560000
225.183640	145.460000
225.276291	145.420000
225.368942	146.100000
225.461594	146.400000
225.554245	146.600000
225.646912	146.760000
225.739578	147.160000
225.832230	147.200000
225.924896	146.180000
226.017548	146.660000
226.110199	147.200000
226.202866	146.640000
226.295532	146.260000
226.388184	146.580000
226.480850	146.060000
226.573517	145.320000
226.666168	145.220000
226.758835	145.760000
226.851501	146.100000
226.944183	146.180000
227.036850	146.140000
227.129517	146.420000
227.222183	145.940000
227.314850	146.040000
227.407516	146.480000
227.500198	147.040000
227.592865	146.880000
227.685532	146.860000
227.778214	146.700000
227.870880	146.680000
227.963562	147.320000
228.056229	147.660000
228.148926	147.520000
228.241592	148.220000
228.334274	147.800000
228.426956	147.140000
228.519638	146.940000
228.612305	146.940000
228.704987	146.720000
228.797668	146.640000
228.890350	146.500000
228.983032	145.940000
229.075714	146.280000
229.168396	145.780000
229.261108	145.100000
229.353790	145.120000
229.446472	145.820000
229.539169	145.860000
229.631851	145.420000
229.724533	146.120000
229.817230	146.420000
229.909912	146.880000
230.002609	146.660000
230.095306	146.960000
230.187988	147.140000
230.280685	146.860000
230.373383	145.900000
230.466095	145.720000
230.558792	146.120000
230.651474	145.820000
230.744171	145.660000
230.836868	145.680000
230.929581	146.100000
231.022278	146.060000
231.114975	146.160000
231.207672	146.100000
231.300369	146.500000
231.393082	146.460000
231.485779	146.480000
231.578506	146.660000
231.671204	146.720000
231.763916	146.620000
231.856613	146.380000
231.949326	146.280000
232.042023	146.060000
232.134735	146.280000
232.227448	145.880000
232.320160	146.260000
232.412872	146.080000
232.505585	147.100000
232.598297	147.260000
232.691010	147.280000
232.783722	146.840000
232.876450	147.500000
232.969162	146.560000
233.061874	145.880000
233.154587	145.840000
233.247314	146.100000
233.340027	145.220000
233.432739	145.520000
233.525467	145.880000
233.618179	146.220000
233.710907	145.760000
233.803635	146.700000
233.896347	146.520000
233.989090	146.860000
234.081818	146.820000
234.174545	147.080000
234.267258	146.060000
234.359985	146.120000
234.452713	146.040000
234.545441	145.900000
234.638168	145.880000
234.730896	146.700000
234.823639	146.700000
234.916367	146.780000
235.009094	146.660000
235.101822	146.840000
235.194580	146.800000
235.287308	146.920000
235.380051	146.260000
235.472778	146.660000
235.565521	146.920000
235.658249	146.280000
235.750992	146.120000
235.843719	146.440000
235.936462	146.540000
236.029205	145.960000
236.121948	145.780000
236.214691	146.220000
236.307449	146.860000
236.400192	146.580000
236.492935	146.520000
236.585678	146.680000
236.678421	146.380000
236.771164	146.020000
236.863907	146.340000
236.956665	146.520000
237.049408	148.260000
237.142151	147.620000
237.234909	147.900000
237.327652	147.580000
237.420410	147.380000
237.513153	146.200000
237.605927	146.260000
237.698669	145.680000
237.791428	145.580000
237.884186	146.180000
237.976944	145.420000
238.069702	146.020000
238.162445	145.800000
238.255203	145.700000
238.347961	145.660000
238.440720	145.920000
238.533478	145.600000
238.626266	145.480000
238.719025	145.720000
238.811783	145.540000
238.904541	145.520000
238.997314	145.320000
239.090073	145.460000
239.182831	145.880000
239.275604	146.320000
239.368362	146.360000
239.461136	146.580000
239.553909	146.680000
239.646667	146.220000
239.739441	145.840000
239.832214	146.220000
239.925003	146.400000
240.017761	146.840000
240.110535	147.240000
240.203308	146.780000
240.296082	146.600000
240.388855	146.400000
240.481628	146.500000
240.574417	146.400000
240.667191	146.840000
240.759964	146.560000
240.852737	146.540000
240.945526	146.160000
241.038315	146.080000
241.131088	145.940000
241.223877	146.320000
241.316650	146.120000
241.409439	146.060000
241.502228	145.600000
241.595001	146.060000
241.687790	145.940000
241.780579	146.080000
241.873367	146.120000
241.966141	146.460000
242.058929	146.000000
242.151718	145.960000
242.244507	146.320000
242.337311	145.780000
242.430099	146.340000
242.522903	146.580000
242.615692	146.360000
242.708481	146.060000
242.801270	147.000000
242.894073	146.700000
242.986862	146.600000
243.079651	147.020000
243.172455	146.720000
243.265244	146.340000
243.358063	145.420000
243.450867	145.840000
243.543655	145.620000
243.636459	145.840000
243.729263	146.200000
243.822067	146.920000
243.914856	146.960000
244.007660	147.280000
244.100464	147.320000
244.193268	146.740000
244.286072	146.480000
244.378876	145.740000
244.471680	145.360000
244.564499	145.640000
244.657318	146.540000
244.750122	146.880000
244.842926	146.420000
244.935745	146.860000
245.028549	146.600000
245.121368	145.840000
245.214172	145.680000
245.306992	146.560000
245.399796	146.020000
245.492615	146.320000
245.585434	146.180000
245.678253	146.400000
245.771072	146.380000
245.863892	147.020000
245.956711	147.040000
246.049530	147.100000
246.142349	146.640000
246.235168	146.720000
246.327988	146.800000
246.420807	146.500000
246.513626	146.500000
246.606445	146.360000
246.699280	146.400000
246.792099	146.100000
246.884918	145.820000
246.977753	145.740000
247.070587	145.940000
247.163422	145.700000
247.256241	145.640000
247.349075	145.980000
247.441895	145.980000
247.534729	145.860000
247.627563	145.900000
247.720383	146.260000
247.813217	146.160000
247.906052	146.300000
247.998886	146.280000
248.091736	145.960000
248.184570	145.840000
248.277405	146.040000
248.370239	146.940000
248.463074	148.100000
248.555908	148.480000
248.648743	148.140000
248.741592	148.180000
248.834427	147.180000
248.927261	145.840000
249.020111	146.180000
249.112946	146.780000
249.205795	146.240000
249.298630	146.600000
249.391495	147.060000
249.484344	146.540000
249.577179	146.340000
249.670029	146.600000
249.762878	147.080000
249.855728	147.080000
249.948563	147.240000
250.041412	146.460000
250.134262	146.820000
250.227112	146.740000
250.319962	146.900000
250.412827	146.640000
250.505692	146.900000
250.598541	146.540000
250.691391	146.100000
250.784241	145.720000
250.877106	145.760000
250.969955	145.760000
251.062805	146.600000
251.155670	146.940000
251.248520	146.800000
251.341385	147.160000
251.434235	147.040000
251.527100	146.580000
251.619965	146.020000
251.712814	146.700000
251.805695	146.500000
251.898560	146.820000
251.991425	146.860000
252.084290	147.360000
252.177155	146.740000
252.270020	146.500000
252.362885	146.360000
252.455750	146.320000
252.548615	145.700000
252.641479	145.920000
252.734360	145.900000
252.827240	145.760000
252.920105	145.680000
253.012970	145.720000
253.105850	145.600000
253.198715	145.560000
253.291595	145.820000
253.384460	145.220000
253.477341	145.380000
253.570221	145.680000
253.663086	145.400000
253.755966	146.100000
253.848846	146.720000
253.941727	146.860000
254.034592	146.840000
254.127472	146.960000
254.220367	146.300000
254.313248	146.320000
254.406128	145.940000
254.499008	145.880000
254.591904	146.620000
254.684784	147.080000
254.777664	146.780000
254.870544	146.720000
254.963440	146.580000
255.056335	146.160000
255.149216	145.560000
255.242111	145.900000
255.334991	146.640000
255.427887	146.900000
255.520767	146.860000
255.613663	147.140000
255.706558	146.580000
255.799438	146.060000
255.892334	145.720000
255.985229	145.800000
256.078125	145.620000
256.171021	145.900000
256.263916	146.400000
256.356812	146.700000
256.449707	146.880000
256.542603	146.680000
256.635498	146.960000
256.728394	146.620000
256.821289	146.600000
256.914215	146.600000
257.007080	146.860000
257.100006	147.020000
257.192932	147.440000
257.285828	147.240000
257.378723	146.920000
257.471619	146.940000
257.564545	146.400000
257.657440	146.260000
257.750336	146.940000
257.843262	146.920000
257.936157	147.740000
258.029053	147.980000
258.121979	147.800000
258.214874	147.100000
258.307800	146.980000
258.400696	145.740000
258.493622	145.820000
258.586517	145.100000
258.679443	145.340000
258.772339	145.080000
258.865265	145.120000
258.958160	144.640000
259.051086	145.700000
259.144012	145.780000
259.236938	146.760000
259.329834	147.080000
259.422791	147.100000
259.515717	146.480000
259.608612	146.060000
259.701538	145.880000
259.794464	145.720000
259.887390	145.860000
259.980316	146.040000
260.073212	145.980000
260.166138	145.180000
260.259064	145.700000
260.351990	146.320000
260.444916	146.060000
260.537842	146.540000
260.630768	147.080000
260.723694	146.420000
260.816620	146.140000
260.909546	146.100000
261.002472	145.680000
261.095398	145.280000
261.188354	145.600000
261.281281	145.060000
261.374207	145.380000
261.467133	146.240000
261.560089	146.440000
261.653015	146.160000
261.745972	146.860000
261.838867	147.020000
261.931824	146.740000
262.024780	146.060000
262.117706	146.280000
262.210663	146.260000
262.303589	146.060000
262.396515	146.280000
262.489471	147.680000
262.582397	147.820000
262.675354	147.120000
262.768280	147.020000
262.861237	146.980000
262.954163	146.260000
263.047119	146.180000
263.140045	146.360000
263.233002	146.500000
263.325958	146.200000
263.418884	146.240000
263.511841	146.300000
263.604797	146.440000
263.697723	146.480000
263.790680	146.340000
263.883636	146.840000
263.976593	146.760000
264.069550	146.840000
264.162476	146.340000
264.255463	146.240000
264.348419	145.680000
264.441376	145.760000
264.534332	145.540000
264.627289	146.020000
264.720245	146.400000
264.813202	146.240000
264.906158	146.160000
264.999115	146.580000
265.092072	146.280000
265.185028	146.560000
265.277985	146.900000
265.370941	146.940000
265.463898	146.620000
265.556854	146.660000
265.649811	145.520000
265.742798	145.760000
265.835754	145.780000
265.928711	146.260000
266.021667	146.440000
266.114655	147.140000
266.207611	147.160000
266.300568	146.580000
266.393585	146.000000
266.486511	146.020000
266.579498	145.440000
266.672485	145.280000
266.765442	145.600000
266.858429	146.240000
266.951385	146.060000
267.044342	146.260000
267.137329	146.060000
267.230316	146.100000
267.323273	145.280000
267.416260	145.460000
267.509216	145.480000
267.602203	145.620000
267.695160	146.140000
267.788147	146.340000
267.881134	146.220000
267.974091	146.720000
268.067078	146.280000
268.160065	146.000000
268.253052	145.960000
268.346008	146.240000
268.438995	145.880000
268.531982	146.460000
268.624969	145.940000
268.717987	146.200000
268.810944	145.700000
268.903961	145.780000
268.996948	145.200000
269.089905	145.860000
269.182892	146.020000
269.275879	146.620000
269.368866	146.280000
269.461853	146.600000
269.554871	146.440000
269.647858	146.420000
269.740845	146.500000
269.833832	146.780000
269.926819	146.460000
270.019806	146.500000
270.112793	146.120000
270.205811	146.240000
270.298798	146.240000
270.391785	147.120000
270.484772	146.600000
270.577789	146.680000
270.670776	145.880000
270.763763	145.780000
270.856750	145.360000
270.949768	145.480000
271.042786	145.700000
271.135773	146.040000
271.228790	146.520000
271.321808	146.100000
271.414795	145.980000
271.507782	145.660000
271.600800	145.340000
271.693817	145.140000
271.786804	145.720000
271.879822	146.040000
271.972809	145.960000
272.065826	146.540000
272.158844	145.920000
272.251831	146.400000
272.344849	146.560000
272.437866	146.460000
272.530853	146.300000
272.623871	146.740000
272.716888	145.600000
272.809906	145.520000
272.902893	145.580000
272.995911	145.040000
273.088928	144.940000
273.181946	145.280000
273.274963	144.900000
273.367981	144.980000
273.460999	145.380000
273.554047	146.040000
273.647003	146.760000
273.740051	147.140000
273.833069	147.720000
273.926086	147.940000
274.019135	147.440000
274.112152	147.160000
274.205170	146.980000
274.298187	146.840000
274.391205	146.120000
274.484222	145.940000
274.577240	145.740000
274.670258	145.560000
274.763306	145.200000
274.856323	145.920000
274.949341	146.160000
275.042358	146.380000
275.135406	146.400000
275.228424	146.780000
275.321442	146.640000
275.414490	146.080000
275.507507	146.160000
275.600525	146.760000
275.693573	146.140000
275.786591	145.760000
275.879669	146.260000
275.972656	146.000000
276.065735	145.640000
276.158752	146.760000
276.251801	147.480000
276.344818	147.420000
276.437866	147.440000
276.530884	147.160000
276.623932	146.140000
276.716980	146.160000
276.809998	146.280000
276.903046	146.360000
276.996094	147.200000
277.089111	147.720000
277.182159	148.000000
277.275208	147.700000
277.368256	147.260000
277.461304	146.680000
277.554321	145.820000
277.647369	145.540000
277.740417	145.340000
277.833466	145.580000
277.926514	145.480000
278.019562	146.680000
278.112610	146.160000
278.205688	146.500000
278.298706	146.320000
278.391785	146.320000
278.484833	145.320000
278.577881	145.100000
278.670929	145.380000
278.763977	145.820000
278.857025	146.040000
278.950073	146.300000
279.043121	146.500000
279.136169	145.980000
279.229248	145.520000
279.322296	145.500000
279.415344	145.260000
279.508392	145.060000
279.601440	145.320000
279.694519	145.240000
279.787567	145.280000
279.880615	145.380000
279.973694	145.560000
280.066742	145.340000
280.159790	145.700000
280.252869	145.400000
280.345917	145.660000
280.438995	145.440000
280.532074	145.500000
280.625122	145.500000
280.718201	146.320000
280.811279	146.280000
280.904327	146.440000
280.997406	146.780000
281.090454	146.640000
281.183533	145.920000
281.276581	145.760000
281.369659	145.500000
281.462738	145.400000
281.555786	145.740000
281.648865	145.840000
281.741943	145.740000
281.835022	146.440000
281.928070	145.820000
282.021149	145.440000
282.114227	145.200000
282.207306	145.240000
282.300385	145.080000
282.393433	146.080000
282.486511	146.360000
282.579590	147.040000
282.672668	147.380000
282.765747	146.760000
282.858856	146.100000
282.951904	145.800000
283.045013	145.700000
283.138062	145.980000
283.231171	146.660000
283.324249	147.000000
283.417328	147.220000
283.510406	146.400000
283.603485	145.880000
283.696564	145.460000
283.789642	145.600000
283.882751	145.220000
283.975830	146.220000
284.068909	146.280000
284.161987	147.180000
284.255066	146.660000
284.348175	146.960000
284.441254	146.740000
284.534332	147.000000
284.627441	146.240000
284.720520	146.180000
284.813599	146.120000
284.906708	145.740000
284.999786	145.100000
285.092896	145.080000
285.185974	146.080000
285.279053	145.860000
285.372192	146.160000
285.465240	146.880000
285.558380	146.880000
285.651459	146.340000
285.744568	147.420000
285.837677	147.060000
285.930756	146.980000
286.023865	147.080000
286.116943	146.740000
286.210052	146.180000
286.303162	146.300000
286.396240	146.180000
286.489349	145.760000
286.582458	146.120000
286.675568	145.620000
286.768646	145.820000
286.861755	146.100000
286.954865	147.240000
287.047974	146.600000
287.141083	146.740000
287.234161	146.460000
287.327271	146.160000
287.420380	146.000000
287.513519	146.240000
287.606598	146.380000
287.699738	146.500000
287.792816	146.500000
287.885956	146.340000
287.979034	146.220000
288.072174	146.620000
288.165283	146.720000
288.258392	146.780000
288.351501	146.140000
288.444611	146.620000
288.537720	146.480000
288.630859	146.400000
288.723969	146.700000
288.817078	147.240000
288.910187	147.080000
289.003296	146.620000
289.096436	146.260000
289.189545	145.640000
289.282654	145.140000
289.375763	145.440000
289.468903	146.140000
289.562012	146.580000
289.655121	146.620000
289.748260	146.920000
289.841400	147.040000
289.934509	146.560000
290.027649	146.620000
290.120728	146.880000
290.213898	146.680000
290.306976	146.580000
290.400146	146.660000
290.493256	146.300000
290.586395	146.140000
290.679535	146.580000
290.772644	146.060000
290.865784	145.400000
290.958893	145.280000
291.052032	145.140000
291.145172	144.720000
291.238281	144.700000
291.331421	145.160000
291.424561	145.560000
291.517670	145.940000
291.610809	146.280000
291.703949	146.480000
291.797089	146.600000
291.890228	146.320000
291.983337	146.040000
292.076477	145.560000
292.169617	145.640000
292.262756	145.620000
292.355927	145.620000
292.449036	145.420000
292.542206	145.700000
292.635315	145.640000
292.728485	145.960000
292.821625	145.780000
292.914764	146.920000
293.007904	146.780000
293.101044	146.680000
293.194183	146.340000
293.287323	146.500000
293.380463	145.840000
293.473602	145.640000
293.566742	145.980000
293.659882	146.560000
293.753021	147.040000
293.846191	146.920000
293.939331	146.960000
294.032471	146.800000
294.125610	146.340000
294.218781	146.500000
294.311920	146.860000
294.405060	147.320000
294.498230	147.100000
294.591370	147.300000
294.684540	146.480000
294.777679	145.760000
294.870850	145.700000
294.963959	145.740000
295.057159	145.340000
295.150299	145.680000
295.243469	145.960000
295.336609	145.540000
295.429779	145.820000
295.522919	146.260000
295.616089	146.640000
295.709229	147.340000
295.802399	147.580000
295.895569	147.000000
295.988708	146.620000
296.081879	146.380000
296.175018	145.780000
296.268188	145.860000
296.361359	146.620000
296.454529	146.740000
296.547668	146.660000
296.640839	146.860000
296.734009	146.680000
296.827179	146.680000
296.920319	146.900000
297.013519	146.780000
297.106659	146.500000
297.199860	146.500000
297.292999	146.220000
297.386200	145.800000
297.479309	145.480000
297.572510	145.480000
297.665680	145.300000
297.758850	145.160000
297.852020	145.320000
297.945190	145.340000
298.038361	145.120000
298.131531	146.100000
298.224701	146.160000
298.317871	145.840000
298.411072	145.660000
298.504242	145.680000
298.597412	144.840000
298.690582	145.160000
298.783752	145.440000
298.876923	145.840000
298.970093	145.900000
299.063293	146.420000
299.156464	146.280000
299.249634	146.300000
299.342834	146.700000
299.436005	146.940000
299.529205	146.400000
299.622345	146.560000
299.715576	146.300000
299.808716	145.940000
299.901917	145.980000
299.995117	146.600000
300.088287	146.580000
300.181488	146.400000
300.274658	146.080000
300.367828	145.820000
300.461029	145.300000
300.554199	145.360000
300.647400	145.680000
300.740601	146.420000
300.833771	146.560000
300.926971	146.700000
301.020142	146.400000
301.113342	146.300000
301.206512	146.220000
301.299713	146.500000
301.392914	146.560000
301.486084	146.800000
301.579285	146.760000
301.672516	146.720000
301.765686	146.360000
301.858887	146.280000
301.952057	146.120000
302.045288	146.200000
302.138458	145.940000
302.231659	145.540000
302.324860	145.640000
302.418060	145.660000
302.511261	145.640000
302.604462	145.960000
302.697662	146.160000
302.790863	146.140000
302.884064	145.900000
302.977264	145.980000
303.070465	145.960000
303.163666	147.060000
303.256866	147.040000
303.350067	147.280000
303.443268	147.220000
303.536469	147.480000
303.629669	146.480000
303.722870	146.660000
303.816071	146.400000
303.909271	146.440000
304.002472	145.440000
304.095673	145.260000
304.188934	144.700000
304.282104	145.380000
304.375336	145.300000
304.468506	145.560000
304.561768	145.500000
304.654968	146.300000
304.748169	145.580000
304.841370	145.520000
304.934601	145.780000
305.027802	145.900000
305.121002	145.320000
305.214233	145.640000
305.307434	145.440000
305.400665	146.180000
305.493866	146.080000
305.587097	146.200000
305.680298	145.920000
305.773499	146.520000
305.866730	145.840000
305.959930	146.300000
306.053162	146.580000
306.146393	146.460000
306.239594	145.860000
306.332825	145.760000
306.426025	146.320000
306.519287	146.000000
306.612488	146.440000
306.705719	146.260000
306.798920	146.460000
306.892181	145.420000
306.985352	145.180000
307.078613	144.380000
307.171844	145.060000
307.265045	144.760000
307.358276	144.760000
307.451508	145.180000
307.544739	145.900000
307.637970	145.700000
307.731201	145.760000
307.824402	146.440000
307.917633	146.580000
308.010864	146.960000
308.104095	147.160000
308.197327	147.420000
308.290558	147.260000
308.383789	146.720000
308.477020	146.180000
308.570251	145.620000
308.663483	145.100000
308.756714	144.820000
308.849976	144.920000
308.943176	145.380000
309.036438	145.540000
309.129639	145.460000
309.222900	145.600000
309.316101	145.720000
309.409393	145.060000
309.502625	144.620000
309.595856	145.100000
309.689087	145.460000
309.782318	145.540000
309.875580	145.760000
309.968811	146.320000
310.062042	145.840000
310.155273	145.460000
310.248535	146.020000
310.341766	145.960000
310.434998	145.840000
310.528259	146.180000
310.621490	146.520000
310.714722	145.840000
310.807983	145.840000
310.901215	145.640000
310.994476	145.820000
311.087708	145.180000
311.181000	145.340000
311.274200	144.900000
311.367462	145.140000
311.460693	144.940000
311.553986	146.000000
311.647186	145.980000
311.740479	147.000000
311.833710	146.500000
311.926971	146.360000
312.020203	145.280000
312.113464	145.160000
312.206726	144.380000
312.299957	145.140000
312.393219	145.600000
312.486481	146.080000
312.579712	145.980000
312.672974	146.140000
312.766235	145.980000
312.859497	145.700000
312.952759	145.480000
313.045990	146.320000
313.139252	146.000000
313.232513	146.120000
313.325775	146.180000
313.419037	146.020000
313.512299	144.940000
313.605530	145.660000
313.698822	145.960000
313.792053	146.340000
313.885345	146.260000
313.978577	146.760000
314.071869	146.280000
314.165131	146.160000
314.258392	146.080000
314.351654	146.320000
314.444916	145.940000
314.538177	146.480000
314.631439	146.400000
314.724701	146.220000
314.817993	146.280000
314.911255	146.640000
315.004517	145.940000
315.097778	145.800000
315.191040	145.880000
315.284302	145.820000
315.377594	145.440000
315.470856	145.540000
315.564117	145.120000
315.657379	144.500000
315.750671	144.280000
315.843933	144.520000
315.937195	144.180000
316.030518	144.080000
316.123749	144.200000
316.217041	144.980000
316.310303	144.980000
316.403595	145.500000
316.496857	146.200000
316.590149	146.860000
316.683411	146.020000
316.776703	146.200000
316.869965	146.260000
316.963257	145.760000
317.056519	145.040000
317.149811	145.040000
317.243073	144.720000
317.336365	144.700000
317.429626	145.240000
317.522919	145.560000
317.616180	145.840000
317.709473	145.780000
317.802765	145.640000
317.896027	145.400000
317.989319	145.900000
318.082611	145.820000
318.175873	145.700000
318.269165	145.700000
318.362488	145.500000
318.455750	145.140000
318.549042	145.500000
318.642303	146.060000
318.735626	145.660000
318.828888	145.720000
318.922211	145.200000
319.015472	145.620000
319.108765	144.920000
319.202057	144.920000
319.295349	144.900000
319.388641	145.220000
319.481934	144.800000
319.575226	144.980000
319.668518	145.440000
319.761810	145.840000
319.855103	145.980000
319.948395	145.820000
320.041687	146.160000
320.134979	146.260000
320.228271	145.760000
320.321564	145.420000
320.414856	145.300000
320.508148	144.880000
320.601440	144.640000
320.694763	144.600000
320.788025	145.240000
320.881348	145.440000
320.974640	145.580000
321.067963	145.060000
321.161224	145.220000
321.254547	144.640000
321.347839	144.900000
321.441162	145.000000
321.534454	145.680000
321.627747	145.660000
321.721069	146.500000
321.814362	146.580000
321.907654	146.780000
322.000946	146.560000
322.094269	147.280000
322.187561	146.620000
322.280884	146.680000
322.374176	146.640000
322.467468	147.200000
322.560791	146.920000
322.654083	147.380000
322.747406	147.300000
322.840698	147.540000
322.934021	147.820000
323.027344	147.700000
323.120636	147.300000
323.213959	147.260000
323.307251	146.500000
323.400574	145.900000
323.493866	145.620000
323.587219	145.620000
323.680511	145.580000
323.773834	145.680000
323.867157	145.940000
323.960449	145.940000
324.053772	145.760000
324.147095	145.780000
324.240387	146.420000
324.333710	146.160000
324.427032	146.540000
324.520355	146.640000
324.613647	146.080000
324.706970	145.780000
324.800293	145.520000
324.893616	145.460000
324.986938	145.640000
325.080231	145.680000
325.173553	146.000000
325.266876	146.860000
325.360199	146.900000
325.453522	146.680000
325.546875	147.000000
325.640167	146.920000
325.733521	146.640000
325.826813	146.960000
325.920166	146.680000
326.013489	146.320000
326.106812	145.860000
326.200134	145.560000
326.293457	144.820000
326.386780	145.520000
326.480103	145.700000
326.573425	145.620000
326.666748	145.640000
326.760071	146.020000
326.853424	145.940000
326.946747	145.980000
327.040070	146.740000
327.133392	146.580000
327.226715	146.160000
327.320068	145.720000
327.413391	146.080000
327.506714	145.520000
327.600037	145.380000
327.693390	145.520000
327.786713	145.560000
327.880066	145.300000
327.973358	145.580000
328.066742	146.380000
328.160034	146.660000
328.253418	146.880000
328.346710	146.620000
328.440063	146.220000
328.533417	145.600000
328.626740	145.640000
328.720093	145.440000
328.813416	145.660000
328.906769	145.940000
329.000092	146.300000
329.093445	146.260000
329.186768	146.300000
329.280121	146.640000
329.373444	146.620000
329.466797	146.580000
329.560120	146.520000
329.653473	146.620000
329.746796	146.140000
329.840149	146.120000
329.933502	146.020000
330.026825	146.140000
330.120178	146.000000
330.213562	146.260000
330.306854	146.320000
330.400238	146.200000
330.493561	145.720000
330.586945	146.620000
330.680237	146.740000
330.773621	146.800000
330.866974	146.620000
330.960327	147.080000
331.053680	146.300000
331.147003	146.160000
331.240356	146.180000
331.333710	146.460000
331.427063	145.980000
331.520416	146.200000
331.613770	146.220000
331.707123	146.400000
331.800476	146.380000
331.893829	147.360000
331.987152	147.440000
332.080505	147.580000
332.173859	147.340000
332.267212	146.940000
332.360565	146.120000
332.453918	145.600000
332.547333	145.480000
332.640656	145.260000
332.734039	145.640000
332.827362	145.540000
332.920746	146.240000
333.014069	146.160000
333.107452	146.820000
333.200806	146.880000
333.294159	147.100000
333.387543	146.420000
333.480896	146.040000
333.574249	145.660000
333.667603	145.420000
333.760956	145.900000
333.854340	146.160000
333.947693	146.400000
334.041046	146.520000
334.134430	146.820000
334.227783	146.120000
334.321136	146.020000
334.414520	145.580000
334.507874	145.520000
334.601227	145.380000
334.694611	145.420000
334.787964	145.420000
334.881348	146.200000
334.974701	145.720000
335.068085	145.460000
335.161438	145.840000
335.254822	145.700000
335.348175	145.460000
335.441559	145.500000
335.534943	146.100000
335.628296	145.740000
335.721680	145.920000
335.815033	146.040000
335.908417	146.480000
336.001770	146.300000
336.095154	146.380000
336.188538	146.160000
336.281891	145.760000
336.375275	145.500000
336.468658	145.260000
336.562012	145.200000
336.655396	145.500000
336.748779	145.820000
336.842133	145.980000
336.935516	146.560000
337.028900	146.480000
337.122284	146.660000
337.215637	147.120000
337.309021	146.860000
337.402435	146.020000
337.495789	145.900000
337.589203	145.500000
337.682526	144.860000
337.775940	145.160000
337.869324	145.300000
337.962708	145.160000
338.056091	145.680000
338.149475	145.480000
338.242859	145.540000
338.336243	145.380000
338.429626	146.000000
338.523010	145.820000
338.616394	145.960000
338.709778	145.940000
338.803162	146.340000
338.896545	146.160000
338.989929	145.740000
339.083313	145.900000
339.176697	145.680000
339.270081	145.760000
339.363464	146.200000
339.456848	146.500000
339.550232	146.040000
339.643616	145.800000
339.737030	145.720000
339.830383	145.320000
339.923828	145.340000
340.017181	145.620000
340.110596	145.980000
340.203949	146.040000
340.297363	145.760000
340.390778	145.840000
340.484161	145.920000
340.577545	145.640000
340.670959	145.480000
340.764343	145.660000
340.857727	145.640000
340.951111	145.200000
341.044525	145.860000
341.137909	145.640000
341.231293	145.540000
341.324707	145.140000
341.418091	146.100000
341.511505	145.720000
341.604889	146.240000
341.698303	146.540000
341.791687	146.800000
341.885071	146.200000
341.978485	145.980000
342.071899	145.920000
342.165283	145.740000
342.258698	145.740000
342.352081	146.180000
342.445496	146.880000
342.538879	146.740000
342.632324	146.700000
342.725708	146.560000
342.819122	146.020000
342.912506	145.560000
343.005920	145.400000
343.099335	146.320000
343.192719	146.340000
343.286133	146.660000
343.379547	146.840000
343.472931	147.120000
343.566345	146.060000
343.659760	146.340000
343.753143	145.920000
343.846558	145.440000
343.939972	145.460000
344.033386	146.220000
344.126770	146.080000
344.220184	146.440000
344.313599	147.000000
344.407043	146.820000
344.500427	146.080000
344.593872	146.640000
344.687225	146.180000
344.780670	145.880000
344.874054	145.680000
344.967499	146.080000
345.060913	145.800000
345.154327	146.020000
345.247742	145.880000
345.341156	145.720000
345.434570	145.600000
345.527985	145.300000
345.621399	145.500000
345.714813	145.340000
345.808228	145.800000
345.901642	145.360000
345.995056	145.040000
346.088470	144.880000
346.181885	144.900000
346.275299	144.600000
346.368713	144.700000
346.462128	144.660000
346.555573	144.880000
346.648987	145.280000
346.742401	145.580000
346.835815	146.280000
346.929260	146.160000
347.022644	146.000000
347.116119	146.100000
347.209503	145.960000
347.302948	146.500000
347.396362	147.260000
347.489807	147.460000
347.583221	147.740000
347.676636	147.820000
347.770050	146.560000
347.863495	146.300000
347.956909	146.180000
348.050323	145.600000
348.143768	145.280000
348.237183	145.260000
348.330597	145.640000
348.424042	145.540000
348.517456	145.780000
348.610901	145.900000
348.704315	146.340000
348.797760	145.340000
348.891174	144.960000
348.984619	144.500000
349.078033	144.960000
349.171448	145.440000
349.264923	145.760000
349.358337	146.200000
349.451782	146.300000
349.545197	145.680000
349.638641	144.820000
349.732086	144.600000
349.825500	145.060000
349.918945	144.820000
350.012390	145.640000
350.105804	146.240000
350.199249	146.540000
350.292664	146.820000
350.386108	147.280000
350.479553	147.380000
350.572968	146.960000
350.666412	147.180000
350.759857	146.520000
350.853302	146.720000
350.946716	146.140000
351.040161	146.260000
351.133606	145.800000
351.227081	145.780000
351.320465	146.520000
351.413940	146.480000
351.507355	146.600000
351.600830	146.920000
351.694244	146.880000
351.787720	146.060000
351.881104	145.880000
351.974579	145.720000
352.067993	146.420000
352.161469	146.420000
352.254883	146.020000
352.348358	145.940000
352.441803	145.880000
352.535248	145.140000
352.628693	145.460000
352.722137	145.400000
352.815582	145.900000
352.909027	146.200000
353.002472	146.340000
353.095917	145.920000
353.189362	146.340000
353.282806	146.120000
353.376251	146.000000
353.469696	145.500000
353.563141	146.020000
353.656586	145.800000
353.750061	145.400000
353.843475	145.160000
353.936981	145.960000
354.030396	145.380000
354.123871	145.600000
354.217285	146.580000
354.310760	146.880000
354.404175	146.620000
354.497681	146.400000
354.591095	146.220000
354.684570	145.160000
354.777985	144.780000
354.871490	144.480000
354.964935	145.140000
355.058380	145.100000
355.151855	145.300000
355.245300	145.980000
355.338745	146.540000
355.432220	146.380000
355.525665	146.000000
355.619110	146.500000
355.712585	146.120000
355.806030	145.900000
355.899475	145.680000
355.992950	146.020000
356.086426	146.220000
356.179871	145.960000
356.273346	145.860000
356.366791	146.100000
356.460266	146.520000
356.553711	145.980000
356.647186	146.180000
356.740631	146.160000
356.834106	145.700000
356.927551	145.660000
357.021027	145.880000
357.114471	146.060000
357.207947	146.160000
357.301422	146.480000
357.394867	146.400000
357.488342	146.720000
357.581818	146.540000
357.675262	146.620000
357.768738	146.880000
357.862213	146.220000
357.955658	145.960000
358.049133	145.680000
358.142609	145.620000
358.236053	145.160000
358.329529	145.640000
358.423035	145.700000
358.516449	145.640000
358.609955	146.120000
358.703400	146.820000
358.796906	146.940000
358.890350	146.420000
358.983826	146.780000
359.077271	145.860000
359.170776	145.360000
359.264221	144.980000
359.357727	145.420000
359.451172	145.640000
359.544647	146.220000
359.638123	146.060000
359.731598	146.580000
359.825073	146.520000
359.918549	146.400000
360.012024	146.380000
360.105499	146.220000
360.198975	146.120000
360.292450	146.140000
360.385925	145.960000
360.479401	145.580000
360.572876	145.940000
360.666351	145.960000
360.759857	145.940000
360.853302	146.180000
360.946808	146.040000
361.040253	146.020000
361.133759	145.500000
361.227203	145.640000
361.320709	145.200000
361.414154	145.660000
361.507660	145.800000
361.601105	146.580000
361.694641	146.840000
361.788086	146.960000
361.881592	147.340000
361.975067	146.900000
362.068542	146.760000
362.162018	146.540000
362.255524	146.200000
362.348999	145.940000
362.442474	146.440000
362.535950	145.780000
362.629456	145.580000
362.722931	145.620000
362.816406	145.800000
362.909882	146.080000
363.003387	146.240000
363.096863	146.700000
363.190338	146.740000
363.283875	146.420000
363.377319	146.020000
363.470825	146.600000
363.564301	145.920000
363.657806	146.440000
363.751282	146.020000
363.844788	146.740000
363.938232	145.880000
364.031769	146.640000
364.125214	146.780000
364.218750	147.660000
364.312225	146.700000
364.405731	147.260000
364.499207	146.940000
364.592712	146.560000
364.686188	145.980000
364.779694	146.280000
364.873169	146.280000
364.966675	145.840000
365.060150	145.840000
365.153656	146.320000
365.247131	146.140000
365.340637	146.520000
365.434143	147.180000
365.527618	147.180000
365.621155	146.240000
365.714600	146.420000
365.808136	146.100000
365.901611	145.020000
365.995117	144.760000
366.088593	145.100000
366.182129	144.960000
366.275604	145.120000
366.369110	145.620000
366.462585	146.040000
366.556122	146.820000
366.649567	146.880000
366.743103	146.840000
366.836609	146.580000
366.930115	146.580000
367.023590	146.280000
367.117096	146.160000
367.210602	146.080000
367.304108	146.720000
367.397614	147.200000
367.491119	147.100000
367.584595	147.580000
367.678101	147.740000
367.771606	147.280000
367.865112	146.620000
367.958649	146.180000
368.052124	145.420000
368.145660	145.200000
368.239136	146.080000
368.332672	146.080000
368.426147	146.300000
368.519684	146.180000
368.613159	146.400000
368.706696	145.540000
368.800171	145.620000
368.893707	145.320000
368.987183	145.800000
369.080719	145.780000
369.174225	145.960000
369.267731	146.240000
369.361237	146.820000
369.454742	146.860000
369.548248	147.120000
369.641754	146.920000
369.735260	146.860000
369.828766	145.920000
369.922272	146.360000
370.015808	145.860000
370.109314	145.580000
370.202820	145.320000
370.296356	146.560000
370.389832	146.080000
370.483368	145.800000
370.576874	145.980000
370.670410	146.200000
370.763885	145.220000
370.857422	145.340000
370.950928	145.240000
371.044464	146.140000
371.137939	146.000000
371.231476	146.720000
371.324982	147.280000
371.418518	147.860000
371.512024	147.300000
371.605560	147.340000
371.699066	147.240000
371.792572	146.420000
371.886108	146.840000
371.979614	146.500000
372.073120	146.820000
372.166656	146.460000
372.260162	146.840000
372.353668	146.080000
372.447205	145.940000
372.540710	145.620000
372.634277	145.520000
372.727753	145.760000
372.821320	145.800000
372.914795	146.140000
373.008362	146.140000
373.101837	146.560000
373.195404	145.960000
373.288879	146.060000
373.382446	146.740000
373.475922	146.620000
373.569489	146.940000
373.662964	147.340000
373.756531	147.400000
373.850037	147.240000
373.943573	147.260000
374.037109	146.220000
374.130615	146.500000
374.224152	146.580000
374.317657	146.220000
374.411194	147.120000
374.504730	147.220000
374.598236	146.500000
374.691772	146.180000
374.785309	146.200000
374.878815	145.100000
374.972351	145.620000
375.065887	145.880000
375.159454	146.360000
375.252930	146.200000
375.346497	146.760000
375.440002	147.060000
375.533569	146.840000
375.627045	146.100000
375.720612	146.420000
375.814117	146.160000
375.907684	145.900000
376.001160	145.600000
376.094727	145.520000
376.188232	145.600000
376.281799	145.900000
376.375336	145.760000
376.468872	146.600000
376.562408	146.920000
376.655914	146.460000
376.749451	146.020000
376.842987	146.240000
376.936523	145.980000
377.030060	145.920000
377.123596	146.240000
377.217133	146.180000
377.310669	145.860000
377.404205	145.760000
377.497772	146.560000
377.591278	146.340000
377.684845	147.080000
377.778351	147.320000
377.871918	147.240000
377.965424	146.320000
378.058990	146.260000
378.152496	145.660000
378.246063	145.920000
378.339569	146.440000
378.433136	146.620000
378.526642	146.540000
378.620209	146.780000
378.713745	146.200000
378.807312	146.300000
378.900848	146.520000
378.994385	146.860000
379.087921	146.060000
379.181458	146.320000
379.274994	145.560000
379.368530	145.180000
379.462097	145.360000
379.555634	145.960000
379.649170	145.560000
379.742706	145.660000
379.836273	146.000000
379.929810	145.260000
380.023376	144.860000
380.116882	144.700000
380.210449	144.700000
380.303986	144.280000
380.397552	144.140000
380.491058	144.640000
380.584656	144.940000
380.678162	145.040000
380.771729	145.300000
380.865265	146.420000
380.958832	146.260000
381.052368	146.540000
381.145935	146.960000
381.239471	147.000000
381.333008	146.560000
381.426575	146.420000
381.520111	146.640000
381.613647	146.420000
381.707214	146.320000
381.800751	145.760000
381.894318	146.180000
381.987854	145.380000
382.081421	145.200000
382.174988	145.260000
382.268524	145.260000
382.362091	145.160000
382.455627	146.120000
382.549194	146.140000
382.642731	145.820000
382.736298	146.100000
382.829834	146.040000
382.923401	146.220000
383.016937	146.360000
383.110504	146.800000
383.204041	146.700000
383.297607	146.840000
383.391174	146.000000
383.484741	146.460000
383.578278	146.060000
383.671844	145.720000
383.765411	144.900000
383.858948	145.560000
383.952515	145.020000
384.046051	145.600000
384.139618	146.260000
384.233185	147.060000
384.326721	146.600000
384.420288	147.200000
384.513855	146.920000
384.607422	147.040000
384.700989	146.800000
384.794525	146.420000
384.888123	145.920000
384.981659	146.200000
385.075226	145.860000
385.168762	145.500000
385.262360	145.680000
385.355896	145.020000
385.449463	144.800000
385.542999	144.800000
385.636597	145.820000
385.730164	146.300000
385.823730	146.540000
385.917267	146.460000
386.010834	146.760000
386.104401	146.400000
386.197968	146.460000
386.291534	146.720000
386.385101	146.440000
386.478668	146.380000
386.572235	145.900000
386.665802	145.460000
386.759338	145.300000
386.852905	145.200000
386.946472	144.780000
387.040070	145.340000
387.133606	145.560000
387.227203	145.380000
387.320740	145.980000
387.414337	145.780000
387.507874	145.500000
387.601471	145.160000
387.695007	145.320000
387.788605	145.120000
387.882141	145.580000
387.975739	145.700000
388.069275	145.420000
388.162872	145.460000
388.256439	144.980000
388.350037	144.800000
388.443604	144.720000
388.537170	145.080000
388.630737	145.700000
388.724304	146.220000
388.817871	146.040000
388.911438	145.820000
389.005005	146.280000
389.098602	146.300000
389.192169	145.980000
389.285736	146.600000
389.379333	146.900000
389.472870	146.460000
389.566467	146.040000
389.660034	146.120000
389.753632	145.520000
389.847168	145.520000
389.940765	145.860000
390.034332	145.760000
390.127930	145.240000
390.221466	145.260000
390.315063	144.940000
390.408630	144.020000
390.502228	143.260000
390.595795	143.960000
390.689362	144.140000
390.782959	144.800000
390.876526	145.480000
390.970093	145.920000
391.063690	146.340000
391.157257	146.500000
391.250824	146.320000
391.344421	146.360000
391.437988	146.800000
391.531555	146.620000
391.625153	146.800000
391.718750	147.220000
391.812317	147.120000
391.905914	146.920000
391.999481	147.060000
392.093079	146.800000
392.186615	146.680000
392.280243	146.520000
392.373779	146.700000
392.467407	146.640000
392.560944	146.580000
392.654572	145.960000
392.748108	145.980000
392.841736	145.980000
392.935303	145.660000
393.028900	145.520000
393.122467	145.660000
393.216064	145.360000
393.309631	144.940000
393.403229	144.800000
393.496796	144.600000
393.590393	144.080000
393.683990	144.600000
393.777557	145.020000
393.871155	145.280000
393.964722	146.060000
394.058350	146.120000
394.151917	146.060000
394.245514	146.140000
394.339081	146.700000
394.432678	146.800000
394.526245	147.200000
394.619873	146.920000
394.713409	146.540000
394.807037	145.960000
394.900604	145.840000
394.994202	145.920000
395.087769	146.160000
395.181396	145.940000
395.274994	146.720000
395.368561	145.800000
395.462158	145.920000
395.555756	145.820000
395.649353	146.360000
395.742920	145.700000
395.836517	146.620000
395.930115	145.880000
396.023712	146.060000
396.117279	146.020000
396.210876	145.600000
396.304474	145.440000
396.398071	145.720000
396.491669	145.800000
396.585266	145.680000
396.678833	145.560000
396.772461	145.800000
396.866028	146.080000
396.959656	146.420000
397.053223	146.900000
397.146851	147.180000
397.240417	147.220000
397.334015	148.200000
397.427582	147.960000
397.521210	148.540000
397.614807	150.060000
397.708405	151.500000
397.802002	152.980000
397.895599	156.580000
397.989197	159.820000
398.082794	163.920000
398.176392	169.640000
398.269989	175.940000
398.363586	183.300000
398.457184	192.640000
398.550781	202.640000
398.644379	212.700000
398.737976	224.680000
398.831573	237.680000
398.925201	249.920000
399.018768	263.180000
399.112396	277.700000
399.205963	291.360000
399.299591	305.600000
399.393158	321.960000
399.486786	339.140000
399.580353	356.380000
399.673981	373.560000
399.767578	390.200000
399.861206	405.180000
399.954773	417.060000
400.048401	424.300000
400.141998	427.980000
400.235596	426.920000
400.329193	421.280000
400.422791	413.240000
400.516418	404.460000
400.610016	395.760000
400.703613	387.300000
400.797211	377.940000
400.890808	368.040000
400.984436	357.080000
401.078033	342.760000
401.171631	326.240000
401.265259	308.140000
401.358826	289.120000
401.452484	268.760000
401.546051	250.560000
401.639679	232.200000
401.733246	217.380000
401.826904	203.540000
401.920471	192.100000
402.014099	182.180000
402.107697	174.920000
402.201324	168.060000
402.294891	162.940000
402.388550	159.440000
402.482147	156.500000
402.575745	153.780000
402.669373	151.620000
402.762970	150.160000
402.856567	148.600000
402.950195	147.860000
403.043793	147.240000
403.137390	147.980000
403.231018	147.280000
403.324615	147.880000
403.418243	147.100000
403.511841	147.360000
403.605469	146.320000
403.699066	146.800000
403.792694	146.520000
403.886292	147.100000
403.979919	146.980000
404.073517	146.740000
404.167145	146.780000
404.260712	146.660000
404.354370	146.300000
404.447937	146.560000
404.541595	146.980000
404.635162	147.360000
404.728821	147.620000
404.822418	147.360000
404.916046	146.940000
405.009644	147.180000
405.103271	147.080000
405.196899	146.440000
405.290497	146.740000
405.384125	147.060000
405.477722	146.360000
405.571350	145.480000
405.664948	145.940000
405.758575	145.400000
405.852203	144.680000
405.945801	144.620000
406.039429	145.160000
406.133057	144.720000
406.226654	144.720000
406.320312	145.000000
406.413879	145.720000
406.507538	145.580000
406.601135	145.300000
406.694763	146.120000
406.788361	146.000000
406.882019	145.460000
406.975586	146.020000
407.069244	146.980000
407.162872	146.860000
407.256470	146.960000
407.350098	146.940000
407.443726	146.340000
407.537323	145.780000
407.630951	145.720000
407.724579	145.440000
407.818207	145.740000
407.911804	145.640000
408.005432	145.480000
408.099060	145.680000
408.192688	146.160000
408.286285	145.840000
408.379913	145.480000
408.473572	145.820000
408.567169	145.640000
408.660828	145.420000
408.754395	145.220000
408.848053	145.620000
408.941650	145.680000
409.035309	145.040000
409.128906	145.020000
409.222565	145.480000
409.316132	145.600000
409.409790	145.120000
409.503387	145.480000
409.597046	145.680000
409.690674	145.660000
409.784302	145.560000
409.877930	145.500000
409.971558	145.540000
410.065186	145.360000
410.158783	145.360000
410.252411	145.580000
410.346039	146.340000
410.439667	146.180000
410.533295	146.540000
410.626923	146.760000
410.720551	146.340000
410.814209	146.580000
410.907806	146.700000
411.001465	145.900000
411.095062	146.160000
411.188721	146.340000
411.282318	145.680000
411.375977	145.580000
411.469574	146.120000
411.563232	145.620000
411.656830	145.380000
411.750488	145.340000
411.844086	145.100000
411.937744	145.120000
412.031372	144.920000
412.125000	145.120000
412.218628	144.980000
412.312256	146.080000
412.405884	146.440000
412.499512	146.260000
412.593170	146.200000
412.686798	146.660000
412.780426	145.800000
412.874054	145.720000
412.967682	145.920000
413.061310	146.720000
413.154968	146.480000
413.248566	146.640000
413.342224	146.180000
413.435852	146.420000
413.529510	145.740000
413.623108	145.320000
413.716766	145.020000
413.810364	145.580000
413.904022	145.320000
413.997650	145.080000
414.091309	145.840000
414.184906	146.080000
414.278564	145.560000
414.372192	146.000000
414.465851	146.100000
414.559479	145.800000
414.653107	146.300000
414.746735	146.240000
414.840393	145.960000
414.934021	146.620000
415.027649	146.160000
415.121277	146.140000
415.214935	146.660000
415.308563	146.840000
415.402191	145.760000
415.495850	146.080000
415.589478	145.520000
415.683136	145.380000
415.776733	145.380000
415.870422	146.420000
415.964020	146.100000
416.057678	146.280000
416.151306	146.160000
416.244965	146.060000
416.338562	145.980000
416.432251	146.760000
416.525848	147.800000
416.619507	148.000000
416.713165	148.440000
416.806793	148.120000
416.900421	147.740000
416.994080	146.740000
417.087708	146.460000
417.181366	145.780000
417.274994	145.640000
417.368622	145.860000
417.462280	146.300000
417.555908	146.180000
417.649567	146.200000
417.743195	146.360000
417.836853	146.360000
417.930481	146.180000
418.024170	146.360000
418.117767	147.000000
418.211426	147.100000
418.305054	147.060000
418.398712	146.520000
418.492340	146.600000
418.585999	146.440000
418.679626	146.600000
418.773285	146.540000
418.866913	147.060000
418.960571	147.340000
419.054230	147.340000
419.147858	146.980000
419.241516	147.020000
419.335144	146.480000
419.428802	146.060000
419.522461	145.920000
419.616089	145.780000
419.709747	145.820000
419.803375	146.240000
419.897034	145.940000
419.990662	145.700000
420.084320	146.360000
420.177979	146.380000
420.271606	146.520000
420.365295	147.240000
420.458893	147.400000
420.552582	147.200000
420.646210	147.160000
420.739868	146.940000
420.833496	146.640000
420.927155	146.200000
421.020782	146.220000
421.114471	145.900000
421.208069	146.120000
421.301758	146.360000
421.395386	146.960000
421.489044	146.620000
421.582703	146.800000
421.676361	147.240000
421.769989	146.960000
421.863647	147.140000
421.957306	147.420000
422.050934	147.760000
422.144592	147.320000
422.238251	147.100000
422.331909	146.520000
422.425537	146.200000
422.519196	145.880000
422.612854	145.520000
422.706543	145.320000
422.800140	145.760000
422.893829	145.500000
422.987457	145.080000
423.081146	145.080000
423.174744	146.080000
423.268433	145.800000
423.362061	146.160000
423.455750	146.320000
423.549347	146.580000
423.643036	145.580000
423.736664	146.180000
423.830353	146.300000
423.924011	146.960000
424.017639	146.160000
424.111298	146.520000
424.204956	146.340000
424.298615	146.200000
424.392273	145.520000
424.485931	145.980000
424.579559	146.060000
424.673218	145.600000
424.766876	145.660000
424.860535	145.680000
424.954193	145.880000
425.047882	146.400000
425.141510	146.420000
425.235199	146.480000
425.328796	146.400000
425.422485	146.100000
425.516113	145.260000
425.609802	145.100000
425.703430	145.240000
425.797119	145.200000
425.890747	145.580000
425.984436	145.860000
426.078064	146.240000
426.171753	146.180000
426.265411	146.280000
426.359070	146.120000
426.452728	146.140000
426.546356	145.840000
426.640015	145.520000
426.733673	145.820000
426.827332	145.580000
426.920990	146.040000
427.014648	145.840000
427.108307	146.280000
427.201965	146.420000
427.295624	146.880000
427.389282	145.980000
427.482941	146.420000
427.576630	146.240000
427.670258	145.620000
427.763947	145.100000
427.857574	145.460000
427.951263	145.380000
428.044922	144.980000
428.138611	145.220000
428.232239	146.160000
428.325928	146.320000
428.419556	146.680000
428.513245	146.580000
428.606903	146.620000
428.700562	145.740000
428.794220	145.120000
428.887878	144.360000
428.981537	144.800000
429.075195	144.960000
429.168854	145.240000
429.262512	145.720000
429.356201	146.140000
429.449860	145.840000
429.543518	145.520000
429.637177	145.600000
429.730835	145.520000
429.824493	145.260000
429.918182	145.580000
430.011810	145.280000
430.105530	144.780000
430.199158	145.020000
430.292847	144.980000
430.386475	144.840000
430.480164	145.000000
430.573792	144.900000
430.667511	144.700000
430.761139	144.880000
430.854828	145.340000
430.948456	145.640000
431.042145	146.220000
431.135834	146.000000
431.229492	146.080000
431.323151	145.840000
431.416809	145.620000
431.510468	145.400000
431.604156	145.480000
431.697815	145.300000
431.791473	144.800000
431.885132	144.680000
431.978821	145.200000
432.072479	145.400000
432.166138	146.100000
432.259827	146.220000
432.353485	146.600000
432.447174	146.660000
432.540802	146.760000
432.634491	146.620000
432.728149	147.040000
432.821838	147.480000
432.915466	146.600000
433.009186	146.280000
433.102814	145.460000
433.196503	145.040000
433.290131	144.620000
433.383850	145.080000
433.477509	145.060000
433.571167	146.300000
433.664856	147.020000
433.758514	147.260000
433.852173	147.360000
433.945862	147.580000
434.039520	146.940000
434.133179	146.120000
434.226868	145.880000
434.320526	145.320000
434.414185	145.660000
434.507874	145.620000
434.601562	146.020000
434.695221	145.940000
434.788910	146.320000
434.882538	146.300000
434.976257	145.940000
435.069885	145.920000
435.163574	145.800000
435.257233	145.400000
435.350922	145.040000
435.444580	144.900000
435.538269	144.600000
435.631897	145.200000
435.725616	145.960000
435.819275	146.420000
435.912964	147.280000
436.006622	147.940000
436.100311	147.740000
436.193970	146.820000
436.287628	146.560000
436.381317	145.900000
436.474976	145.260000
436.568665	144.920000
436.662323	145.280000
436.756012	145.120000
436.849670	144.940000
436.943390	145.060000
437.037018	145.160000
437.130737	145.320000
437.224365	145.280000
437.318085	145.720000
437.411713	145.840000
437.505432	146.360000
437.599060	146.740000
437.692780	147.560000
437.786407	147.340000
437.880127	147.420000
437.973755	146.800000
438.067474	146.380000
438.161133	145.960000
438.254822	146.480000
438.348480	146.260000
438.442169	147.000000
438.535828	147.380000
438.629517	147.000000
438.723175	146.360000
438.816864	146.760000
438.910553	145.880000
439.004211	145.660000
439.097900	145.560000
439.191559	145.820000
439.285248	144.960000
439.378906	145.560000
439.472626	145.320000
439.566284	145.200000
439.659973	145.500000
439.753632	145.980000
439.847321	146.200000
439.940979	146.540000
440.034698	146.820000
440.128326	146.200000
440.222046	145.840000
440.315674	144.920000
440.409393	144.760000
440.503082	144.440000
440.596741	144.800000
440.690430	145.300000
440.784088	145.420000
440.877777	144.980000
440.971466	145.220000
441.065125	144.920000
441.158813	144.540000
441.252502	144.640000
441.346161	145.040000
441.439850	145.120000
441.533539	145.180000
441.627197	145.400000
441.720886	145.600000
441.814606	145.880000
441.908234	146.360000
442.001953	146.500000
442.095612	146.700000
442.189301	146.640000
442.282959	146.460000
442.376678	145.400000
442.470306	145.680000
442.564026	145.300000
442.657684	145.480000
442.751404	145.540000
442.845032	146.700000
442.938751	146.200000
443.032440	146.440000
443.126099	146.240000
443.219788	146.940000
443.313477	146.460000
443.407166	146.840000
443.500824	146.900000
443.594513	147.020000
443.688202	146.400000
443.781891	145.920000
443.875549	145.440000
443.969238	145.200000
444.062927	145.440000
444.156647	145.460000
444.250275	145.960000
444.343994	146.060000
444.437653	146.460000
444.531372	145.960000
444.625031	145.620000
444.718719	145.200000
444.812378	145.360000
444.906097	144.880000
444.999756	144.760000
445.093445	145.000000
445.187103	145.480000
445.280823	145.900000
445.374512	145.560000
445.468201	145.580000
445.561859	145.440000
445.655548	145.300000
445.749237	144.720000
445.842926	145.120000
445.936615	145.780000
446.030304	145.560000
446.123962	145.860000
446.217651	145.980000
446.311340	146.160000
446.405029	145.660000
446.498749	145.560000
446.592407	145.440000
446.686096	145.660000
446.779755	145.600000
446.873474	145.840000
446.967133	146.160000
447.060852	145.700000
447.154510	145.320000
447.248230	145.420000
447.341858	145.160000
447.435577	144.820000
447.529236	144.500000
447.622955	144.620000
447.716644	144.420000
447.810333	144.600000
447.904022	145.160000
447.997711	145.460000
448.091400	145.780000
448.185059	145.920000
448.278748	145.940000
448.372437	145.520000
448.466125	145.900000
448.559814	145.960000
448.653503	146.500000
448.747192	146.740000
448.840912	147.220000
448.934570	146.920000
449.028290	146.940000
449.121948	146.460000
449.215637	145.940000
449.309296	145.660000
449.403015	145.880000
449.496674	145.620000
449.590393	145.540000
449.684052	145.380000
449.777771	146.180000
449.871429	145.560000
449.965149	145.500000
450.058838	145.780000
450.152527	146.560000
450.246216	145.820000
450.339905	146.080000
450.433594	145.880000
450.527283	146.440000
450.620972	146.100000
450.714661	146.060000
450.808350	146.280000
450.902039	146.760000
450.995728	146.180000
451.089417	145.820000
451.183105	146.060000
451.276794	146.360000
451.370514	145.700000
451.464172	144.740000
451.557892	144.820000
451.651550	144.840000
451.745270	144.360000
451.838928	144.240000
451.932648	145.160000
452.026306	145.640000
452.120026	145.120000
452.213684	145.360000
452.307404	145.800000
452.401062	145.680000
452.494781	145.900000
452.588470	145.960000
452.682159	145.720000
452.775848	145.700000
452.869537	145.280000
452.963226	144.640000
453.056915	144.820000
453.150604	144.820000
453.244293	145.220000
453.337982	146.060000
453.431671	146.320000
453.525360	146.980000
453.619049	147.040000
453.712769	146.860000
453.806427	146.120000
453.900146	146.100000
453.993805	145.300000
454.087555	145.980000
454.181213	146.180000
454.274933	146.200000
454.368591	145.980000
454.462311	146.280000
454.555969	145.520000
454.649689	145.880000
454.743347	145.840000
454.837067	146.540000
454.930756	146.880000
455.024445	147.180000
455.118134	146.620000
455.211853	146.940000
455.305542	146.380000
455.399231	145.940000
455.492920	146.000000
455.586609	146.300000
455.680298	146.100000
455.773987	145.440000
455.867676	145.640000
455.961365	145.660000
456.055084	144.980000
456.148773	144.880000
456.242493	145.480000
456.336151	145.260000
456.429871	145.460000
456.523529	146.140000
456.617249	146.080000
456.710907	146.680000
456.804626	146.580000
456.898315	146.180000
456.992035	145.920000
457.085693	145.900000
457.179413	144.940000
457.273102	145.760000
457.366791	145.780000
457.460480	146.180000
457.554199	147.080000
457.647888	147.340000
457.741577	146.700000
457.835266	146.820000
457.928955	146.280000
458.022644	146.120000
458.116364	146.700000
458.210052	146.600000
458.303741	146.820000
458.397461	146.480000
458.491119	145.800000
458.584839	145.320000
458.678528	145.080000
458.772247	144.540000
458.865906	144.980000
458.959625	145.800000
459.053284	145.980000
459.147003	146.360000
459.240692	147.000000
459.334412	147.020000
459.428070	146.640000
459.521790	146.280000
459.615479	146.020000
459.709198	146.180000
459.802887	145.860000
459.896576	145.560000
459.990265	145.780000
460.083954	146.120000
460.177673	145.340000
460.271362	145.760000
460.365051	145.700000
460.458740	145.520000
460.552429	145.040000
460.646149	144.980000
460.739838	144.360000
460.833527	144.560000
460.927246	144.400000
461.020905	144.400000
461.114655	144.680000
461.208313	145.200000
461.302032	144.660000
461.395691	145.040000
461.489441	145.100000
461.583099	144.920000
461.676819	144.700000
461.770477	145.580000
461.864197	145.220000
461.957916	145.180000
462.051605	145.060000
462.145294	145.860000
462.238983	145.400000
462.332703	146.160000
462.426392	146.940000
462.520081	147.140000
462.613770	146.300000
462.707489	146.560000
462.801178	146.000000
462.894867	145.520000
462.988556	145.420000
463.082275	145.620000
463.175964	145.080000
463.269684	145.380000
463.363342	145.440000
463.457092	145.180000
463.550751	145.180000
463.644470	145.740000
463.738129	145.520000
463.831879	145.600000
463.925537	146.800000
464.019257	147.080000
464.112946	146.680000
464.206665	146.600000
464.300323	146.360000
464.394043	145.380000
464.487762	145.140000
464.581451	145.480000
464.675140	145.460000
464.768829	145.460000
464.862549	145.740000
464.956238	146.000000
465.049927	145.960000
465.143646	146.100000
465.237335	146.080000
465.331024	146.220000
465.424713	146.000000
465.518433	146.180000
465.612152	145.900000
465.705811	145.920000
465.799561	145.680000
465.893219	145.460000
465.986938	145.160000
466.080597	145.300000
466.174347	145.820000
466.268005	145.900000
466.361725	145.900000
466.455414	145.980000
466.549133	145.700000
466.642792	145.440000
466.736542	145.020000
466.830231	145.200000
466.923920	145.100000
467.017609	145.300000
467.111328	144.860000
467.205017	144.960000
467.298706	144.860000
467.392426	144.840000
467.486115	144.980000
467.579803	145.160000
467.673523	145.980000
467.767212	146.120000
467.860901	146.140000
467.954651	146.480000
468.048309	146.820000
468.142029	146.360000
468.235718	146.460000
468.329437	146.200000
468.423096	145.780000
468.516846	145.440000
468.610504	145.200000
468.704224	144.840000
468.797913	144.900000
468.891632	145.140000
468.985291	144.980000
469.079010	145.320000
469.172729	145.180000
469.266418	145.660000
469.360107	145.660000
469.453827	145.420000
469.547516	145.320000
469.641205	145.660000
469.734924	146.020000
469.828613	146.040000
469.922302	146.580000
470.016022	146.440000
470.109711	146.300000
470.203430	145.280000
470.297150	144.780000
470.390808	145.000000
470.484558	144.980000
470.578217	145.320000
470.671936	146.320000
470.765625	147.100000
470.859344	146.540000
470.953003	146.880000
471.046753	146.520000
471.140411	145.580000
471.234131	145.660000
471.327820	146.380000
471.421539	146.400000
471.515228	146.300000
471.608948	146.540000
471.702637	145.860000
471.796326	145.140000
471.890045	144.820000
471.983734	145.020000
472.077423	144.920000
472.171143	145.160000
472.264832	145.200000
472.358521	145.340000
472.452240	144.900000
472.545929	145.720000
472.639648	145.880000
472.733337	146.360000
472.827057	146.420000
472.920746	146.760000
473.014465	146.620000
473.108124	146.880000
473.201874	146.780000
473.295532	146.400000
473.389252	146.720000
473.482941	146.860000
473.576660	146.080000
473.670319	145.940000
473.764069	146.220000
473.857727	146.080000
473.951477	145.820000
474.045166	146.780000
474.138855	146.560000
474.232574	146.580000
474.326263	146.620000
474.419952	146.620000
474.513672	146.140000
474.607361	146.300000
474.701050	146.540000
474.794769	146.760000
474.888458	147.120000
474.982178	147.140000
475.075867	147.160000
475.169586	146.940000
475.263275	146.620000
475.356995	146.340000
475.450653	145.980000
475.544403	145.840000
475.638062	146.640000
475.731812	146.400000
475.825470	145.920000
475.919189	146.200000
476.012878	146.360000
476.106598	145.440000
476.200256	145.860000
476.294006	145.980000
476.387695	145.960000
476.481384	145.700000
476.575104	145.840000
476.668793	145.640000
476.762512	145.300000
476.856201	145.940000
476.949890	145.900000
477.043610	145.380000
477.137299	145.480000
477.230988	146.020000
477.324707	145.320000
477.418396	146.280000
477.512146	146.420000
477.605804	146.060000
477.699524	146.200000
477.793213	146.300000
477.886932	145.520000
477.980591	145.520000
478.074341	145.540000
478.167999	144.640000
478.261749	144.660000
478.355408	144.420000
478.449127	144.820000
478.542816	145.520000
478.636536	146.520000
478.730225	146.400000
478.823944	146.680000
478.917633	146.700000
479.011322	146.780000
479.105042	146.780000
479.198730	146.860000
479.292450	146.820000
479.386139	147.060000
479.479828	146.800000
479.573547	146.900000
479.667267	146.980000
479.760925	147.240000
479.854675	146.940000
479.948334	147.040000
480.042084	146.380000
480.135742	146.560000
480.229462	146.140000
480.323151	145.860000
480.416870	144.880000
480.510529	145.120000
480.604279	144.500000
480.697937	144.980000
480.791656	144.900000
480.885345	145.360000
480.979065	145.200000
481.072754	146.080000
481.166473	146.220000
481.260132	146.380000
481.353882	146.300000
481.447540	146.280000
481.541260	145.840000
481.635010	145.040000
481.728668	144.940000
481.822388	144.840000
481.916077	145.280000
482.009796	145.200000
482.103485	145.940000
482.197205	146.260000
482.290863	146.480000
482.384613	146.060000
482.478271	145.900000
482.571991	145.540000
482.665680	145.380000
482.759399	146.440000
482.853058	146.680000
482.946808	146.420000
483.040466	146.200000
483.134216	145.980000
483.227875	144.880000
483.321594	145.300000
483.415283	145.620000
483.509003	145.620000
483.602661	145.820000
483.696411	146.240000
483.790070	145.660000
483.883789	145.720000
483.977478	146.200000
484.071198	146.180000
484.164917	145.780000
484.258606	145.540000
484.352325	145.860000
484.445984	145.680000
484.539734	145.580000
484.633392	144.980000
484.727142	145.440000
484.820801	145.120000
484.914520	145.140000
485.008209	145.440000
485.101929	146.440000
485.195587	146.320000
485.289337	146.560000
485.382996	146.680000
485.476715	146.600000
485.570404	146.800000
485.664124	146.660000
485.757782	146.800000
485.851532	146.540000
485.945190	146.520000
486.038910	146.280000
486.132599	146.740000
486.226318	146.060000
486.319977	146.200000
486.413727	146.660000
486.507446	146.200000
486.601105	145.560000
486.694855	145.600000
486.788513	145.400000
486.882233	144.960000
486.975922	145.040000
487.069641	144.940000
487.163300	145.020000
487.257050	146.060000
487.350708	145.860000
487.444427	145.760000
487.538116	145.860000
487.631836	145.740000
487.725494	145.320000
487.819214	145.380000
487.912903	145.420000
488.006622	146.040000
488.100281	146.360000
488.194031	146.160000
488.287689	146.460000
488.381409	147.020000
488.475098	146.460000
488.568817	146.600000
488.662476	146.160000
488.756226	145.300000
488.849945	144.160000
488.943604	144.300000
489.037354	144.360000
489.131012	144.400000
489.224731	144.760000
489.318390	145.380000
489.412140	145.440000
489.505798	145.120000
489.599518	145.040000
489.693207	145.540000
489.786926	145.380000
489.880585	145.120000
489.974335	145.380000
490.067993	146.200000
490.161713	146.220000
490.255371	147.000000
490.349121	147.280000
490.442780	147.100000
490.536499	146.380000
490.630188	146.420000
490.723907	145.640000
490.817566	145.860000
490.911285	145.980000
491.004974	146.020000
491.098694	145.560000
491.192413	146.360000
491.286102	146.120000
491.379822	146.100000
491.473480	146.400000
491.567200	146.640000
491.660889	145.940000
491.754608	145.820000
491.848267	145.660000
491.941986	145.600000
492.035675	145.760000
492.129395	146.220000
492.223053	146.140000
492.316772	146.500000
492.410461	146.060000
492.504181	145.780000
492.597839	145.160000
492.691559	145.400000
492.785248	145.220000
492.878967	145.380000
492.972626	145.000000
493.066345	145.240000
493.160034	144.680000
493.253754	144.700000
493.347412	144.280000
493.441132	144.740000
493.534882	144.940000
493.628540	145.600000
493.722260	145.920000
493.815918	146.640000
493.909668	147.040000
494.003326	147.720000
494.097046	147.500000
494.190704	147.040000
494.284454	146.940000
494.378113	146.840000
494.471832	146.220000
494.565491	146.000000
494.659210	146.020000
494.752899	146.060000
494.846619	145.900000
494.940277	146.180000
495.033997	146.540000
495.127686	146.060000
495.221405	145.820000
495.315063	145.840000
495.408783	145.580000
495.502441	145.600000
495.596191	146.180000
495.689850	145.800000
495.783569	146.100000
495.877228	146.160000
495.970947	145.740000
496.064697	145.500000
496.158356	146.500000
496.252075	146.120000
496.345734	145.780000
496.439453	146.560000
496.533142	146.840000
496.626862	146.840000
496.720520	146.840000
496.814240	146.980000
496.907898	146.620000
497.001617	146.480000
497.095306	146.000000
497.189026	145.840000
497.282684	146.020000
497.376404	146.520000
497.470062	146.320000
497.563782	146.260000
497.657471	146.240000
497.751190	145.900000
497.844849	145.280000
497.938568	145.800000
498.032227	145.760000
498.125946	145.500000
498.219635	145.200000
498.313354	145.300000
498.407074	144.840000
498.500732	145.080000
498.594452	145.460000
498.688110	145.560000
498.781830	144.860000
498.875519	144.800000
498.969238	144.440000
499.062897	144.360000
499.156616	145.000000
499.250275	145.660000
499.343994	145.320000
499.437653	145.160000
499.531372	145.220000
499.625061	145.640000
499.718781	145.720000
499.812439	146.140000
499.906158	146.540000
499.999817	146.360000
500.093536	145.580000
500.187195	145.760000
500.280914	146.140000
500.374573	146.100000
500.468323	146.080000
500.561981	146.580000
500.655701	145.940000
500.749420	145.440000
500.843079	145.940000
500.936798	145.980000
501.030457	145.780000
501.124176	145.880000
501.217834	146.140000
501.311554	145.600000
501.405212	145.680000
501.498962	144.960000
501.592621	144.940000
501.686340	145.360000
501.779999	145.500000
501.873718	145.720000
501.967377	146.380000
502.061096	146.680000
502.154755	145.720000
502.248474	145.740000
502.342133	145.380000
502.435852	145.120000
502.529510	145.640000
502.623230	146.480000
502.716888	146.040000
502.810608	146.180000
502.904266	146.700000
502.997986	146.080000
503.091705	145.520000
503.185364	145.760000
503.279083	145.900000
503.372772	145.700000
503.466492	145.500000
503.560150	145.340000
503.653870	145.620000
503.747528	145.480000
503.841248	145.600000
503.934906	145.740000
504.028625	145.960000
504.122284	145.980000
504.216003	146.620000
504.309662	146.120000
504.403381	146.760000
504.497040	146.920000
504.590759	146.480000
504.684418	146.340000
504.778137	146.880000
504.871796	146.600000
504.965515	146.380000
505.059174	146.620000
505.152893	146.040000
505.246521	145.660000
505.340240	145.140000
505.433899	145.300000
505.527618	145.440000
505.621338	145.920000
505.714996	145.600000
505.808716	145.640000
505.902374	145.880000
505.996094	145.640000
506.089752	145.180000
506.183472	145.700000
506.277130	145.740000
506.370850	145.480000
506.464508	145.320000
506.558228	145.540000
506.651886	144.940000
506.745605	145.480000
506.839264	145.480000
506.932983	145.880000
507.026611	145.860000
507.120331	146.580000
507.213989	145.900000
507.307709	146.120000
507.401367	146.160000
507.495087	146.840000
507.588745	146.120000
507.682465	146.760000
507.776123	146.460000
507.869843	146.200000
507.963531	145.500000
508.057190	146.060000
508.150909	145.460000
508.244568	145.660000
508.338287	145.520000
508.431946	145.340000
508.525665	144.880000
508.619324	144.680000
508.713013	144.900000
508.806671	145.500000
508.900391	146.480000
508.994049	147.000000
509.087769	146.960000
509.181427	147.100000
509.275146	146.440000
509.368774	145.560000
509.462494	145.300000
509.556152	145.480000
509.649872	145.420000
509.743530	145.500000
509.837250	145.340000
509.930878	145.380000
510.024597	145.640000
510.118256	145.300000
510.211975	145.440000
510.305695	145.600000
510.399353	145.880000
510.493042	146.140000
510.586700	146.260000
510.680420	146.900000
510.774078	146.740000
510.867798	146.500000
510.961426	145.960000
511.055145	145.900000
511.148804	145.300000
511.242523	145.900000
511.336151	146.020000
511.429871	146.440000
511.523529	146.340000
511.617249	146.040000
511.710876	145.760000
511.804596	145.620000
511.898254	145.420000
511.991974	145.620000
512.085632	145.620000
512.179321	145.640000
512.272949	145.840000
512.366699	146.180000
512.460327	146.200000
512.554077	147.240000
512.647766	147.040000
512.741394	146.980000
512.835144	147.420000
512.928772	146.800000
513.022461	146.300000
513.116150	146.520000
513.209839	146.820000
513.303467	146.200000
513.397217	146.120000
513.490845	145.920000
513.584595	145.720000
513.678223	145.100000
513.771912	144.360000
513.865601	144.880000
513.959290	144.440000
514.052917	144.580000
514.146667	145.500000
514.240295	146.220000
514.333984	146.340000
514.427673	146.600000
514.521362	146.840000
514.614990	145.820000
514.708740	145.880000
514.802368	146.100000
514.896057	146.340000
514.989746	146.880000
515.083435	147.120000
515.177124	147.320000
515.270752	146.940000
515.364502	146.680000
515.458130	146.260000
515.551819	146.040000
515.645508	145.680000
515.739197	145.680000
515.832825	145.760000
515.926575	145.400000
516.020203	145.660000
516.113892	146.220000
516.207520	146.160000
516.301270	146.280000
516.394897	146.380000
516.488586	147.020000
516.582275	146.620000
516.675964	146.280000
516.769592	145.840000
516.863281	146.420000
516.956970	146.380000
517.050659	146.260000
517.144287	146.740000
517.238037	147.180000
517.331665	146.320000
517.425354	145.820000
517.519043	145.800000
517.612732	146.100000
517.706421	145.900000
517.800049	145.940000
517.893738	145.920000
517.987427	145.880000
518.081116	145.340000
518.174744	145.000000
518.268433	145.220000
518.362122	145.840000
518.455811	145.960000
518.549438	146.660000
518.643127	148.000000
518.736816	147.840000
518.830505	147.080000
518.924133	147.020000
519.017822	146.880000
519.111511	146.260000
519.205200	146.720000
519.298828	146.820000
519.392517	146.620000
519.486206	146.940000
519.579895	146.880000
519.673523	146.480000
519.767212	146.660000
519.860901	147.140000
519.954590	146.480000
520.048279	145.920000
520.141907	145.880000
520.235596	146.240000
520.329224	146.480000
520.422974	146.560000
520.516602	146.780000
520.610291	146.500000
520.703918	146.400000
520.797607	145.780000
520.891296	145.940000
520.984985	146.100000
521.078613	146.920000
521.172302	146.320000
521.265930	147.260000
521.359680	147.420000
521.453308	147.480000
521.546997	146.800000
521.640625	147.120000
521.734314	146.300000
521.827942	146.220000
521.921692	146.380000
522.015320	146.460000
522.109009	145.980000
522.202698	145.740000
522.296326	145.140000
522.390015	145.500000
522.483704	145.920000
522.577393	145.840000
522.671021	146.140000
522.764709	146.200000
522.858337	145.920000
522.952026	145.540000
523.045654	146.520000
523.139404	146.880000
523.233032	147.280000
523.326721	147.000000
523.420349	147.220000
523.514038	146.560000
523.607666	146.700000
523.701355	146.160000
523.795044	146.300000
523.888733	146.340000
523.982361	146.580000
524.076050	146.080000
524.169678	146.680000
524.263367	146.080000
524.356995	145.660000
524.450684	145.400000
524.544373	145.200000
524.638062	145.020000
524.731750	145.760000
524.825378	145.880000
524.919067	145.780000
525.012695	145.900000
525.106384	145.320000
525.200012	145.140000
525.293701	145.220000
525.387329	145.680000
525.481018	145.920000
525.574646	146.460000
525.668396	146.300000
525.762024	146.640000
525.855713	146.560000
525.949341	146.260000
526.043030	146.460000
526.136658	146.340000
526.230347	145.920000
526.323975	145.580000
526.417664	145.540000
526.511292	145.620000
526.604980	146.060000
526.698608	145.780000
526.792297	145.920000
526.885925	146.280000
526.979614	146.100000
527.073303	145.860000
527.166931	146.240000
527.260620	146.740000
527.354309	147.000000
527.447998	147.100000
527.541626	147.120000
527.635315	147.140000
527.728943	147.160000
527.822632	146.960000
527.916260	146.800000
528.009949	147.180000
528.103577	147.080000
528.197266	146.200000
528.290894	146.100000
528.384583	146.020000
528.478210	145.440000
528.571899	145.360000
528.665527	145.860000
528.759216	146.060000
528.852844	146.400000
528.946533	146.560000
529.040161	146.620000
529.133850	146.420000
529.227478	146.440000
529.321167	146.360000
529.414856	146.740000
529.508484	147.240000
529.602173	146.980000
529.695801	146.760000
529.789490	146.700000
529.883057	146.260000
529.976746	146.120000
530.070374	146.700000
530.164062	146.700000
530.257690	146.700000
530.351379	146.940000
530.445007	146.720000
530.538696	146.000000
530.632324	145.920000
530.726013	145.960000
530.819641	145.940000
530.913330	146.100000
531.006958	146.420000
531.100647	146.580000
531.194275	146.200000
531.287964	145.820000
531.381592	145.480000
531.475220	145.580000
531.568848	145.760000
531.662537	145.760000
531.756226	146.380000
531.849854	146.380000
531.943542	146.520000
532.037170	145.740000
532.130859	146.360000
532.224487	145.940000
532.318176	145.920000
532.411804	146.380000
532.505432	146.840000
532.599060	146.240000
532.692749	146.300000
532.786377	146.640000
532.880066	145.600000
532.973694	145.140000
533.067383	145.120000
533.161011	145.060000
533.254639	144.900000
533.348267	145.000000
533.441956	145.580000
533.535583	145.760000
533.629272	145.760000
533.722900	145.440000
533.816589	145.580000
533.910156	145.500000
534.003845	145.200000
534.097534	145.480000
534.191162	146.160000
534.284851	146.420000
534.378479	146.060000
534.472107	146.380000
534.565735	146.040000
534.659424	146.240000
534.753052	146.400000
534.846741	146.280000
534.940369	146.820000
535.033997	146.980000
535.127625	146.680000
535.221313	146.980000
535.314941	147.140000
535.408630	146.140000
535.502197	146.680000
535.595886	146.480000
535.689514	145.880000
535.783203	146.460000
535.876831	147.260000
535.970459	146.800000
536.064087	146.540000
536.157776	146.680000
536.251404	146.220000
536.345093	145.840000
536.438721	145.680000
536.532349	145.860000
536.626038	145.740000
536.719666	146.140000
536.813293	145.800000
536.906921	145.920000
537.000610	146.300000
537.094238	146.200000
537.187866	146.000000
537.281494	146.020000
537.375183	146.100000
537.468811	145.700000
537.562439	146.100000
537.656067	146.060000
537.749756	146.360000
537.843384	146.740000
537.937012	146.920000
538.030640	146.380000
538.124329	146.540000
538.217896	146.960000
538.311584	146.600000
538.405212	146.500000
538.498901	147.140000
538.592468	147.660000
538.686157	147.140000
538.779785	146.620000
538.873413	146.560000
538.967102	145.840000
539.060730	145.000000
539.154358	145.400000
539.247986	145.900000
539.341675	146.000000
539.435242	146.360000
539.528931	146.660000
539.622559	146.200000
539.716187	146.600000
539.809814	146.400000
539.903503	146.320000
539.997070	146.000000
540.090759	146.280000
540.184387	145.860000
540.278015	146.280000
540.371643	146.600000
540.465332	146.800000
540.558899	146.580000
540.652588	146.560000
540.746216	146.020000
540.839844	146.100000
540.933472	146.140000
541.027100	146.020000
541.120728	146.160000
541.214417	146.680000
541.308044	146.620000
541.401672	146.320000
541.495300	146.160000
541.588928	145.640000
541.682617	144.940000
541.776184	144.900000
541.869873	145.200000
541.963440	145.620000
542.057129	145.900000
542.150757	146.220000
542.244385	145.820000
542.338013	145.300000
542.431641	145.320000
542.525269	145.280000
542.618958	145.900000
542.712524	146.500000
542.806213	146.640000
542.899780	146.700000
542.993469	146.500000
543.087036	145.800000
543.180725	145.240000
543.274292	145.640000
543.367981	145.700000
543.461548	146.380000
543.555237	146.440000
543.648926	146.960000
543.742493	147.480000
543.836182	147.340000
543.929749	146.740000
544.023437	146.900000
544.117004	146.740000
544.210693	146.620000
544.304260	146.640000
544.397949	146.960000
544.491516	147.060000
544.585205	147.000000
544.678772	146.600000
544.772461	147.100000
544.866028	146.720000
544.959717	146.760000
545.053284	146.380000
545.146973	146.560000
545.240540	146.420000
545.334229	147.060000
545.427795	147.220000
545.521423	147.240000
545.615051	147.200000
545.708679	147.200000
545.802307	146.760000
545.895935	146.660000
545.989624	147.640000
546.083191	147.360000
546.176880	146.980000
546.270447	146.900000
546.364136	147.180000
546.457703	146.520000
546.551331	146.460000
546.644958	146.660000
546.738586	146.660000
546.832214	146.000000
546.925842	146.040000
547.019409	146.220000
547.113098	145.900000
547.206665	145.800000
547.300354	146.360000
547.393921	146.460000
547.487549	146.720000
547.581177	146.800000
547.674805	147.120000
547.768433	146.340000
547.862061	146.160000
547.955627	145.560000
548.049316	146.000000
548.142883	146.200000
548.236572	146.920000
548.330139	147.320000
548.423767	147.380000
548.517456	146.960000
548.611023	146.940000
548.704651	146.260000
548.798279	145.820000
548.891907	146.340000
548.985474	146.400000
549.079163	146.500000
549.172729	146.740000
549.266357	146.600000
549.359985	146.420000
549.453613	145.960000
549.547180	145.580000
549.640869	146.100000
549.734436	146.040000
549.828064	146.580000
549.921631	146.980000
550.015320	146.800000
550.108887	146.700000
550.202515	147.120000
550.296143	146.340000
550.389771	146.360000
550.483337	146.440000
550.576965	146.080000
550.670593	146.360000
550.764221	146.500000
550.857849	146.680000
550.951477	146.360000
551.045105	146.320000
551.138672	145.800000
551.232300	145.240000
551.325928	145.100000
551.419556	145.620000
551.513123	145.840000
551.606750	145.800000
551.700378	146.260000
551.794006	146.180000
551.887573	145.980000
551.981201	146.060000
552.074768	146.040000
552.168457	145.760000
552.262024	146.680000
552.355652	146.900000
552.449219	147.240000
552.542847	147.600000
552.636475	147.540000
552.730103	146.480000
552.823669	146.300000
552.917297	145.860000
553.010864	145.600000
553.104553	146.200000
553.198181	145.820000
553.291748	146.360000
553.385376	146.560000
553.478943	146.320000
553.572571	146.240000
553.666199	146.860000
553.759827	146.060000
553.853394	145.560000
553.947021	145.780000
554.040588	145.540000
554.134216	145.560000
554.227783	146.260000
554.321411	146.900000
554.415039	146.680000
554.508667	146.540000
554.602234	146.820000
554.695862	146.040000
554.789429	145.720000
554.883057	145.780000
554.976624	146.100000
555.070251	145.720000
555.163818	146.100000
555.257507	146.280000
555.351074	146.520000
555.444702	147.800000
555.538330	147.660000
555.631897	147.880000
555.725525	147.400000
555.819092	147.060000
555.912720	145.380000
556.006287	145.700000
556.099915	145.360000
556.193481	145.720000
556.287109	146.280000
556.380676	146.380000
556.474304	146.340000
556.567871	146.540000
556.661499	146.220000
556.755066	146.180000
556.848694	146.720000
556.942261	146.760000
557.035889	146.920000
557.129517	147.300000
557.223145	147.520000
557.316711	147.460000
557.410339	147.380000
557.503906	147.020000
557.597473	147.100000
557.691040	146.720000
557.784668	146.200000
557.878296	146.040000
557.971863	146.500000
558.065491	146.280000
558.159058	146.120000
558.252686	147.000000
558.346252	147.740000
558.439880	146.980000
558.533447	146.640000
558.627075	146.440000
558.720642	145.940000
558.814270	145.640000
558.907837	146.220000
559.001465	146.420000
559.095032	147.040000
559.188660	147.180000
559.282227	146.380000
559.375854	146.660000
559.469360	146.300000
559.562988	146.320000
559.656555	146.060000
559.750183	146.780000
559.843750	146.380000
559.937378	146.600000
560.030945	146.220000
560.124573	0.000000
560.218140	0.000000
560.311707	0.000000
560.405334	0.000000
560.498901	0.000000
560.592529	0.000000
560.686096	0.000000
560.779724	0.000000
560.873291	0.000000
560.966858	0.000000
561.060425	0.000000
561.154053	0.000000
561.247620	0.000000
561.341248	0.000000
561.434814	0.000000
561.528381	0.000000
561.621948	0.000000
561.715576	0.000000
561.809143	0.000000
561.902771	0.000000
561.996277	0.000000
562.089905	0.000000
562.183472	0.000000
562.277100	0.000000
