Model Number: SPM-002-B   
Serial Number: 70087108
Firmware Version: 004.15.4
Exposure Time: 100000.000000us
Data Taken on: 11-12-2020 18:49:01.364
Wavelength	Amplitude
221.570786	0.000000
221.663406	0.000000
221.756027	0.000000
221.848648	0.000000
221.941269	0.000000
222.033905	0.000000
222.126526	0.000000
222.219162	0.000000
222.311798	0.000000
222.404419	0.000000
222.497055	0.000000
222.589676	0.000000
222.682312	0.000000
222.774933	0.000000
222.867569	0.000000
222.960205	0.000000
223.052841	0.000000
223.145462	0.000000
223.238098	0.000000
223.330734	0.000000
223.423386	0.000000
223.516022	0.000000
223.608658	0.000000
223.701309	0.000000
223.793945	0.000000
223.886581	0.000000
223.979218	0.000000
224.071869	0.000000
224.164505	0.000000
224.257156	0.000000
224.349792	0.000000
224.442444	0.000000
224.535095	0.000000
224.627747	0.000000
224.720398	0.000000
224.813034	0.000000
224.905685	0.000000
224.998337	146.580000
225.090988	146.140000
225.183640	145.800000
225.276291	145.700000
225.368942	146.080000
225.461594	146.620000
225.554245	146.920000
225.646912	147.200000
225.739578	147.740000
225.832230	148.080000
225.924896	147.360000
226.017548	147.720000
226.110199	148.060000
226.202866	147.300000
226.295532	146.960000
226.388184	146.560000
226.480850	145.840000
226.573517	145.380000
226.666168	145.900000
226.758835	145.900000
226.851501	146.840000
226.944183	147.000000
227.036850	146.760000
227.129517	146.760000
227.222183	147.180000
227.314850	146.900000
227.407516	147.380000
227.500198	148.200000
227.592865	147.960000
227.685532	147.280000
227.778214	147.160000
227.870880	147.280000
227.963562	147.400000
228.056229	147.660000
228.148926	147.920000
228.241592	148.640000
228.334274	148.300000
228.426956	148.020000
228.519638	147.920000
228.612305	147.740000
228.704987	147.280000
228.797668	147.100000
228.890350	146.700000
228.983032	146.100000
229.075714	146.980000
229.168396	146.660000
229.261108	146.300000
229.353790	146.540000
229.446472	147.020000
229.539169	146.700000
229.631851	146.660000
229.724533	147.240000
229.817230	147.440000
229.909912	148.280000
230.002609	148.080000
230.095306	148.040000
230.187988	147.880000
230.280685	147.620000
230.373383	146.620000
230.466095	146.460000
230.558792	146.940000
230.651474	146.960000
230.744171	146.580000
230.836868	146.540000
230.929581	146.800000
231.022278	146.420000
231.114975	146.660000
231.207672	146.520000
231.300369	147.040000
231.393082	147.140000
231.485779	147.140000
231.578506	146.920000
231.671204	147.340000
231.763916	146.880000
231.856613	146.500000
231.949326	146.880000
232.042023	146.620000
232.134735	146.440000
232.227448	146.140000
232.320160	146.420000
232.412872	146.240000
232.505585	146.960000
232.598297	147.520000
232.691010	147.940000
232.783722	147.620000
232.876450	148.180000
232.969162	147.820000
233.061874	147.060000
233.154587	146.580000
233.247314	146.840000
233.340027	146.240000
233.432739	146.520000
233.525467	146.660000
233.618179	147.120000
233.710907	146.800000
233.803635	146.920000
233.896347	146.740000
233.989090	147.540000
234.081818	147.420000
234.174545	147.660000
234.267258	147.520000
234.359985	147.340000
234.452713	147.000000
234.545441	146.920000
234.638168	146.760000
234.730896	147.200000
234.823639	147.300000
234.916367	147.420000
235.009094	147.820000
235.101822	148.200000
235.194580	148.020000
235.287308	148.040000
235.380051	147.720000
235.472778	147.440000
235.565521	147.360000
235.658249	147.020000
235.750992	147.000000
235.843719	147.100000
235.936462	147.400000
236.029205	146.960000
236.121948	146.780000
236.214691	146.920000
236.307449	147.420000
236.400192	146.880000
236.492935	146.880000
236.585678	147.000000
236.678421	146.940000
236.771164	146.480000
236.863907	147.420000
236.956665	147.820000
237.049408	149.360000
237.142151	148.880000
237.234909	149.620000
237.327652	149.100000
237.420410	148.800000
237.513153	148.160000
237.605927	148.200000
237.698669	147.460000
237.791428	147.000000
237.884186	147.120000
237.976944	145.960000
238.069702	146.320000
238.162445	145.980000
238.255203	146.280000
238.347961	146.980000
238.440720	147.320000
238.533478	147.160000
238.626266	146.960000
238.719025	147.160000
238.811783	146.400000
238.904541	146.540000
238.997314	146.520000
239.090073	146.700000
239.182831	146.800000
239.275604	147.700000
239.368362	147.300000
239.461136	147.420000
239.553909	147.420000
239.646667	146.840000
239.739441	146.220000
239.832214	146.960000
239.925003	147.140000
240.017761	147.780000
240.110535	148.360000
240.203308	147.940000
240.296082	147.400000
240.388855	147.440000
240.481628	147.160000
240.574417	147.140000
240.667191	147.320000
240.759964	147.220000
240.852737	146.720000
240.945526	146.500000
241.038315	146.560000
241.131088	147.080000
241.223877	147.480000
241.316650	147.540000
241.409439	147.940000
241.502228	147.500000
241.595001	147.620000
241.687790	147.660000
241.780579	147.600000
241.873367	147.360000
241.966141	147.840000
242.058929	147.140000
242.151718	146.940000
242.244507	147.420000
242.337311	146.800000
242.430099	146.900000
242.522903	147.360000
242.615692	147.060000
242.708481	146.780000
242.801270	147.560000
242.894073	147.180000
242.986862	147.020000
243.079651	147.880000
243.172455	147.920000
243.265244	147.780000
243.358063	147.700000
243.450867	148.000000
243.543655	147.660000
243.636459	147.800000
243.729263	148.220000
243.822067	148.640000
243.914856	148.740000
244.007660	148.860000
244.100464	148.560000
244.193268	148.020000
244.286072	147.640000
244.378876	146.880000
244.471680	146.320000
244.564499	146.840000
244.657318	147.480000
244.750122	147.740000
244.842926	147.680000
244.935745	148.200000
245.028549	147.660000
245.121368	147.280000
245.214172	147.180000
245.306992	148.060000
245.399796	147.840000
245.492615	148.340000
245.585434	148.100000
245.678253	148.160000
245.771072	147.460000
245.863892	147.840000
245.956711	147.720000
246.049530	147.480000
246.142349	147.060000
246.235168	147.260000
246.327988	147.420000
246.420807	147.380000
246.513626	147.580000
246.606445	147.640000
246.699280	147.820000
246.792099	147.340000
246.884918	147.060000
246.977753	147.080000
247.070587	147.440000
247.163422	147.240000
247.256241	147.020000
247.349075	147.160000
247.441895	147.280000
247.534729	146.980000
247.627563	146.700000
247.720383	147.420000
247.813217	147.480000
247.906052	147.280000
247.998886	147.060000
248.091736	147.320000
248.184570	146.900000
248.277405	146.740000
248.370239	147.540000
248.463074	148.620000
248.555908	148.660000
248.648743	148.380000
248.741592	148.660000
248.834427	148.080000
248.927261	147.000000
249.020111	147.260000
249.112946	148.000000
249.205795	147.520000
249.298630	147.560000
249.391495	147.760000
249.484344	147.440000
249.577179	147.240000
249.670029	147.680000
249.762878	148.120000
249.855728	148.540000
249.948563	148.720000
250.041412	148.140000
250.134262	148.260000
250.227112	147.780000
250.319962	147.420000
250.412827	147.280000
250.505692	146.920000
250.598541	146.620000
250.691391	146.880000
250.784241	146.980000
250.877106	147.000000
250.969955	147.060000
251.062805	147.680000
251.155670	148.260000
251.248520	148.020000
251.341385	148.220000
251.434235	148.300000
251.527100	147.600000
251.619965	146.580000
251.712814	147.460000
251.805695	147.300000
251.898560	147.300000
251.991425	147.860000
252.084290	148.000000
252.177155	147.260000
252.270020	147.180000
252.362885	147.140000
252.455750	146.820000
252.548615	146.640000
252.641479	146.660000
252.734360	146.520000
252.827240	146.840000
252.920105	146.980000
253.012970	146.840000
253.105850	146.900000
253.198715	146.560000
253.291595	146.440000
253.384460	146.140000
253.477341	146.380000
253.570221	146.340000
253.663086	146.660000
253.755966	147.360000
253.848846	147.320000
253.941727	147.380000
254.034592	147.400000
254.127472	146.960000
254.220367	146.720000
254.313248	146.940000
254.406128	146.460000
254.499008	146.800000
254.591904	147.700000
254.684784	148.080000
254.777664	147.820000
254.870544	147.760000
254.963440	147.500000
255.056335	147.360000
255.149216	146.900000
255.242111	147.480000
255.334991	148.000000
255.427887	147.920000
255.520767	147.900000
255.613663	147.760000
255.706558	147.120000
255.799438	146.880000
255.892334	146.820000
255.985229	146.620000
256.078125	146.580000
256.171021	146.860000
256.263916	147.360000
256.356812	147.540000
256.449707	148.040000
256.542603	148.020000
256.635498	148.400000
256.728394	148.260000
256.821289	148.240000
256.914215	148.280000
257.007080	148.540000
257.100006	148.400000
257.192932	148.560000
257.285828	148.900000
257.378723	148.280000
257.471619	147.700000
257.564545	147.400000
257.657440	147.580000
257.750336	147.640000
257.843262	147.600000
257.936157	149.200000
258.029053	149.320000
258.121979	148.920000
258.214874	148.460000
258.307800	148.280000
258.400696	146.720000
258.493622	146.780000
258.586517	146.360000
258.679443	146.560000
258.772339	146.580000
258.865265	146.380000
258.958160	145.900000
259.051086	146.440000
259.144012	146.000000
259.236938	147.060000
259.329834	147.580000
259.422791	147.500000
259.515717	146.980000
259.608612	146.900000
259.701538	146.400000
259.794464	146.320000
259.887390	146.620000
259.980316	146.760000
260.073212	146.880000
260.166138	146.000000
260.259064	146.280000
260.351990	146.660000
260.444916	146.720000
260.537842	146.960000
260.630768	148.000000
260.723694	147.780000
260.816620	147.440000
260.909546	147.320000
261.002472	147.120000
261.095398	146.380000
261.188354	146.540000
261.281281	146.080000
261.374207	146.200000
261.467133	147.100000
261.560089	147.640000
261.653015	146.920000
261.745972	148.000000
261.838867	148.300000
261.931824	147.860000
262.024780	147.240000
262.117706	147.900000
262.210663	147.660000
262.303589	147.440000
262.396515	147.500000
262.489471	148.400000
262.582397	148.260000
262.675354	147.740000
262.768280	147.480000
262.861237	147.620000
262.954163	147.140000
263.047119	147.240000
263.140045	147.020000
263.233002	147.320000
263.325958	146.680000
263.418884	146.180000
263.511841	146.200000
263.604797	146.640000
263.697723	146.680000
263.790680	146.560000
263.883636	147.380000
263.976593	147.220000
264.069550	146.720000
264.162476	146.280000
264.255463	146.560000
264.348419	146.200000
264.441376	146.460000
264.534332	146.580000
264.627289	146.940000
264.720245	147.640000
264.813202	147.220000
264.906158	147.320000
264.999115	147.860000
265.092072	147.980000
265.185028	148.080000
265.277985	148.680000
265.370941	148.580000
265.463898	148.520000
265.556854	148.040000
265.649811	147.140000
265.742798	146.940000
265.835754	146.840000
265.928711	146.940000
266.021667	147.300000
266.114655	147.460000
266.207611	147.680000
266.300568	147.300000
266.393585	146.720000
266.486511	146.920000
266.579498	146.220000
266.672485	146.120000
266.765442	146.440000
266.858429	147.040000
266.951385	146.680000
267.044342	147.480000
267.137329	147.340000
267.230316	147.380000
267.323273	146.840000
267.416260	147.480000
267.509216	147.160000
267.602203	146.920000
267.695160	147.500000
267.788147	147.380000
267.881134	146.400000
267.974091	146.760000
268.067078	146.740000
268.160065	146.100000
268.253052	146.540000
268.346008	147.060000
268.438995	146.620000
268.531982	147.040000
268.624969	146.840000
268.717987	147.060000
268.810944	146.920000
268.903961	147.380000
268.996948	147.080000
269.089905	147.900000
269.182892	147.740000
269.275879	148.300000
269.368866	147.860000
269.461853	148.000000
269.554871	147.580000
269.647858	147.600000
269.740845	147.460000
269.833832	148.020000
269.926819	147.800000
270.019806	147.820000
270.112793	147.500000
270.205811	147.540000
270.298798	147.060000
270.391785	147.900000
270.484772	147.440000
270.577789	147.620000
270.670776	147.140000
270.763763	147.180000
270.856750	146.860000
270.949768	147.080000
271.042786	147.020000
271.135773	147.280000
271.228790	147.560000
271.321808	147.000000
271.414795	146.540000
271.507782	146.360000
271.600800	145.980000
271.693817	145.940000
271.786804	146.500000
271.879822	147.280000
271.972809	147.240000
272.065826	147.960000
272.158844	147.700000
272.251831	148.020000
272.344849	147.880000
272.437866	147.520000
272.530853	147.340000
272.623871	147.660000
272.716888	146.480000
272.809906	146.240000
272.902893	146.660000
272.995911	146.180000
273.088928	146.060000
273.181946	146.660000
273.274963	146.520000
273.367981	146.600000
273.460999	146.820000
273.554047	147.320000
273.647003	147.520000
273.740051	147.600000
273.833069	147.860000
273.926086	148.020000
274.019135	147.440000
274.112152	147.240000
274.205170	147.300000
274.298187	147.380000
274.391205	147.080000
274.484222	146.920000
274.577240	147.080000
274.670258	146.860000
274.763306	146.580000
274.856323	147.020000
274.949341	147.280000
275.042358	147.540000
275.135406	147.540000
275.228424	147.400000
275.321442	147.260000
275.414490	146.760000
275.507507	146.880000
275.600525	147.760000
275.693573	147.760000
275.786591	147.460000
275.879669	147.700000
275.972656	147.280000
276.065735	146.600000
276.158752	147.200000
276.251801	148.000000
276.344818	147.820000
276.437866	148.160000
276.530884	148.020000
276.623932	147.080000
276.716980	147.020000
276.809998	147.540000
276.903046	147.360000
276.996094	148.320000
277.089111	149.320000
277.182159	149.280000
277.275208	148.920000
277.368256	148.660000
277.461304	147.960000
277.554321	146.900000
277.647369	146.480000
277.740417	146.600000
277.833466	146.460000
277.926514	146.200000
278.019562	147.140000
278.112610	146.660000
278.205688	146.420000
278.298706	146.640000
278.391785	146.620000
278.484833	146.080000
278.577881	146.400000
278.670929	146.980000
278.763977	146.780000
278.857025	147.320000
278.950073	147.180000
279.043121	147.140000
279.136169	146.960000
279.229248	147.160000
279.322296	147.080000
279.415344	147.340000
279.508392	147.240000
279.601440	147.160000
279.694519	146.900000
279.787567	146.680000
279.880615	146.640000
279.973694	146.420000
280.066742	146.320000
280.159790	146.700000
280.252869	146.260000
280.345917	146.220000
280.438995	146.340000
280.532074	146.200000
280.625122	146.420000
280.718201	147.640000
280.811279	147.720000
280.904327	147.760000
280.997406	148.080000
281.090454	147.860000
281.183533	146.800000
281.276581	146.840000
281.369659	146.600000
281.462738	146.720000
281.555786	146.960000
281.648865	147.280000
281.741943	147.040000
281.835022	147.840000
281.928070	147.440000
282.021149	146.940000
282.114227	146.840000
282.207306	147.140000
282.300385	147.380000
282.393433	147.740000
282.486511	147.800000
282.579590	148.280000
282.672668	148.480000
282.765747	147.520000
282.858856	147.040000
282.951904	147.120000
283.045013	147.280000
283.138062	147.180000
283.231171	147.740000
283.324249	148.360000
283.417328	148.520000
283.510406	147.940000
283.603485	147.620000
283.696564	147.400000
283.789642	147.400000
283.882751	147.080000
283.975830	147.600000
284.068909	147.480000
284.161987	148.080000
284.255066	147.600000
284.348175	147.740000
284.441254	147.560000
284.534332	148.040000
284.627441	147.580000
284.720520	147.260000
284.813599	147.320000
284.906708	147.200000
284.999786	146.780000
285.092896	146.420000
285.185974	147.620000
285.279053	147.060000
285.372192	146.940000
285.465240	147.380000
285.558380	147.060000
285.651459	146.180000
285.744568	147.260000
285.837677	146.920000
285.930756	146.800000
286.023865	147.480000
286.116943	147.620000
286.210052	147.380000
286.303162	147.600000
286.396240	147.500000
286.489349	147.140000
286.582458	147.280000
286.675568	146.820000
286.768646	146.600000
286.861755	146.860000
286.954865	147.540000
287.047974	147.140000
287.141083	146.880000
287.234161	146.980000
287.327271	146.880000
287.420380	147.120000
287.513519	147.020000
287.606598	147.380000
287.699738	147.460000
287.792816	147.080000
287.885956	146.660000
287.979034	146.800000
288.072174	147.000000
288.165283	147.020000
288.258392	147.540000
288.351501	146.980000
288.444611	147.140000
288.537720	147.320000
288.630859	147.380000
288.723969	147.120000
288.817078	147.620000
288.910187	147.500000
289.003296	146.680000
289.096436	146.100000
289.189545	146.120000
289.282654	145.580000
289.375763	146.240000
289.468903	146.720000
289.562012	147.580000
289.655121	147.520000
289.748260	147.900000
289.841400	147.620000
289.934509	147.680000
290.027649	147.580000
290.120728	147.360000
290.213898	147.320000
290.306976	147.220000
290.400146	147.240000
290.493256	146.660000
290.586395	146.900000
290.679535	147.320000
290.772644	147.240000
290.865784	146.680000
290.958893	146.940000
291.052032	146.560000
291.145172	146.120000
291.238281	145.800000
291.331421	146.120000
291.424561	146.680000
291.517670	146.940000
291.610809	147.360000
291.703949	147.300000
291.797089	147.460000
291.890228	147.020000
291.983337	146.880000
292.076477	146.500000
292.169617	146.940000
292.262756	146.940000
292.355927	146.860000
292.449036	146.780000
292.542206	146.980000
292.635315	147.080000
292.728485	147.260000
292.821625	147.020000
292.914764	148.300000
293.007904	148.400000
293.101044	148.220000
293.194183	147.880000
293.287323	147.740000
293.380463	146.620000
293.473602	146.440000
293.566742	146.860000
293.659882	147.180000
293.753021	147.620000
293.846191	147.620000
293.939331	147.220000
294.032471	147.000000
294.125610	147.180000
294.218781	147.620000
294.311920	148.160000
294.405060	148.780000
294.498230	148.740000
294.591370	148.360000
294.684540	147.460000
294.777679	147.000000
294.870850	147.060000
294.963959	146.860000
295.057159	146.920000
295.150299	147.600000
295.243469	147.640000
295.336609	147.080000
295.429779	147.320000
295.522919	147.660000
295.616089	147.560000
295.709229	147.980000
295.802399	148.100000
295.895569	147.560000
295.988708	147.100000
296.081879	147.300000
296.175018	146.700000
296.268188	146.500000
296.361359	147.060000
296.454529	147.140000
296.547668	146.720000
296.640839	147.380000
296.734009	147.720000
296.827179	147.940000
296.920319	148.260000
297.013519	148.060000
297.106659	147.760000
297.199860	147.600000
297.292999	147.560000
297.386200	147.200000
297.479309	147.400000
297.572510	147.000000
297.665680	146.760000
297.758850	146.520000
297.852020	146.580000
297.945190	146.760000
298.038361	146.900000
298.131531	147.800000
298.224701	147.300000
298.317871	146.940000
298.411072	146.520000
298.504242	146.560000
298.597412	146.060000
298.690582	146.420000
298.783752	146.580000
298.876923	146.980000
298.970093	146.660000
299.063293	146.780000
299.156464	147.000000
299.249634	147.480000
299.342834	147.660000
299.436005	148.460000
299.529205	148.160000
299.622345	148.120000
299.715576	147.520000
299.808716	147.120000
299.901917	146.660000
299.995117	147.120000
300.088287	147.240000
300.181488	147.100000
300.274658	147.040000
300.367828	147.020000
300.461029	146.520000
300.554199	146.620000
300.647400	146.920000
300.740601	147.500000
300.833771	147.520000
300.926971	147.820000
301.020142	147.480000
301.113342	147.380000
301.206512	147.360000
301.299713	147.620000
301.392914	147.620000
301.486084	147.600000
301.579285	147.580000
301.672516	147.780000
301.765686	147.400000
301.858887	147.160000
301.952057	147.080000
302.045288	147.220000
302.138458	146.640000
302.231659	146.320000
302.324860	146.280000
302.418060	146.180000
302.511261	146.020000
302.604462	146.060000
302.697662	146.220000
302.790863	146.040000
302.884064	145.900000
302.977264	145.920000
303.070465	146.280000
303.163666	147.120000
303.256866	147.580000
303.350067	148.020000
303.443268	147.900000
303.536469	147.860000
303.629669	147.040000
303.722870	147.160000
303.816071	146.760000
303.909271	147.040000
304.002472	146.280000
304.095673	146.360000
304.188934	145.420000
304.282104	146.320000
304.375336	146.360000
304.468506	146.740000
304.561768	146.740000
304.654968	147.720000
304.748169	147.160000
304.841370	146.800000
304.934601	146.920000
305.027802	146.780000
305.121002	146.260000
305.214233	146.340000
305.307434	146.520000
305.400665	147.120000
305.493866	147.140000
305.587097	147.640000
305.680298	147.360000
305.773499	147.840000
305.866730	147.380000
305.959930	147.800000
306.053162	147.940000
306.146393	147.620000
306.239594	146.660000
306.332825	146.380000
306.426025	146.460000
306.519287	145.820000
306.612488	146.060000
306.705719	146.820000
306.798920	147.040000
306.892181	146.380000
306.985352	146.020000
307.078613	145.920000
307.171844	146.040000
307.265045	145.460000
307.358276	145.480000
307.451508	146.240000
307.544739	146.640000
307.637970	145.860000
307.731201	146.120000
307.824402	146.900000
307.917633	146.760000
308.010864	147.020000
308.104095	147.600000
308.197327	147.940000
308.290558	147.800000
308.383789	147.580000
308.477020	147.480000
308.570251	146.940000
308.663483	146.620000
308.756714	146.360000
308.849976	146.180000
308.943176	146.620000
309.036438	146.740000
309.129639	146.580000
309.222900	146.540000
309.316101	146.420000
309.409393	145.320000
309.502625	145.300000
309.595856	145.680000
309.689087	146.100000
309.782318	146.320000
309.875580	146.520000
309.968811	146.620000
310.062042	146.080000
310.155273	145.700000
310.248535	146.200000
310.341766	146.320000
310.434998	146.360000
310.528259	146.200000
310.621490	146.520000
310.714722	145.860000
310.807983	145.680000
310.901215	145.640000
310.994476	146.380000
311.087708	146.140000
311.181000	146.860000
311.274200	146.720000
311.367462	146.940000
311.460693	146.540000
311.553986	147.500000
311.647186	147.480000
311.740479	148.240000
311.833710	147.840000
311.926971	147.780000
312.020203	146.460000
312.113464	146.080000
312.206726	145.400000
312.299957	145.900000
312.393219	146.460000
312.486481	146.860000
312.579712	147.160000
312.672974	147.640000
312.766235	147.400000
312.859497	146.800000
312.952759	146.680000
313.045990	147.020000
313.139252	146.220000
313.232513	146.580000
313.325775	147.120000
313.419037	146.880000
313.512299	146.300000
313.605530	147.120000
313.698822	146.920000
313.792053	147.020000
313.885345	146.820000
313.978577	146.800000
314.071869	146.260000
314.165131	146.300000
314.258392	146.200000
314.351654	146.780000
314.444916	146.280000
314.538177	147.040000
314.631439	147.400000
314.724701	147.040000
314.817993	146.780000
314.911255	147.280000
315.004517	146.480000
315.097778	146.160000
315.191040	146.740000
315.284302	146.800000
315.377594	146.780000
315.470856	147.000000
315.564117	146.480000
315.657379	145.960000
315.750671	145.720000
315.843933	146.020000
315.937195	145.800000
316.030518	145.760000
316.123749	145.920000
316.217041	146.840000
316.310303	146.520000
316.403595	146.700000
316.496857	147.320000
316.590149	147.360000
316.683411	146.860000
316.776703	146.880000
316.869965	146.880000
316.963257	146.360000
317.056519	145.640000
317.149811	145.380000
317.243073	145.120000
317.336365	145.300000
317.429626	146.000000
317.522919	146.660000
317.616180	146.940000
317.709473	146.700000
317.802765	146.700000
317.896027	146.240000
317.989319	146.640000
318.082611	146.120000
318.175873	146.340000
318.269165	146.340000
318.362488	146.420000
318.455750	145.900000
318.549042	146.460000
318.642303	147.100000
318.735626	146.680000
318.828888	147.060000
318.922211	147.060000
319.015472	147.560000
319.108765	146.940000
319.202057	146.500000
319.295349	146.440000
319.388641	146.520000
319.481934	145.940000
319.575226	145.760000
319.668518	146.620000
319.761810	146.380000
319.855103	146.520000
319.948395	146.500000
320.041687	146.620000
320.134979	146.360000
320.228271	146.300000
320.321564	146.080000
320.414856	146.200000
320.508148	145.920000
320.601440	146.000000
320.694763	145.720000
320.788025	146.480000
320.881348	146.360000
320.974640	146.700000
321.067963	146.300000
321.161224	146.580000
321.254547	145.840000
321.347839	146.280000
321.441162	146.100000
321.534454	146.520000
321.627747	146.340000
321.721069	146.800000
321.814362	146.780000
321.907654	146.820000
322.000946	146.900000
322.094269	147.320000
322.187561	146.900000
322.280884	146.920000
322.374176	147.320000
322.467468	147.680000
322.560791	147.640000
322.654083	148.000000
322.747406	147.920000
322.840698	148.100000
322.934021	148.120000
323.027344	148.240000
323.120636	147.980000
323.213959	147.900000
323.307251	147.340000
323.400574	146.740000
323.493866	146.180000
323.587219	146.460000
323.680511	146.740000
323.773834	147.140000
323.867157	147.480000
323.960449	147.900000
324.053772	147.760000
324.147095	147.280000
324.240387	147.680000
324.333710	147.740000
324.427032	147.800000
324.520355	147.720000
324.613647	147.580000
324.706970	146.960000
324.800293	146.940000
324.893616	147.220000
324.986938	147.480000
325.080231	147.480000
325.173553	148.020000
325.266876	148.220000
325.360199	147.880000
325.453522	147.240000
325.546875	146.980000
325.640167	146.820000
325.733521	146.820000
325.826813	146.920000
325.920166	146.800000
326.013489	146.960000
326.106812	146.160000
326.200134	145.920000
326.293457	145.240000
326.386780	145.500000
326.480103	145.540000
326.573425	145.940000
326.666748	145.820000
326.760071	146.360000
326.853424	146.640000
326.946747	146.960000
327.040070	147.720000
327.133392	147.640000
327.226715	147.060000
327.320068	146.600000
327.413391	146.700000
327.506714	146.060000
327.600037	145.920000
327.693390	146.240000
327.786713	146.540000
327.880066	146.480000
327.973358	146.640000
328.066742	147.300000
328.160034	147.820000
328.253418	148.320000
328.346710	148.060000
328.440063	147.780000
328.533417	147.420000
328.626740	147.480000
328.720093	147.020000
328.813416	146.940000
328.906769	146.940000
329.000092	147.100000
329.093445	146.780000
329.186768	146.680000
329.280121	147.060000
329.373444	147.520000
329.466797	147.320000
329.560120	147.180000
329.653473	147.200000
329.746796	146.760000
329.840149	146.380000
329.933502	146.400000
330.026825	146.560000
330.120178	146.460000
330.213562	146.440000
330.306854	146.580000
330.400238	146.520000
330.493561	146.140000
330.586945	147.020000
330.680237	147.460000
330.773621	147.260000
330.866974	147.240000
330.960327	147.620000
331.053680	146.840000
331.147003	147.000000
331.240356	147.340000
331.333710	147.600000
331.427063	147.420000
331.520416	147.160000
331.613770	146.960000
331.707123	147.120000
331.800476	147.200000
331.893829	147.920000
331.987152	148.320000
332.080505	148.060000
332.173859	147.600000
332.267212	146.760000
332.360565	146.120000
332.453918	145.900000
332.547333	145.900000
332.640656	145.940000
332.734039	146.360000
332.827362	146.520000
332.920746	147.060000
333.014069	147.280000
333.107452	147.680000
333.200806	147.860000
333.294159	147.700000
333.387543	146.980000
333.480896	146.580000
333.574249	146.240000
333.667603	145.920000
333.760956	146.240000
333.854340	146.560000
333.947693	146.800000
334.041046	146.920000
334.134430	147.240000
334.227783	146.680000
334.321136	146.540000
334.414520	146.160000
334.507874	146.520000
334.601227	146.220000
334.694611	146.160000
334.787964	146.080000
334.881348	146.540000
334.974701	146.020000
335.068085	145.940000
335.161438	146.520000
335.254822	146.500000
335.348175	146.320000
335.441559	146.240000
335.534943	147.200000
335.628296	146.760000
335.721680	146.760000
335.815033	147.180000
335.908417	147.300000
336.001770	146.900000
336.095154	146.760000
336.188538	146.500000
336.281891	145.920000
336.375275	145.800000
336.468658	145.460000
336.562012	145.680000
336.655396	146.100000
336.748779	146.660000
336.842133	146.800000
336.935516	146.920000
337.028900	146.600000
337.122284	146.500000
337.215637	146.380000
337.309021	146.320000
337.402435	146.040000
337.495789	146.200000
337.589203	146.120000
337.682526	145.760000
337.775940	146.120000
337.869324	146.520000
337.962708	146.200000
338.056091	146.580000
338.149475	146.620000
338.242859	146.280000
338.336243	146.300000
338.429626	146.800000
338.523010	146.940000
338.616394	146.900000
338.709778	147.220000
338.803162	146.960000
338.896545	147.120000
338.989929	146.460000
339.083313	146.340000
339.176697	145.800000
339.270081	146.040000
339.363464	146.080000
339.456848	146.800000
339.550232	146.360000
339.643616	146.300000
339.737030	146.260000
339.830383	145.980000
339.923828	145.600000
340.017181	146.080000
340.110596	146.100000
340.203949	145.860000
340.297363	145.600000
340.390778	145.780000
340.484161	145.840000
340.577545	146.040000
340.670959	146.180000
340.764343	146.440000
340.857727	146.520000
340.951111	145.840000
341.044525	145.900000
341.137909	145.720000
341.231293	145.280000
341.324707	144.520000
341.418091	145.860000
341.511505	146.060000
341.604889	146.280000
341.698303	146.940000
341.791687	147.260000
341.885071	146.500000
341.978485	145.960000
342.071899	146.180000
342.165283	146.300000
342.258698	146.700000
342.352081	147.320000
342.445496	148.080000
342.538879	148.000000
342.632324	147.400000
342.725708	147.300000
342.819122	146.560000
342.912506	146.200000
343.005920	145.880000
343.099335	147.020000
343.192719	146.960000
343.286133	147.260000
343.379547	147.320000
343.472931	147.460000
343.566345	146.540000
343.659760	146.600000
343.753143	146.340000
343.846558	146.140000
343.939972	146.340000
344.033386	146.740000
344.126770	146.320000
344.220184	146.600000
344.313599	147.240000
344.407043	147.080000
344.500427	146.700000
344.593872	147.760000
344.687225	147.380000
344.780670	146.600000
344.874054	146.400000
344.967499	146.800000
345.060913	146.200000
345.154327	146.300000
345.247742	146.260000
345.341156	146.300000
345.434570	145.780000
345.527985	145.460000
345.621399	145.520000
345.714813	145.640000
345.808228	145.800000
345.901642	145.560000
345.995056	145.500000
346.088470	145.780000
346.181885	145.840000
346.275299	145.680000
346.368713	145.960000
346.462128	145.880000
346.555573	145.980000
346.648987	146.240000
346.742401	146.100000
346.835815	146.660000
346.929260	146.200000
347.022644	146.040000
347.116119	146.200000
347.209503	146.660000
347.302948	147.100000
347.396362	148.040000
347.489807	147.940000
347.583221	148.160000
347.676636	147.640000
347.770050	146.440000
347.863495	146.160000
347.956909	146.080000
348.050323	145.460000
348.143768	145.580000
348.237183	145.640000
348.330597	145.940000
348.424042	146.340000
348.517456	146.780000
348.610901	146.920000
348.704315	147.180000
348.797760	146.700000
348.891174	146.100000
348.984619	145.560000
349.078033	145.980000
349.171448	146.340000
349.264923	146.440000
349.358337	146.360000
349.451782	146.320000
349.545197	145.800000
349.638641	145.160000
349.732086	144.760000
349.825500	145.500000
349.918945	145.240000
350.012390	145.480000
350.105804	146.020000
350.199249	146.640000
350.292664	147.020000
350.386108	147.180000
350.479553	147.620000
350.572968	147.440000
350.666412	147.340000
350.759857	146.860000
350.853302	147.260000
350.946716	146.680000
351.040161	146.580000
351.133606	146.480000
351.227081	146.280000
351.320465	147.080000
351.413940	147.220000
351.507355	147.580000
351.600830	147.740000
351.694244	147.340000
351.787720	146.680000
351.881104	146.480000
351.974579	146.080000
352.067993	146.980000
352.161469	147.380000
352.254883	146.780000
352.348358	146.840000
352.441803	147.100000
352.535248	146.220000
352.628693	146.620000
352.722137	146.680000
352.815582	146.980000
352.909027	147.180000
353.002472	147.040000
353.095917	146.780000
353.189362	147.200000
353.282806	147.060000
353.376251	146.760000
353.469696	146.440000
353.563141	146.720000
353.656586	146.460000
353.750061	145.960000
353.843475	145.800000
353.936981	146.680000
354.030396	146.040000
354.123871	146.140000
354.217285	147.000000
354.310760	147.180000
354.404175	146.480000
354.497681	146.240000
354.591095	146.640000
354.684570	145.920000
354.777985	145.660000
354.871490	145.960000
354.964935	146.900000
355.058380	146.580000
355.151855	146.340000
355.245300	146.500000
355.338745	146.660000
355.432220	146.240000
355.525665	145.800000
355.619110	146.280000
355.712585	146.340000
355.806030	146.180000
355.899475	146.000000
355.992950	146.760000
356.086426	147.180000
356.179871	147.260000
356.273346	147.220000
356.366791	147.400000
356.460266	147.420000
356.553711	146.760000
356.647186	146.880000
356.740631	146.840000
356.834106	146.740000
356.927551	146.540000
357.021027	146.860000
357.114471	146.820000
357.207947	146.940000
357.301422	147.140000
357.394867	146.820000
357.488342	147.060000
357.581818	147.020000
357.675262	147.300000
357.768738	146.980000
357.862213	146.760000
357.955658	146.280000
358.049133	146.000000
358.142609	145.920000
358.236053	146.000000
358.329529	146.300000
358.423035	146.760000
358.516449	146.520000
358.609955	146.780000
358.703400	147.540000
358.796906	147.700000
358.890350	147.160000
358.983826	147.760000
359.077271	147.080000
359.170776	146.580000
359.264221	146.420000
359.357727	146.620000
359.451172	146.800000
359.544647	146.960000
359.638123	146.760000
359.731598	147.000000
359.825073	147.140000
359.918549	146.940000
360.012024	146.800000
360.105499	146.260000
360.198975	146.220000
360.292450	146.200000
360.385925	145.700000
360.479401	145.420000
360.572876	145.900000
360.666351	146.020000
360.759857	145.880000
360.853302	146.400000
360.946808	146.380000
361.040253	146.620000
361.133759	146.120000
361.227203	146.480000
361.320709	146.080000
361.414154	146.740000
361.507660	146.820000
361.601105	147.600000
361.694641	147.680000
361.788086	147.740000
361.881592	147.840000
361.975067	147.680000
362.068542	147.600000
362.162018	147.340000
362.255524	147.140000
362.348999	146.880000
362.442474	146.800000
362.535950	145.980000
362.629456	145.700000
362.722931	145.740000
362.816406	146.160000
362.909882	146.300000
363.003387	146.360000
363.096863	146.740000
363.190338	146.840000
363.283875	146.400000
363.377319	146.400000
363.470825	146.900000
363.564301	146.440000
363.657806	146.540000
363.751282	146.300000
363.844788	147.080000
363.938232	146.600000
364.031769	147.500000
364.125214	147.840000
364.218750	148.480000
364.312225	147.240000
364.405731	147.880000
364.499207	147.320000
364.592712	146.920000
364.686188	146.620000
364.779694	146.960000
364.873169	146.540000
364.966675	146.180000
365.060150	146.320000
365.153656	146.460000
365.247131	146.240000
365.340637	146.400000
365.434143	146.840000
365.527618	146.900000
365.621155	146.360000
365.714600	146.440000
365.808136	146.760000
365.901611	146.000000
365.995117	145.700000
366.088593	145.560000
366.182129	145.500000
366.275604	145.120000
366.369110	145.620000
366.462585	145.320000
366.556122	146.240000
366.649567	146.300000
366.743103	146.600000
366.836609	146.580000
366.930115	147.280000
367.023590	147.240000
367.117096	147.260000
367.210602	146.780000
367.304108	147.320000
367.397614	147.560000
367.491119	147.480000
367.584595	147.620000
367.678101	148.220000
367.771606	147.640000
367.865112	147.000000
367.958649	146.160000
368.052124	145.920000
368.145660	145.520000
368.239136	146.100000
368.332672	146.340000
368.426147	146.580000
368.519684	146.560000
368.613159	146.880000
368.706696	146.100000
368.800171	145.960000
368.893707	146.040000
368.987183	146.320000
369.080719	146.380000
369.174225	146.760000
369.267731	147.020000
369.361237	147.000000
369.454742	147.000000
369.548248	147.040000
369.641754	146.620000
369.735260	146.440000
369.828766	145.960000
369.922272	146.260000
370.015808	146.080000
370.109314	146.060000
370.202820	145.820000
370.296356	147.100000
370.389832	146.840000
370.483368	146.300000
370.576874	146.160000
370.670410	146.660000
370.763885	145.500000
370.857422	145.600000
370.950928	145.660000
371.044464	146.820000
371.137939	146.820000
371.231476	147.140000
371.324982	147.540000
371.418518	147.880000
371.512024	147.260000
371.605560	146.880000
371.699066	147.240000
371.792572	146.740000
371.886108	147.240000
371.979614	147.140000
372.073120	147.760000
372.166656	147.560000
372.260162	147.520000
372.353668	147.140000
372.447205	147.020000
372.540710	146.680000
372.634277	146.480000
372.727753	146.700000
372.821320	146.800000
372.914795	146.880000
373.008362	146.760000
373.101837	147.140000
373.195404	146.820000
373.288879	146.300000
373.382446	147.000000
373.475922	146.740000
373.569489	147.140000
373.662964	147.820000
373.756531	148.240000
373.850037	147.960000
373.943573	148.220000
374.037109	147.400000
374.130615	147.160000
374.224152	147.160000
374.317657	146.920000
374.411194	147.240000
374.504730	147.160000
374.598236	146.780000
374.691772	146.180000
374.785309	146.280000
374.878815	145.660000
374.972351	146.140000
375.065887	146.260000
375.159454	147.260000
375.252930	147.120000
375.346497	147.720000
375.440002	148.320000
375.533569	148.180000
375.627045	147.400000
375.720612	147.640000
375.814117	147.840000
375.907684	147.120000
376.001160	147.060000
376.094727	146.760000
376.188232	147.000000
376.281799	146.740000
376.375336	146.740000
376.468872	147.340000
376.562408	147.740000
376.655914	147.400000
376.749451	147.260000
376.842987	147.460000
376.936523	146.880000
377.030060	146.900000
377.123596	146.940000
377.217133	146.620000
377.310669	146.580000
377.404205	146.900000
377.497772	147.360000
377.591278	147.240000
377.684845	148.140000
377.778351	148.340000
377.871918	148.340000
377.965424	147.460000
378.058990	147.500000
378.152496	147.000000
378.246063	147.000000
378.339569	147.180000
378.433136	147.380000
378.526642	147.420000
378.620209	147.280000
378.713745	146.820000
378.807312	147.000000
378.900848	147.080000
378.994385	147.240000
379.087921	146.860000
379.181458	147.380000
379.274994	146.700000
379.368530	146.540000
379.462097	146.780000
379.555634	147.240000
379.649170	146.540000
379.742706	146.400000
379.836273	146.640000
379.929810	146.100000
380.023376	145.700000
380.116882	145.900000
380.210449	146.240000
380.303986	145.740000
380.397552	145.620000
380.491058	146.180000
380.584656	146.020000
380.678162	146.300000
380.771729	146.660000
380.865265	147.460000
380.958832	147.220000
381.052368	147.620000
381.145935	147.580000
381.239471	148.060000
381.333008	147.840000
381.426575	147.840000
381.520111	147.940000
381.613647	148.000000
381.707214	147.600000
381.800751	146.840000
381.894318	146.960000
381.987854	146.560000
382.081421	146.320000
382.174988	146.500000
382.268524	146.460000
382.362091	146.540000
382.455627	147.300000
382.549194	147.000000
382.642731	146.620000
382.736298	146.600000
382.829834	146.160000
382.923401	146.260000
383.016937	146.400000
383.110504	146.640000
383.204041	147.200000
383.297607	147.920000
383.391174	146.840000
383.484741	147.820000
383.578278	147.440000
383.671844	146.780000
383.765411	146.000000
383.858948	146.860000
383.952515	146.240000
384.046051	147.240000
384.139618	147.720000
384.233185	147.800000
384.326721	147.440000
384.420288	147.880000
384.513855	147.340000
384.607422	147.700000
384.700989	148.100000
384.794525	147.640000
384.888123	147.060000
384.981659	147.460000
385.075226	146.680000
385.168762	146.300000
385.262360	146.100000
385.355896	145.580000
385.449463	145.080000
385.542999	145.680000
385.636597	146.500000
385.730164	147.140000
385.823730	147.140000
385.917267	147.100000
386.010834	147.140000
386.104401	146.820000
386.197968	146.880000
386.291534	147.240000
386.385101	147.240000
386.478668	147.420000
386.572235	147.360000
386.665802	147.260000
386.759338	146.640000
386.852905	146.480000
386.946472	145.960000
387.040070	146.020000
387.133606	145.780000
387.227203	146.240000
387.320740	146.600000
387.414337	146.540000
387.507874	146.120000
387.601471	146.200000
387.695007	146.000000
387.788605	145.840000
387.882141	146.160000
387.975739	146.600000
388.069275	146.400000
388.162872	146.600000
388.256439	146.380000
388.350037	146.060000
388.443604	145.600000
388.537170	145.600000
388.630737	146.100000
388.724304	146.400000
388.817871	146.240000
388.911438	146.560000
389.005005	146.980000
389.098602	147.120000
389.192169	146.780000
389.285736	147.440000
389.379333	147.300000
389.472870	146.800000
389.566467	146.520000
389.660034	146.820000
389.753632	146.340000
389.847168	146.620000
389.940765	146.880000
390.034332	146.760000
390.127930	146.260000
390.221466	146.140000
390.315063	145.540000
390.408630	145.040000
390.502228	144.440000
390.595795	144.980000
390.689362	145.240000
390.782959	145.900000
390.876526	146.820000
390.970093	146.940000
391.063690	147.160000
391.157257	147.120000
391.250824	146.920000
391.344421	146.560000
391.437988	147.080000
391.531555	147.100000
391.625153	147.540000
391.718750	147.880000
391.812317	147.720000
391.905914	147.240000
391.999481	147.160000
392.093079	146.820000
392.186615	146.940000
392.280243	147.120000
392.373779	147.320000
392.467407	147.880000
392.560944	147.700000
392.654572	147.100000
392.748108	147.020000
392.841736	147.540000
392.935303	146.680000
393.028900	146.700000
393.122467	146.820000
393.216064	146.660000
393.309631	145.900000
393.403229	145.720000
393.496796	145.640000
393.590393	145.140000
393.683990	145.580000
393.777557	146.160000
393.871155	146.600000
393.964722	147.140000
394.058350	147.740000
394.151917	147.640000
394.245514	147.300000
394.339081	147.620000
394.432678	147.720000
394.526245	147.660000
394.619873	147.100000
394.713409	147.240000
394.807037	146.780000
394.900604	146.580000
394.994202	146.680000
395.087769	147.040000
395.181396	146.620000
395.274994	147.520000
395.368561	146.880000
395.462158	146.980000
395.555756	146.740000
395.649353	147.460000
395.742920	146.280000
395.836517	147.100000
395.930115	146.160000
396.023712	146.560000
396.117279	146.720000
396.210876	146.600000
396.304474	146.300000
396.398071	147.020000
396.491669	147.100000
396.585266	146.520000
396.678833	146.680000
396.772461	146.980000
396.866028	146.720000
396.959656	147.020000
397.053223	147.420000
397.146851	147.620000
397.240417	147.820000
397.334015	148.860000
397.427582	148.740000
397.521210	149.520000
397.614807	151.000000
397.708405	152.160000
397.802002	153.900000
397.895599	157.160000
397.989197	160.660000
398.082794	164.900000
398.176392	170.900000
398.269989	177.660000
398.363586	185.860000
398.457184	195.960000
398.550781	207.140000
398.644379	218.160000
398.737976	230.560000
398.831573	244.260000
398.925201	257.540000
399.018768	271.760000
399.112396	286.660000
399.205963	302.220000
399.299591	317.780000
399.393158	335.220000
399.486786	353.880000
399.580353	373.300000
399.673981	392.160000
399.767578	410.260000
399.861206	427.340000
399.954773	440.600000
400.048401	449.360000
400.141998	453.520000
400.235596	454.340000
400.329193	449.240000
400.422791	442.200000
400.516418	434.100000
400.610016	425.620000
400.703613	416.720000
400.797211	405.720000
400.890808	394.120000
400.984436	381.500000
401.078033	366.300000
401.171631	347.760000
401.265259	329.120000
401.358826	308.760000
401.452484	286.800000
401.546051	266.180000
401.639679	246.440000
401.733246	229.160000
401.826904	213.380000
401.920471	199.820000
402.014099	188.520000
402.107697	179.320000
402.201324	171.400000
402.294891	165.580000
402.388550	161.500000
402.482147	157.920000
402.575745	154.980000
402.669373	152.600000
402.762970	151.040000
402.856567	149.800000
402.950195	149.200000
403.043793	148.620000
403.137390	149.160000
403.231018	148.200000
403.324615	148.440000
403.418243	147.580000
403.511841	148.040000
403.605469	147.300000
403.699066	147.560000
403.792694	147.280000
403.886292	147.480000
403.979919	147.140000
404.073517	147.220000
404.167145	147.320000
404.260712	147.340000
404.354370	147.420000
404.447937	147.660000
404.541595	147.560000
404.635162	147.680000
404.728821	147.860000
404.822418	147.580000
404.916046	147.320000
405.009644	147.920000
405.103271	148.040000
405.196899	147.560000
405.290497	147.600000
405.384125	147.920000
405.477722	147.140000
405.571350	146.460000
405.664948	146.780000
405.758575	146.860000
405.852203	146.220000
405.945801	146.540000
406.039429	146.680000
406.133057	146.520000
406.226654	146.380000
406.320312	146.460000
406.413879	146.680000
406.507538	147.080000
406.601135	146.740000
406.694763	147.360000
406.788361	147.460000
406.882019	147.020000
406.975586	147.040000
407.069244	147.540000
407.162872	147.520000
407.256470	147.260000
407.350098	147.340000
407.443726	146.960000
407.537323	146.620000
407.630951	146.540000
407.724579	146.580000
407.818207	146.860000
407.911804	146.860000
408.005432	146.620000
408.099060	146.780000
408.192688	147.180000
408.286285	146.780000
408.379913	146.760000
408.473572	147.160000
408.567169	146.280000
408.660828	145.880000
408.754395	145.900000
408.848053	146.060000
408.941650	146.200000
409.035309	145.960000
409.128906	146.040000
409.222565	146.060000
409.316132	146.260000
409.409790	145.820000
409.503387	146.180000
409.597046	146.240000
409.690674	146.540000
409.784302	146.500000
409.877930	146.400000
409.971558	146.720000
410.065186	146.660000
410.158783	146.320000
410.252411	146.140000
410.346039	146.520000
410.439667	146.340000
410.533295	146.720000
410.626923	147.220000
410.720551	146.840000
410.814209	146.860000
410.907806	147.060000
411.001465	146.380000
411.095062	145.980000
411.188721	146.560000
411.282318	146.400000
411.375977	145.920000
411.469574	146.200000
411.563232	146.000000
411.656830	145.460000
411.750488	145.480000
411.844086	145.620000
411.937744	145.760000
412.031372	145.820000
412.125000	145.900000
412.218628	145.860000
412.312256	146.620000
412.405884	147.060000
412.499512	147.080000
412.593170	147.380000
412.686798	147.680000
412.780426	146.920000
412.874054	146.780000
412.967682	147.080000
413.061310	147.720000
413.154968	147.580000
413.248566	147.940000
413.342224	147.880000
413.435852	147.560000
413.529510	146.860000
413.623108	146.600000
413.716766	146.520000
413.810364	146.720000
413.904022	146.660000
413.997650	146.420000
414.091309	146.980000
414.184906	146.680000
414.278564	146.240000
414.372192	146.600000
414.465851	146.940000
414.559479	146.380000
414.653107	147.040000
414.746735	146.980000
414.840393	146.600000
414.934021	146.780000
415.027649	146.740000
415.121277	146.660000
415.214935	147.240000
415.308563	147.500000
415.402191	146.780000
415.495850	146.880000
415.589478	146.400000
415.683136	145.700000
415.776733	145.920000
415.870422	146.660000
415.964020	146.260000
416.057678	146.260000
416.151306	146.160000
416.244965	145.960000
416.338562	145.780000
416.432251	146.580000
416.525848	147.400000
416.619507	148.140000
416.713165	148.440000
416.806793	148.260000
416.900421	148.120000
416.994080	147.320000
417.087708	147.100000
417.181366	146.460000
417.274994	146.580000
417.368622	146.800000
417.462280	147.520000
417.555908	147.600000
417.649567	147.820000
417.743195	148.000000
417.836853	147.880000
417.930481	147.680000
418.024170	147.660000
418.117767	148.340000
418.211426	148.440000
418.305054	148.520000
418.398712	148.080000
418.492340	147.920000
418.585999	148.020000
418.679626	147.940000
418.773285	147.920000
418.866913	148.360000
418.960571	148.440000
419.054230	148.140000
419.147858	148.080000
419.241516	148.140000
419.335144	147.640000
419.428802	147.480000
419.522461	147.200000
419.616089	146.980000
419.709747	146.960000
419.803375	147.160000
419.897034	147.020000
419.990662	147.100000
420.084320	147.720000
420.177979	147.740000
420.271606	148.280000
420.365295	148.820000
420.458893	148.780000
420.552582	148.580000
420.646210	148.500000
420.739868	147.860000
420.833496	147.420000
420.927155	147.140000
421.020782	146.840000
421.114471	146.340000
421.208069	146.480000
421.301758	146.660000
421.395386	147.340000
421.489044	147.300000
421.582703	147.460000
421.676361	147.940000
421.769989	147.700000
421.863647	147.360000
421.957306	147.300000
422.050934	147.800000
422.144592	147.360000
422.238251	147.280000
422.331909	147.260000
422.425537	147.500000
422.519196	147.160000
422.612854	146.740000
422.706543	146.360000
422.800140	146.720000
422.893829	146.360000
422.987457	145.920000
423.081146	146.600000
423.174744	147.700000
423.268433	146.960000
423.362061	146.940000
423.455750	147.200000
423.549347	147.020000
423.643036	146.320000
423.736664	147.100000
423.830353	147.140000
423.924011	147.680000
424.017639	147.100000
424.111298	147.040000
424.204956	146.640000
424.298615	146.620000
424.392273	145.960000
424.485931	146.500000
424.579559	146.860000
424.673218	146.660000
424.766876	146.960000
424.860535	146.860000
424.954193	146.500000
425.047882	146.860000
425.141510	146.960000
425.235199	146.600000
425.328796	146.840000
425.422485	146.860000
425.516113	146.080000
425.609802	146.060000
425.703430	146.320000
425.797119	145.940000
425.890747	146.220000
425.984436	146.560000
426.078064	146.480000
426.171753	146.680000
426.265411	146.860000
426.359070	146.980000
426.452728	146.680000
426.546356	146.740000
426.640015	146.380000
426.733673	146.460000
426.827332	146.160000
426.920990	146.900000
427.014648	146.460000
427.108307	146.880000
427.201965	147.280000
427.295624	147.600000
427.389282	147.040000
427.482941	147.520000
427.576630	147.380000
427.670258	146.960000
427.763947	146.520000
427.857574	146.580000
427.951263	146.520000
428.044922	146.100000
428.138611	146.500000
428.232239	147.040000
428.325928	147.340000
428.419556	148.000000
428.513245	147.980000
428.606903	147.740000
428.700562	147.260000
428.794220	146.700000
428.887878	145.900000
428.981537	146.540000
429.075195	146.560000
429.168854	146.680000
429.262512	146.800000
429.356201	146.980000
429.449860	146.420000
429.543518	146.440000
429.637177	146.820000
429.730835	146.880000
429.824493	146.960000
429.918182	147.400000
430.011810	146.980000
430.105530	146.420000
430.199158	146.560000
430.292847	146.520000
430.386475	145.900000
430.480164	146.180000
430.573792	145.940000
430.667511	145.640000
430.761139	145.500000
430.854828	146.520000
430.948456	146.480000
431.042145	147.120000
431.135834	147.060000
431.229492	147.420000
431.323151	147.080000
431.416809	147.220000
431.510468	147.260000
431.604156	147.380000
431.697815	147.100000
431.791473	146.700000
431.885132	146.220000
431.978821	146.200000
432.072479	146.240000
432.166138	146.500000
432.259827	146.220000
432.353485	146.840000
432.447174	146.900000
432.540802	146.960000
432.634491	147.000000
432.728149	147.620000
432.821838	147.900000
432.915466	147.600000
433.009186	147.480000
433.102814	146.940000
433.196503	146.480000
433.290131	146.340000
433.383850	146.560000
433.477509	146.620000
433.571167	147.520000
433.664856	148.020000
433.758514	148.100000
433.852173	148.080000
433.945862	147.960000
434.039520	147.740000
434.133179	147.080000
434.226868	146.600000
434.320526	146.020000
434.414185	146.820000
434.507874	146.160000
434.601562	146.480000
434.695221	146.420000
434.788910	146.860000
434.882538	146.520000
434.976257	146.360000
435.069885	146.540000
435.163574	146.680000
435.257233	146.440000
435.350922	146.200000
435.444580	146.200000
435.538269	145.600000
435.631897	146.080000
435.725616	146.680000
435.819275	146.900000
435.912964	147.740000
436.006622	148.660000
436.100311	147.980000
436.193970	146.900000
436.287628	146.660000
436.381317	146.120000
436.474976	145.360000
436.568665	145.460000
436.662323	145.960000
436.756012	146.160000
436.849670	146.180000
436.943390	146.240000
437.037018	146.280000
437.130737	146.460000
437.224365	146.120000
437.318085	146.120000
437.411713	146.420000
437.505432	146.820000
437.599060	147.340000
437.692780	148.260000
437.786407	148.560000
437.880127	148.280000
437.973755	147.640000
438.067474	146.820000
438.161133	146.100000
438.254822	146.340000
438.348480	146.320000
438.442169	147.080000
438.535828	147.540000
438.629517	146.980000
438.723175	146.220000
438.816864	146.740000
438.910553	146.320000
439.004211	145.980000
439.097900	146.120000
439.191559	146.460000
439.285248	146.000000
439.378906	146.520000
439.472626	146.620000
439.566284	146.680000
439.659973	146.620000
439.753632	146.520000
439.847321	146.400000
439.940979	146.680000
440.034698	146.980000
440.128326	147.120000
440.222046	147.000000
440.315674	146.320000
440.409393	146.120000
440.503082	145.920000
440.596741	145.820000
440.690430	146.080000
440.784088	146.000000
440.877777	145.580000
440.971466	145.620000
441.065125	145.280000
441.158813	144.860000
441.252502	145.020000
441.346161	145.380000
441.439850	145.740000
441.533539	145.700000
441.627197	146.220000
441.720886	146.500000
441.814606	147.000000
441.908234	147.060000
442.001953	147.300000
442.095612	147.240000
442.189301	147.200000
442.282959	146.820000
442.376678	146.320000
442.470306	146.980000
442.564026	146.900000
442.657684	147.020000
442.751404	147.060000
442.845032	147.660000
442.938751	146.740000
443.032440	147.020000
443.126099	146.540000
443.219788	146.900000
443.313477	146.680000
443.407166	147.180000
443.500824	146.940000
443.594513	147.400000
443.688202	146.940000
443.781891	146.420000
443.875549	146.300000
443.969238	146.100000
444.062927	145.660000
444.156647	145.820000
444.250275	146.380000
444.343994	146.240000
444.437653	146.840000
444.531372	147.260000
444.625031	146.740000
444.718719	146.340000
444.812378	146.400000
444.906097	146.140000
444.999756	145.880000
445.093445	146.340000
445.187103	146.440000
445.280823	147.000000
445.374512	146.600000
445.468201	146.560000
445.561859	146.460000
445.655548	146.920000
445.749237	146.120000
445.842926	146.280000
445.936615	146.940000
446.030304	146.520000
446.123962	146.240000
446.217651	146.280000
446.311340	146.660000
446.405029	145.960000
446.498749	145.960000
446.592407	145.780000
446.686096	146.240000
446.779755	146.040000
446.873474	146.560000
446.967133	147.260000
447.060852	147.220000
447.154510	147.060000
447.248230	147.100000
447.341858	146.700000
447.435577	146.140000
447.529236	145.900000
447.622955	145.660000
447.716644	145.720000
447.810333	146.000000
447.904022	146.580000
447.997711	147.040000
448.091400	147.600000
448.185059	147.460000
448.278748	147.600000
448.372437	147.000000
448.466125	147.240000
448.559814	146.740000
448.653503	147.300000
448.747192	147.340000
448.840912	147.840000
448.934570	147.440000
449.028290	147.860000
449.121948	147.100000
449.215637	146.700000
449.309296	146.280000
449.403015	146.560000
449.496674	146.300000
449.590393	146.360000
449.684052	146.120000
449.777771	146.920000
449.871429	146.020000
449.965149	145.880000
450.058838	146.260000
450.152527	146.880000
450.246216	146.240000
450.339905	146.620000
450.433594	146.400000
450.527283	146.600000
450.620972	146.020000
450.714661	146.160000
450.808350	146.600000
450.902039	147.180000
450.995728	146.760000
451.089417	146.480000
451.183105	146.480000
451.276794	146.420000
451.370514	145.560000
451.464172	145.120000
451.557892	145.460000
451.651550	145.660000
451.745270	145.220000
451.838928	145.320000
451.932648	145.840000
452.026306	146.480000
452.120026	145.980000
452.213684	146.300000
452.307404	146.480000
452.401062	146.440000
452.494781	146.360000
452.588470	146.500000
452.682159	146.300000
452.775848	146.200000
452.869537	145.840000
452.963226	145.380000
453.056915	145.140000
453.150604	145.120000
453.244293	145.600000
453.337982	146.580000
453.431671	146.940000
453.525360	147.500000
453.619049	147.520000
453.712769	147.180000
453.806427	146.080000
453.900146	145.520000
453.993805	145.440000
454.087555	146.100000
454.181213	146.700000
454.274933	147.040000
454.368591	147.000000
454.462311	146.840000
454.555969	146.060000
454.649689	146.340000
454.743347	146.120000
454.837067	147.200000
454.930756	147.620000
455.024445	148.040000
455.118134	147.600000
455.211853	148.060000
455.305542	147.300000
455.399231	147.280000
455.492920	147.080000
455.586609	147.260000
455.680298	147.440000
455.773987	147.120000
455.867676	146.800000
455.961365	146.980000
456.055084	146.580000
456.148773	146.200000
456.242493	146.500000
456.336151	146.520000
456.429871	146.880000
456.523529	147.160000
456.617249	146.940000
456.710907	147.440000
456.804626	147.260000
456.898315	146.720000
456.992035	146.340000
457.085693	146.520000
457.179413	145.560000
457.273102	146.340000
457.366791	146.380000
457.460480	146.960000
457.554199	147.600000
457.647888	147.820000
457.741577	147.020000
457.835266	147.200000
457.928955	147.300000
458.022644	147.320000
458.116364	147.800000
458.210052	148.160000
458.303741	148.260000
458.397461	147.600000
458.491119	146.760000
458.584839	146.740000
458.678528	146.220000
458.772247	145.860000
458.865906	146.120000
458.959625	146.880000
459.053284	147.020000
459.147003	147.100000
459.240692	147.900000
459.334412	147.640000
459.428070	146.980000
459.521790	146.500000
459.615479	146.620000
459.709198	146.740000
459.802887	146.620000
459.896576	146.680000
459.990265	146.980000
460.083954	147.280000
460.177673	146.480000
460.271362	146.720000
460.365051	146.840000
460.458740	146.680000
460.552429	145.920000
460.646149	145.800000
460.739838	145.660000
460.833527	145.500000
460.927246	145.100000
461.020905	145.560000
461.114655	145.820000
461.208313	146.240000
461.302032	145.920000
461.395691	146.300000
461.489441	146.140000
461.583099	146.020000
461.676819	145.440000
461.770477	146.240000
461.864197	145.860000
461.957916	146.000000
462.051605	145.600000
462.145294	146.780000
462.238983	146.160000
462.332703	146.860000
462.426392	147.420000
462.520081	147.660000
462.613770	146.840000
462.707489	147.060000
462.801178	146.840000
462.894867	146.360000
462.988556	146.520000
463.082275	146.580000
463.175964	145.940000
463.269684	145.960000
463.363342	145.700000
463.457092	145.120000
463.550751	145.380000
463.644470	146.080000
463.738129	146.060000
463.831879	146.620000
463.925537	147.600000
464.019257	147.540000
464.112946	147.400000
464.206665	147.080000
464.300323	146.600000
464.394043	146.180000
464.487762	145.900000
464.581451	145.980000
464.675140	146.160000
464.768829	146.660000
464.862549	146.560000
464.956238	146.780000
465.049927	147.020000
465.143646	147.220000
465.237335	147.060000
465.331024	147.580000
465.424713	147.460000
465.518433	147.460000
465.612152	147.020000
465.705811	146.900000
465.799561	146.620000
465.893219	146.500000
465.986938	146.300000
466.080597	146.360000
466.174347	146.440000
466.268005	146.320000
466.361725	146.500000
466.455414	146.860000
466.549133	146.800000
466.642792	147.000000
466.736542	146.740000
466.830231	146.960000
466.923920	146.280000
467.017609	146.280000
467.111328	145.700000
467.205017	145.740000
467.298706	145.280000
467.392426	145.840000
467.486115	146.260000
467.579803	146.420000
467.673523	147.080000
467.767212	147.180000
467.860901	147.080000
467.954651	147.140000
468.048309	147.400000
468.142029	146.980000
468.235718	147.240000
468.329437	146.880000
468.423096	146.880000
468.516846	146.460000
468.610504	146.260000
468.704224	145.860000
468.797913	146.020000
468.891632	146.080000
468.985291	146.180000
469.079010	146.320000
469.172729	146.180000
469.266418	146.620000
469.360107	146.540000
469.453827	146.780000
469.547516	146.960000
469.641205	147.380000
469.734924	147.300000
469.828613	147.520000
469.922302	147.660000
470.016022	147.460000
470.109711	147.180000
470.203430	146.520000
470.297150	145.860000
470.390808	146.060000
470.484558	145.900000
470.578217	146.300000
470.671936	147.100000
470.765625	147.660000
470.859344	146.960000
470.953003	147.460000
471.046753	147.060000
471.140411	146.140000
471.234131	146.180000
471.327820	146.480000
471.421539	146.380000
471.515228	146.180000
471.608948	146.620000
471.702637	146.060000
471.796326	145.940000
471.890045	146.040000
471.983734	146.520000
472.077423	146.140000
472.171143	146.420000
472.264832	146.520000
472.358521	146.520000
472.452240	145.960000
472.545929	146.780000
472.639648	147.060000
472.733337	147.340000
472.827057	147.200000
472.920746	147.360000
473.014465	147.460000
473.108124	147.260000
473.201874	147.060000
473.295532	146.780000
473.389252	147.420000
473.482941	147.420000
473.576660	146.960000
473.670319	147.060000
473.764069	147.380000
473.857727	147.260000
473.951477	147.240000
474.045166	148.300000
474.138855	148.000000
474.232574	147.800000
474.326263	147.920000
474.419952	147.920000
474.513672	147.500000
474.607361	147.620000
474.701050	148.020000
474.794769	147.920000
474.888458	148.300000
474.982178	148.080000
475.075867	148.180000
475.169586	147.740000
475.263275	147.540000
475.356995	147.080000
475.450653	146.900000
475.544403	146.500000
475.638062	147.340000
475.731812	146.780000
475.825470	146.460000
475.919189	146.820000
476.012878	147.300000
476.106598	146.360000
476.200256	146.900000
476.294006	146.800000
476.387695	146.660000
476.481384	146.500000
476.575104	146.640000
476.668793	146.100000
476.762512	145.920000
476.856201	146.100000
476.949890	145.940000
477.043610	145.500000
477.137299	146.040000
477.230988	146.440000
477.324707	146.180000
477.418396	146.480000
477.512146	146.840000
477.605804	146.780000
477.699524	146.800000
477.793213	146.580000
477.886932	146.480000
477.980591	146.320000
478.074341	145.920000
478.167999	145.580000
478.261749	145.720000
478.355408	145.500000
478.449127	146.260000
478.542816	147.360000
478.636536	147.980000
478.730225	148.140000
478.823944	148.500000
478.917633	147.920000
479.011322	147.860000
479.105042	147.620000
479.198730	147.580000
479.292450	147.240000
479.386139	147.480000
479.479828	147.240000
479.573547	147.640000
479.667267	147.580000
479.760925	147.680000
479.854675	147.760000
479.948334	147.580000
480.042084	146.520000
480.135742	146.960000
480.229462	146.540000
480.323151	146.260000
480.416870	145.600000
480.510529	145.960000
480.604279	144.980000
480.697937	145.720000
480.791656	145.500000
480.885345	145.420000
480.979065	145.520000
481.072754	146.300000
481.166473	146.480000
481.260132	146.700000
481.353882	147.060000
481.447540	147.260000
481.541260	147.260000
481.635010	146.640000
481.728668	146.620000
481.822388	146.560000
481.916077	146.420000
482.009796	146.280000
482.103485	146.700000
482.197205	146.800000
482.290863	147.000000
482.384613	146.620000
482.478271	146.440000
482.571991	146.420000
482.665680	146.400000
482.759399	147.040000
482.853058	147.600000
482.946808	147.520000
483.040466	147.120000
483.134216	147.040000
483.227875	146.580000
483.321594	146.800000
483.415283	146.780000
483.509003	146.800000
483.602661	146.520000
483.696411	146.720000
483.790070	146.440000
483.883789	146.580000
483.977478	146.940000
484.071198	147.160000
484.164917	146.380000
484.258606	145.960000
484.352325	146.320000
484.445984	145.980000
484.539734	146.000000
484.633392	145.980000
484.727142	146.620000
484.820801	146.060000
484.914520	146.260000
485.008209	146.580000
485.101929	147.080000
485.195587	146.340000
485.289337	146.520000
485.382996	146.780000
485.476715	146.700000
485.570404	146.840000
485.664124	146.920000
485.757782	147.520000
485.851532	146.800000
485.945190	146.460000
486.038910	146.460000
486.132599	147.120000
486.226318	146.360000
486.319977	146.340000
486.413727	146.960000
486.507446	146.480000
486.601105	145.800000
486.694855	145.720000
486.788513	146.080000
486.882233	145.740000
486.975922	146.040000
487.069641	146.040000
487.163300	146.020000
487.257050	146.760000
487.350708	146.120000
487.444427	145.860000
487.538116	146.140000
487.631836	146.220000
487.725494	145.780000
487.819214	146.380000
487.912903	146.420000
488.006622	146.700000
488.100281	147.200000
488.194031	147.060000
488.287689	147.320000
488.381409	148.060000
488.475098	147.800000
488.568817	147.660000
488.662476	147.240000
488.756226	146.540000
488.849945	145.560000
488.943604	145.740000
489.037354	145.700000
489.131012	145.980000
489.224731	146.000000
489.318390	146.100000
489.412140	146.100000
489.505798	146.180000
489.599518	145.820000
489.693207	146.160000
489.786926	146.040000
489.880585	145.720000
489.974335	145.880000
490.067993	147.340000
490.161713	147.600000
490.255371	148.480000
490.349121	149.000000
490.442780	148.620000
490.536499	147.560000
490.630188	147.480000
490.723907	146.580000
490.817566	146.160000
490.911285	146.160000
491.004974	145.600000
491.098694	145.220000
491.192413	146.140000
491.286102	146.240000
491.379822	146.440000
491.473480	147.340000
491.567200	147.340000
491.660889	146.680000
491.754608	146.680000
491.848267	146.440000
491.941986	146.240000
492.035675	146.140000
492.129395	146.420000
492.223053	146.100000
492.316772	146.320000
492.410461	146.060000
492.504181	146.440000
492.597839	146.260000
492.691559	146.620000
492.785248	146.560000
492.878967	146.360000
492.972626	146.060000
493.066345	145.980000
493.160034	145.540000
493.253754	145.220000
493.347412	145.360000
493.441132	145.640000
493.534882	146.060000
493.628540	146.680000
493.722260	147.020000
493.815918	147.320000
493.909668	147.760000
494.003326	147.960000
494.097046	147.640000
494.190704	147.340000
494.284454	147.180000
494.378113	146.580000
494.471832	146.120000
494.565491	146.240000
494.659210	146.500000
494.752899	146.400000
494.846619	146.500000
494.940277	146.640000
495.033997	146.400000
495.127686	146.160000
495.221405	146.120000
495.315063	146.340000
495.408783	146.320000
495.502441	146.360000
495.596191	146.740000
495.689850	146.660000
495.783569	146.640000
495.877228	146.760000
495.970947	146.440000
496.064697	146.200000
496.158356	147.140000
496.252075	147.040000
496.345734	146.760000
496.439453	147.980000
496.533142	148.060000
496.626862	147.600000
496.720520	147.700000
496.814240	148.120000
496.907898	147.340000
497.001617	147.620000
497.095306	147.080000
497.189026	146.900000
497.282684	146.540000
497.376404	146.600000
497.470062	146.200000
497.563782	146.420000
497.657471	146.780000
497.751190	146.920000
497.844849	146.860000
497.938568	147.080000
498.032227	147.540000
498.125946	147.380000
498.219635	147.180000
498.313354	147.260000
498.407074	147.200000
498.500732	147.260000
498.594452	147.280000
498.688110	146.920000
498.781830	146.660000
498.875519	146.480000
498.969238	146.060000
499.062897	145.760000
499.156616	146.480000
499.250275	146.580000
499.343994	146.220000
499.437653	146.200000
499.531372	146.460000
499.625061	146.980000
499.718781	147.260000
499.812439	147.920000
499.906158	147.840000
499.999817	147.560000
500.093536	146.740000
500.187195	146.600000
500.280914	146.260000
500.374573	146.380000
500.468323	146.220000
500.561981	146.300000
500.655701	146.120000
500.749420	146.080000
500.843079	146.320000
500.936798	146.640000
501.030457	147.080000
501.124176	147.460000
501.217834	147.700000
501.311554	147.600000
501.405212	147.560000
501.498962	146.960000
501.592621	146.680000
501.686340	147.060000
501.779999	147.160000
501.873718	147.220000
501.967377	147.480000
502.061096	147.820000
502.154755	146.960000
502.248474	146.860000
502.342133	146.760000
502.435852	146.540000
502.529510	146.980000
502.623230	147.920000
502.716888	147.340000
502.810608	147.440000
502.904266	147.920000
502.997986	147.080000
503.091705	146.240000
503.185364	146.540000
503.279083	146.540000
503.372772	146.120000
503.466492	145.840000
503.560150	146.140000
503.653870	146.260000
503.747528	145.900000
503.841248	146.000000
503.934906	146.480000
504.028625	146.060000
504.122284	146.360000
504.216003	147.120000
504.309662	147.020000
504.403381	147.320000
504.497040	147.460000
504.590759	147.160000
504.684418	146.960000
504.778137	147.280000
504.871796	147.200000
504.965515	147.340000
505.059174	147.100000
505.152893	146.580000
505.246521	146.140000
505.340240	145.920000
505.433899	146.180000
505.527618	146.660000
505.621338	147.060000
505.714996	146.880000
505.808716	146.720000
505.902374	146.920000
505.996094	146.820000
506.089752	146.420000
506.183472	146.400000
506.277130	146.480000
506.370850	146.180000
506.464508	145.960000
506.558228	146.500000
506.651886	146.520000
506.745605	146.700000
506.839264	146.800000
506.932983	146.960000
507.026611	146.640000
507.120331	147.120000
507.213989	146.540000
507.307709	146.600000
507.401367	146.700000
507.495087	147.780000
507.588745	147.260000
507.682465	148.260000
507.776123	148.040000
507.869843	147.880000
507.963531	147.040000
508.057190	147.780000
508.150909	146.860000
508.244568	146.900000
508.338287	146.720000
508.431946	146.380000
508.525665	145.960000
508.619324	146.160000
508.713013	146.540000
508.806671	146.880000
508.900391	147.880000
508.994049	147.900000
509.087769	147.860000
509.181427	147.600000
509.275146	147.280000
509.368774	146.180000
509.462494	146.220000
509.556152	146.200000
509.649872	146.560000
509.743530	146.720000
509.837250	147.140000
509.930878	147.040000
510.024597	147.160000
510.118256	146.680000
510.211975	146.480000
510.305695	146.100000
510.399353	146.460000
510.493042	146.760000
510.586700	146.900000
510.680420	147.500000
510.774078	147.640000
510.867798	147.560000
510.961426	146.940000
511.055145	146.880000
511.148804	146.480000
511.242523	146.860000
511.336151	146.920000
511.429871	147.620000
511.523529	147.560000
511.617249	147.260000
511.710876	146.720000
511.804596	146.240000
511.898254	145.700000
511.991974	145.960000
512.085632	146.020000
512.179321	146.380000
512.272949	146.640000
512.366699	147.060000
512.460327	146.880000
512.554077	147.940000
512.647766	147.940000
512.741394	147.960000
512.835144	147.920000
512.928772	147.540000
513.022461	146.880000
513.116150	146.600000
513.209839	147.060000
513.303467	146.820000
513.397217	146.720000
513.490845	146.640000
513.584595	146.520000
513.678223	145.660000
513.771912	145.180000
513.865601	145.760000
513.959290	145.540000
514.052917	146.000000
514.146667	146.880000
514.240295	147.520000
514.333984	147.580000
514.427673	147.320000
514.521362	147.640000
514.614990	147.020000
514.708740	147.100000
514.802368	147.300000
514.896057	147.680000
514.989746	147.960000
515.083435	147.980000
515.177124	148.100000
515.270752	147.480000
515.364502	147.380000
515.458130	147.340000
515.551819	147.460000
515.645508	147.100000
515.739197	147.460000
515.832825	147.640000
515.926575	147.100000
516.020203	147.280000
516.113892	147.700000
516.207520	147.580000
516.301270	147.820000
516.394897	147.720000
516.488586	147.840000
516.582275	147.780000
516.675964	147.080000
516.769592	146.620000
516.863281	147.240000
516.956970	147.440000
517.050659	147.240000
517.144287	147.620000
517.238037	147.820000
517.331665	146.960000
517.425354	146.340000
517.519043	146.040000
517.612732	146.420000
517.706421	146.460000
517.800049	146.420000
517.893738	146.020000
517.987427	146.480000
518.081116	146.040000
518.174744	145.460000
518.268433	145.880000
518.362122	146.880000
518.455811	146.480000
518.549438	147.220000
518.643127	148.280000
518.736816	147.920000
518.830505	147.100000
518.924133	147.140000
519.017822	147.000000
519.111511	146.400000
519.205200	147.140000
519.298828	147.440000
519.392517	147.120000
519.486206	147.420000
519.579895	147.440000
519.673523	146.760000
519.767212	146.680000
519.860901	147.700000
519.954590	146.960000
520.048279	146.920000
520.141907	146.880000
520.235596	147.620000
520.329224	147.240000
520.422974	147.480000
520.516602	147.560000
520.610291	147.540000
520.703918	147.420000
520.797607	146.620000
520.891296	146.560000
520.984985	146.420000
521.078613	146.940000
521.172302	146.300000
521.265930	147.520000
521.359680	147.900000
521.453308	147.800000
521.546997	147.500000
521.640625	147.740000
521.734314	147.360000
521.827942	147.040000
521.921692	147.420000
522.015320	147.580000
522.109009	147.400000
522.202698	147.060000
522.296326	147.060000
522.390015	147.120000
522.483704	147.280000
522.577393	147.280000
522.671021	147.160000
522.764709	146.720000
522.858337	147.120000
522.952026	146.720000
523.045654	147.380000
523.139404	148.000000
523.233032	148.320000
523.326721	147.740000
523.420349	147.900000
523.514038	147.180000
523.607666	147.280000
523.701355	147.080000
523.795044	147.000000
523.888733	146.840000
523.982361	147.360000
524.076050	146.940000
524.169678	147.380000
524.263367	147.140000
524.356995	147.040000
524.450684	146.620000
524.544373	146.080000
524.638062	146.060000
524.731750	146.240000
524.825378	146.260000
524.919067	145.520000
525.012695	145.880000
525.106384	145.280000
525.200012	145.540000
525.293701	145.360000
525.387329	146.180000
525.481018	146.280000
525.574646	146.700000
525.668396	146.360000
525.762024	146.840000
525.855713	146.840000
525.949341	146.600000
526.043030	146.660000
526.136658	146.640000
526.230347	146.280000
526.323975	145.920000
526.417664	145.920000
526.511292	146.100000
526.604980	146.340000
526.698608	146.360000
526.792297	146.900000
526.885925	147.240000
526.979614	147.340000
527.073303	147.020000
527.166931	147.260000
527.260620	147.280000
527.354309	147.760000
527.447998	147.720000
527.541626	147.780000
527.635315	147.760000
527.728943	148.260000
527.822632	148.100000
527.916260	148.160000
528.009949	148.660000
528.103577	148.420000
528.197266	147.420000
528.290894	147.340000
528.384583	146.860000
528.478210	146.540000
528.571899	146.980000
528.665527	147.500000
528.759216	147.440000
528.852844	147.720000
528.946533	147.520000
529.040161	147.280000
529.133850	146.820000
529.227478	146.840000
529.321167	147.060000
529.414856	147.740000
529.508484	148.160000
529.602173	147.880000
529.695801	147.640000
529.789490	147.400000
529.883057	146.760000
529.976746	146.640000
530.070374	147.040000
530.164062	147.400000
530.257690	147.660000
530.351379	148.020000
530.445007	147.800000
530.538696	147.280000
530.632324	147.100000
530.726013	147.280000
530.819641	147.080000
530.913330	147.120000
531.006958	147.500000
531.100647	147.500000
531.194275	146.880000
531.287964	146.580000
531.381592	146.140000
531.475220	146.360000
531.568848	146.620000
531.662537	146.520000
531.756226	147.240000
531.849854	147.460000
531.943542	147.440000
532.037170	146.420000
532.130859	147.100000
532.224487	146.580000
532.318176	146.420000
532.411804	146.960000
532.505432	147.800000
532.599060	147.180000
532.692749	147.240000
532.786377	147.600000
532.880066	146.340000
532.973694	145.880000
533.067383	145.860000
533.161011	145.640000
533.254639	145.540000
533.348267	145.760000
533.441956	145.760000
533.535583	145.840000
533.629272	146.360000
533.722900	145.920000
533.816589	146.240000
533.910156	146.540000
534.003845	146.240000
534.097534	146.300000
534.191162	146.800000
534.284851	146.880000
534.378479	146.380000
534.472107	146.560000
534.565735	145.900000
534.659424	146.140000
534.753052	146.400000
534.846741	146.400000
534.940369	147.000000
535.033997	147.240000
535.127625	147.060000
535.221313	147.520000
535.314941	147.620000
535.408630	146.940000
535.502197	147.380000
535.595886	147.140000
535.689514	146.620000
535.783203	147.280000
535.876831	147.880000
535.970459	147.780000
536.064087	147.540000
536.157776	147.340000
536.251404	146.980000
536.345093	146.620000
536.438721	146.480000
536.532349	147.140000
536.626038	146.980000
536.719666	147.240000
536.813293	146.880000
536.906921	146.840000
537.000610	146.880000
537.094238	147.120000
537.187866	146.820000
537.281494	147.060000
537.375183	147.000000
537.468811	146.720000
537.562439	146.800000
537.656067	147.040000
537.749756	146.940000
537.843384	147.420000
537.937012	147.340000
538.030640	147.260000
538.124329	147.000000
538.217896	147.660000
538.311584	147.480000
538.405212	147.580000
538.498901	147.500000
538.592468	147.980000
538.686157	147.240000
538.779785	146.480000
538.873413	146.460000
538.967102	146.120000
539.060730	145.420000
539.154358	145.900000
539.247986	146.640000
539.341675	146.740000
539.435242	146.980000
539.528931	147.360000
539.622559	147.000000
539.716187	147.640000
539.809814	147.280000
539.903503	147.320000
539.997070	147.100000
540.090759	147.300000
540.184387	146.400000
540.278015	146.760000
540.371643	146.860000
540.465332	147.120000
540.558899	146.720000
540.652588	146.860000
540.746216	146.580000
540.839844	147.060000
540.933472	146.780000
541.027100	146.880000
541.120728	147.220000
541.214417	147.640000
541.308044	147.420000
541.401672	147.340000
541.495300	147.460000
541.588928	147.300000
541.682617	146.900000
541.776184	146.240000
541.869873	146.780000
541.963440	146.920000
542.057129	146.800000
542.150757	147.000000
542.244385	147.080000
542.338013	146.380000
542.431641	146.300000
542.525269	146.280000
542.618958	146.700000
542.712524	147.120000
542.806213	147.200000
542.899780	147.240000
542.993469	146.940000
543.087036	146.340000
543.180725	145.720000
543.274292	146.440000
543.367981	146.660000
543.461548	147.160000
543.555237	147.420000
543.648926	148.360000
543.742493	148.580000
543.836182	148.480000
543.929749	148.280000
544.023437	147.840000
544.117004	147.380000
544.210693	146.920000
544.304260	147.020000
544.397949	146.600000
544.491516	147.280000
544.585205	147.400000
544.678772	147.240000
544.772461	147.460000
544.866028	147.540000
544.959717	147.360000
545.053284	147.120000
545.146973	147.240000
545.240540	146.860000
545.334229	147.880000
545.427795	148.000000
545.521423	148.160000
545.615051	148.180000
545.708679	148.540000
545.802307	147.780000
545.895935	147.940000
545.989624	148.840000
546.083191	148.420000
546.176880	148.140000
546.270447	147.960000
546.364136	147.780000
546.457703	146.900000
546.551331	146.920000
546.644958	147.220000
546.738586	147.580000
546.832214	147.260000
546.925842	146.780000
547.019409	147.480000
547.113098	147.220000
547.206665	146.900000
547.300354	147.340000
547.393921	147.960000
547.487549	147.800000
547.581177	147.600000
547.674805	147.780000
547.768433	146.940000
547.862061	147.080000
547.955627	146.540000
548.049316	147.040000
548.142883	147.200000
548.236572	147.700000
548.330139	147.680000
548.423767	147.740000
548.517456	147.620000
548.611023	147.680000
548.704651	147.120000
548.798279	147.040000
548.891907	147.600000
548.985474	147.260000
549.079163	147.080000
549.172729	147.140000
549.266357	146.640000
549.359985	146.460000
549.453613	146.240000
549.547180	146.160000
549.640869	146.940000
549.734436	146.900000
549.828064	147.320000
549.921631	147.300000
550.015320	147.240000
550.108887	147.100000
550.202515	147.180000
550.296143	146.400000
550.389771	146.980000
550.483337	147.200000
550.576965	146.880000
550.670593	147.640000
550.764221	147.680000
550.857849	147.600000
550.951477	147.020000
551.045105	146.940000
551.138672	146.620000
551.232300	146.580000
551.325928	146.680000
551.419556	147.500000
551.513123	147.780000
551.606750	147.660000
551.700378	147.780000
551.794006	147.680000
551.887573	147.200000
551.981201	147.620000
552.074768	147.500000
552.168457	147.340000
552.262024	148.000000
552.355652	148.020000
552.449219	148.140000
552.542847	148.420000
552.636475	148.420000
552.730103	147.080000
552.823669	146.660000
552.917297	146.220000
553.010864	146.100000
553.104553	146.220000
553.198181	146.440000
553.291748	147.180000
553.385376	147.040000
553.478943	147.000000
553.572571	147.040000
553.666199	147.160000
553.759827	146.700000
553.853394	146.480000
553.947021	146.300000
554.040588	146.480000
554.134216	146.700000
554.227783	147.540000
554.321411	148.060000
554.415039	147.660000
554.508667	147.400000
554.602234	147.620000
554.695862	146.600000
554.789429	146.500000
554.883057	146.940000
554.976624	146.780000
555.070251	146.480000
555.163818	146.680000
555.257507	146.480000
555.351074	146.660000
555.444702	148.080000
555.538330	147.840000
555.631897	148.220000
555.725525	148.500000
555.819092	148.180000
555.912720	146.880000
556.006287	147.640000
556.099915	147.080000
556.193481	146.820000
556.287109	147.080000
556.380676	146.960000
556.474304	146.640000
556.567871	147.320000
556.661499	146.980000
556.755066	147.060000
556.848694	147.320000
556.942261	147.140000
557.035889	147.000000
557.129517	147.660000
557.223145	147.940000
557.316711	148.020000
557.410339	148.180000
557.503906	148.000000
557.597473	148.000000
557.691040	147.760000
557.784668	147.880000
557.878296	147.920000
557.971863	148.000000
558.065491	147.920000
558.159058	147.520000
558.252686	148.280000
558.346252	148.800000
558.439880	148.240000
558.533447	147.640000
558.627075	147.320000
558.720642	146.340000
558.814270	145.840000
558.907837	146.100000
559.001465	145.780000
559.095032	146.620000
559.188660	146.940000
559.282227	146.360000
559.375854	146.860000
559.469360	147.180000
559.562988	147.420000
559.656555	147.140000
559.750183	147.560000
559.843750	147.540000
559.937378	147.880000
560.030945	147.420000
560.124573	0.000000
560.218140	0.000000
560.311707	0.000000
560.405334	0.000000
560.498901	0.000000
560.592529	0.000000
560.686096	0.000000
560.779724	0.000000
560.873291	0.000000
560.966858	0.000000
561.060425	0.000000
561.154053	0.000000
561.247620	0.000000
561.341248	0.000000
561.434814	0.000000
561.528381	0.000000
561.621948	0.000000
561.715576	0.000000
561.809143	0.000000
561.902771	0.000000
561.996277	0.000000
562.089905	0.000000
562.183472	0.000000
562.277100	0.000000
