Model Number: SPM-002-B   
Serial Number: 70087108
Firmware Version: 004.15.4
Exposure Time: 100000.000000us
Data Taken on: 11-12-2020 18:49:11.197
Wavelength	Amplitude
221.570786	0.000000
221.663406	0.000000
221.756027	0.000000
221.848648	0.000000
221.941269	0.000000
222.033905	0.000000
222.126526	0.000000
222.219162	0.000000
222.311798	0.000000
222.404419	0.000000
222.497055	0.000000
222.589676	0.000000
222.682312	0.000000
222.774933	0.000000
222.867569	0.000000
222.960205	0.000000
223.052841	0.000000
223.145462	0.000000
223.238098	0.000000
223.330734	0.000000
223.423386	0.000000
223.516022	0.000000
223.608658	0.000000
223.701309	0.000000
223.793945	0.000000
223.886581	0.000000
223.979218	0.000000
224.071869	0.000000
224.164505	0.000000
224.257156	0.000000
224.349792	0.000000
224.442444	0.000000
224.535095	0.000000
224.627747	0.000000
224.720398	0.000000
224.813034	0.000000
224.905685	0.000000
224.998337	146.180000
225.090988	145.520000
225.183640	145.780000
225.276291	145.440000
225.368942	145.780000
225.461594	146.240000
225.554245	146.760000
225.646912	146.500000
225.739578	147.200000
225.832230	147.840000
225.924896	147.140000
226.017548	147.340000
226.110199	147.740000
226.202866	146.820000
226.295532	146.200000
226.388184	146.020000
226.480850	145.380000
226.573517	145.040000
226.666168	145.740000
226.758835	146.020000
226.851501	146.880000
226.944183	147.300000
227.036850	146.840000
227.129517	146.780000
227.222183	146.760000
227.314850	146.240000
227.407516	146.540000
227.500198	147.600000
227.592865	147.360000
227.685532	147.260000
227.778214	147.380000
227.870880	147.300000
227.963562	147.360000
228.056229	147.880000
228.148926	147.480000
228.241592	148.140000
228.334274	147.780000
228.426956	147.440000
228.519638	147.160000
228.612305	147.040000
228.704987	146.600000
228.797668	146.680000
228.890350	146.500000
228.983032	145.820000
229.075714	146.580000
229.168396	146.480000
229.261108	146.220000
229.353790	146.300000
229.446472	147.020000
229.539169	146.680000
229.631851	146.300000
229.724533	146.760000
229.817230	146.860000
229.909912	147.520000
230.002609	147.360000
230.095306	147.340000
230.187988	147.100000
230.280685	147.160000
230.373383	146.100000
230.466095	146.420000
230.558792	146.980000
230.651474	147.200000
230.744171	146.720000
230.836868	146.720000
230.929581	146.880000
231.022278	146.640000
231.114975	146.520000
231.207672	146.460000
231.300369	146.760000
231.393082	146.800000
231.485779	146.340000
231.578506	146.120000
231.671204	146.520000
231.763916	146.460000
231.856613	145.980000
231.949326	146.340000
232.042023	146.180000
232.134735	146.060000
232.227448	145.720000
232.320160	145.980000
232.412872	145.920000
232.505585	147.100000
232.598297	147.200000
232.691010	147.280000
232.783722	147.080000
232.876450	147.680000
232.969162	146.780000
233.061874	146.700000
233.154587	146.160000
233.247314	146.500000
233.340027	145.760000
233.432739	146.200000
233.525467	145.920000
233.618179	146.820000
233.710907	146.260000
233.803635	146.900000
233.896347	146.400000
233.989090	147.340000
234.081818	146.940000
234.174545	147.240000
234.267258	146.500000
234.359985	146.640000
234.452713	146.240000
234.545441	146.260000
234.638168	146.200000
234.730896	147.020000
234.823639	147.020000
234.916367	147.220000
235.009094	147.480000
235.101822	147.420000
235.194580	147.080000
235.287308	147.220000
235.380051	146.440000
235.472778	146.540000
235.565521	146.780000
235.658249	146.220000
235.750992	146.300000
235.843719	146.460000
235.936462	146.440000
236.029205	146.020000
236.121948	146.320000
236.214691	146.240000
236.307449	147.060000
236.400192	146.880000
236.492935	146.960000
236.585678	146.920000
236.678421	147.140000
236.771164	146.880000
236.863907	147.580000
236.956665	147.760000
237.049408	149.320000
237.142151	148.720000
237.234909	149.300000
237.327652	148.800000
237.420410	148.440000
237.513153	147.360000
237.605927	147.460000
237.698669	146.760000
237.791428	146.080000
237.884186	146.760000
237.976944	146.420000
238.069702	146.860000
238.162445	146.320000
238.255203	146.880000
238.347961	147.220000
238.440720	147.340000
238.533478	146.900000
238.626266	146.760000
238.719025	146.860000
238.811783	146.380000
238.904541	146.060000
238.997314	146.060000
239.090073	145.920000
239.182831	146.000000
239.275604	146.640000
239.368362	146.540000
239.461136	146.820000
239.553909	147.000000
239.646667	146.760000
239.739441	146.120000
239.832214	146.480000
239.925003	146.400000
240.017761	147.100000
240.110535	147.480000
240.203308	147.100000
240.296082	147.180000
240.388855	146.820000
240.481628	146.800000
240.574417	146.620000
240.667191	146.900000
240.759964	146.680000
240.852737	147.060000
240.945526	146.580000
241.038315	146.560000
241.131088	146.520000
241.223877	147.080000
241.316650	146.460000
241.409439	146.920000
241.502228	146.420000
241.595001	147.100000
241.687790	146.780000
241.780579	147.140000
241.873367	147.060000
241.966141	147.720000
242.058929	146.780000
242.151718	146.620000
242.244507	146.940000
242.337311	146.320000
242.430099	146.580000
242.522903	146.900000
242.615692	146.720000
242.708481	146.780000
242.801270	147.680000
242.894073	147.320000
242.986862	147.620000
243.079651	148.140000
243.172455	148.100000
243.265244	147.840000
243.358063	147.380000
243.450867	147.360000
243.543655	147.260000
243.636459	147.220000
243.729263	147.440000
243.822067	147.920000
243.914856	148.260000
244.007660	148.400000
244.100464	148.180000
244.193268	147.660000
244.286072	147.380000
244.378876	146.800000
244.471680	146.140000
244.564499	146.640000
244.657318	147.340000
244.750122	147.800000
244.842926	147.280000
244.935745	147.720000
245.028549	147.180000
245.121368	146.760000
245.214172	146.660000
245.306992	147.380000
245.399796	147.300000
245.492615	147.600000
245.585434	147.580000
245.678253	147.280000
245.771072	146.940000
245.863892	147.420000
245.956711	147.460000
246.049530	147.400000
246.142349	147.500000
246.235168	147.780000
246.327988	148.040000
246.420807	147.720000
246.513626	147.660000
246.606445	147.540000
246.699280	147.300000
246.792099	146.760000
246.884918	146.580000
246.977753	146.240000
247.070587	146.320000
247.163422	146.620000
247.256241	146.480000
247.349075	146.800000
247.441895	146.940000
247.534729	146.660000
247.627563	146.340000
247.720383	146.900000
247.813217	146.940000
247.906052	147.000000
247.998886	146.960000
248.091736	146.940000
248.184570	146.520000
248.277405	146.480000
248.370239	147.360000
248.463074	148.440000
248.555908	148.900000
248.648743	148.680000
248.741592	148.720000
248.834427	147.820000
248.927261	146.880000
249.020111	146.960000
249.112946	147.400000
249.205795	146.980000
249.298630	147.160000
249.391495	147.300000
249.484344	146.940000
249.577179	147.020000
249.670029	147.460000
249.762878	148.000000
249.855728	147.980000
249.948563	147.880000
250.041412	147.260000
250.134262	147.420000
250.227112	147.220000
250.319962	147.320000
250.412827	147.400000
250.505692	147.040000
250.598541	146.840000
250.691391	146.400000
250.784241	146.500000
250.877106	146.640000
250.969955	146.560000
251.062805	146.920000
251.155670	147.620000
251.248520	147.120000
251.341385	147.260000
251.434235	147.780000
251.527100	147.400000
251.619965	146.720000
251.712814	147.820000
251.805695	147.760000
251.898560	147.680000
251.991425	147.880000
252.084290	147.980000
252.177155	146.840000
252.270020	146.440000
252.362885	146.400000
252.455750	146.320000
252.548615	145.980000
252.641479	146.340000
252.734360	146.120000
252.827240	145.920000
252.920105	146.080000
253.012970	145.940000
253.105850	145.920000
253.198715	146.040000
253.291595	146.400000
253.384460	145.660000
253.477341	145.760000
253.570221	145.680000
253.663086	145.820000
253.755966	146.420000
253.848846	146.640000
253.941727	147.280000
254.034592	147.520000
254.127472	146.740000
254.220367	146.440000
254.313248	146.700000
254.406128	146.180000
254.499008	146.060000
254.591904	147.180000
254.684784	147.380000
254.777664	147.540000
254.870544	147.160000
254.963440	147.060000
255.056335	147.080000
255.149216	146.640000
255.242111	147.220000
255.334991	147.620000
255.427887	147.680000
255.520767	147.520000
255.613663	147.900000
255.706558	146.880000
255.799438	146.740000
255.892334	146.660000
255.985229	146.660000
256.078125	146.480000
256.171021	146.640000
256.263916	147.400000
256.356812	147.400000
256.449707	147.300000
256.542603	147.320000
256.635498	147.720000
256.728394	147.320000
256.821289	147.320000
256.914215	147.400000
257.007080	147.440000
257.100006	147.180000
257.192932	147.580000
257.285828	147.660000
257.378723	147.600000
257.471619	147.180000
257.564545	147.300000
257.657440	147.240000
257.750336	147.600000
257.843262	147.280000
257.936157	148.380000
258.029053	148.320000
258.121979	148.280000
258.214874	148.120000
258.307800	148.220000
258.400696	147.240000
258.493622	146.980000
258.586517	146.280000
258.679443	146.360000
258.772339	145.940000
258.865265	145.980000
258.958160	145.900000
259.051086	146.660000
259.144012	146.120000
259.236938	146.980000
259.329834	146.880000
259.422791	146.980000
259.515717	146.320000
259.608612	146.400000
259.701538	146.640000
259.794464	146.440000
259.887390	146.560000
259.980316	146.540000
260.073212	146.600000
260.166138	145.240000
260.259064	145.940000
260.351990	146.440000
260.444916	146.500000
260.537842	146.960000
260.630768	148.360000
260.723694	147.940000
260.816620	147.420000
260.909546	147.320000
261.002472	146.760000
261.095398	145.980000
261.188354	146.360000
261.281281	146.100000
261.374207	146.500000
261.467133	147.480000
261.560089	147.760000
261.653015	147.180000
261.745972	147.900000
261.838867	148.100000
261.931824	147.640000
262.024780	146.960000
262.117706	147.280000
262.210663	147.200000
262.303589	146.980000
262.396515	146.800000
262.489471	147.920000
262.582397	147.860000
262.675354	147.400000
262.768280	147.480000
262.861237	147.600000
262.954163	147.380000
263.047119	147.400000
263.140045	147.240000
263.233002	147.040000
263.325958	146.780000
263.418884	146.280000
263.511841	146.360000
263.604797	146.380000
263.697723	146.580000
263.790680	146.720000
263.883636	147.000000
263.976593	146.940000
264.069550	147.000000
264.162476	146.440000
264.255463	146.520000
264.348419	146.400000
264.441376	146.600000
264.534332	146.460000
264.627289	146.740000
264.720245	147.020000
264.813202	146.640000
264.906158	146.440000
264.999115	147.020000
265.092072	146.980000
265.185028	147.360000
265.277985	147.800000
265.370941	147.760000
265.463898	147.420000
265.556854	147.380000
265.649811	146.380000
265.742798	146.240000
265.835754	146.140000
265.928711	146.560000
266.021667	146.440000
266.114655	146.860000
266.207611	147.040000
266.300568	146.760000
266.393585	146.140000
266.486511	146.760000
266.579498	145.960000
266.672485	146.020000
266.765442	146.000000
266.858429	146.800000
266.951385	146.400000
267.044342	146.920000
267.137329	146.820000
267.230316	147.280000
267.323273	146.680000
267.416260	147.120000
267.509216	146.880000
267.602203	146.760000
267.695160	147.160000
267.788147	147.340000
267.881134	146.760000
267.974091	147.080000
268.067078	146.920000
268.160065	146.580000
268.253052	146.440000
268.346008	146.600000
268.438995	146.420000
268.531982	146.740000
268.624969	146.540000
268.717987	146.640000
268.810944	146.600000
268.903961	146.680000
268.996948	146.460000
269.089905	146.860000
269.182892	147.080000
269.275879	147.260000
269.368866	146.640000
269.461853	146.840000
269.554871	146.640000
269.647858	146.480000
269.740845	146.940000
269.833832	147.700000
269.926819	147.260000
270.019806	146.980000
270.112793	146.580000
270.205811	146.340000
270.298798	146.320000
270.391785	147.280000
270.484772	147.340000
270.577789	147.520000
270.670776	147.180000
270.763763	147.020000
270.856750	146.640000
270.949768	146.520000
271.042786	146.380000
271.135773	146.320000
271.228790	146.880000
271.321808	146.320000
271.414795	145.920000
271.507782	146.140000
271.600800	146.020000
271.693817	145.800000
271.786804	146.560000
271.879822	147.260000
271.972809	147.020000
272.065826	147.480000
272.158844	147.100000
272.251831	147.340000
272.344849	147.440000
272.437866	147.380000
272.530853	147.280000
272.623871	147.420000
272.716888	146.260000
272.809906	146.280000
272.902893	146.300000
272.995911	145.820000
273.088928	145.780000
273.181946	146.260000
273.274963	145.820000
273.367981	145.820000
273.460999	146.240000
273.554047	146.720000
273.647003	147.380000
273.740051	147.480000
273.833069	147.840000
273.926086	147.780000
274.019135	147.080000
274.112152	146.420000
274.205170	146.380000
274.298187	146.640000
274.391205	146.300000
274.484222	146.320000
274.577240	146.300000
274.670258	146.320000
274.763306	146.040000
274.856323	146.660000
274.949341	147.000000
275.042358	147.620000
275.135406	147.500000
275.228424	147.440000
275.321442	147.260000
275.414490	147.000000
275.507507	146.960000
275.600525	147.540000
275.693573	147.440000
275.786591	146.860000
275.879669	147.200000
275.972656	147.040000
276.065735	146.640000
276.158752	147.120000
276.251801	148.180000
276.344818	148.220000
276.437866	148.020000
276.530884	147.900000
276.623932	147.300000
276.716980	147.300000
276.809998	147.300000
276.903046	147.300000
276.996094	148.120000
277.089111	148.720000
277.182159	148.760000
277.275208	148.060000
277.368256	148.120000
277.461304	147.640000
277.554321	146.960000
277.647369	146.800000
277.740417	147.220000
277.833466	147.160000
277.926514	146.860000
278.019562	147.540000
278.112610	146.900000
278.205688	147.060000
278.298706	147.260000
278.391785	147.300000
278.484833	146.860000
278.577881	146.660000
278.670929	147.100000
278.763977	146.820000
278.857025	147.200000
278.950073	147.300000
279.043121	147.620000
279.136169	147.160000
279.229248	147.020000
279.322296	146.780000
279.415344	146.620000
279.508392	146.580000
279.601440	146.320000
279.694519	146.260000
279.787567	146.220000
279.880615	146.120000
279.973694	146.040000
280.066742	146.460000
280.159790	146.760000
280.252869	146.560000
280.345917	146.680000
280.438995	146.820000
280.532074	146.700000
280.625122	147.020000
280.718201	147.900000
280.811279	148.100000
280.904327	148.200000
280.997406	148.140000
281.090454	147.840000
281.183533	147.260000
281.276581	146.980000
281.369659	146.260000
281.462738	146.020000
281.555786	145.980000
281.648865	145.980000
281.741943	145.900000
281.835022	146.740000
281.928070	146.800000
282.021149	146.500000
282.114227	146.460000
282.207306	146.200000
282.300385	146.440000
282.393433	146.800000
282.486511	147.100000
282.579590	147.500000
282.672668	148.220000
282.765747	147.480000
282.858856	147.160000
282.951904	147.160000
283.045013	146.940000
283.138062	147.200000
283.231171	147.460000
283.324249	147.860000
283.417328	148.020000
283.510406	147.800000
283.603485	147.420000
283.696564	147.620000
283.789642	147.620000
283.882751	147.580000
283.975830	148.140000
284.068909	147.720000
284.161987	148.100000
284.255066	147.180000
284.348175	147.040000
284.441254	146.760000
284.534332	147.140000
284.627441	146.560000
284.720520	146.800000
284.813599	146.760000
284.906708	146.740000
284.999786	146.240000
285.092896	146.040000
285.185974	147.140000
285.279053	146.740000
285.372192	146.800000
285.465240	147.700000
285.558380	147.540000
285.651459	146.840000
285.744568	147.960000
285.837677	147.260000
285.930756	146.900000
286.023865	147.340000
286.116943	147.240000
286.210052	146.780000
286.303162	147.200000
286.396240	147.280000
286.489349	147.060000
286.582458	147.440000
286.675568	147.080000
286.768646	147.000000
286.861755	147.180000
286.954865	147.700000
287.047974	146.900000
287.141083	146.820000
287.234161	146.620000
287.327271	146.300000
287.420380	146.600000
287.513519	146.880000
287.606598	147.100000
287.699738	147.260000
287.792816	146.960000
287.885956	146.560000
287.979034	146.640000
288.072174	147.000000
288.165283	146.820000
288.258392	147.180000
288.351501	146.600000
288.444611	147.040000
288.537720	147.320000
288.630859	147.340000
288.723969	147.500000
288.817078	148.140000
288.910187	147.960000
289.003296	147.220000
289.096436	147.220000
289.189545	146.860000
289.282654	146.320000
289.375763	146.540000
289.468903	146.840000
289.562012	147.040000
289.655121	147.380000
289.748260	147.620000
289.841400	147.420000
289.934509	147.160000
290.027649	147.460000
290.120728	147.480000
290.213898	147.300000
290.306976	147.040000
290.400146	147.360000
290.493256	146.740000
290.586395	146.620000
290.679535	147.260000
290.772644	147.300000
290.865784	146.620000
290.958893	146.940000
291.052032	146.640000
291.145172	146.520000
291.238281	146.160000
291.331421	146.560000
291.424561	146.740000
291.517670	146.640000
291.610809	146.580000
291.703949	146.520000
291.797089	146.360000
291.890228	146.260000
291.983337	146.280000
292.076477	146.040000
292.169617	146.980000
292.262756	147.400000
292.355927	147.160000
292.449036	147.180000
292.542206	147.120000
292.635315	147.140000
292.728485	147.080000
292.821625	146.960000
292.914764	147.940000
293.007904	147.960000
293.101044	147.440000
293.194183	147.220000
293.287323	147.240000
293.380463	146.400000
293.473602	146.320000
293.566742	146.400000
293.659882	146.860000
293.753021	147.180000
293.846191	147.240000
293.939331	146.840000
294.032471	146.660000
294.125610	146.300000
294.218781	146.600000
294.311920	146.820000
294.405060	147.280000
294.498230	147.460000
294.591370	147.520000
294.684540	146.680000
294.777679	146.220000
294.870850	146.640000
294.963959	146.520000
295.057159	146.360000
295.150299	146.860000
295.243469	147.160000
295.336609	146.160000
295.429779	146.200000
295.522919	146.700000
295.616089	146.880000
295.709229	147.420000
295.802399	148.140000
295.895569	147.880000
295.988708	147.340000
296.081879	147.340000
296.175018	146.460000
296.268188	146.480000
296.361359	147.100000
296.454529	147.480000
296.547668	147.260000
296.640839	147.680000
296.734009	147.500000
296.827179	147.400000
296.920319	147.580000
297.013519	147.220000
297.106659	147.500000
297.199860	147.100000
297.292999	147.020000
297.386200	146.560000
297.479309	146.500000
297.572510	145.980000
297.665680	145.960000
297.758850	145.960000
297.852020	145.620000
297.945190	145.820000
298.038361	145.720000
298.131531	146.700000
298.224701	146.540000
298.317871	146.500000
298.411072	145.880000
298.504242	145.760000
298.597412	145.440000
298.690582	145.540000
298.783752	145.740000
298.876923	146.560000
298.970093	146.720000
299.063293	146.820000
299.156464	146.900000
299.249634	147.120000
299.342834	147.200000
299.436005	147.720000
299.529205	147.160000
299.622345	147.160000
299.715576	146.560000
299.808716	146.220000
299.901917	145.780000
299.995117	146.400000
300.088287	146.660000
300.181488	146.960000
300.274658	147.000000
300.367828	147.180000
300.461029	146.960000
300.554199	147.040000
300.647400	146.940000
300.740601	147.580000
300.833771	147.460000
300.926971	147.580000
301.020142	147.000000
301.113342	147.060000
301.206512	146.540000
301.299713	146.740000
301.392914	146.520000
301.486084	146.880000
301.579285	146.880000
301.672516	147.500000
301.765686	147.240000
301.858887	147.140000
301.952057	147.040000
302.045288	147.140000
302.138458	146.800000
302.231659	146.740000
302.324860	146.920000
302.418060	146.540000
302.511261	146.680000
302.604462	146.640000
302.697662	146.560000
302.790863	146.340000
302.884064	146.340000
302.977264	146.280000
303.070465	146.600000
303.163666	147.240000
303.256866	147.760000
303.350067	147.980000
303.443268	147.920000
303.536469	147.820000
303.629669	147.380000
303.722870	147.340000
303.816071	147.060000
303.909271	147.160000
304.002472	146.360000
304.095673	146.200000
304.188934	145.760000
304.282104	146.700000
304.375336	146.440000
304.468506	146.760000
304.561768	146.540000
304.654968	146.920000
304.748169	146.400000
304.841370	146.320000
304.934601	146.480000
305.027802	146.860000
305.121002	146.180000
305.214233	146.380000
305.307434	146.780000
305.400665	147.660000
305.493866	147.300000
305.587097	147.800000
305.680298	147.400000
305.773499	147.660000
305.866730	146.740000
305.959930	147.260000
306.053162	147.460000
306.146393	147.100000
306.239594	145.920000
306.332825	145.700000
306.426025	145.980000
306.519287	145.580000
306.612488	145.860000
306.705719	146.600000
306.798920	146.920000
306.892181	146.140000
306.985352	145.960000
307.078613	145.660000
307.171844	146.000000
307.265045	145.620000
307.358276	145.160000
307.451508	145.540000
307.544739	146.200000
307.637970	145.640000
307.731201	145.600000
307.824402	146.780000
307.917633	146.980000
308.010864	147.480000
308.104095	148.000000
308.197327	148.240000
308.290558	147.820000
308.383789	147.240000
308.477020	146.620000
308.570251	145.780000
308.663483	145.560000
308.756714	145.500000
308.849976	145.860000
308.943176	146.180000
309.036438	146.440000
309.129639	146.380000
309.222900	146.440000
309.316101	146.180000
309.409393	145.680000
309.502625	145.520000
309.595856	145.740000
309.689087	145.900000
309.782318	146.080000
309.875580	146.340000
309.968811	146.760000
310.062042	146.620000
310.155273	146.220000
310.248535	146.440000
310.341766	146.300000
310.434998	145.860000
310.528259	145.820000
310.621490	146.200000
310.714722	145.480000
310.807983	145.580000
310.901215	145.820000
310.994476	146.320000
311.087708	145.920000
311.181000	146.540000
311.274200	146.040000
311.367462	146.200000
311.460693	145.340000
311.553986	146.300000
311.647186	146.520000
311.740479	147.320000
311.833710	147.040000
311.926971	147.260000
312.020203	146.420000
312.113464	145.880000
312.206726	145.180000
312.299957	145.640000
312.393219	146.300000
312.486481	146.380000
312.579712	146.580000
312.672974	146.560000
312.766235	146.240000
312.859497	145.960000
312.952759	146.040000
313.045990	146.560000
313.139252	146.260000
313.232513	146.760000
313.325775	146.880000
313.419037	146.660000
313.512299	146.000000
313.605530	146.880000
313.698822	146.660000
313.792053	146.440000
313.885345	146.160000
313.978577	146.260000
314.071869	145.940000
314.165131	146.080000
314.258392	146.700000
314.351654	147.120000
314.444916	146.280000
314.538177	146.400000
314.631439	146.640000
314.724701	146.240000
314.817993	146.120000
314.911255	147.000000
315.004517	146.380000
315.097778	146.120000
315.191040	146.400000
315.284302	146.900000
315.377594	146.800000
315.470856	147.140000
315.564117	146.380000
315.657379	145.480000
315.750671	144.860000
315.843933	145.300000
315.937195	145.160000
316.030518	145.480000
316.123749	145.800000
316.217041	146.740000
316.310303	146.300000
316.403595	146.440000
316.496857	146.780000
316.590149	147.000000
316.683411	146.260000
316.776703	146.140000
316.869965	145.800000
316.963257	145.560000
317.056519	145.140000
317.149811	145.240000
317.243073	145.700000
317.336365	146.240000
317.429626	146.500000
317.522919	147.300000
317.616180	147.020000
317.709473	146.300000
317.802765	145.880000
317.896027	145.640000
317.989319	145.460000
318.082611	145.780000
318.175873	145.940000
318.269165	146.580000
318.362488	146.580000
318.455750	146.400000
318.549042	146.580000
318.642303	147.380000
318.735626	147.100000
318.828888	147.200000
318.922211	146.860000
319.015472	147.360000
319.108765	146.600000
319.202057	146.160000
319.295349	146.320000
319.388641	146.680000
319.481934	146.000000
319.575226	145.980000
319.668518	146.380000
319.761810	146.440000
319.855103	146.460000
319.948395	146.660000
320.041687	146.900000
320.134979	146.720000
320.228271	146.420000
320.321564	146.220000
320.414856	146.280000
320.508148	146.100000
320.601440	146.200000
320.694763	145.980000
320.788025	146.440000
320.881348	146.300000
320.974640	146.480000
321.067963	146.000000
321.161224	146.280000
321.254547	145.600000
321.347839	146.000000
321.441162	145.500000
321.534454	146.120000
321.627747	145.940000
321.721069	147.080000
321.814362	146.960000
321.907654	147.100000
322.000946	146.580000
322.094269	147.280000
322.187561	146.580000
322.280884	146.640000
322.374176	146.940000
322.467468	147.620000
322.560791	147.440000
322.654083	148.080000
322.747406	147.820000
322.840698	148.140000
322.934021	148.320000
323.027344	148.340000
323.120636	147.700000
323.213959	147.620000
323.307251	147.120000
323.400574	146.820000
323.493866	146.340000
323.587219	146.460000
323.680511	146.960000
323.773834	147.300000
323.867157	147.260000
323.960449	147.380000
324.053772	147.100000
324.147095	146.580000
324.240387	146.940000
324.333710	146.860000
324.427032	147.060000
324.520355	147.420000
324.613647	147.180000
324.706970	146.660000
324.800293	146.540000
324.893616	146.780000
324.986938	146.600000
325.080231	146.660000
325.173553	146.760000
325.266876	147.420000
325.360199	147.180000
325.453522	146.820000
325.546875	146.460000
325.640167	146.660000
325.733521	146.740000
325.826813	146.900000
325.920166	146.920000
326.013489	147.000000
326.106812	146.140000
326.200134	145.440000
326.293457	144.940000
326.386780	145.380000
326.480103	145.480000
326.573425	145.660000
326.666748	145.500000
326.760071	146.020000
326.853424	146.020000
326.946747	146.260000
327.040070	147.200000
327.133392	147.300000
327.226715	146.640000
327.320068	146.020000
327.413391	146.200000
327.506714	145.500000
327.600037	145.520000
327.693390	146.100000
327.786713	146.340000
327.880066	146.240000
327.973358	146.540000
328.066742	146.940000
328.160034	146.740000
328.253418	146.900000
328.346710	146.620000
328.440063	146.120000
328.533417	145.760000
328.626740	145.980000
328.720093	145.900000
328.813416	145.900000
328.906769	145.960000
329.000092	146.220000
329.093445	145.840000
329.186768	145.600000
329.280121	146.320000
329.373444	146.640000
329.466797	146.700000
329.560120	146.740000
329.653473	146.920000
329.746796	146.400000
329.840149	146.060000
329.933502	145.920000
330.026825	146.060000
330.120178	145.980000
330.213562	145.940000
330.306854	146.000000
330.400238	145.860000
330.493561	145.460000
330.586945	146.360000
330.680237	146.700000
330.773621	146.940000
330.866974	146.920000
330.960327	147.560000
331.053680	146.740000
331.147003	146.560000
331.240356	146.460000
331.333710	146.240000
331.427063	145.620000
331.520416	145.820000
331.613770	145.700000
331.707123	146.020000
331.800476	146.580000
331.893829	147.720000
331.987152	147.700000
332.080505	147.600000
332.173859	147.320000
332.267212	146.840000
332.360565	145.860000
332.453918	145.720000
332.547333	145.580000
332.640656	145.600000
332.734039	146.020000
332.827362	146.300000
332.920746	146.580000
333.014069	146.940000
333.107452	147.340000
333.200806	147.020000
333.294159	147.120000
333.387543	146.580000
333.480896	146.060000
333.574249	145.920000
333.667603	145.780000
333.760956	145.780000
333.854340	146.100000
333.947693	146.420000
334.041046	146.280000
334.134430	146.760000
334.227783	146.120000
334.321136	146.060000
334.414520	145.760000
334.507874	145.840000
334.601227	145.640000
334.694611	146.040000
334.787964	146.060000
334.881348	146.440000
334.974701	146.100000
335.068085	145.700000
335.161438	146.060000
335.254822	146.080000
335.348175	146.160000
335.441559	145.880000
335.534943	146.800000
335.628296	146.320000
335.721680	146.340000
335.815033	146.380000
335.908417	147.080000
336.001770	146.800000
336.095154	146.980000
336.188538	146.500000
336.281891	146.000000
336.375275	145.340000
336.468658	144.920000
336.562012	144.720000
336.655396	145.560000
336.748779	145.960000
336.842133	146.460000
336.935516	146.800000
337.028900	146.560000
337.122284	146.180000
337.215637	146.420000
337.309021	146.080000
337.402435	145.640000
337.495789	145.980000
337.589203	145.760000
337.682526	145.620000
337.775940	146.200000
337.869324	146.320000
337.962708	146.020000
338.056091	146.740000
338.149475	146.380000
338.242859	146.120000
338.336243	146.260000
338.429626	146.360000
338.523010	145.940000
338.616394	146.040000
338.709778	146.320000
338.803162	146.340000
338.896545	146.520000
338.989929	146.020000
339.083313	146.240000
339.176697	145.920000
339.270081	145.800000
339.363464	145.960000
339.456848	146.620000
339.550232	146.020000
339.643616	145.580000
339.737030	145.700000
339.830383	145.580000
339.923828	145.420000
340.017181	145.840000
340.110596	146.260000
340.203949	146.180000
340.297363	145.840000
340.390778	145.780000
340.484161	145.860000
340.577545	146.100000
340.670959	146.400000
340.764343	146.500000
340.857727	146.660000
340.951111	146.040000
341.044525	145.880000
341.137909	145.280000
341.231293	145.060000
341.324707	144.540000
341.418091	145.800000
341.511505	145.660000
341.604889	146.120000
341.698303	146.580000
341.791687	147.060000
341.885071	146.240000
341.978485	145.960000
342.071899	146.120000
342.165283	146.340000
342.258698	146.620000
342.352081	147.080000
342.445496	147.940000
342.538879	147.820000
342.632324	147.580000
342.725708	147.040000
342.819122	146.660000
342.912506	146.140000
343.005920	145.800000
343.099335	146.420000
343.192719	146.580000
343.286133	146.640000
343.379547	146.800000
343.472931	146.860000
343.566345	146.380000
343.659760	146.640000
343.753143	146.200000
343.846558	145.760000
343.939972	145.740000
344.033386	146.180000
344.126770	145.940000
344.220184	146.220000
344.313599	146.840000
344.407043	147.140000
344.500427	146.100000
344.593872	146.300000
344.687225	146.060000
344.780670	145.820000
344.874054	145.840000
344.967499	146.440000
345.060913	146.540000
345.154327	146.560000
345.247742	146.220000
345.341156	145.980000
345.434570	146.020000
345.527985	146.060000
345.621399	146.520000
345.714813	146.440000
345.808228	146.660000
345.901642	146.200000
345.995056	145.540000
346.088470	145.420000
346.181885	145.840000
346.275299	145.500000
346.368713	145.560000
346.462128	145.620000
346.555573	145.420000
346.648987	145.500000
346.742401	145.580000
346.835815	145.900000
346.929260	145.700000
347.022644	146.020000
347.116119	146.160000
347.209503	146.300000
347.302948	147.200000
347.396362	147.940000
347.489807	147.740000
347.583221	148.040000
347.676636	147.640000
347.770050	146.200000
347.863495	145.500000
347.956909	145.520000
348.050323	144.880000
348.143768	145.300000
348.237183	145.540000
348.330597	146.200000
348.424042	146.720000
348.517456	147.080000
348.610901	147.080000
348.704315	147.160000
348.797760	146.540000
348.891174	145.800000
348.984619	145.280000
349.078033	145.580000
349.171448	146.080000
349.264923	146.040000
349.358337	146.320000
349.451782	146.560000
349.545197	146.060000
349.638641	145.440000
349.732086	145.100000
349.825500	145.680000
349.918945	145.200000
350.012390	145.560000
350.105804	146.260000
350.199249	146.840000
350.292664	146.700000
350.386108	147.080000
350.479553	147.440000
350.572968	147.060000
350.666412	147.340000
350.759857	147.020000
350.853302	147.360000
350.946716	146.600000
351.040161	146.480000
351.133606	146.200000
351.227081	146.120000
351.320465	146.580000
351.413940	146.680000
351.507355	146.760000
351.600830	147.080000
351.694244	146.880000
351.787720	146.620000
351.881104	146.800000
351.974579	146.580000
352.067993	147.100000
352.161469	147.000000
352.254883	146.160000
352.348358	146.060000
352.441803	146.160000
352.535248	145.660000
352.628693	146.400000
352.722137	146.680000
352.815582	146.740000
352.909027	146.980000
353.002472	146.640000
353.095917	146.160000
353.189362	146.460000
353.282806	146.400000
353.376251	146.200000
353.469696	145.900000
353.563141	146.580000
353.656586	146.100000
353.750061	145.920000
353.843475	146.000000
353.936981	146.720000
354.030396	146.020000
354.123871	146.400000
354.217285	147.240000
354.310760	147.300000
354.404175	147.220000
354.497681	147.040000
354.591095	147.020000
354.684570	146.000000
354.777985	145.760000
354.871490	145.240000
354.964935	145.760000
355.058380	145.720000
355.151855	145.760000
355.245300	146.220000
355.338745	146.840000
355.432220	146.580000
355.525665	146.140000
355.619110	146.780000
355.712585	146.480000
355.806030	145.720000
355.899475	145.500000
355.992950	146.260000
356.086426	146.160000
356.179871	146.480000
356.273346	147.020000
356.366791	147.480000
356.460266	147.220000
356.553711	146.660000
356.647186	146.300000
356.740631	146.040000
356.834106	145.740000
356.927551	146.080000
357.021027	146.540000
357.114471	146.720000
357.207947	146.960000
357.301422	147.220000
357.394867	146.880000
357.488342	146.860000
357.581818	146.600000
357.675262	146.780000
357.768738	146.380000
357.862213	145.660000
357.955658	145.900000
358.049133	146.200000
358.142609	146.200000
358.236053	146.100000
358.329529	146.660000
358.423035	146.780000
358.516449	146.480000
358.609955	146.740000
358.703400	147.360000
358.796906	147.720000
358.890350	146.920000
358.983826	147.120000
359.077271	146.440000
359.170776	146.020000
359.264221	145.700000
359.357727	146.080000
359.451172	146.460000
359.544647	146.800000
359.638123	146.580000
359.731598	146.560000
359.825073	146.620000
359.918549	146.220000
360.012024	146.180000
360.105499	146.120000
360.198975	146.200000
360.292450	146.020000
360.385925	145.940000
360.479401	145.540000
360.572876	145.700000
360.666351	145.940000
360.759857	146.160000
360.853302	146.240000
360.946808	146.000000
361.040253	146.160000
361.133759	145.540000
361.227203	145.560000
361.320709	145.180000
361.414154	145.960000
361.507660	146.280000
361.601105	147.260000
361.694641	147.840000
361.788086	147.880000
361.881592	148.200000
361.975067	147.800000
362.068542	147.620000
362.162018	147.140000
362.255524	147.100000
362.348999	146.440000
362.442474	146.960000
362.535950	146.180000
362.629456	146.080000
362.722931	146.380000
362.816406	146.940000
362.909882	146.720000
363.003387	146.760000
363.096863	147.200000
363.190338	146.980000
363.283875	146.820000
363.377319	146.840000
363.470825	147.500000
363.564301	146.660000
363.657806	147.020000
363.751282	146.600000
363.844788	147.300000
363.938232	146.660000
364.031769	147.520000
364.125214	147.620000
364.218750	148.120000
364.312225	146.980000
364.405731	147.140000
364.499207	146.140000
364.592712	145.740000
364.686188	145.560000
364.779694	146.040000
364.873169	146.220000
364.966675	146.700000
365.060150	146.600000
365.153656	146.940000
365.247131	146.760000
365.340637	146.740000
365.434143	146.960000
365.527618	147.300000
365.621155	146.540000
365.714600	146.340000
365.808136	146.360000
365.901611	145.540000
365.995117	145.240000
366.088593	145.420000
366.182129	145.460000
366.275604	145.500000
366.369110	145.880000
366.462585	145.920000
366.556122	146.580000
366.649567	146.800000
366.743103	147.100000
366.836609	146.980000
366.930115	147.280000
367.023590	146.800000
367.117096	146.820000
367.210602	146.320000
367.304108	146.900000
367.397614	147.140000
367.491119	147.440000
367.584595	147.240000
367.678101	147.780000
367.771606	147.220000
367.865112	146.660000
367.958649	145.820000
368.052124	145.860000
368.145660	145.420000
368.239136	146.060000
368.332672	146.380000
368.426147	146.980000
368.519684	147.000000
368.613159	147.360000
368.706696	146.760000
368.800171	146.880000
368.893707	146.580000
368.987183	146.640000
369.080719	146.340000
369.174225	146.360000
369.267731	146.400000
369.361237	146.640000
369.454742	146.600000
369.548248	147.140000
369.641754	147.200000
369.735260	147.020000
369.828766	146.280000
369.922272	146.800000
370.015808	146.260000
370.109314	146.060000
370.202820	145.720000
370.296356	147.060000
370.389832	146.340000
370.483368	146.040000
370.576874	146.140000
370.670410	146.380000
370.763885	145.380000
370.857422	145.500000
370.950928	145.340000
371.044464	145.880000
371.137939	145.680000
371.231476	146.000000
371.324982	146.520000
371.418518	146.920000
371.512024	146.800000
371.605560	146.760000
371.699066	146.880000
371.792572	146.380000
371.886108	146.820000
371.979614	146.500000
372.073120	147.000000
372.166656	146.740000
372.260162	146.960000
372.353668	146.260000
372.447205	146.280000
372.540710	146.200000
372.634277	146.060000
372.727753	145.980000
372.821320	146.340000
372.914795	146.400000
373.008362	146.360000
373.101837	146.720000
373.195404	146.480000
373.288879	146.480000
373.382446	147.180000
373.475922	147.220000
373.569489	147.680000
373.662964	148.160000
373.756531	148.140000
373.850037	148.000000
373.943573	147.700000
374.037109	146.540000
374.130615	146.540000
374.224152	146.740000
374.317657	146.160000
374.411194	146.920000
374.504730	147.160000
374.598236	146.940000
374.691772	146.440000
374.785309	146.600000
374.878815	145.720000
374.972351	146.140000
375.065887	146.060000
375.159454	146.960000
375.252930	146.900000
375.346497	147.440000
375.440002	148.160000
375.533569	148.280000
375.627045	147.500000
375.720612	147.460000
375.814117	147.700000
375.907684	146.880000
376.001160	146.740000
376.094727	146.360000
376.188232	147.240000
376.281799	147.280000
376.375336	147.360000
376.468872	148.000000
376.562408	148.320000
376.655914	147.460000
376.749451	146.880000
376.842987	146.960000
376.936523	146.200000
377.030060	146.420000
377.123596	146.720000
377.217133	146.220000
377.310669	146.220000
377.404205	146.620000
377.497772	146.960000
377.591278	146.760000
377.684845	147.920000
377.778351	148.100000
377.871918	147.980000
377.965424	147.240000
378.058990	146.900000
378.152496	146.500000
378.246063	146.420000
378.339569	146.480000
378.433136	146.760000
378.526642	147.160000
378.620209	146.780000
378.713745	146.400000
378.807312	146.800000
378.900848	146.680000
378.994385	146.520000
379.087921	146.120000
379.181458	146.560000
379.274994	145.760000
379.368530	145.620000
379.462097	146.040000
379.555634	146.720000
379.649170	145.980000
379.742706	146.160000
379.836273	146.460000
379.929810	145.940000
380.023376	145.840000
380.116882	146.060000
380.210449	145.880000
380.303986	145.620000
380.397552	145.540000
380.491058	145.480000
380.584656	145.540000
380.678162	146.140000
380.771729	146.360000
380.865265	147.060000
380.958832	147.140000
381.052368	147.620000
381.145935	147.280000
381.239471	147.700000
381.333008	147.160000
381.426575	146.980000
381.520111	146.700000
381.613647	147.140000
381.707214	146.780000
381.800751	146.380000
381.894318	146.840000
381.987854	146.700000
382.081421	146.160000
382.174988	146.240000
382.268524	146.200000
382.362091	146.120000
382.455627	146.720000
382.549194	146.560000
382.642731	146.160000
382.736298	146.280000
382.829834	145.940000
382.923401	146.060000
383.016937	146.300000
383.110504	146.400000
383.204041	146.780000
383.297607	147.060000
383.391174	146.060000
383.484741	146.700000
383.578278	146.400000
383.671844	145.660000
383.765411	145.100000
383.858948	145.660000
383.952515	145.160000
384.046051	145.960000
384.139618	146.900000
384.233185	147.200000
384.326721	147.420000
384.420288	148.040000
384.513855	147.960000
384.607422	148.080000
384.700989	148.320000
384.794525	147.800000
384.888123	147.420000
384.981659	147.540000
385.075226	147.020000
385.168762	146.660000
385.262360	146.640000
385.355896	145.900000
385.449463	145.780000
385.542999	145.880000
385.636597	146.620000
385.730164	147.100000
385.823730	147.060000
385.917267	146.520000
386.010834	146.540000
386.104401	146.440000
386.197968	146.340000
386.291534	146.840000
386.385101	146.920000
386.478668	147.280000
386.572235	146.900000
386.665802	146.440000
386.759338	146.200000
386.852905	146.400000
386.946472	145.860000
387.040070	146.000000
387.133606	146.240000
387.227203	146.120000
387.320740	146.400000
387.414337	146.340000
387.507874	146.100000
387.601471	146.020000
387.695007	146.280000
387.788605	145.720000
387.882141	146.000000
387.975739	145.800000
388.069275	145.560000
388.162872	145.500000
388.256439	145.360000
388.350037	145.200000
388.443604	145.380000
388.537170	145.440000
388.630737	146.020000
388.724304	146.640000
388.817871	146.700000
388.911438	147.020000
389.005005	147.380000
389.098602	147.540000
389.192169	147.000000
389.285736	147.600000
389.379333	147.400000
389.472870	146.880000
389.566467	146.580000
389.660034	146.900000
389.753632	146.180000
389.847168	146.640000
389.940765	147.280000
390.034332	147.640000
390.127930	147.100000
390.221466	147.300000
390.315063	146.600000
390.408630	145.920000
390.502228	144.700000
390.595795	145.140000
390.689362	145.080000
390.782959	145.800000
390.876526	146.380000
390.970093	146.840000
391.063690	147.340000
391.157257	147.540000
391.250824	147.300000
391.344421	147.160000
391.437988	147.360000
391.531555	147.360000
391.625153	147.400000
391.718750	147.460000
391.812317	147.420000
391.905914	147.420000
391.999481	147.260000
392.093079	147.060000
392.186615	147.280000
392.280243	147.500000
392.373779	147.460000
392.467407	147.860000
392.560944	147.820000
392.654572	147.440000
392.748108	147.380000
392.841736	147.400000
392.935303	146.760000
393.028900	146.820000
393.122467	146.980000
393.216064	146.460000
393.309631	145.960000
393.403229	145.800000
393.496796	145.740000
393.590393	144.800000
393.683990	145.320000
393.777557	145.720000
393.871155	145.920000
393.964722	146.480000
394.058350	147.100000
394.151917	147.100000
394.245514	147.240000
394.339081	147.740000
394.432678	147.480000
394.526245	147.520000
394.619873	146.960000
394.713409	146.800000
394.807037	146.240000
394.900604	146.180000
394.994202	146.280000
395.087769	147.000000
395.181396	146.520000
395.274994	147.300000
395.368561	146.640000
395.462158	146.620000
395.555756	146.080000
395.649353	146.700000
395.742920	145.860000
395.836517	146.600000
395.930115	145.980000
396.023712	146.580000
396.117279	146.620000
396.210876	146.580000
396.304474	146.780000
396.398071	147.340000
396.491669	147.200000
396.585266	146.900000
396.678833	146.840000
396.772461	146.680000
396.866028	146.720000
396.959656	146.980000
397.053223	147.560000
397.146851	147.620000
397.240417	147.840000
397.334015	148.600000
397.427582	148.660000
397.521210	149.060000
397.614807	150.220000
397.708405	151.500000
397.802002	152.640000
397.895599	155.300000
397.989197	157.860000
398.082794	161.380000
398.176392	166.000000
398.269989	171.280000
398.363586	177.700000
398.457184	185.960000
398.550781	195.000000
398.644379	203.740000
398.737976	214.620000
398.831573	225.820000
398.925201	237.020000
399.018768	248.760000
399.112396	261.780000
399.205963	274.940000
399.299591	288.880000
399.393158	304.280000
399.486786	321.320000
399.580353	338.560000
399.673981	355.580000
399.767578	372.860000
399.861206	388.800000
399.954773	402.680000
400.048401	413.140000
400.141998	418.900000
400.235596	420.700000
400.329193	418.600000
400.422791	413.620000
400.516418	406.880000
400.610016	401.760000
400.703613	396.060000
400.797211	389.040000
400.890808	381.260000
400.984436	372.440000
401.078033	359.940000
401.171631	344.460000
401.265259	327.080000
401.358826	307.600000
401.452484	286.740000
401.546051	266.720000
401.639679	246.760000
401.733246	230.060000
401.826904	214.400000
401.920471	200.820000
402.014099	189.400000
402.107697	180.560000
402.201324	172.380000
402.294891	166.940000
402.388550	162.520000
402.482147	158.760000
402.575745	155.680000
402.669373	153.080000
402.762970	150.800000
402.856567	149.720000
402.950195	149.140000
403.043793	148.500000
403.137390	148.860000
403.231018	147.780000
403.324615	148.100000
403.418243	147.620000
403.511841	147.860000
403.605469	147.360000
403.699066	148.240000
403.792694	147.880000
403.886292	147.880000
403.979919	147.960000
404.073517	147.960000
404.167145	148.020000
404.260712	148.160000
404.354370	147.920000
404.447937	147.940000
404.541595	148.060000
404.635162	148.140000
404.728821	148.420000
404.822418	148.000000
404.916046	147.600000
405.009644	147.560000
405.103271	147.480000
405.196899	146.760000
405.290497	147.020000
405.384125	147.420000
405.477722	147.120000
405.571350	146.460000
405.664948	146.840000
405.758575	146.640000
405.852203	145.960000
405.945801	146.180000
406.039429	146.660000
406.133057	146.240000
406.226654	146.640000
406.320312	147.040000
406.413879	147.020000
406.507538	147.260000
406.601135	147.260000
406.694763	147.660000
406.788361	147.200000
406.882019	147.020000
406.975586	146.960000
407.069244	147.600000
407.162872	147.560000
407.256470	147.600000
407.350098	147.300000
407.443726	147.100000
407.537323	146.560000
407.630951	146.320000
407.724579	146.180000
407.818207	146.820000
407.911804	146.440000
408.005432	146.480000
408.099060	146.560000
408.192688	147.180000
408.286285	147.040000
408.379913	147.100000
408.473572	147.240000
408.567169	146.700000
408.660828	146.260000
408.754395	146.020000
408.848053	145.980000
408.941650	146.020000
409.035309	145.840000
409.128906	146.020000
409.222565	146.120000
409.316132	146.620000
409.409790	146.260000
409.503387	146.660000
409.597046	146.800000
409.690674	147.300000
409.784302	147.160000
409.877930	147.180000
409.971558	147.220000
410.065186	146.980000
410.158783	146.440000
410.252411	146.080000
410.346039	146.440000
410.439667	146.360000
410.533295	146.520000
410.626923	146.840000
410.720551	146.920000
410.814209	147.200000
410.907806	147.440000
411.001465	147.020000
411.095062	146.980000
411.188721	146.840000
411.282318	146.360000
411.375977	146.060000
411.469574	146.900000
411.563232	146.580000
411.656830	146.520000
411.750488	146.500000
411.844086	146.060000
411.937744	145.860000
412.031372	145.660000
412.125000	146.020000
412.218628	145.940000
412.312256	146.980000
412.405884	147.320000
412.499512	147.560000
412.593170	147.660000
412.686798	148.000000
412.780426	147.360000
412.874054	146.980000
412.967682	147.000000
413.061310	147.340000
413.154968	147.200000
413.248566	147.300000
413.342224	147.020000
413.435852	147.080000
413.529510	146.600000
413.623108	145.900000
413.716766	145.900000
413.810364	146.340000
413.904022	146.140000
413.997650	145.660000
414.091309	146.680000
414.184906	146.680000
414.278564	146.120000
414.372192	146.440000
414.465851	147.060000
414.559479	146.560000
414.653107	147.380000
414.746735	147.500000
414.840393	147.500000
414.934021	147.600000
415.027649	147.280000
415.121277	146.740000
415.214935	147.080000
415.308563	146.800000
415.402191	146.060000
415.495850	146.360000
415.589478	145.900000
415.683136	145.720000
415.776733	146.140000
415.870422	146.980000
415.964020	146.680000
416.057678	147.200000
416.151306	147.240000
416.244965	147.000000
416.338562	146.720000
416.432251	147.520000
416.525848	148.120000
416.619507	148.440000
416.713165	148.460000
416.806793	148.300000
416.900421	147.940000
416.994080	146.760000
417.087708	146.320000
417.181366	146.060000
417.274994	146.080000
417.368622	146.240000
417.462280	146.900000
417.555908	147.080000
417.649567	147.160000
417.743195	147.460000
417.836853	147.440000
417.930481	147.460000
418.024170	147.380000
418.117767	148.060000
418.211426	148.180000
418.305054	148.320000
418.398712	147.800000
418.492340	147.620000
418.585999	147.420000
418.679626	147.240000
418.773285	147.040000
418.866913	147.460000
418.960571	148.000000
419.054230	147.860000
419.147858	148.020000
419.241516	147.860000
419.335144	147.480000
419.428802	147.160000
419.522461	146.920000
419.616089	146.380000
419.709747	146.720000
419.803375	147.340000
419.897034	146.940000
419.990662	147.060000
420.084320	147.640000
420.177979	147.540000
420.271606	147.200000
420.365295	147.880000
420.458893	147.900000
420.552582	148.120000
420.646210	148.200000
420.739868	148.140000
420.833496	147.880000
420.927155	147.620000
421.020782	147.240000
421.114471	146.680000
421.208069	146.660000
421.301758	147.080000
421.395386	147.420000
421.489044	147.300000
421.582703	147.340000
421.676361	148.200000
421.769989	147.480000
421.863647	147.820000
421.957306	147.840000
422.050934	148.380000
422.144592	147.740000
422.238251	147.700000
422.331909	147.040000
422.425537	146.560000
422.519196	146.560000
422.612854	146.300000
422.706543	146.000000
422.800140	146.260000
422.893829	146.220000
422.987457	145.500000
423.081146	145.520000
423.174744	146.380000
423.268433	146.200000
423.362061	146.420000
423.455750	146.560000
423.549347	146.720000
423.643036	146.060000
423.736664	146.700000
423.830353	146.780000
423.924011	147.440000
424.017639	146.920000
424.111298	146.940000
424.204956	146.560000
424.298615	146.600000
424.392273	146.160000
424.485931	146.460000
424.579559	146.740000
424.673218	146.560000
424.766876	146.620000
424.860535	146.380000
424.954193	146.280000
425.047882	146.620000
425.141510	146.540000
425.235199	146.540000
425.328796	146.700000
425.422485	146.580000
425.516113	145.720000
425.609802	145.760000
425.703430	145.700000
425.797119	145.600000
425.890747	145.920000
425.984436	146.280000
426.078064	146.160000
426.171753	146.320000
426.265411	145.960000
426.359070	146.060000
426.452728	146.040000
426.546356	146.020000
426.640015	145.840000
426.733673	146.180000
426.827332	145.760000
426.920990	146.580000
427.014648	146.400000
427.108307	146.240000
427.201965	146.700000
427.295624	146.900000
427.389282	146.000000
427.482941	146.320000
427.576630	146.360000
427.670258	145.580000
427.763947	145.500000
427.857574	145.860000
427.951263	145.700000
428.044922	145.700000
428.138611	145.960000
428.232239	146.340000
428.325928	146.420000
428.419556	147.140000
428.513245	146.880000
428.606903	147.020000
428.700562	146.080000
428.794220	145.520000
428.887878	144.840000
428.981537	145.240000
429.075195	145.260000
429.168854	146.140000
429.262512	146.620000
429.356201	147.000000
429.449860	146.720000
429.543518	146.780000
429.637177	146.760000
429.730835	146.440000
429.824493	145.980000
429.918182	146.340000
430.011810	145.940000
430.105530	145.620000
430.199158	145.740000
430.292847	145.660000
430.386475	145.560000
430.480164	145.480000
430.573792	145.040000
430.667511	145.080000
430.761139	145.020000
430.854828	145.260000
430.948456	145.500000
431.042145	146.440000
431.135834	146.180000
431.229492	146.640000
431.323151	146.620000
431.416809	146.640000
431.510468	146.380000
431.604156	146.620000
431.697815	146.680000
431.791473	146.420000
431.885132	146.020000
431.978821	146.200000
432.072479	146.380000
432.166138	146.440000
432.259827	146.280000
432.353485	146.980000
432.447174	146.680000
432.540802	146.420000
432.634491	146.440000
432.728149	146.860000
432.821838	147.220000
432.915466	147.360000
433.009186	147.460000
433.102814	146.640000
433.196503	146.300000
433.290131	145.720000
433.383850	145.820000
433.477509	145.760000
433.571167	146.840000
433.664856	146.980000
433.758514	147.340000
433.852173	147.120000
433.945862	147.320000
434.039520	147.260000
434.133179	146.880000
434.226868	146.580000
434.320526	146.240000
434.414185	146.420000
434.507874	145.720000
434.601562	146.340000
434.695221	146.280000
434.788910	146.560000
434.882538	146.540000
434.976257	146.420000
435.069885	146.140000
435.163574	146.360000
435.257233	145.900000
435.350922	145.760000
435.444580	145.780000
435.538269	145.480000
435.631897	145.480000
435.725616	146.200000
435.819275	146.380000
435.912964	147.020000
436.006622	147.400000
436.100311	147.340000
436.193970	146.640000
436.287628	146.160000
436.381317	145.700000
436.474976	145.460000
436.568665	144.920000
436.662323	145.140000
436.756012	145.400000
436.849670	145.040000
436.943390	144.880000
437.037018	145.260000
437.130737	145.520000
437.224365	145.160000
437.318085	145.700000
437.411713	145.920000
437.505432	146.480000
437.599060	146.680000
437.692780	147.340000
437.786407	147.280000
437.880127	147.360000
437.973755	146.860000
438.067474	146.380000
438.161133	145.880000
438.254822	146.300000
438.348480	146.180000
438.442169	146.560000
438.535828	147.220000
438.629517	147.420000
438.723175	146.620000
438.816864	147.000000
438.910553	146.500000
439.004211	145.940000
439.097900	145.600000
439.191559	145.880000
439.285248	145.140000
439.378906	145.860000
439.472626	145.940000
439.566284	146.020000
439.659973	146.280000
439.753632	146.440000
439.847321	146.400000
439.940979	146.220000
440.034698	146.480000
440.128326	145.780000
440.222046	145.740000
440.315674	144.760000
440.409393	145.180000
440.503082	144.780000
440.596741	145.300000
440.690430	145.920000
440.784088	146.120000
440.877777	145.620000
440.971466	145.760000
441.065125	145.620000
441.158813	145.160000
441.252502	145.520000
441.346161	145.800000
441.439850	146.260000
441.533539	145.900000
441.627197	146.380000
441.720886	146.060000
441.814606	146.440000
441.908234	146.580000
442.001953	146.980000
442.095612	146.720000
442.189301	147.100000
442.282959	146.980000
442.376678	146.000000
442.470306	146.740000
442.564026	146.300000
442.657684	146.300000
442.751404	146.240000
442.845032	147.240000
442.938751	146.600000
443.032440	147.080000
443.126099	146.360000
443.219788	146.480000
443.313477	146.160000
443.407166	146.280000
443.500824	146.280000
443.594513	146.840000
443.688202	146.780000
443.781891	146.360000
443.875549	146.200000
443.969238	146.060000
444.062927	146.340000
444.156647	146.240000
444.250275	146.700000
444.343994	146.660000
444.437653	146.760000
444.531372	146.520000
444.625031	146.360000
444.718719	145.920000
444.812378	146.040000
444.906097	145.740000
444.999756	144.960000
445.093445	145.120000
445.187103	145.720000
445.280823	146.020000
445.374512	146.120000
445.468201	146.640000
445.561859	146.380000
445.655548	146.020000
445.749237	145.320000
445.842926	145.320000
445.936615	145.820000
446.030304	145.800000
446.123962	146.120000
446.217651	146.300000
446.311340	146.220000
446.405029	145.700000
446.498749	145.660000
446.592407	145.060000
446.686096	145.120000
446.779755	145.600000
446.873474	145.880000
446.967133	146.200000
447.060852	146.240000
447.154510	146.400000
447.248230	146.420000
447.341858	146.420000
447.435577	145.960000
447.529236	145.860000
447.622955	145.800000
447.716644	145.640000
447.810333	145.560000
447.904022	145.980000
447.997711	145.900000
448.091400	146.160000
448.185059	145.840000
448.278748	146.200000
448.372437	145.900000
448.466125	146.520000
448.559814	146.320000
448.653503	147.200000
448.747192	146.980000
448.840912	147.660000
448.934570	147.420000
449.028290	147.600000
449.121948	146.780000
449.215637	146.720000
449.309296	145.860000
449.403015	145.900000
449.496674	145.860000
449.590393	146.080000
449.684052	145.800000
449.777771	146.560000
449.871429	146.100000
449.965149	145.920000
450.058838	145.960000
450.152527	146.480000
450.246216	146.140000
450.339905	146.360000
450.433594	146.180000
450.527283	146.920000
450.620972	146.600000
450.714661	146.880000
450.808350	147.200000
450.902039	147.600000
450.995728	146.960000
451.089417	146.440000
451.183105	146.360000
451.276794	146.860000
451.370514	146.160000
451.464172	145.460000
451.557892	145.720000
451.651550	145.720000
451.745270	144.780000
451.838928	144.700000
451.932648	145.260000
452.026306	145.700000
452.120026	145.280000
452.213684	145.820000
452.307404	146.120000
452.401062	146.180000
452.494781	146.380000
452.588470	146.720000
452.682159	146.200000
452.775848	146.400000
452.869537	145.940000
452.963226	145.640000
453.056915	145.480000
453.150604	145.680000
453.244293	145.740000
453.337982	146.780000
453.431671	147.020000
453.525360	147.560000
453.619049	147.440000
453.712769	147.240000
453.806427	146.480000
453.900146	146.000000
453.993805	145.740000
454.087555	146.280000
454.181213	146.360000
454.274933	146.140000
454.368591	146.380000
454.462311	145.880000
454.555969	145.600000
454.649689	146.240000
454.743347	146.160000
454.837067	146.840000
454.930756	147.820000
455.024445	148.000000
455.118134	147.660000
455.211853	148.120000
455.305542	147.560000
455.399231	147.020000
455.492920	146.560000
455.586609	146.560000
455.680298	146.780000
455.773987	146.440000
455.867676	146.280000
455.961365	146.720000
456.055084	146.160000
456.148773	145.820000
456.242493	146.000000
456.336151	145.940000
456.429871	146.080000
456.523529	146.900000
456.617249	146.640000
456.710907	147.060000
456.804626	147.100000
456.898315	146.680000
456.992035	146.460000
457.085693	146.400000
457.179413	145.620000
457.273102	146.500000
457.366791	146.440000
457.460480	146.560000
457.554199	147.160000
457.647888	147.380000
457.741577	146.560000
457.835266	146.600000
457.928955	146.620000
458.022644	146.840000
458.116364	147.140000
458.210052	147.300000
458.303741	147.680000
458.397461	147.020000
458.491119	146.400000
458.584839	146.400000
458.678528	146.180000
458.772247	145.920000
458.865906	146.320000
458.959625	147.040000
459.053284	146.800000
459.147003	146.600000
459.240692	147.060000
459.334412	147.140000
459.428070	146.740000
459.521790	146.560000
459.615479	146.460000
459.709198	146.700000
459.802887	146.140000
459.896576	146.000000
459.990265	146.500000
460.083954	146.740000
460.177673	146.060000
460.271362	146.420000
460.365051	146.360000
460.458740	146.000000
460.552429	145.740000
460.646149	145.820000
460.739838	145.560000
460.833527	145.700000
460.927246	145.500000
461.020905	145.740000
461.114655	145.860000
461.208313	146.120000
461.302032	145.780000
461.395691	146.200000
461.489441	146.240000
461.583099	145.860000
461.676819	145.500000
461.770477	145.720000
461.864197	145.340000
461.957916	145.160000
462.051605	144.840000
462.145294	145.880000
462.238983	145.540000
462.332703	146.280000
462.426392	147.380000
462.520081	147.640000
462.613770	146.800000
462.707489	147.240000
462.801178	146.600000
462.894867	145.900000
462.988556	146.200000
463.082275	146.700000
463.175964	146.100000
463.269684	146.540000
463.363342	146.340000
463.457092	145.780000
463.550751	145.880000
463.644470	146.460000
463.738129	146.280000
463.831879	146.400000
463.925537	147.180000
464.019257	146.920000
464.112946	146.860000
464.206665	146.500000
464.300323	146.480000
464.394043	145.920000
464.487762	146.020000
464.581451	146.020000
464.675140	146.200000
464.768829	146.360000
464.862549	146.680000
464.956238	146.840000
465.049927	147.060000
465.143646	147.180000
465.237335	147.240000
465.331024	147.780000
465.424713	147.680000
465.518433	147.740000
465.612152	147.480000
465.705811	147.300000
465.799561	146.560000
465.893219	146.360000
465.986938	146.000000
466.080597	145.880000
466.174347	145.960000
466.268005	146.280000
466.361725	146.380000
466.455414	146.440000
466.549133	146.640000
466.642792	146.880000
466.736542	146.520000
466.830231	146.560000
466.923920	146.340000
467.017609	146.300000
467.111328	145.660000
467.205017	145.580000
467.298706	145.420000
467.392426	145.860000
467.486115	146.360000
467.579803	146.280000
467.673523	146.780000
467.767212	146.840000
467.860901	146.500000
467.954651	146.140000
468.048309	146.420000
468.142029	146.040000
468.235718	145.740000
468.329437	145.540000
468.423096	145.580000
468.516846	145.580000
468.610504	145.360000
468.704224	145.380000
468.797913	145.500000
468.891632	145.340000
468.985291	145.040000
469.079010	145.240000
469.172729	144.820000
469.266418	145.440000
469.360107	145.800000
469.453827	145.740000
469.547516	145.880000
469.641205	146.400000
469.734924	146.420000
469.828613	146.720000
469.922302	147.200000
470.016022	147.300000
470.109711	147.140000
470.203430	146.340000
470.297150	145.400000
470.390808	145.540000
470.484558	145.400000
470.578217	146.060000
470.671936	146.820000
470.765625	147.720000
470.859344	147.280000
470.953003	147.620000
471.046753	147.060000
471.140411	146.220000
471.234131	146.100000
471.327820	146.700000
471.421539	146.440000
471.515228	146.020000
471.608948	146.520000
471.702637	145.940000
471.796326	145.400000
471.890045	145.660000
471.983734	146.160000
472.077423	145.900000
472.171143	146.320000
472.264832	146.500000
472.358521	146.020000
472.452240	145.980000
472.545929	146.720000
472.639648	146.540000
472.733337	146.500000
472.827057	146.760000
472.920746	146.800000
473.014465	146.720000
473.108124	146.700000
473.201874	146.700000
473.295532	146.400000
473.389252	146.780000
473.482941	146.780000
473.576660	146.520000
473.670319	146.480000
473.764069	146.800000
473.857727	146.720000
473.951477	146.840000
474.045166	147.420000
474.138855	147.360000
474.232574	147.220000
474.326263	147.100000
474.419952	146.880000
474.513672	146.460000
474.607361	146.180000
474.701050	146.500000
474.794769	146.820000
474.888458	146.840000
474.982178	146.880000
475.075867	147.280000
475.169586	147.320000
475.263275	146.840000
475.356995	146.740000
475.450653	146.800000
475.544403	146.440000
475.638062	146.820000
475.731812	146.580000
475.825470	146.420000
475.919189	146.920000
476.012878	147.200000
476.106598	146.440000
476.200256	147.020000
476.294006	146.900000
476.387695	146.460000
476.481384	146.460000
476.575104	146.720000
476.668793	146.380000
476.762512	146.220000
476.856201	146.820000
476.949890	146.700000
477.043610	146.220000
477.137299	146.040000
477.230988	146.580000
477.324707	145.880000
477.418396	146.500000
477.512146	146.700000
477.605804	146.480000
477.699524	146.340000
477.793213	146.360000
477.886932	145.920000
477.980591	145.580000
478.074341	145.500000
478.167999	145.080000
478.261749	145.300000
478.355408	145.200000
478.449127	145.740000
478.542816	146.700000
478.636536	147.580000
478.730225	147.560000
478.823944	147.840000
478.917633	147.700000
479.011322	147.760000
479.105042	146.920000
479.198730	146.980000
479.292450	146.920000
479.386139	147.300000
479.479828	147.000000
479.573547	147.680000
479.667267	147.480000
479.760925	147.440000
479.854675	147.460000
479.948334	147.700000
480.042084	147.120000
480.135742	147.620000
480.229462	146.960000
480.323151	146.640000
480.416870	145.760000
480.510529	145.720000
480.604279	145.140000
480.697937	145.680000
480.791656	145.200000
480.885345	145.440000
480.979065	145.620000
481.072754	146.180000
481.166473	146.660000
481.260132	147.320000
481.353882	147.340000
481.447540	147.160000
481.541260	147.000000
481.635010	146.220000
481.728668	145.760000
481.822388	145.900000
481.916077	146.060000
482.009796	145.600000
482.103485	146.200000
482.197205	146.360000
482.290863	146.400000
482.384613	146.180000
482.478271	145.800000
482.571991	145.500000
482.665680	145.520000
482.759399	146.000000
482.853058	146.520000
482.946808	146.960000
483.040466	146.920000
483.134216	146.800000
483.227875	146.240000
483.321594	146.540000
483.415283	146.680000
483.509003	146.580000
483.602661	146.380000
483.696411	146.460000
483.790070	145.980000
483.883789	145.880000
483.977478	146.300000
484.071198	146.460000
484.164917	146.160000
484.258606	145.940000
484.352325	146.060000
484.445984	145.920000
484.539734	146.240000
484.633392	146.260000
484.727142	146.560000
484.820801	146.180000
484.914520	146.100000
485.008209	146.060000
485.101929	146.560000
485.195587	146.360000
485.289337	146.520000
485.382996	146.560000
485.476715	146.640000
485.570404	146.960000
485.664124	146.860000
485.757782	147.380000
485.851532	146.720000
485.945190	146.480000
486.038910	146.260000
486.132599	146.620000
486.226318	145.740000
486.319977	146.120000
486.413727	146.620000
486.507446	145.980000
486.601105	145.520000
486.694855	146.080000
486.788513	146.000000
486.882233	145.600000
486.975922	145.980000
487.069641	145.960000
487.163300	145.680000
487.257050	146.560000
487.350708	146.240000
487.444427	145.840000
487.538116	146.040000
487.631836	146.040000
487.725494	145.680000
487.819214	145.620000
487.912903	145.640000
488.006622	145.740000
488.100281	146.000000
488.194031	145.840000
488.287689	146.420000
488.381409	147.200000
488.475098	147.460000
488.568817	147.720000
488.662476	147.500000
488.756226	146.840000
488.849945	145.800000
488.943604	145.480000
489.037354	145.220000
489.131012	145.140000
489.224731	145.300000
489.318390	145.780000
489.412140	145.720000
489.505798	145.580000
489.599518	145.540000
489.693207	145.980000
489.786926	145.340000
489.880585	145.360000
489.974335	145.740000
490.067993	146.700000
490.161713	146.680000
490.255371	147.900000
490.349121	148.080000
490.442780	147.900000
490.536499	147.080000
490.630188	147.200000
490.723907	146.600000
490.817566	146.380000
490.911285	146.200000
491.004974	145.860000
491.098694	145.420000
491.192413	146.180000
491.286102	146.020000
491.379822	146.240000
491.473480	146.860000
491.567200	147.160000
491.660889	146.180000
491.754608	146.600000
491.848267	146.340000
491.941986	146.360000
492.035675	146.240000
492.129395	146.860000
492.223053	146.600000
492.316772	147.020000
492.410461	146.720000
492.504181	146.720000
492.597839	146.240000
492.691559	146.360000
492.785248	146.300000
492.878967	146.580000
492.972626	146.200000
493.066345	146.280000
493.160034	145.900000
493.253754	145.900000
493.347412	145.640000
493.441132	145.780000
493.534882	146.080000
493.628540	146.580000
493.722260	146.580000
493.815918	146.460000
493.909668	147.100000
494.003326	147.280000
494.097046	146.920000
494.190704	146.600000
494.284454	146.680000
494.378113	146.380000
494.471832	146.000000
494.565491	145.700000
494.659210	145.760000
494.752899	145.720000
494.846619	145.320000
494.940277	145.540000
495.033997	145.820000
495.127686	145.900000
495.221405	145.860000
495.315063	145.960000
495.408783	145.860000
495.502441	146.020000
495.596191	146.340000
495.689850	146.360000
495.783569	146.820000
495.877228	146.720000
495.970947	146.280000
496.064697	145.920000
496.158356	146.700000
496.252075	146.600000
496.345734	146.340000
496.439453	147.260000
496.533142	147.320000
496.626862	147.240000
496.720520	146.960000
496.814240	147.300000
496.907898	146.740000
497.001617	146.760000
497.095306	145.900000
497.189026	145.740000
497.282684	145.640000
497.376404	145.840000
497.470062	145.780000
497.563782	146.340000
497.657471	146.440000
497.751190	146.300000
497.844849	146.340000
497.938568	146.460000
498.032227	146.200000
498.125946	146.440000
498.219635	146.400000
498.313354	146.240000
498.407074	145.820000
498.500732	146.020000
498.594452	146.200000
498.688110	146.040000
498.781830	145.880000
498.875519	145.940000
498.969238	145.620000
499.062897	144.780000
499.156616	145.400000
499.250275	145.660000
499.343994	145.420000
499.437653	145.540000
499.531372	146.220000
499.625061	146.400000
499.718781	146.620000
499.812439	147.380000
499.906158	146.960000
499.999817	146.860000
500.093536	146.220000
500.187195	146.020000
500.280914	145.720000
500.374573	146.220000
500.468323	145.740000
500.561981	146.220000
500.655701	145.660000
500.749420	145.660000
500.843079	145.940000
500.936798	146.700000
501.030457	147.020000
501.124176	147.520000
501.217834	147.380000
501.311554	146.820000
501.405212	146.240000
501.498962	145.280000
501.592621	145.120000
501.686340	145.540000
501.779999	146.140000
501.873718	146.540000
501.967377	146.800000
502.061096	147.360000
502.154755	146.820000
502.248474	146.480000
502.342133	146.660000
502.435852	146.660000
502.529510	146.840000
502.623230	147.460000
502.716888	147.100000
502.810608	146.600000
502.904266	147.120000
502.997986	146.220000
503.091705	145.340000
503.185364	145.400000
503.279083	145.520000
503.372772	145.080000
503.466492	145.240000
503.560150	145.720000
503.653870	146.100000
503.747528	146.460000
503.841248	146.580000
503.934906	147.040000
504.028625	146.940000
504.122284	146.860000
504.216003	146.920000
504.309662	146.380000
504.403381	146.360000
504.497040	146.380000
504.590759	146.100000
504.684418	146.340000
504.778137	147.200000
504.871796	147.520000
504.965515	147.100000
505.059174	147.300000
505.152893	146.500000
505.246521	145.480000
505.340240	144.880000
505.433899	145.440000
505.527618	145.700000
505.621338	146.180000
505.714996	146.300000
505.808716	146.240000
505.902374	146.420000
505.996094	146.400000
506.089752	145.900000
506.183472	146.500000
506.277130	146.620000
506.370850	146.220000
506.464508	145.960000
506.558228	146.520000
506.651886	145.980000
506.745605	146.020000
506.839264	146.280000
506.932983	146.320000
507.026611	145.760000
507.120331	146.600000
507.213989	145.980000
507.307709	145.900000
507.401367	146.380000
507.495087	147.340000
507.588745	146.800000
507.682465	147.980000
507.776123	148.280000
507.869843	148.060000
507.963531	147.800000
508.057190	148.280000
508.150909	147.120000
508.244568	147.020000
508.338287	146.560000
508.431946	145.940000
508.525665	145.420000
508.619324	145.620000
508.713013	145.880000
508.806671	146.700000
508.900391	147.460000
508.994049	147.500000
509.087769	147.540000
509.181427	147.320000
509.275146	146.520000
509.368774	145.900000
509.462494	145.920000
509.556152	146.260000
509.649872	146.340000
509.743530	146.860000
509.837250	147.080000
509.930878	147.260000
510.024597	146.800000
510.118256	146.300000
510.211975	145.840000
510.305695	145.540000
510.399353	145.780000
510.493042	146.480000
510.586700	146.920000
510.680420	147.520000
510.774078	147.420000
510.867798	147.240000
510.961426	146.720000
511.055145	146.540000
511.148804	146.040000
511.242523	146.420000
511.336151	146.720000
511.429871	147.000000
511.523529	146.560000
511.617249	146.420000
511.710876	146.140000
511.804596	145.340000
511.898254	145.260000
511.991974	146.080000
512.085632	145.900000
512.179321	146.140000
512.272949	146.760000
512.366699	147.120000
512.460327	146.740000
512.554077	147.800000
512.647766	147.580000
512.741394	147.520000
512.835144	147.560000
512.928772	147.200000
513.022461	146.800000
513.116150	146.680000
513.209839	147.120000
513.303467	146.380000
513.397217	146.100000
513.490845	145.880000
513.584595	145.920000
513.678223	145.220000
513.771912	144.900000
513.865601	145.300000
513.959290	145.240000
514.052917	145.260000
514.146667	146.200000
514.240295	147.120000
514.333984	147.460000
514.427673	147.020000
514.521362	147.720000
514.614990	146.420000
514.708740	146.420000
514.802368	146.600000
514.896057	147.040000
514.989746	147.180000
515.083435	147.480000
515.177124	147.440000
515.270752	146.980000
515.364502	146.800000
515.458130	146.600000
515.551819	146.520000
515.645508	146.100000
515.739197	146.120000
515.832825	146.500000
515.926575	146.200000
516.020203	146.340000
516.113892	147.020000
516.207520	147.080000
516.301270	146.820000
516.394897	147.020000
516.488586	147.640000
516.582275	147.240000
516.675964	146.740000
516.769592	146.300000
516.863281	146.700000
516.956970	146.760000
517.050659	146.380000
517.144287	146.740000
517.238037	147.260000
517.331665	146.260000
517.425354	145.700000
517.519043	145.960000
517.612732	146.020000
517.706421	145.920000
517.800049	146.160000
517.893738	145.860000
517.987427	145.760000
518.081116	145.780000
518.174744	145.420000
518.268433	145.820000
518.362122	146.580000
518.455811	146.640000
518.549438	147.080000
518.643127	148.100000
518.736816	147.540000
518.830505	147.080000
518.924133	147.320000
519.017822	147.640000
519.111511	147.140000
519.205200	147.640000
519.298828	147.740000
519.392517	147.140000
519.486206	146.960000
519.579895	147.220000
519.673523	146.940000
519.767212	146.920000
519.860901	147.760000
519.954590	147.200000
520.048279	146.500000
520.141907	146.600000
520.235596	147.200000
520.329224	147.160000
520.422974	147.260000
520.516602	147.460000
520.610291	147.400000
520.703918	147.000000
520.797607	146.420000
520.891296	146.520000
520.984985	146.800000
521.078613	146.900000
521.172302	146.560000
521.265930	147.480000
521.359680	147.760000
521.453308	147.780000
521.546997	147.780000
521.640625	147.720000
521.734314	147.240000
521.827942	146.960000
521.921692	146.940000
522.015320	146.940000
522.109009	147.000000
522.202698	146.680000
522.296326	146.600000
522.390015	146.900000
522.483704	146.740000
522.577393	146.480000
522.671021	146.140000
522.764709	145.920000
522.858337	146.260000
522.952026	146.220000
523.045654	146.980000
523.139404	147.960000
523.233032	148.280000
523.326721	147.680000
523.420349	147.820000
523.514038	147.260000
523.607666	147.120000
523.701355	146.620000
523.795044	146.380000
523.888733	146.860000
523.982361	147.260000
524.076050	146.620000
524.169678	147.380000
524.263367	147.300000
524.356995	146.540000
524.450684	146.220000
524.544373	146.460000
524.638062	146.040000
524.731750	146.320000
524.825378	146.540000
524.919067	146.000000
525.012695	146.080000
525.106384	145.740000
525.200012	145.780000
525.293701	145.320000
525.387329	146.220000
525.481018	146.160000
525.574646	146.920000
525.668396	146.920000
525.762024	147.640000
525.855713	147.600000
525.949341	147.280000
526.043030	146.980000
526.136658	146.620000
526.230347	146.220000
526.323975	145.680000
526.417664	145.740000
526.511292	145.820000
526.604980	146.140000
526.698608	146.280000
526.792297	146.360000
526.885925	146.460000
526.979614	146.720000
527.073303	146.700000
527.166931	146.460000
527.260620	146.840000
527.354309	147.420000
527.447998	147.400000
527.541626	146.980000
527.635315	147.400000
527.728943	147.800000
527.822632	147.560000
527.916260	147.240000
528.009949	147.840000
528.103577	147.560000
528.197266	146.800000
528.290894	146.800000
528.384583	146.660000
528.478210	146.480000
528.571899	146.780000
528.665527	147.220000
528.759216	147.340000
528.852844	147.720000
528.946533	147.680000
529.040161	147.540000
529.133850	147.200000
529.227478	147.040000
529.321167	147.320000
529.414856	147.460000
529.508484	147.900000
529.602173	147.600000
529.695801	147.540000
529.789490	147.200000
529.883057	147.240000
529.976746	146.900000
530.070374	147.600000
530.164062	147.640000
530.257690	147.660000
530.351379	147.740000
530.445007	147.760000
530.538696	146.900000
530.632324	146.800000
530.726013	146.720000
530.819641	146.540000
530.913330	146.360000
531.006958	146.640000
531.100647	146.660000
531.194275	146.540000
531.287964	146.260000
531.381592	146.140000
531.475220	146.180000
531.568848	146.100000
531.662537	145.720000
531.756226	146.280000
531.849854	146.400000
531.943542	146.580000
532.037170	146.300000
532.130859	147.120000
532.224487	146.460000
532.318176	146.140000
532.411804	146.500000
532.505432	146.740000
532.599060	146.280000
532.692749	146.680000
532.786377	147.580000
532.880066	146.780000
532.973694	146.580000
533.067383	146.700000
533.161011	146.320000
533.254639	146.000000
533.348267	146.060000
533.441956	146.480000
533.535583	146.060000
533.629272	146.480000
533.722900	145.780000
533.816589	145.880000
533.910156	146.340000
534.003845	146.320000
534.097534	146.580000
534.191162	147.180000
534.284851	147.460000
534.378479	146.820000
534.472107	147.380000
534.565735	146.900000
534.659424	147.020000
534.753052	147.040000
534.846741	146.940000
534.940369	147.420000
535.033997	147.320000
535.127625	147.060000
535.221313	147.740000
535.314941	147.640000
535.408630	146.580000
535.502197	147.140000
535.595886	146.940000
535.689514	146.260000
535.783203	147.020000
535.876831	147.520000
535.970459	147.200000
536.064087	147.220000
536.157776	147.400000
536.251404	147.020000
536.345093	147.000000
536.438721	147.120000
536.532349	147.520000
536.626038	147.140000
536.719666	147.480000
536.813293	147.120000
536.906921	147.020000
537.000610	147.300000
537.094238	147.340000
537.187866	146.780000
537.281494	146.840000
537.375183	146.840000
537.468811	146.340000
537.562439	146.280000
537.656067	146.460000
537.749756	146.740000
537.843384	147.160000
537.937012	147.240000
538.030640	147.200000
538.124329	147.240000
538.217896	147.120000
538.311584	147.040000
538.405212	147.080000
538.498901	147.480000
538.592468	147.720000
538.686157	147.240000
538.779785	146.460000
538.873413	146.280000
538.967102	145.960000
539.060730	145.360000
539.154358	146.140000
539.247986	146.600000
539.341675	146.680000
539.435242	146.600000
539.528931	146.980000
539.622559	146.360000
539.716187	146.860000
539.809814	146.740000
539.903503	146.780000
539.997070	146.600000
540.090759	146.920000
540.184387	146.540000
540.278015	147.240000
540.371643	147.520000
540.465332	147.600000
540.558899	147.380000
540.652588	147.120000
540.746216	146.300000
540.839844	146.400000
540.933472	146.340000
541.027100	146.420000
541.120728	146.700000
541.214417	146.980000
541.308044	147.180000
541.401672	147.080000
541.495300	146.960000
541.588928	146.400000
541.682617	146.220000
541.776184	145.580000
541.869873	145.920000
541.963440	146.060000
542.057129	146.300000
542.150757	146.500000
542.244385	146.840000
542.338013	146.320000
542.431641	146.240000
542.525269	146.200000
542.618958	146.500000
542.712524	146.440000
542.806213	146.380000
542.899780	146.760000
542.993469	146.660000
543.087036	146.180000
543.180725	145.780000
543.274292	146.220000
543.367981	146.180000
543.461548	146.680000
543.555237	146.660000
543.648926	147.300000
543.742493	147.720000
543.836182	147.580000
543.929749	147.260000
544.023437	147.200000
544.117004	146.820000
544.210693	146.520000
544.304260	146.340000
544.397949	146.380000
544.491516	146.700000
544.585205	146.720000
544.678772	146.420000
544.772461	146.700000
544.866028	146.540000
544.959717	146.520000
545.053284	146.420000
545.146973	146.680000
545.240540	146.740000
545.334229	147.380000
545.427795	147.800000
545.521423	147.920000
545.615051	148.000000
545.708679	148.160000
545.802307	147.860000
545.895935	147.580000
545.989624	148.200000
546.083191	147.960000
546.176880	147.600000
546.270447	147.220000
546.364136	147.380000
546.457703	146.700000
546.551331	146.720000
546.644958	146.980000
546.738586	147.440000
546.832214	147.140000
546.925842	146.940000
547.019409	147.380000
547.113098	147.020000
547.206665	146.660000
547.300354	146.620000
547.393921	147.060000
547.487549	146.660000
547.581177	146.540000
547.674805	146.760000
547.768433	146.280000
547.862061	146.200000
547.955627	145.920000
548.049316	146.580000
548.142883	146.720000
548.236572	147.360000
548.330139	147.600000
548.423767	147.600000
548.517456	147.240000
548.611023	147.220000
548.704651	146.460000
548.798279	146.340000
548.891907	146.980000
548.985474	146.840000
549.079163	146.700000
549.172729	146.840000
549.266357	146.400000
549.359985	146.180000
549.453613	145.800000
549.547180	145.900000
549.640869	146.400000
549.734436	146.580000
549.828064	146.840000
549.921631	147.000000
550.015320	146.720000
550.108887	147.000000
550.202515	147.000000
550.296143	146.600000
550.389771	147.100000
550.483337	146.940000
550.576965	146.720000
550.670593	147.240000
550.764221	147.260000
550.857849	146.640000
550.951477	146.620000
551.045105	146.500000
551.138672	146.140000
551.232300	145.880000
551.325928	146.580000
551.419556	147.000000
551.513123	147.000000
551.606750	146.880000
551.700378	147.180000
551.794006	146.680000
551.887573	146.260000
551.981201	146.660000
552.074768	146.380000
552.168457	146.080000
552.262024	147.180000
552.355652	147.520000
552.449219	147.720000
552.542847	148.040000
552.636475	147.940000
552.730103	146.540000
552.823669	146.520000
552.917297	145.700000
553.010864	145.520000
553.104553	145.760000
553.198181	145.840000
553.291748	146.060000
553.385376	146.440000
553.478943	146.280000
553.572571	146.520000
553.666199	146.660000
553.759827	146.020000
553.853394	145.520000
553.947021	145.880000
554.040588	145.600000
554.134216	146.060000
554.227783	147.040000
554.321411	147.920000
554.415039	147.320000
554.508667	147.520000
554.602234	147.640000
554.695862	146.920000
554.789429	146.540000
554.883057	146.900000
554.976624	146.600000
555.070251	146.520000
555.163818	146.600000
555.257507	146.620000
555.351074	146.960000
555.444702	148.320000
555.538330	147.760000
555.631897	147.840000
555.725525	147.820000
555.819092	147.760000
555.912720	146.240000
556.006287	146.820000
556.099915	146.820000
556.193481	146.860000
556.287109	146.960000
556.380676	147.400000
556.474304	147.320000
556.567871	147.340000
556.661499	146.820000
556.755066	146.620000
556.848694	146.680000
556.942261	146.600000
557.035889	146.700000
557.129517	147.300000
557.223145	147.880000
557.316711	147.760000
557.410339	148.060000
557.503906	147.660000
557.597473	147.600000
557.691040	147.060000
557.784668	147.000000
557.878296	146.620000
557.971863	147.060000
558.065491	147.180000
558.159058	146.900000
558.252686	147.660000
558.346252	148.320000
558.439880	147.660000
558.533447	147.200000
558.627075	147.080000
558.720642	146.220000
558.814270	145.840000
558.907837	145.980000
559.001465	146.040000
559.095032	146.800000
559.188660	147.240000
559.282227	146.500000
559.375854	147.420000
559.469360	147.220000
559.562988	147.160000
559.656555	146.820000
559.750183	147.400000
559.843750	146.900000
559.937378	147.160000
560.030945	147.280000
560.124573	0.000000
560.218140	0.000000
560.311707	0.000000
560.405334	0.000000
560.498901	0.000000
560.592529	0.000000
560.686096	0.000000
560.779724	0.000000
560.873291	0.000000
560.966858	0.000000
561.060425	0.000000
561.154053	0.000000
561.247620	0.000000
561.341248	0.000000
561.434814	0.000000
561.528381	0.000000
561.621948	0.000000
561.715576	0.000000
561.809143	0.000000
561.902771	0.000000
561.996277	0.000000
562.089905	0.000000
562.183472	0.000000
562.277100	0.000000
