Model Number: SPM-002-B   
Serial Number: 70087108
Firmware Version: 004.15.4
Exposure Time: 100000.000000us
Data Taken on: 11-12-2020 18:49:47.321
Wavelength	Amplitude
221.570786	0.000000
221.663406	0.000000
221.756027	0.000000
221.848648	0.000000
221.941269	0.000000
222.033905	0.000000
222.126526	0.000000
222.219162	0.000000
222.311798	0.000000
222.404419	0.000000
222.497055	0.000000
222.589676	0.000000
222.682312	0.000000
222.774933	0.000000
222.867569	0.000000
222.960205	0.000000
223.052841	0.000000
223.145462	0.000000
223.238098	0.000000
223.330734	0.000000
223.423386	0.000000
223.516022	0.000000
223.608658	0.000000
223.701309	0.000000
223.793945	0.000000
223.886581	0.000000
223.979218	0.000000
224.071869	0.000000
224.164505	0.000000
224.257156	0.000000
224.349792	0.000000
224.442444	0.000000
224.535095	0.000000
224.627747	0.000000
224.720398	0.000000
224.813034	0.000000
224.905685	0.000000
224.998337	145.680000
225.090988	145.640000
225.183640	145.740000
225.276291	145.440000
225.368942	145.800000
225.461594	146.320000
225.554245	146.220000
225.646912	145.900000
225.739578	146.380000
225.832230	146.780000
225.924896	145.720000
226.017548	146.100000
226.110199	146.900000
226.202866	146.200000
226.295532	145.900000
226.388184	146.240000
226.480850	145.520000
226.573517	144.820000
226.666168	145.120000
226.758835	145.440000
226.851501	146.020000
226.944183	146.300000
227.036850	145.980000
227.129517	145.760000
227.222183	145.920000
227.314850	145.780000
227.407516	146.280000
227.500198	147.220000
227.592865	147.160000
227.685532	146.760000
227.778214	146.480000
227.870880	146.320000
227.963562	146.360000
228.056229	147.140000
228.148926	146.840000
228.241592	147.400000
228.334274	147.080000
228.426956	146.640000
228.519638	146.260000
228.612305	146.100000
228.704987	145.940000
228.797668	146.080000
228.890350	145.900000
228.983032	145.320000
229.075714	146.100000
229.168396	145.640000
229.261108	145.180000
229.353790	145.420000
229.446472	145.700000
229.539169	145.460000
229.631851	145.080000
229.724533	145.540000
229.817230	145.560000
229.909912	146.380000
230.002609	146.260000
230.095306	146.640000
230.187988	146.680000
230.280685	146.540000
230.373383	145.500000
230.466095	145.140000
230.558792	145.340000
230.651474	145.380000
230.744171	145.280000
230.836868	145.080000
230.929581	145.600000
231.022278	145.600000
231.114975	145.360000
231.207672	145.040000
231.300369	145.860000
231.393082	145.880000
231.485779	145.440000
231.578506	145.480000
231.671204	145.720000
231.763916	145.500000
231.856613	145.200000
231.949326	145.540000
232.042023	145.700000
232.134735	145.940000
232.227448	145.960000
232.320160	146.520000
232.412872	146.760000
232.505585	147.160000
232.598297	147.260000
232.691010	146.860000
232.783722	146.220000
232.876450	146.860000
232.969162	146.320000
233.061874	145.940000
233.154587	145.580000
233.247314	145.920000
233.340027	145.100000
233.432739	145.480000
233.525467	145.340000
233.618179	145.920000
233.710907	145.080000
233.803635	145.620000
233.896347	145.080000
233.989090	146.200000
234.081818	145.920000
234.174545	146.740000
234.267258	146.060000
234.359985	146.340000
234.452713	145.620000
234.545441	145.400000
234.638168	145.300000
234.730896	145.700000
234.823639	145.660000
234.916367	146.100000
235.009094	146.600000
235.101822	146.540000
235.194580	146.300000
235.287308	146.060000
235.380051	145.420000
235.472778	145.720000
235.565521	146.140000
235.658249	145.920000
235.750992	146.260000
235.843719	146.280000
235.936462	146.300000
236.029205	145.620000
236.121948	145.680000
236.214691	145.760000
236.307449	146.540000
236.400192	146.040000
236.492935	145.980000
236.585678	146.060000
236.678421	146.160000
236.771164	145.780000
236.863907	146.160000
236.956665	146.520000
237.049408	148.260000
237.142151	147.520000
237.234909	147.920000
237.327652	147.700000
237.420410	147.220000
237.513153	145.920000
237.605927	146.200000
237.698669	145.680000
237.791428	145.200000
237.884186	145.800000
237.976944	145.200000
238.069702	145.500000
238.162445	145.180000
238.255203	145.540000
238.347961	145.600000
238.440720	145.960000
238.533478	145.940000
238.626266	145.740000
238.719025	145.940000
238.811783	145.660000
238.904541	145.680000
238.997314	145.500000
239.090073	145.400000
239.182831	145.480000
239.275604	146.480000
239.368362	146.080000
239.461136	145.980000
239.553909	146.180000
239.646667	146.220000
239.739441	145.660000
239.832214	145.980000
239.925003	146.140000
240.017761	146.700000
240.110535	146.920000
240.203308	146.480000
240.296082	146.680000
240.388855	146.600000
240.481628	146.340000
240.574417	146.280000
240.667191	146.480000
240.759964	145.920000
240.852737	146.160000
240.945526	145.880000
241.038315	145.460000
241.131088	145.500000
241.223877	146.020000
241.316650	145.540000
241.409439	145.980000
241.502228	145.820000
241.595001	145.860000
241.687790	145.400000
241.780579	145.560000
241.873367	145.780000
241.966141	146.140000
242.058929	145.760000
242.151718	146.080000
242.244507	146.440000
242.337311	145.500000
242.430099	145.900000
242.522903	146.380000
242.615692	146.040000
242.708481	146.220000
242.801270	147.160000
242.894073	146.960000
242.986862	147.000000
243.079651	147.500000
243.172455	147.080000
243.265244	147.040000
243.358063	146.560000
243.450867	146.640000
243.543655	146.460000
243.636459	146.560000
243.729263	146.440000
243.822067	146.900000
243.914856	146.980000
244.007660	147.280000
244.100464	147.340000
244.193268	147.080000
244.286072	146.820000
244.378876	146.260000
244.471680	145.880000
244.564499	146.040000
244.657318	146.900000
244.750122	147.320000
244.842926	147.020000
244.935745	147.480000
245.028549	146.940000
245.121368	146.220000
245.214172	146.060000
245.306992	146.920000
245.399796	146.460000
245.492615	146.720000
245.585434	146.400000
245.678253	146.060000
245.771072	145.540000
245.863892	145.920000
245.956711	146.000000
246.049530	146.340000
246.142349	146.240000
246.235168	146.340000
246.327988	146.580000
246.420807	146.640000
246.513626	146.480000
246.606445	146.320000
246.699280	146.040000
246.792099	145.760000
246.884918	145.500000
246.977753	145.120000
247.070587	145.320000
247.163422	145.520000
247.256241	145.540000
247.349075	146.000000
247.441895	146.360000
247.534729	146.300000
247.627563	146.500000
247.720383	146.780000
247.813217	146.420000
247.906052	146.360000
247.998886	146.580000
248.091736	146.360000
248.184570	145.780000
248.277405	145.740000
248.370239	146.540000
248.463074	147.580000
248.555908	147.640000
248.648743	147.800000
248.741592	147.940000
248.834427	147.120000
248.927261	145.740000
249.020111	146.220000
249.112946	146.960000
249.205795	146.700000
249.298630	146.880000
249.391495	147.140000
249.484344	146.640000
249.577179	146.040000
249.670029	146.560000
249.762878	147.080000
249.855728	147.320000
249.948563	147.640000
250.041412	147.120000
250.134262	147.140000
250.227112	147.020000
250.319962	146.860000
250.412827	146.600000
250.505692	146.340000
250.598541	145.920000
250.691391	145.260000
250.784241	145.220000
250.877106	145.260000
250.969955	145.460000
251.062805	146.060000
251.155670	146.960000
251.248520	146.980000
251.341385	147.240000
251.434235	147.100000
251.527100	146.500000
251.619965	145.680000
251.712814	146.440000
251.805695	146.480000
251.898560	147.140000
251.991425	147.660000
252.084290	148.240000
252.177155	147.140000
252.270020	146.800000
252.362885	146.500000
252.455750	146.180000
252.548615	145.760000
252.641479	145.940000
252.734360	145.840000
252.827240	145.700000
252.920105	145.940000
253.012970	145.720000
253.105850	145.720000
253.198715	145.560000
253.291595	145.760000
253.384460	145.360000
253.477341	145.580000
253.570221	145.860000
253.663086	145.660000
253.755966	146.220000
253.848846	146.560000
253.941727	146.920000
254.034592	147.060000
254.127472	147.080000
254.220367	146.860000
254.313248	146.820000
254.406128	146.420000
254.499008	146.460000
254.591904	147.580000
254.684784	148.100000
254.777664	147.980000
254.870544	147.780000
254.963440	147.640000
255.056335	147.160000
255.149216	146.100000
255.242111	146.420000
255.334991	146.760000
255.427887	146.840000
255.520767	146.820000
255.613663	147.220000
255.706558	146.660000
255.799438	146.500000
255.892334	145.920000
255.985229	145.980000
256.078125	145.980000
256.171021	146.180000
256.263916	146.520000
256.356812	146.960000
256.449707	146.740000
256.542603	146.560000
256.635498	147.220000
256.728394	147.020000
256.821289	146.880000
256.914215	147.500000
257.007080	147.840000
257.100006	147.280000
257.192932	147.720000
257.285828	147.840000
257.378723	147.040000
257.471619	146.520000
257.564545	146.400000
257.657440	146.360000
257.750336	146.540000
257.843262	146.560000
257.936157	147.680000
258.029053	148.240000
258.121979	148.100000
258.214874	147.620000
258.307800	147.800000
258.400696	146.560000
258.493622	146.060000
258.586517	145.460000
258.679443	146.120000
258.772339	145.460000
258.865265	145.760000
258.958160	145.460000
259.051086	146.100000
259.144012	145.620000
259.236938	146.880000
259.329834	147.000000
259.422791	147.060000
259.515717	146.360000
259.608612	146.200000
259.701538	145.640000
259.794464	145.260000
259.887390	145.340000
259.980316	145.560000
260.073212	145.520000
260.166138	144.840000
260.259064	145.360000
260.351990	146.160000
260.444916	146.020000
260.537842	146.460000
260.630768	147.220000
260.723694	147.240000
260.816620	146.640000
260.909546	146.620000
261.002472	145.960000
261.095398	145.480000
261.188354	145.300000
261.281281	144.880000
261.374207	145.220000
261.467133	146.260000
261.560089	146.540000
261.653015	146.160000
261.745972	146.980000
261.838867	147.320000
261.931824	147.340000
262.024780	146.980000
262.117706	147.560000
262.210663	147.360000
262.303589	146.860000
262.396515	146.640000
262.489471	147.380000
262.582397	147.240000
262.675354	146.920000
262.768280	147.060000
262.861237	147.200000
262.954163	147.100000
263.047119	146.900000
263.140045	146.620000
263.233002	146.580000
263.325958	145.960000
263.418884	145.640000
263.511841	145.720000
263.604797	145.680000
263.697723	145.440000
263.790680	145.700000
263.883636	145.860000
263.976593	145.700000
264.069550	146.320000
264.162476	146.280000
264.255463	146.320000
264.348419	146.040000
264.441376	146.400000
264.534332	145.680000
264.627289	145.980000
264.720245	146.480000
264.813202	146.240000
264.906158	146.240000
264.999115	146.840000
265.092072	146.700000
265.185028	146.860000
265.277985	147.420000
265.370941	147.260000
265.463898	146.820000
265.556854	146.640000
265.649811	145.840000
265.742798	145.680000
265.835754	145.740000
265.928711	146.360000
266.021667	146.660000
266.114655	146.880000
266.207611	147.240000
266.300568	146.860000
266.393585	146.260000
266.486511	146.460000
266.579498	145.480000
266.672485	144.780000
266.765442	144.960000
266.858429	145.500000
266.951385	144.940000
267.044342	145.460000
267.137329	145.600000
267.230316	145.800000
267.323273	145.380000
267.416260	146.320000
267.509216	146.420000
267.602203	146.380000
267.695160	146.660000
267.788147	146.820000
267.881134	145.960000
267.974091	146.280000
268.067078	146.340000
268.160065	145.760000
268.253052	145.360000
268.346008	145.580000
268.438995	145.220000
268.531982	145.580000
268.624969	145.500000
268.717987	145.900000
268.810944	145.880000
268.903961	145.900000
268.996948	145.400000
269.089905	146.180000
269.182892	146.200000
269.275879	146.600000
269.368866	146.340000
269.461853	146.520000
269.554871	146.240000
269.647858	146.320000
269.740845	146.300000
269.833832	146.860000
269.926819	146.580000
270.019806	146.460000
270.112793	145.700000
270.205811	145.540000
270.298798	145.180000
270.391785	145.680000
270.484772	145.540000
270.577789	146.040000
270.670776	145.720000
270.763763	145.920000
270.856750	146.060000
270.949768	145.980000
271.042786	146.060000
271.135773	146.240000
271.228790	146.320000
271.321808	145.720000
271.414795	145.220000
271.507782	145.240000
271.600800	145.020000
271.693817	144.860000
271.786804	145.680000
271.879822	146.260000
271.972809	145.840000
272.065826	146.160000
272.158844	145.580000
272.251831	145.840000
272.344849	145.760000
272.437866	145.860000
272.530853	145.900000
272.623871	146.620000
272.716888	145.440000
272.809906	145.980000
272.902893	146.060000
272.995911	145.760000
273.088928	145.600000
273.181946	146.220000
273.274963	145.360000
273.367981	145.360000
273.460999	145.360000
273.554047	145.920000
273.647003	146.460000
273.740051	146.860000
273.833069	147.400000
273.926086	147.640000
274.019135	147.100000
274.112152	146.400000
274.205170	146.560000
274.298187	146.480000
274.391205	146.020000
274.484222	146.060000
274.577240	146.260000
274.670258	145.960000
274.763306	145.480000
274.856323	146.080000
274.949341	146.280000
275.042358	146.180000
275.135406	146.080000
275.228424	146.500000
275.321442	146.340000
275.414490	146.020000
275.507507	146.420000
275.600525	146.720000
275.693573	146.280000
275.786591	145.780000
275.879669	145.620000
275.972656	145.000000
276.065735	145.140000
276.158752	145.660000
276.251801	146.840000
276.344818	147.060000
276.437866	147.180000
276.530884	146.780000
276.623932	146.020000
276.716980	145.500000
276.809998	145.580000
276.903046	145.640000
276.996094	146.340000
277.089111	147.160000
277.182159	147.840000
277.275208	147.520000
277.368256	147.660000
277.461304	147.320000
277.554321	146.660000
277.647369	146.300000
277.740417	146.420000
277.833466	146.180000
277.926514	146.300000
278.019562	146.860000
278.112610	146.260000
278.205688	146.460000
278.298706	146.600000
278.391785	146.040000
278.484833	145.380000
278.577881	145.380000
278.670929	145.600000
278.763977	145.700000
278.857025	146.400000
278.950073	146.820000
279.043121	146.580000
279.136169	146.420000
279.229248	146.080000
279.322296	145.920000
279.415344	145.580000
279.508392	145.480000
279.601440	145.420000
279.694519	145.580000
279.787567	145.180000
279.880615	145.320000
279.973694	145.200000
280.066742	145.240000
280.159790	145.160000
280.252869	144.900000
280.345917	144.940000
280.438995	145.360000
280.532074	145.400000
280.625122	145.920000
280.718201	146.720000
280.811279	146.780000
280.904327	146.640000
280.997406	146.820000
281.090454	146.700000
281.183533	145.980000
281.276581	146.000000
281.369659	145.880000
281.462738	145.900000
281.555786	145.720000
281.648865	146.200000
281.741943	146.040000
281.835022	146.840000
281.928070	146.480000
282.021149	146.420000
282.114227	146.300000
282.207306	146.400000
282.300385	146.360000
282.393433	146.480000
282.486511	146.560000
282.579590	146.960000
282.672668	147.400000
282.765747	146.660000
282.858856	146.420000
282.951904	146.440000
283.045013	146.220000
283.138062	146.000000
283.231171	146.480000
283.324249	146.820000
283.417328	147.020000
283.510406	146.840000
283.603485	146.620000
283.696564	146.540000
283.789642	146.620000
283.882751	146.200000
283.975830	146.660000
284.068909	146.480000
284.161987	147.120000
284.255066	146.400000
284.348175	146.640000
284.441254	146.140000
284.534332	146.960000
284.627441	145.900000
284.720520	145.820000
284.813599	145.540000
284.906708	145.760000
284.999786	144.800000
285.092896	144.960000
285.185974	146.280000
285.279053	146.060000
285.372192	146.420000
285.465240	147.320000
285.558380	147.320000
285.651459	146.800000
285.744568	147.640000
285.837677	146.820000
285.930756	146.400000
286.023865	146.520000
286.116943	146.040000
286.210052	146.080000
286.303162	146.260000
286.396240	146.380000
286.489349	146.240000
286.582458	146.800000
286.675568	146.160000
286.768646	146.280000
286.861755	146.300000
286.954865	147.180000
287.047974	146.520000
287.141083	146.540000
287.234161	146.480000
287.327271	146.340000
287.420380	146.480000
287.513519	146.640000
287.606598	146.960000
287.699738	147.000000
287.792816	146.820000
287.885956	146.220000
287.979034	146.200000
288.072174	146.060000
288.165283	146.100000
288.258392	146.440000
288.351501	145.900000
288.444611	146.020000
288.537720	146.300000
288.630859	146.340000
288.723969	146.260000
288.817078	146.620000
288.910187	146.580000
289.003296	145.760000
289.096436	145.420000
289.189545	145.020000
289.282654	144.500000
289.375763	144.900000
289.468903	145.600000
289.562012	145.840000
289.655121	146.320000
289.748260	146.980000
289.841400	147.060000
289.934509	146.960000
290.027649	147.060000
290.120728	146.760000
290.213898	146.540000
290.306976	146.360000
290.400146	146.400000
290.493256	146.000000
290.586395	146.020000
290.679535	146.120000
290.772644	145.960000
290.865784	145.100000
290.958893	145.360000
291.052032	145.080000
291.145172	145.100000
291.238281	144.480000
291.331421	144.660000
291.424561	145.160000
291.517670	145.480000
291.610809	145.640000
291.703949	146.040000
291.797089	146.400000
291.890228	145.700000
291.983337	145.480000
292.076477	145.300000
292.169617	145.740000
292.262756	145.900000
292.355927	145.840000
292.449036	145.760000
292.542206	145.740000
292.635315	145.820000
292.728485	146.020000
292.821625	145.700000
292.914764	146.720000
293.007904	146.880000
293.101044	146.700000
293.194183	146.340000
293.287323	146.860000
293.380463	146.020000
293.473602	145.780000
293.566742	145.940000
293.659882	146.620000
293.753021	146.880000
293.846191	147.020000
293.939331	146.700000
294.032471	146.260000
294.125610	145.700000
294.218781	145.880000
294.311920	146.300000
294.405060	146.520000
294.498230	146.580000
294.591370	146.600000
294.684540	145.940000
294.777679	145.220000
294.870850	145.740000
294.963959	145.640000
295.057159	145.460000
295.150299	145.660000
295.243469	145.900000
295.336609	145.360000
295.429779	145.500000
295.522919	145.960000
295.616089	146.320000
295.709229	146.640000
295.802399	146.800000
295.895569	146.700000
295.988708	146.340000
296.081879	146.140000
296.175018	145.500000
296.268188	145.320000
296.361359	146.000000
296.454529	146.140000
296.547668	146.240000
296.640839	146.720000
296.734009	146.540000
296.827179	146.220000
296.920319	146.480000
297.013519	145.900000
297.106659	146.040000
297.199860	146.140000
297.292999	145.960000
297.386200	145.500000
297.479309	145.580000
297.572510	145.600000
297.665680	145.580000
297.758850	145.680000
297.852020	145.760000
297.945190	145.820000
298.038361	145.220000
298.131531	146.180000
298.224701	145.860000
298.317871	145.840000
298.411072	145.660000
298.504242	145.600000
298.597412	144.840000
298.690582	145.340000
298.783752	145.260000
298.876923	145.820000
298.970093	146.140000
299.063293	146.260000
299.156464	146.380000
299.249634	146.540000
299.342834	146.720000
299.436005	147.260000
299.529205	147.180000
299.622345	146.940000
299.715576	146.400000
299.808716	145.840000
299.901917	145.320000
299.995117	145.600000
300.088287	145.420000
300.181488	145.500000
300.274658	145.440000
300.367828	145.320000
300.461029	145.120000
300.554199	145.660000
300.647400	145.900000
300.740601	146.480000
300.833771	146.640000
300.926971	146.860000
301.020142	145.840000
301.113342	145.800000
301.206512	145.640000
301.299713	145.600000
301.392914	145.280000
301.486084	146.020000
301.579285	145.980000
301.672516	146.200000
301.765686	145.940000
301.858887	146.060000
301.952057	145.860000
302.045288	145.940000
302.138458	145.760000
302.231659	145.860000
302.324860	145.780000
302.418060	145.460000
302.511261	145.540000
302.604462	145.360000
302.697662	145.240000
302.790863	145.380000
302.884064	145.540000
302.977264	145.620000
303.070465	146.080000
303.163666	146.920000
303.256866	147.160000
303.350067	147.160000
303.443268	147.020000
303.536469	146.860000
303.629669	146.280000
303.722870	146.180000
303.816071	146.100000
303.909271	146.160000
304.002472	145.340000
304.095673	145.060000
304.188934	144.140000
304.282104	144.820000
304.375336	144.680000
304.468506	144.880000
304.561768	144.960000
304.654968	145.940000
304.748169	145.560000
304.841370	145.460000
304.934601	146.200000
305.027802	146.120000
305.121002	145.840000
305.214233	145.920000
305.307434	146.200000
305.400665	146.260000
305.493866	146.100000
305.587097	146.240000
305.680298	145.740000
305.773499	146.260000
305.866730	146.040000
305.959930	146.620000
306.053162	146.740000
306.146393	146.900000
306.239594	146.040000
306.332825	146.040000
306.426025	146.340000
306.519287	145.860000
306.612488	145.840000
306.705719	145.880000
306.798920	146.200000
306.892181	145.480000
306.985352	145.500000
307.078613	145.320000
307.171844	145.820000
307.265045	144.880000
307.358276	144.540000
307.451508	144.780000
307.544739	145.360000
307.637970	145.000000
307.731201	145.200000
307.824402	145.900000
307.917633	146.300000
308.010864	146.580000
308.104095	147.060000
308.197327	147.180000
308.290558	147.320000
308.383789	146.520000
308.477020	145.940000
308.570251	145.120000
308.663483	144.760000
308.756714	144.380000
308.849976	144.720000
308.943176	145.200000
309.036438	145.240000
309.129639	145.340000
309.222900	145.660000
309.316101	145.460000
309.409393	144.860000
309.502625	144.880000
309.595856	144.720000
309.689087	144.680000
309.782318	145.000000
309.875580	145.300000
309.968811	145.440000
310.062042	145.880000
310.155273	145.680000
310.248535	145.800000
310.341766	145.620000
310.434998	145.540000
310.528259	145.160000
310.621490	145.400000
310.714722	144.620000
310.807983	144.620000
310.901215	144.600000
310.994476	145.020000
311.087708	144.640000
311.181000	145.360000
311.274200	144.960000
311.367462	145.300000
311.460693	145.000000
311.553986	145.960000
311.647186	145.860000
311.740479	146.700000
311.833710	146.200000
311.926971	146.320000
312.020203	145.380000
312.113464	145.100000
312.206726	144.400000
312.299957	144.960000
312.393219	145.520000
312.486481	145.800000
312.579712	145.920000
312.672974	146.140000
312.766235	146.020000
312.859497	145.500000
312.952759	145.220000
313.045990	145.960000
313.139252	145.660000
313.232513	145.800000
313.325775	146.040000
313.419037	146.240000
313.512299	145.580000
313.605530	146.240000
313.698822	146.220000
313.792053	146.320000
313.885345	145.940000
313.978577	145.960000
314.071869	145.660000
314.165131	145.740000
314.258392	145.660000
314.351654	145.840000
314.444916	145.380000
314.538177	145.680000
314.631439	145.880000
314.724701	145.860000
314.817993	145.860000
314.911255	146.380000
315.004517	145.920000
315.097778	145.740000
315.191040	146.320000
315.284302	146.640000
315.377594	146.380000
315.470856	146.320000
315.564117	146.040000
315.657379	145.320000
315.750671	144.940000
315.843933	145.280000
315.937195	144.920000
316.030518	144.820000
316.123749	144.700000
316.217041	145.660000
316.310303	145.380000
316.403595	146.080000
316.496857	146.480000
316.590149	146.840000
316.683411	146.040000
316.776703	146.000000
316.869965	145.780000
316.963257	145.500000
317.056519	144.900000
317.149811	144.880000
317.243073	145.220000
317.336365	145.420000
317.429626	145.760000
317.522919	146.420000
317.616180	146.460000
317.709473	145.960000
317.802765	145.880000
317.896027	145.440000
317.989319	145.540000
318.082611	145.420000
318.175873	145.640000
318.269165	145.300000
318.362488	145.260000
318.455750	145.060000
318.549042	145.540000
318.642303	145.820000
318.735626	145.740000
318.828888	146.080000
318.922211	145.640000
319.015472	146.260000
319.108765	145.400000
319.202057	145.200000
319.295349	145.400000
319.388641	145.560000
319.481934	144.740000
319.575226	144.800000
319.668518	145.280000
319.761810	145.100000
319.855103	145.160000
319.948395	145.440000
320.041687	146.160000
320.134979	146.320000
320.228271	145.920000
320.321564	145.820000
320.414856	145.360000
320.508148	144.580000
320.601440	144.160000
320.694763	144.140000
320.788025	144.720000
320.881348	144.920000
320.974640	145.280000
321.067963	145.260000
321.161224	145.440000
321.254547	144.600000
321.347839	145.060000
321.441162	145.020000
321.534454	145.480000
321.627747	145.180000
321.721069	145.960000
321.814362	145.880000
321.907654	145.940000
322.000946	145.520000
322.094269	146.360000
322.187561	145.620000
322.280884	145.520000
322.374176	145.440000
322.467468	146.060000
322.560791	145.640000
322.654083	146.280000
322.747406	146.460000
322.840698	146.940000
322.934021	147.080000
323.027344	147.440000
323.120636	147.260000
323.213959	146.900000
323.307251	146.320000
323.400574	145.860000
323.493866	145.480000
323.587219	145.700000
323.680511	145.860000
323.773834	146.220000
323.867157	146.140000
323.960449	146.140000
324.053772	145.980000
324.147095	145.700000
324.240387	145.980000
324.333710	146.220000
324.427032	146.320000
324.520355	146.100000
324.613647	145.900000
324.706970	145.580000
324.800293	145.340000
324.893616	145.720000
324.986938	146.060000
325.080231	145.960000
325.173553	146.360000
325.266876	147.060000
325.360199	146.680000
325.453522	146.140000
325.546875	146.000000
325.640167	146.120000
325.733521	145.800000
325.826813	146.200000
325.920166	146.060000
326.013489	146.300000
326.106812	145.240000
326.200134	144.840000
326.293457	144.240000
326.386780	144.560000
326.480103	144.580000
326.573425	144.720000
326.666748	144.680000
326.760071	145.100000
326.853424	145.200000
326.946747	145.240000
327.040070	146.340000
327.133392	146.560000
327.226715	145.980000
327.320068	145.600000
327.413391	146.120000
327.506714	145.120000
327.600037	144.940000
327.693390	145.000000
327.786713	145.060000
327.880066	144.800000
327.973358	145.320000
328.066742	145.920000
328.160034	146.300000
328.253418	146.840000
328.346710	146.700000
328.440063	146.240000
328.533417	145.760000
328.626740	146.040000
328.720093	145.460000
328.813416	145.380000
328.906769	145.480000
329.000092	145.580000
329.093445	145.160000
329.186768	145.480000
329.280121	145.780000
329.373444	146.080000
329.466797	146.100000
329.560120	146.080000
329.653473	146.320000
329.746796	146.020000
329.840149	146.000000
329.933502	145.820000
330.026825	145.860000
330.120178	145.560000
330.213562	145.640000
330.306854	145.200000
330.400238	145.600000
330.493561	145.500000
330.586945	146.220000
330.680237	146.340000
330.773621	146.740000
330.866974	146.600000
330.960327	146.900000
331.053680	146.060000
331.147003	146.260000
331.240356	146.440000
331.333710	146.340000
331.427063	145.660000
331.520416	145.660000
331.613770	145.280000
331.707123	145.480000
331.800476	145.780000
331.893829	147.040000
331.987152	147.320000
332.080505	147.520000
332.173859	147.160000
332.267212	146.560000
332.360565	146.020000
332.453918	145.760000
332.547333	145.680000
332.640656	145.620000
332.734039	145.860000
332.827362	145.500000
332.920746	145.920000
333.014069	146.280000
333.107452	146.860000
333.200806	147.120000
333.294159	147.320000
333.387543	146.840000
333.480896	145.900000
333.574249	145.200000
333.667603	144.720000
333.760956	144.860000
333.854340	145.120000
333.947693	145.640000
334.041046	145.720000
334.134430	145.960000
334.227783	145.580000
334.321136	145.540000
334.414520	144.980000
334.507874	145.360000
334.601227	145.540000
334.694611	145.800000
334.787964	145.660000
334.881348	146.140000
334.974701	145.640000
335.068085	145.200000
335.161438	145.500000
335.254822	145.640000
335.348175	145.640000
335.441559	145.700000
335.534943	146.280000
335.628296	145.840000
335.721680	145.780000
335.815033	146.240000
335.908417	146.540000
336.001770	146.300000
336.095154	146.300000
336.188538	146.000000
336.281891	145.400000
336.375275	144.820000
336.468658	144.680000
336.562012	144.720000
336.655396	145.240000
336.748779	145.540000
336.842133	145.800000
336.935516	145.960000
337.028900	145.680000
337.122284	145.520000
337.215637	145.420000
337.309021	145.200000
337.402435	144.920000
337.495789	145.080000
337.589203	145.100000
337.682526	145.120000
337.775940	145.660000
337.869324	145.840000
337.962708	145.780000
338.056091	146.020000
338.149475	145.900000
338.242859	145.920000
338.336243	145.520000
338.429626	145.760000
338.523010	145.260000
338.616394	145.220000
338.709778	144.960000
338.803162	145.360000
338.896545	145.100000
338.989929	144.980000
339.083313	145.160000
339.176697	144.840000
339.270081	144.840000
339.363464	145.260000
339.456848	145.640000
339.550232	145.060000
339.643616	145.080000
339.737030	145.080000
339.830383	144.980000
339.923828	144.980000
340.017181	145.180000
340.110596	145.560000
340.203949	145.300000
340.297363	144.780000
340.390778	144.620000
340.484161	144.780000
340.577545	144.600000
340.670959	144.740000
340.764343	144.980000
340.857727	145.240000
340.951111	144.660000
341.044525	144.800000
341.137909	144.440000
341.231293	144.220000
341.324707	143.780000
341.418091	144.980000
341.511505	145.020000
341.604889	145.640000
341.698303	145.760000
341.791687	145.920000
341.885071	145.500000
341.978485	145.460000
342.071899	145.560000
342.165283	146.080000
342.258698	146.320000
342.352081	146.460000
342.445496	146.640000
342.538879	146.280000
342.632324	145.620000
342.725708	145.520000
342.819122	145.100000
342.912506	144.900000
343.005920	144.840000
343.099335	146.080000
343.192719	146.040000
343.286133	146.060000
343.379547	146.360000
343.472931	146.580000
343.566345	145.480000
343.659760	145.580000
343.753143	145.540000
343.846558	144.920000
343.939972	144.900000
344.033386	145.560000
344.126770	145.380000
344.220184	145.800000
344.313599	146.380000
344.407043	146.440000
344.500427	145.480000
344.593872	145.880000
344.687225	145.320000
344.780670	144.920000
344.874054	144.600000
344.967499	145.500000
345.060913	145.440000
345.154327	145.420000
345.247742	145.120000
345.341156	144.980000
345.434570	144.520000
345.527985	144.260000
345.621399	144.520000
345.714813	144.760000
345.808228	145.220000
345.901642	145.040000
345.995056	144.960000
346.088470	145.060000
346.181885	145.120000
346.275299	144.620000
346.368713	144.540000
346.462128	144.240000
346.555573	144.060000
346.648987	144.500000
346.742401	144.900000
346.835815	145.620000
346.929260	145.660000
347.022644	145.760000
347.116119	145.660000
347.209503	145.720000
347.302948	146.340000
347.396362	146.980000
347.489807	147.340000
347.583221	147.720000
347.676636	147.260000
347.770050	146.000000
347.863495	145.660000
347.956909	145.220000
348.050323	144.520000
348.143768	144.660000
348.237183	144.680000
348.330597	145.160000
348.424042	145.700000
348.517456	146.460000
348.610901	147.000000
348.704315	146.920000
348.797760	146.100000
348.891174	145.440000
348.984619	144.720000
349.078033	144.720000
349.171448	145.440000
349.264923	145.720000
349.358337	145.860000
349.451782	145.860000
349.545197	145.220000
349.638641	144.600000
349.732086	144.120000
349.825500	144.400000
349.918945	144.140000
350.012390	144.780000
350.105804	145.380000
350.199249	145.860000
350.292664	146.240000
350.386108	146.640000
350.479553	146.860000
350.572968	146.480000
350.666412	146.660000
350.759857	146.480000
350.853302	146.980000
350.946716	146.400000
351.040161	146.540000
351.133606	146.600000
351.227081	146.160000
351.320465	146.500000
351.413940	146.460000
351.507355	146.600000
351.600830	146.440000
351.694244	146.300000
351.787720	145.560000
351.881104	145.700000
351.974579	145.420000
352.067993	146.500000
352.161469	146.700000
352.254883	146.300000
352.348358	146.520000
352.441803	146.560000
352.535248	145.440000
352.628693	145.960000
352.722137	146.080000
352.815582	146.100000
352.909027	146.080000
353.002472	146.080000
353.095917	145.640000
353.189362	145.700000
353.282806	145.520000
353.376251	145.460000
353.469696	145.080000
353.563141	145.500000
353.656586	145.160000
353.750061	144.780000
353.843475	144.620000
353.936981	145.300000
354.030396	144.640000
354.123871	144.880000
354.217285	145.740000
354.310760	146.240000
354.404175	145.900000
354.497681	145.820000
354.591095	145.860000
354.684570	144.720000
354.777985	143.920000
354.871490	143.960000
354.964935	144.380000
355.058380	144.560000
355.151855	144.840000
355.245300	145.540000
355.338745	145.720000
355.432220	145.760000
355.525665	145.340000
355.619110	145.900000
355.712585	145.820000
355.806030	145.660000
355.899475	145.300000
355.992950	146.040000
356.086426	146.120000
356.179871	145.900000
356.273346	145.940000
356.366791	146.300000
356.460266	146.100000
356.553711	145.440000
356.647186	145.480000
356.740631	145.220000
356.834106	144.900000
356.927551	144.880000
357.021027	145.080000
357.114471	145.280000
357.207947	145.580000
357.301422	145.960000
357.394867	146.060000
357.488342	146.260000
357.581818	146.200000
357.675262	146.240000
357.768738	145.720000
357.862213	145.000000
357.955658	145.020000
358.049133	144.740000
358.142609	144.760000
358.236053	144.880000
358.329529	145.320000
358.423035	145.600000
358.516449	145.660000
358.609955	146.180000
358.703400	146.600000
358.796906	146.680000
358.890350	146.040000
358.983826	146.360000
359.077271	145.680000
359.170776	145.180000
359.264221	145.060000
359.357727	145.220000
359.451172	145.280000
359.544647	145.380000
359.638123	145.700000
359.731598	146.140000
359.825073	146.520000
359.918549	146.300000
360.012024	146.440000
360.105499	146.020000
360.198975	145.820000
360.292450	145.420000
360.385925	145.380000
360.479401	144.900000
360.572876	145.280000
360.666351	145.460000
360.759857	145.700000
360.853302	145.800000
360.946808	145.500000
361.040253	145.300000
361.133759	144.820000
361.227203	144.720000
361.320709	144.340000
361.414154	145.000000
361.507660	145.440000
361.601105	145.940000
361.694641	146.620000
361.788086	146.900000
361.881592	147.440000
361.975067	146.940000
362.068542	146.960000
362.162018	146.620000
362.255524	146.020000
362.348999	145.460000
362.442474	145.940000
362.535950	145.460000
362.629456	145.320000
362.722931	145.760000
362.816406	146.100000
362.909882	146.180000
363.003387	146.120000
363.096863	146.200000
363.190338	146.380000
363.283875	145.980000
363.377319	145.820000
363.470825	146.260000
363.564301	145.880000
363.657806	145.700000
363.751282	145.520000
363.844788	146.300000
363.938232	145.800000
364.031769	146.420000
364.125214	146.920000
364.218750	147.740000
364.312225	146.620000
364.405731	147.120000
364.499207	146.320000
364.592712	145.600000
364.686188	145.160000
364.779694	145.540000
364.873169	145.340000
364.966675	145.440000
365.060150	145.680000
365.153656	145.920000
365.247131	145.620000
365.340637	145.760000
365.434143	146.580000
365.527618	146.660000
365.621155	145.820000
365.714600	146.060000
365.808136	146.060000
365.901611	144.780000
365.995117	144.700000
366.088593	145.220000
366.182129	144.920000
366.275604	144.900000
366.369110	145.140000
366.462585	145.040000
366.556122	145.560000
366.649567	145.920000
366.743103	145.980000
366.836609	146.240000
366.930115	146.920000
367.023590	146.840000
367.117096	146.620000
367.210602	146.300000
367.304108	146.820000
367.397614	146.720000
367.491119	146.560000
367.584595	146.620000
367.678101	147.020000
367.771606	146.520000
367.865112	145.960000
367.958649	145.500000
368.052124	145.280000
368.145660	144.880000
368.239136	145.480000
368.332672	145.720000
368.426147	145.720000
368.519684	145.760000
368.613159	146.320000
368.706696	145.520000
368.800171	145.380000
368.893707	145.760000
368.987183	145.960000
369.080719	145.940000
369.174225	145.980000
369.267731	146.300000
369.361237	146.020000
369.454742	146.100000
369.548248	146.080000
369.641754	145.960000
369.735260	145.560000
369.828766	144.960000
369.922272	145.220000
370.015808	144.880000
370.109314	144.820000
370.202820	144.660000
370.296356	145.960000
370.389832	145.440000
370.483368	145.240000
370.576874	145.440000
370.670410	145.940000
370.763885	145.040000
370.857422	145.000000
370.950928	144.860000
371.044464	145.660000
371.137939	145.600000
371.231476	146.100000
371.324982	146.580000
371.418518	146.800000
371.512024	146.240000
371.605560	145.740000
371.699066	145.580000
371.792572	145.160000
371.886108	145.500000
371.979614	145.460000
372.073120	146.400000
372.166656	146.240000
372.260162	146.640000
372.353668	146.480000
372.447205	146.600000
372.540710	146.360000
372.634277	146.440000
372.727753	146.180000
372.821320	145.860000
372.914795	145.840000
373.008362	145.460000
373.101837	145.440000
373.195404	145.100000
373.288879	145.340000
373.382446	145.920000
373.475922	146.080000
373.569489	146.800000
373.662964	147.740000
373.756531	147.760000
373.850037	147.380000
373.943573	147.280000
374.037109	146.000000
374.130615	145.600000
374.224152	145.760000
374.317657	145.600000
374.411194	146.280000
374.504730	146.400000
374.598236	146.040000
374.691772	145.760000
374.785309	145.760000
374.878815	144.860000
374.972351	145.460000
375.065887	145.580000
375.159454	146.140000
375.252930	146.100000
375.346497	146.500000
375.440002	147.080000
375.533569	147.100000
375.627045	146.500000
375.720612	146.640000
375.814117	146.820000
375.907684	146.020000
376.001160	145.560000
376.094727	145.160000
376.188232	145.680000
376.281799	145.580000
376.375336	145.340000
376.468872	146.240000
376.562408	146.660000
376.655914	145.820000
376.749451	145.740000
376.842987	145.980000
376.936523	145.440000
377.030060	145.580000
377.123596	145.820000
377.217133	145.440000
377.310669	145.740000
377.404205	146.180000
377.497772	146.580000
377.591278	146.420000
377.684845	147.080000
377.778351	147.420000
377.871918	147.180000
377.965424	146.100000
378.058990	145.940000
378.152496	145.700000
378.246063	145.480000
378.339569	145.740000
378.433136	146.240000
378.526642	146.440000
378.620209	146.260000
378.713745	145.660000
378.807312	145.740000
378.900848	145.520000
378.994385	145.920000
379.087921	145.300000
379.181458	145.620000
379.274994	144.800000
379.368530	144.880000
379.462097	144.900000
379.555634	145.880000
379.649170	145.740000
379.742706	146.000000
379.836273	146.280000
379.929810	146.000000
380.023376	145.660000
380.116882	145.600000
380.210449	145.740000
380.303986	145.320000
380.397552	144.620000
380.491058	144.760000
380.584656	144.780000
380.678162	144.960000
380.771729	145.240000
380.865265	146.600000
380.958832	146.660000
381.052368	146.620000
381.145935	146.780000
381.239471	147.240000
381.333008	146.620000
381.426575	146.420000
381.520111	147.120000
381.613647	146.920000
381.707214	146.460000
381.800751	145.820000
381.894318	146.200000
381.987854	145.320000
382.081421	145.420000
382.174988	145.560000
382.268524	145.580000
382.362091	145.400000
382.455627	146.060000
382.549194	145.600000
382.642731	145.000000
382.736298	145.240000
382.829834	144.940000
382.923401	145.240000
383.016937	145.820000
383.110504	146.200000
383.204041	146.080000
383.297607	146.580000
383.391174	145.680000
383.484741	146.280000
383.578278	145.860000
383.671844	145.780000
383.765411	145.200000
383.858948	145.880000
383.952515	145.200000
384.046051	145.880000
384.139618	146.400000
384.233185	146.460000
384.326721	146.260000
384.420288	146.720000
384.513855	146.480000
384.607422	146.540000
384.700989	146.780000
384.794525	146.580000
384.888123	146.340000
384.981659	146.640000
385.075226	145.920000
385.168762	145.680000
385.262360	145.640000
385.355896	144.780000
385.449463	144.500000
385.542999	145.120000
385.636597	145.760000
385.730164	145.840000
385.823730	145.840000
385.917267	145.760000
386.010834	145.860000
386.104401	145.680000
386.197968	146.000000
386.291534	146.680000
386.385101	146.780000
386.478668	147.040000
386.572235	146.640000
386.665802	146.000000
386.759338	145.380000
386.852905	145.300000
386.946472	144.660000
387.040070	144.920000
387.133606	145.080000
387.227203	145.080000
387.320740	145.220000
387.414337	145.080000
387.507874	144.900000
387.601471	144.940000
387.695007	144.920000
387.788605	144.600000
387.882141	144.980000
387.975739	144.960000
388.069275	144.740000
388.162872	145.100000
388.256439	145.220000
388.350037	144.920000
388.443604	144.740000
388.537170	144.800000
388.630737	145.300000
388.724304	145.820000
388.817871	145.700000
388.911438	145.800000
389.005005	146.320000
389.098602	146.320000
389.192169	145.480000
389.285736	146.100000
389.379333	146.420000
389.472870	145.660000
389.566467	145.320000
389.660034	145.660000
389.753632	144.920000
389.847168	145.220000
389.940765	145.940000
390.034332	146.120000
390.127930	145.780000
390.221466	145.700000
390.315063	145.040000
390.408630	144.280000
390.502228	143.560000
390.595795	143.920000
390.689362	144.460000
390.782959	144.800000
390.876526	145.560000
390.970093	145.620000
391.063690	146.120000
391.157257	145.860000
391.250824	146.260000
391.344421	145.560000
391.437988	146.120000
391.531555	145.880000
391.625153	146.200000
391.718750	146.100000
391.812317	146.560000
391.905914	146.120000
391.999481	146.480000
392.093079	146.380000
392.186615	146.480000
392.280243	146.460000
392.373779	146.520000
392.467407	146.560000
392.560944	146.420000
392.654572	145.800000
392.748108	145.740000
392.841736	145.900000
392.935303	145.100000
393.028900	145.020000
393.122467	145.220000
393.216064	144.780000
393.309631	144.380000
393.403229	144.440000
393.496796	144.580000
393.590393	143.860000
393.683990	144.340000
393.777557	145.180000
393.871155	145.440000
393.964722	145.760000
394.058350	146.120000
394.151917	145.860000
394.245514	145.300000
394.339081	145.760000
394.432678	145.940000
394.526245	146.100000
394.619873	145.940000
394.713409	145.980000
394.807037	145.340000
394.900604	145.340000
394.994202	145.400000
395.087769	145.940000
395.181396	145.420000
395.274994	146.360000
395.368561	145.760000
395.462158	145.880000
395.555756	145.460000
395.649353	146.060000
395.742920	145.320000
395.836517	146.100000
395.930115	145.600000
396.023712	145.880000
396.117279	146.160000
396.210876	145.980000
396.304474	145.340000
396.398071	145.960000
396.491669	146.100000
396.585266	145.720000
396.678833	145.480000
396.772461	145.940000
396.866028	145.440000
396.959656	145.840000
397.053223	146.140000
397.146851	146.760000
397.240417	147.060000
397.334015	148.400000
397.427582	148.540000
397.521210	149.200000
397.614807	150.160000
397.708405	151.080000
397.802002	151.960000
397.895599	154.120000
397.989197	156.440000
398.082794	159.360000
398.176392	163.600000
398.269989	168.480000
398.363586	174.100000
398.457184	181.620000
398.550781	189.920000
398.644379	197.720000
398.737976	207.120000
398.831573	217.340000
398.925201	226.600000
399.018768	236.380000
399.112396	248.000000
399.205963	259.660000
399.299591	272.180000
399.393158	286.100000
399.486786	302.020000
399.580353	317.940000
399.673981	334.120000
399.767578	350.680000
399.861206	366.660000
399.954773	380.580000
400.048401	391.500000
400.141998	398.140000
400.235596	401.480000
400.329193	401.160000
400.422791	397.680000
400.516418	392.460000
400.610016	388.400000
400.703613	383.260000
400.797211	376.120000
400.890808	368.040000
400.984436	358.380000
401.078033	344.680000
401.171631	328.180000
401.265259	310.380000
401.358826	291.920000
401.452484	272.460000
401.546051	253.940000
401.639679	235.980000
401.733246	221.120000
401.826904	206.600000
401.920471	194.020000
402.014099	184.100000
402.107697	176.060000
402.201324	169.220000
402.294891	164.060000
402.388550	160.180000
402.482147	156.940000
402.575745	154.020000
402.669373	151.320000
402.762970	149.740000
402.856567	148.820000
402.950195	148.260000
403.043793	147.900000
403.137390	148.280000
403.231018	147.000000
403.324615	147.460000
403.418243	146.720000
403.511841	147.100000
403.605469	146.580000
403.699066	147.440000
403.792694	146.820000
403.886292	146.860000
403.979919	146.440000
404.073517	146.200000
404.167145	146.440000
404.260712	146.760000
404.354370	146.620000
404.447937	146.800000
404.541595	147.280000
404.635162	147.120000
404.728821	147.180000
404.822418	146.740000
404.916046	146.440000
405.009644	146.260000
405.103271	146.440000
405.196899	145.760000
405.290497	146.220000
405.384125	146.500000
405.477722	146.100000
405.571350	145.760000
405.664948	145.960000
405.758575	145.840000
405.852203	145.480000
405.945801	145.640000
406.039429	145.420000
406.133057	145.220000
406.226654	145.100000
406.320312	145.140000
406.413879	145.420000
406.507538	145.540000
406.601135	145.380000
406.694763	146.000000
406.788361	145.920000
406.882019	145.460000
406.975586	145.800000
407.069244	146.600000
407.162872	146.100000
407.256470	145.880000
407.350098	145.860000
407.443726	145.280000
407.537323	144.720000
407.630951	145.340000
407.724579	145.140000
407.818207	145.620000
407.911804	145.580000
408.005432	145.500000
408.099060	145.520000
408.192688	146.240000
408.286285	145.840000
408.379913	146.080000
408.473572	146.200000
408.567169	145.520000
408.660828	145.300000
408.754395	145.340000
408.848053	144.960000
408.941650	144.960000
409.035309	144.700000
409.128906	144.780000
409.222565	144.760000
409.316132	145.280000
409.409790	144.840000
409.503387	145.120000
409.597046	144.920000
409.690674	145.060000
409.784302	144.960000
409.877930	145.180000
409.971558	145.020000
410.065186	145.040000
410.158783	144.920000
410.252411	144.820000
410.346039	145.420000
410.439667	145.700000
410.533295	145.960000
410.626923	146.320000
410.720551	146.000000
410.814209	146.080000
410.907806	146.180000
411.001465	145.920000
411.095062	146.160000
411.188721	146.520000
411.282318	146.120000
411.375977	145.760000
411.469574	145.820000
411.563232	145.240000
411.656830	145.260000
411.750488	145.300000
411.844086	145.280000
411.937744	145.160000
412.031372	144.960000
412.125000	144.720000
412.218628	144.540000
412.312256	145.380000
412.405884	145.720000
412.499512	145.760000
412.593170	145.940000
412.686798	146.040000
412.780426	145.140000
412.874054	145.280000
412.967682	145.520000
413.061310	145.960000
413.154968	146.080000
413.248566	146.500000
413.342224	146.080000
413.435852	146.080000
413.529510	145.620000
413.623108	145.140000
413.716766	144.820000
413.810364	145.100000
413.904022	144.760000
413.997650	144.460000
414.091309	145.340000
414.184906	145.440000
414.278564	145.320000
414.372192	145.840000
414.465851	146.220000
414.559479	145.920000
414.653107	146.720000
414.746735	146.400000
414.840393	146.380000
414.934021	146.640000
415.027649	145.840000
415.121277	145.360000
415.214935	145.960000
415.308563	145.660000
415.402191	145.020000
415.495850	145.520000
415.589478	145.220000
415.683136	145.100000
415.776733	145.560000
415.870422	146.480000
415.964020	146.020000
416.057678	146.420000
416.151306	146.520000
416.244965	146.120000
416.338562	145.580000
416.432251	146.380000
416.525848	146.880000
416.619507	147.000000
416.713165	147.460000
416.806793	147.220000
416.900421	146.840000
416.994080	146.020000
417.087708	145.820000
417.181366	145.300000
417.274994	145.380000
417.368622	145.680000
417.462280	146.080000
417.555908	145.980000
417.649567	146.060000
417.743195	146.200000
417.836853	146.420000
417.930481	146.260000
418.024170	146.320000
418.117767	146.720000
418.211426	146.960000
418.305054	147.060000
418.398712	146.860000
418.492340	146.800000
418.585999	146.940000
418.679626	146.940000
418.773285	146.420000
418.866913	146.680000
418.960571	146.960000
419.054230	146.580000
419.147858	146.380000
419.241516	146.560000
419.335144	146.280000
419.428802	146.140000
419.522461	146.060000
419.616089	145.860000
419.709747	146.140000
419.803375	146.220000
419.897034	145.860000
419.990662	145.920000
420.084320	146.300000
420.177979	146.320000
420.271606	146.540000
420.365295	146.840000
420.458893	147.000000
420.552582	147.280000
420.646210	147.060000
420.739868	146.680000
420.833496	146.320000
420.927155	145.760000
421.020782	145.120000
421.114471	144.260000
421.208069	144.540000
421.301758	144.920000
421.395386	145.440000
421.489044	145.440000
421.582703	146.180000
421.676361	146.700000
421.769989	146.260000
421.863647	146.340000
421.957306	146.340000
422.050934	146.680000
422.144592	145.960000
422.238251	145.580000
422.331909	145.080000
422.425537	144.960000
422.519196	144.640000
422.612854	144.600000
422.706543	144.640000
422.800140	145.180000
422.893829	145.160000
422.987457	144.900000
423.081146	145.380000
423.174744	146.380000
423.268433	145.960000
423.362061	145.720000
423.455750	145.580000
423.549347	145.200000
423.643036	144.260000
423.736664	144.700000
423.830353	145.180000
423.924011	145.920000
424.017639	145.500000
424.111298	145.960000
424.204956	145.840000
424.298615	145.800000
424.392273	145.520000
424.485931	145.960000
424.579559	145.880000
424.673218	145.740000
424.766876	145.660000
424.860535	145.320000
424.954193	145.040000
425.047882	145.320000
425.141510	145.140000
425.235199	145.220000
425.328796	144.940000
425.422485	144.980000
425.516113	144.540000
425.609802	144.800000
425.703430	144.800000
425.797119	144.960000
425.890747	145.000000
425.984436	145.300000
426.078064	145.440000
426.171753	145.640000
426.265411	145.600000
426.359070	146.040000
426.452728	146.040000
426.546356	146.020000
426.640015	145.500000
426.733673	145.740000
426.827332	145.280000
426.920990	145.680000
427.014648	145.180000
427.108307	145.560000
427.201965	145.720000
427.295624	146.040000
427.389282	145.120000
427.482941	145.580000
427.576630	145.480000
427.670258	145.100000
427.763947	144.800000
427.857574	145.440000
427.951263	145.200000
428.044922	144.980000
428.138611	145.140000
428.232239	145.720000
428.325928	145.940000
428.419556	146.200000
428.513245	145.940000
428.606903	146.060000
428.700562	145.300000
428.794220	144.520000
428.887878	143.900000
428.981537	144.400000
429.075195	144.500000
429.168854	145.140000
429.262512	145.480000
429.356201	145.980000
429.449860	145.800000
429.543518	145.640000
429.637177	145.680000
429.730835	145.760000
429.824493	145.580000
429.918182	146.160000
430.011810	145.600000
430.105530	144.800000
430.199158	144.800000
430.292847	144.600000
430.386475	143.960000
430.480164	143.800000
430.573792	143.620000
430.667511	143.620000
430.761139	143.980000
430.854828	144.620000
430.948456	144.940000
431.042145	145.860000
431.135834	145.380000
431.229492	145.380000
431.323151	145.060000
431.416809	145.240000
431.510468	144.780000
431.604156	144.840000
431.697815	144.780000
431.791473	144.480000
431.885132	144.000000
431.978821	144.160000
432.072479	144.700000
432.166138	144.980000
432.259827	144.820000
432.353485	145.560000
432.447174	145.960000
432.540802	145.440000
432.634491	145.280000
432.728149	145.880000
432.821838	146.280000
432.915466	145.720000
433.009186	146.260000
433.102814	145.760000
433.196503	145.200000
433.290131	144.860000
433.383850	145.260000
433.477509	144.960000
433.571167	146.080000
433.664856	146.980000
433.758514	147.540000
433.852173	147.520000
433.945862	147.340000
434.039520	146.920000
434.133179	146.000000
434.226868	145.240000
434.320526	144.620000
434.414185	145.500000
434.507874	145.100000
434.601562	145.660000
434.695221	145.440000
434.788910	145.820000
434.882538	145.100000
434.976257	145.060000
435.069885	144.900000
435.163574	145.160000
435.257233	144.680000
435.350922	144.840000
435.444580	144.760000
435.538269	144.580000
435.631897	144.980000
435.725616	145.780000
435.819275	146.300000
435.912964	146.600000
436.006622	147.120000
436.100311	146.720000
436.193970	145.840000
436.287628	145.240000
436.381317	145.200000
436.474976	144.560000
436.568665	144.420000
436.662323	145.000000
436.756012	144.960000
436.849670	144.640000
436.943390	144.860000
437.037018	144.720000
437.130737	144.760000
437.224365	145.020000
437.318085	145.420000
437.411713	145.460000
437.505432	146.100000
437.599060	146.460000
437.692780	146.960000
437.786407	146.640000
437.880127	146.660000
437.973755	146.320000
438.067474	145.580000
438.161133	145.120000
438.254822	145.500000
438.348480	145.260000
438.442169	145.660000
438.535828	146.420000
438.629517	146.280000
438.723175	145.780000
438.816864	146.320000
438.910553	145.480000
439.004211	144.900000
439.097900	144.780000
439.191559	145.000000
439.285248	144.400000
439.378906	145.020000
439.472626	145.100000
439.566284	145.340000
439.659973	145.660000
439.753632	145.740000
439.847321	146.040000
439.940979	146.180000
440.034698	146.240000
440.128326	145.600000
440.222046	145.420000
440.315674	144.580000
440.409393	144.640000
440.503082	144.420000
440.596741	144.940000
440.690430	145.220000
440.784088	145.200000
440.877777	144.520000
440.971466	144.360000
441.065125	144.080000
441.158813	143.880000
441.252502	144.000000
441.346161	144.320000
441.439850	144.600000
441.533539	144.660000
441.627197	145.120000
441.720886	145.160000
441.814606	145.480000
441.908234	145.900000
442.001953	145.600000
442.095612	145.620000
442.189301	146.080000
442.282959	146.280000
442.376678	145.280000
442.470306	146.220000
442.564026	145.740000
442.657684	145.720000
442.751404	145.420000
442.845032	146.520000
442.938751	145.680000
443.032440	146.060000
443.126099	145.940000
443.219788	146.500000
443.313477	145.880000
443.407166	146.120000
443.500824	145.820000
443.594513	145.700000
443.688202	145.440000
443.781891	145.020000
443.875549	144.700000
443.969238	144.980000
444.062927	145.180000
444.156647	145.160000
444.250275	145.860000
444.343994	146.260000
444.437653	146.280000
444.531372	146.220000
444.625031	145.780000
444.718719	145.560000
444.812378	145.340000
444.906097	145.340000
444.999756	144.780000
445.093445	144.760000
445.187103	144.660000
445.280823	145.300000
445.374512	144.720000
445.468201	145.140000
445.561859	145.140000
445.655548	145.080000
445.749237	144.320000
445.842926	144.800000
445.936615	145.180000
446.030304	145.240000
446.123962	145.680000
446.217651	145.560000
446.311340	145.660000
446.405029	145.060000
446.498749	144.940000
446.592407	144.300000
446.686096	144.640000
446.779755	144.760000
446.873474	145.240000
446.967133	145.720000
447.060852	145.720000
447.154510	145.880000
447.248230	145.680000
447.341858	145.400000
447.435577	144.680000
447.529236	144.440000
447.622955	144.160000
447.716644	144.200000
447.810333	144.320000
447.904022	145.040000
447.997711	145.420000
448.091400	145.800000
448.185059	145.780000
448.278748	145.820000
448.372437	145.460000
448.466125	145.520000
448.559814	145.200000
448.653503	145.500000
448.747192	145.640000
448.840912	146.220000
448.934570	146.160000
449.028290	146.500000
449.121948	145.940000
449.215637	145.560000
449.309296	144.900000
449.403015	145.160000
449.496674	145.160000
449.590393	145.480000
449.684052	145.440000
449.777771	146.340000
449.871429	145.860000
449.965149	145.540000
450.058838	145.680000
450.152527	146.300000
450.246216	145.900000
450.339905	145.920000
450.433594	145.740000
450.527283	146.000000
450.620972	145.540000
450.714661	145.300000
450.808350	145.460000
450.902039	146.060000
450.995728	145.480000
451.089417	145.360000
451.183105	145.400000
451.276794	145.920000
451.370514	145.400000
451.464172	145.020000
451.557892	145.080000
451.651550	145.220000
451.745270	144.720000
451.838928	144.320000
451.932648	144.740000
452.026306	145.200000
452.120026	144.700000
452.213684	145.200000
452.307404	145.600000
452.401062	145.780000
452.494781	145.740000
452.588470	146.300000
452.682159	145.600000
452.775848	145.640000
452.869537	145.100000
452.963226	144.440000
453.056915	143.960000
453.150604	144.200000
453.244293	144.360000
453.337982	145.020000
453.431671	145.460000
453.525360	145.940000
453.619049	145.980000
453.712769	145.820000
453.806427	145.220000
453.900146	145.000000
453.993805	144.780000
454.087555	145.320000
454.181213	145.320000
454.274933	145.300000
454.368591	145.380000
454.462311	145.000000
454.555969	144.080000
454.649689	144.960000
454.743347	145.060000
454.837067	145.380000
454.930756	146.080000
455.024445	146.740000
455.118134	146.180000
455.211853	146.640000
455.305542	146.300000
455.399231	146.100000
455.492920	145.800000
455.586609	145.900000
455.680298	145.840000
455.773987	145.520000
455.867676	145.380000
455.961365	145.600000
456.055084	145.100000
456.148773	144.820000
456.242493	145.120000
456.336151	145.100000
456.429871	145.160000
456.523529	145.780000
456.617249	145.440000
456.710907	145.980000
456.804626	145.940000
456.898315	145.500000
456.992035	145.120000
457.085693	144.920000
457.179413	144.260000
457.273102	144.940000
457.366791	144.980000
457.460480	145.100000
457.554199	146.220000
457.647888	146.240000
457.741577	145.540000
457.835266	145.760000
457.928955	145.700000
458.022644	145.640000
458.116364	146.220000
458.210052	146.440000
458.303741	146.240000
458.397461	145.600000
458.491119	144.960000
458.584839	144.560000
458.678528	144.120000
458.772247	144.080000
458.865906	144.740000
458.959625	145.380000
459.053284	145.320000
459.147003	145.300000
459.240692	146.060000
459.334412	145.900000
459.428070	145.080000
459.521790	144.780000
459.615479	145.000000
459.709198	145.300000
459.802887	145.240000
459.896576	145.320000
459.990265	145.860000
460.083954	145.980000
460.177673	144.980000
460.271362	145.060000
460.365051	145.340000
460.458740	145.120000
460.552429	144.820000
460.646149	144.920000
460.739838	144.700000
460.833527	144.660000
460.927246	144.600000
461.020905	144.840000
461.114655	144.860000
461.208313	145.200000
461.302032	145.020000
461.395691	145.140000
461.489441	145.020000
461.583099	144.900000
461.676819	144.640000
461.770477	145.140000
461.864197	144.760000
461.957916	144.720000
462.051605	144.440000
462.145294	145.200000
462.238983	144.700000
462.332703	145.440000
462.426392	146.060000
462.520081	146.400000
462.613770	145.940000
462.707489	146.060000
462.801178	145.600000
462.894867	145.280000
462.988556	145.160000
463.082275	145.040000
463.175964	144.760000
463.269684	145.240000
463.363342	145.000000
463.457092	144.620000
463.550751	144.720000
463.644470	145.120000
463.738129	144.660000
463.831879	145.220000
463.925537	146.100000
464.019257	146.440000
464.112946	146.280000
464.206665	146.120000
464.300323	145.700000
464.394043	145.400000
464.487762	145.160000
464.581451	145.480000
464.675140	145.480000
464.768829	145.860000
464.862549	145.820000
464.956238	145.900000
465.049927	145.980000
465.143646	146.400000
465.237335	145.580000
465.331024	146.100000
465.424713	145.960000
465.518433	146.020000
465.612152	145.880000
465.705811	146.700000
465.799561	146.200000
465.893219	146.200000
465.986938	146.020000
466.080597	145.860000
466.174347	145.700000
466.268005	146.060000
466.361725	145.780000
466.455414	145.800000
466.549133	145.520000
466.642792	145.500000
466.736542	144.900000
466.830231	144.980000
466.923920	144.780000
467.017609	144.620000
467.111328	144.100000
467.205017	144.140000
467.298706	144.460000
467.392426	144.780000
467.486115	145.480000
467.579803	145.380000
467.673523	145.920000
467.767212	145.840000
467.860901	145.400000
467.954651	145.520000
468.048309	146.080000
468.142029	145.800000
468.235718	145.560000
468.329437	145.540000
468.423096	145.440000
468.516846	145.140000
468.610504	144.880000
468.704224	144.700000
468.797913	144.640000
468.891632	144.400000
468.985291	144.380000
469.079010	144.360000
469.172729	144.000000
469.266418	144.680000
469.360107	144.920000
469.453827	144.760000
469.547516	144.860000
469.641205	145.780000
469.734924	145.740000
469.828613	146.220000
469.922302	146.600000
470.016022	146.740000
470.109711	146.120000
470.203430	145.320000
470.297150	144.240000
470.390808	144.600000
470.484558	144.460000
470.578217	145.180000
470.671936	145.940000
470.765625	146.880000
470.859344	146.260000
470.953003	146.440000
471.046753	145.960000
471.140411	145.200000
471.234131	145.040000
471.327820	145.440000
471.421539	145.380000
471.515228	145.120000
471.608948	145.420000
471.702637	144.600000
471.796326	144.300000
471.890045	144.620000
471.983734	145.100000
472.077423	145.020000
472.171143	145.620000
472.264832	145.540000
472.358521	145.260000
472.452240	144.460000
472.545929	145.000000
472.639648	144.880000
472.733337	145.140000
472.827057	145.260000
472.920746	145.980000
473.014465	146.260000
473.108124	146.200000
473.201874	146.460000
473.295532	145.780000
473.389252	146.080000
473.482941	145.860000
473.576660	145.560000
473.670319	145.160000
473.764069	145.980000
473.857727	145.740000
473.951477	145.900000
474.045166	146.620000
474.138855	146.460000
474.232574	146.180000
474.326263	146.500000
474.419952	146.180000
474.513672	145.900000
474.607361	146.280000
474.701050	146.340000
474.794769	146.300000
474.888458	146.560000
474.982178	146.620000
475.075867	146.400000
475.169586	146.220000
475.263275	145.940000
475.356995	145.680000
475.450653	145.340000
475.544403	145.080000
475.638062	145.960000
475.731812	145.800000
475.825470	145.480000
475.919189	145.700000
476.012878	146.080000
476.106598	145.300000
476.200256	145.420000
476.294006	145.560000
476.387695	145.600000
476.481384	145.420000
476.575104	145.400000
476.668793	145.280000
476.762512	144.860000
476.856201	145.020000
476.949890	144.800000
477.043610	144.460000
477.137299	144.440000
477.230988	145.120000
477.324707	144.880000
477.418396	145.300000
477.512146	145.540000
477.605804	145.340000
477.699524	145.280000
477.793213	145.340000
477.886932	145.320000
477.980591	145.140000
478.074341	144.960000
478.167999	144.300000
478.261749	144.380000
478.355408	144.020000
478.449127	144.420000
478.542816	145.600000
478.636536	146.700000
478.730225	146.600000
478.823944	147.160000
478.917633	146.900000
479.011322	146.700000
479.105042	146.200000
479.198730	146.600000
479.292450	146.160000
479.386139	146.540000
479.479828	146.180000
479.573547	146.440000
479.667267	146.200000
479.760925	146.560000
479.854675	146.680000
479.948334	146.940000
480.042084	146.460000
480.135742	146.640000
480.229462	145.880000
480.323151	145.460000
480.416870	144.580000
480.510529	144.720000
480.604279	144.060000
480.697937	144.800000
480.791656	144.760000
480.885345	144.900000
480.979065	144.880000
481.072754	145.460000
481.166473	145.760000
481.260132	145.760000
481.353882	145.820000
481.447540	145.520000
481.541260	145.260000
481.635010	144.580000
481.728668	144.460000
481.822388	144.600000
481.916077	144.920000
482.009796	144.800000
482.103485	145.200000
482.197205	145.460000
482.290863	145.760000
482.384613	145.540000
482.478271	145.220000
482.571991	145.080000
482.665680	144.840000
482.759399	145.100000
482.853058	145.500000
482.946808	145.820000
483.040466	145.440000
483.134216	145.380000
483.227875	144.720000
483.321594	145.040000
483.415283	145.160000
483.509003	145.440000
483.602661	145.580000
483.696411	146.060000
483.790070	145.800000
483.883789	145.740000
483.977478	146.040000
484.071198	146.100000
484.164917	145.820000
484.258606	145.140000
484.352325	145.580000
484.445984	145.520000
484.539734	145.120000
484.633392	144.620000
484.727142	145.060000
484.820801	144.580000
484.914520	144.320000
485.008209	144.920000
485.101929	145.620000
485.195587	145.700000
485.289337	145.380000
485.382996	145.540000
485.476715	145.640000
485.570404	145.920000
485.664124	145.800000
485.757782	146.680000
485.851532	146.200000
485.945190	145.700000
486.038910	145.600000
486.132599	146.060000
486.226318	145.340000
486.319977	145.600000
486.413727	146.260000
486.507446	145.820000
486.601105	145.120000
486.694855	144.900000
486.788513	145.020000
486.882233	144.620000
486.975922	144.400000
487.069641	144.460000
487.163300	144.540000
487.257050	145.320000
487.350708	145.240000
487.444427	145.040000
487.538116	144.980000
487.631836	144.960000
487.725494	144.340000
487.819214	144.220000
487.912903	144.440000
488.006622	144.800000
488.100281	145.240000
488.194031	144.940000
488.287689	145.380000
488.381409	146.060000
488.475098	145.940000
488.568817	146.020000
488.662476	145.960000
488.756226	145.420000
488.849945	144.760000
488.943604	145.020000
489.037354	145.180000
489.131012	145.300000
489.224731	145.360000
489.318390	145.320000
489.412140	145.060000
489.505798	144.800000
489.599518	144.500000
489.693207	145.140000
489.786926	145.320000
489.880585	145.120000
489.974335	145.260000
490.067993	146.160000
490.161713	146.200000
490.255371	146.500000
490.349121	146.740000
490.442780	146.440000
490.536499	145.860000
490.630188	145.640000
490.723907	145.140000
490.817566	145.420000
490.911285	145.380000
491.004974	145.220000
491.098694	144.700000
491.192413	145.460000
491.286102	145.120000
491.379822	145.520000
491.473480	145.900000
491.567200	146.100000
491.660889	145.480000
491.754608	145.260000
491.848267	144.860000
491.941986	144.560000
492.035675	144.420000
492.129395	144.740000
492.223053	144.880000
492.316772	145.280000
492.410461	145.360000
492.504181	145.700000
492.597839	145.300000
492.691559	145.460000
492.785248	145.380000
492.878967	145.500000
492.972626	144.960000
493.066345	145.160000
493.160034	144.640000
493.253754	144.420000
493.347412	143.800000
493.441132	144.260000
493.534882	144.680000
493.628540	145.320000
493.722260	145.400000
493.815918	146.160000
493.909668	146.660000
494.003326	146.820000
494.097046	146.500000
494.190704	146.320000
494.284454	146.140000
494.378113	145.980000
494.471832	145.520000
494.565491	145.540000
494.659210	145.960000
494.752899	145.520000
494.846619	145.200000
494.940277	145.440000
495.033997	145.500000
495.127686	145.400000
495.221405	145.500000
495.315063	145.660000
495.408783	145.460000
495.502441	145.800000
495.596191	146.080000
495.689850	145.980000
495.783569	145.780000
495.877228	146.080000
495.970947	145.560000
496.064697	145.140000
496.158356	146.360000
496.252075	146.480000
496.345734	146.160000
496.439453	147.040000
496.533142	146.820000
496.626862	146.600000
496.720520	146.800000
496.814240	146.740000
496.907898	146.180000
497.001617	146.540000
497.095306	145.740000
497.189026	145.460000
497.282684	145.580000
497.376404	145.880000
497.470062	145.600000
497.563782	145.800000
497.657471	145.900000
497.751190	145.700000
497.844849	145.260000
497.938568	145.520000
498.032227	145.520000
498.125946	145.680000
498.219635	145.400000
498.313354	145.740000
498.407074	145.200000
498.500732	145.400000
498.594452	145.380000
498.688110	145.340000
498.781830	144.800000
498.875519	145.100000
498.969238	144.900000
499.062897	144.560000
499.156616	145.160000
499.250275	145.580000
499.343994	145.100000
499.437653	145.180000
499.531372	145.200000
499.625061	145.660000
499.718781	145.460000
499.812439	146.140000
499.906158	145.700000
499.999817	145.620000
500.093536	144.840000
500.187195	144.900000
500.280914	144.780000
500.374573	145.120000
500.468323	144.980000
500.561981	145.080000
500.655701	144.880000
500.749420	144.920000
500.843079	145.380000
500.936798	145.740000
501.030457	146.080000
501.124176	146.100000
501.217834	145.920000
501.311554	145.660000
501.405212	145.500000
501.498962	144.960000
501.592621	144.860000
501.686340	145.460000
501.779999	145.480000
501.873718	145.680000
501.967377	146.040000
502.061096	146.300000
502.154755	145.400000
502.248474	145.400000
502.342133	145.440000
502.435852	145.340000
502.529510	146.080000
502.623230	147.160000
502.716888	146.500000
502.810608	146.580000
502.904266	147.020000
502.997986	146.360000
503.091705	145.540000
503.185364	145.880000
503.279083	146.000000
503.372772	145.460000
503.466492	145.260000
503.560150	145.540000
503.653870	145.760000
503.747528	145.600000
503.841248	146.000000
503.934906	146.340000
504.028625	146.000000
504.122284	146.040000
504.216003	146.640000
504.309662	145.880000
504.403381	146.100000
504.497040	146.400000
504.590759	146.240000
504.684418	145.820000
504.778137	146.660000
504.871796	146.640000
504.965515	146.440000
505.059174	146.320000
505.152893	145.780000
505.246521	145.340000
505.340240	144.980000
505.433899	145.100000
505.527618	145.460000
505.621338	145.660000
505.714996	145.480000
505.808716	145.540000
505.902374	146.140000
505.996094	146.320000
506.089752	146.380000
506.183472	146.560000
506.277130	146.620000
506.370850	146.360000
506.464508	145.980000
506.558228	146.260000
506.651886	146.000000
506.745605	145.940000
506.839264	145.960000
506.932983	145.920000
507.026611	145.500000
507.120331	146.060000
507.213989	145.680000
507.307709	145.380000
507.401367	145.740000
507.495087	146.660000
507.588745	146.160000
507.682465	147.020000
507.776123	147.000000
507.869843	146.900000
507.963531	146.560000
508.057190	147.200000
508.150909	146.100000
508.244568	146.300000
508.338287	145.860000
508.431946	145.200000
508.525665	144.880000
508.619324	145.160000
508.713013	145.360000
508.806671	145.980000
508.900391	146.780000
508.994049	147.000000
509.087769	146.840000
509.181427	146.540000
509.275146	145.980000
509.368774	145.340000
509.462494	145.300000
509.556152	145.520000
509.649872	145.820000
509.743530	146.120000
509.837250	146.480000
509.930878	146.280000
510.024597	146.340000
510.118256	146.000000
510.211975	145.860000
510.305695	145.520000
510.399353	145.660000
510.493042	146.000000
510.586700	145.980000
510.680420	146.760000
510.774078	146.860000
510.867798	147.060000
510.961426	146.640000
511.055145	146.380000
511.148804	145.700000
511.242523	146.060000
511.336151	145.800000
511.429871	146.340000
511.523529	146.640000
511.617249	146.320000
511.710876	146.040000
511.804596	145.780000
511.898254	145.660000
511.991974	145.920000
512.085632	145.740000
512.179321	145.620000
512.272949	146.180000
512.366699	146.380000
512.460327	146.200000
512.554077	147.080000
512.647766	147.100000
512.741394	146.600000
512.835144	146.660000
512.928772	146.220000
513.022461	146.100000
513.116150	145.860000
513.209839	146.160000
513.303467	145.460000
513.397217	145.580000
513.490845	145.400000
513.584595	145.240000
513.678223	144.800000
513.771912	144.420000
513.865601	144.780000
513.959290	144.560000
514.052917	144.760000
514.146667	145.520000
514.240295	146.340000
514.333984	146.520000
514.427673	146.360000
514.521362	146.820000
514.614990	146.180000
514.708740	146.140000
514.802368	146.240000
514.896057	146.620000
514.989746	147.000000
515.083435	146.960000
515.177124	146.960000
515.270752	146.140000
515.364502	146.040000
515.458130	146.120000
515.551819	146.080000
515.645508	145.840000
515.739197	146.160000
515.832825	146.340000
515.926575	145.780000
516.020203	146.380000
516.113892	146.860000
516.207520	146.980000
516.301270	146.980000
516.394897	146.860000
516.488586	146.920000
516.582275	146.760000
516.675964	146.020000
516.769592	145.580000
516.863281	146.220000
516.956970	145.960000
517.050659	145.640000
517.144287	146.020000
517.238037	146.340000
517.331665	145.460000
517.425354	145.220000
517.519043	145.200000
517.612732	145.400000
517.706421	145.240000
517.800049	145.420000
517.893738	145.520000
517.987427	145.700000
518.081116	145.680000
518.174744	145.460000
518.268433	145.940000
518.362122	146.320000
518.455811	146.240000
518.549438	146.840000
518.643127	147.700000
518.736816	147.020000
518.830505	146.320000
518.924133	146.200000
519.017822	145.940000
519.111511	145.460000
519.205200	146.080000
519.298828	146.400000
519.392517	146.080000
519.486206	146.240000
519.579895	146.060000
519.673523	145.460000
519.767212	145.480000
519.860901	146.200000
519.954590	145.740000
520.048279	145.640000
520.141907	145.780000
520.235596	146.460000
520.329224	146.480000
520.422974	146.540000
520.516602	146.440000
520.610291	146.000000
520.703918	145.360000
520.797607	144.900000
520.891296	144.780000
520.984985	145.000000
521.078613	145.760000
521.172302	145.240000
521.265930	146.040000
521.359680	146.580000
521.453308	146.440000
521.546997	146.260000
521.640625	146.740000
521.734314	145.900000
521.827942	145.680000
521.921692	146.180000
522.015320	146.000000
522.109009	145.960000
522.202698	146.080000
522.296326	145.840000
522.390015	145.840000
522.483704	145.920000
522.577393	145.700000
522.671021	145.420000
522.764709	145.240000
522.858337	145.680000
522.952026	145.840000
523.045654	146.440000
523.139404	147.380000
523.233032	147.700000
523.326721	147.060000
523.420349	147.100000
523.514038	146.600000
523.607666	146.340000
523.701355	145.800000
523.795044	145.620000
523.888733	145.700000
523.982361	146.040000
524.076050	145.560000
524.169678	146.540000
524.263367	146.280000
524.356995	145.740000
524.450684	145.420000
524.544373	145.320000
524.638062	144.880000
524.731750	145.220000
524.825378	145.380000
524.919067	145.000000
525.012695	145.320000
525.106384	144.940000
525.200012	145.220000
525.293701	145.120000
525.387329	145.940000
525.481018	146.040000
525.574646	146.220000
525.668396	145.940000
525.762024	146.400000
525.855713	146.300000
525.949341	145.980000
526.043030	146.060000
526.136658	146.020000
526.230347	145.740000
526.323975	145.340000
526.417664	145.100000
526.511292	145.060000
526.604980	145.060000
526.698608	145.040000
526.792297	145.080000
526.885925	145.500000
526.979614	145.720000
527.073303	145.800000
527.166931	145.440000
527.260620	145.480000
527.354309	145.620000
527.447998	145.560000
527.541626	145.420000
527.635315	146.080000
527.728943	146.560000
527.822632	146.720000
527.916260	146.700000
528.009949	146.860000
528.103577	146.420000
528.197266	145.900000
528.290894	145.780000
528.384583	145.240000
528.478210	145.120000
528.571899	145.460000
528.665527	145.920000
528.759216	145.880000
528.852844	146.620000
528.946533	146.700000
529.040161	146.380000
529.133850	145.820000
529.227478	145.920000
529.321167	146.080000
529.414856	146.320000
529.508484	146.840000
529.602173	146.760000
529.695801	146.500000
529.789490	146.280000
529.883057	145.820000
529.976746	145.720000
530.070374	145.920000
530.164062	145.960000
530.257690	145.880000
530.351379	145.980000
530.445007	145.720000
530.538696	145.340000
530.632324	145.460000
530.726013	145.560000
530.819641	145.720000
530.913330	146.040000
531.006958	146.020000
531.100647	145.780000
531.194275	145.560000
531.287964	145.300000
531.381592	144.780000
531.475220	145.020000
531.568848	145.160000
531.662537	145.120000
531.756226	145.600000
531.849854	145.820000
531.943542	145.820000
532.037170	145.320000
532.130859	145.880000
532.224487	145.300000
532.318176	144.660000
532.411804	145.300000
532.505432	145.980000
532.599060	145.060000
532.692749	144.860000
532.786377	145.520000
532.880066	144.480000
532.973694	143.680000
533.067383	144.300000
533.161011	144.800000
533.254639	144.740000
533.348267	144.840000
533.441956	145.180000
533.535583	144.800000
533.629272	144.600000
533.722900	144.160000
533.816589	144.420000
533.910156	144.920000
534.003845	144.800000
534.097534	145.140000
534.191162	145.780000
534.284851	145.760000
534.378479	145.680000
534.472107	145.820000
534.565735	145.520000
534.659424	145.720000
534.753052	145.880000
534.846741	145.100000
534.940369	145.600000
535.033997	145.940000
535.127625	145.620000
535.221313	146.400000
535.314941	146.680000
535.408630	145.940000
535.502197	146.000000
535.595886	145.880000
535.689514	145.220000
535.783203	145.840000
535.876831	146.460000
535.970459	146.200000
536.064087	146.200000
536.157776	145.980000
536.251404	145.700000
536.345093	145.420000
536.438721	145.400000
536.532349	145.280000
536.626038	145.260000
536.719666	145.400000
536.813293	145.120000
536.906921	145.200000
537.000610	145.820000
537.094238	145.860000
537.187866	145.660000
537.281494	145.800000
537.375183	145.920000
537.468811	145.280000
537.562439	145.240000
537.656067	145.080000
537.749756	145.260000
537.843384	145.680000
537.937012	145.920000
538.030640	145.740000
538.124329	145.900000
538.217896	146.040000
538.311584	145.480000
538.405212	145.400000
538.498901	146.200000
538.592468	146.600000
538.686157	145.940000
538.779785	145.520000
538.873413	145.680000
538.967102	144.960000
539.060730	144.540000
539.154358	145.140000
539.247986	145.780000
539.341675	145.840000
539.435242	145.840000
539.528931	145.880000
539.622559	145.320000
539.716187	145.360000
539.809814	144.960000
539.903503	144.740000
539.997070	144.820000
540.090759	145.180000
540.184387	145.060000
540.278015	145.680000
540.371643	146.180000
540.465332	146.240000
540.558899	146.360000
540.652588	146.200000
540.746216	145.720000
540.839844	146.140000
540.933472	146.260000
541.027100	145.820000
541.120728	146.020000
541.214417	146.240000
541.308044	145.920000
541.401672	145.240000
541.495300	145.080000
541.588928	144.860000
541.682617	144.540000
541.776184	144.200000
541.869873	144.820000
541.963440	145.540000
542.057129	145.540000
542.150757	145.900000
542.244385	146.000000
542.338013	145.480000
542.431641	145.120000
542.525269	145.220000
542.618958	145.300000
542.712524	145.500000
542.806213	145.540000
542.899780	145.640000
542.993469	145.140000
543.087036	144.800000
543.180725	144.460000
543.274292	144.680000
543.367981	144.900000
543.461548	145.620000
543.555237	145.680000
543.648926	146.260000
543.742493	146.680000
543.836182	146.600000
543.929749	146.320000
544.023437	146.140000
544.117004	145.820000
544.210693	145.740000
544.304260	146.000000
544.397949	145.660000
544.491516	146.200000
544.585205	146.300000
544.678772	145.900000
544.772461	145.920000
544.866028	145.920000
544.959717	146.080000
545.053284	145.740000
545.146973	146.140000
545.240540	146.120000
545.334229	146.760000
545.427795	146.320000
545.521423	146.520000
545.615051	146.460000
545.708679	146.660000
545.802307	146.520000
545.895935	146.820000
545.989624	147.420000
546.083191	147.140000
546.176880	146.840000
546.270447	146.600000
546.364136	146.720000
546.457703	145.900000
546.551331	146.040000
546.644958	145.880000
546.738586	145.960000
546.832214	145.680000
546.925842	145.880000
547.019409	145.940000
547.113098	145.800000
547.206665	145.600000
547.300354	145.160000
547.393921	145.300000
547.487549	145.520000
547.581177	145.200000
547.674805	145.400000
547.768433	145.160000
547.862061	145.160000
547.955627	144.400000
548.049316	145.200000
548.142883	145.160000
548.236572	146.060000
548.330139	146.220000
548.423767	146.520000
548.517456	146.200000
548.611023	146.580000
548.704651	145.580000
548.798279	145.580000
548.891907	145.980000
548.985474	145.760000
549.079163	145.660000
549.172729	145.720000
549.266357	145.160000
549.359985	144.820000
549.453613	144.400000
549.547180	144.260000
549.640869	145.060000
549.734436	145.160000
549.828064	145.700000
549.921631	146.080000
550.015320	145.400000
550.108887	145.320000
550.202515	145.440000
550.296143	144.900000
550.389771	144.920000
550.483337	145.600000
550.576965	145.440000
550.670593	145.760000
550.764221	145.840000
550.857849	145.820000
550.951477	145.300000
551.045105	144.900000
551.138672	144.740000
551.232300	144.540000
551.325928	145.000000
551.419556	145.560000
551.513123	145.780000
551.606750	145.420000
551.700378	145.360000
551.794006	145.160000
551.887573	144.720000
551.981201	145.300000
552.074768	145.420000
552.168457	145.380000
552.262024	146.100000
552.355652	146.260000
552.449219	146.600000
552.542847	147.180000
552.636475	146.920000
552.730103	145.600000
552.823669	145.300000
552.917297	144.300000
553.010864	143.820000
553.104553	144.300000
553.198181	144.520000
553.291748	145.300000
553.385376	145.640000
553.478943	145.520000
553.572571	145.980000
553.666199	146.180000
553.759827	145.880000
553.853394	145.440000
553.947021	145.540000
554.040588	145.000000
554.134216	145.080000
554.227783	145.540000
554.321411	146.320000
554.415039	145.880000
554.508667	145.700000
554.602234	146.020000
554.695862	145.540000
554.789429	145.180000
554.883057	145.420000
554.976624	145.760000
555.070251	145.360000
555.163818	144.880000
555.257507	144.820000
555.351074	145.080000
555.444702	145.760000
555.538330	145.780000
555.631897	146.420000
555.725525	146.360000
555.819092	146.200000
555.912720	145.200000
556.006287	145.620000
556.099915	145.360000
556.193481	145.400000
556.287109	145.620000
556.380676	145.560000
556.474304	145.360000
556.567871	145.380000
556.661499	144.880000
556.755066	145.040000
556.848694	145.440000
556.942261	145.180000
557.035889	145.500000
557.129517	145.960000
557.223145	146.280000
557.316711	146.340000
557.410339	146.660000
557.503906	146.320000
557.597473	146.340000
557.691040	145.820000
557.784668	145.720000
557.878296	145.840000
557.971863	146.120000
558.065491	146.100000
558.159058	146.040000
558.252686	146.700000
558.346252	147.140000
558.439880	146.540000
558.533447	146.280000
558.627075	145.920000
558.720642	145.220000
558.814270	144.460000
558.907837	144.540000
559.001465	144.660000
559.095032	145.420000
559.188660	145.640000
559.282227	145.520000
559.375854	146.240000
559.469360	146.280000
559.562988	146.460000
559.656555	146.360000
559.750183	146.800000
559.843750	146.540000
559.937378	146.620000
560.030945	146.300000
560.124573	0.000000
560.218140	0.000000
560.311707	0.000000
560.405334	0.000000
560.498901	0.000000
560.592529	0.000000
560.686096	0.000000
560.779724	0.000000
560.873291	0.000000
560.966858	0.000000
561.060425	0.000000
561.154053	0.000000
561.247620	0.000000
561.341248	0.000000
561.434814	0.000000
561.528381	0.000000
561.621948	0.000000
561.715576	0.000000
561.809143	0.000000
561.902771	0.000000
561.996277	0.000000
562.089905	0.000000
562.183472	0.000000
562.277100	0.000000
