Model Number: SPM-002-B   
Serial Number: 70087108
Firmware Version: 004.15.4
Exposure Time: 100000.000000us
Data Taken on: 11-12-2020 18:50:00.640
Wavelength	Amplitude
221.570786	0.000000
221.663406	0.000000
221.756027	0.000000
221.848648	0.000000
221.941269	0.000000
222.033905	0.000000
222.126526	0.000000
222.219162	0.000000
222.311798	0.000000
222.404419	0.000000
222.497055	0.000000
222.589676	0.000000
222.682312	0.000000
222.774933	0.000000
222.867569	0.000000
222.960205	0.000000
223.052841	0.000000
223.145462	0.000000
223.238098	0.000000
223.330734	0.000000
223.423386	0.000000
223.516022	0.000000
223.608658	0.000000
223.701309	0.000000
223.793945	0.000000
223.886581	0.000000
223.979218	0.000000
224.071869	0.000000
224.164505	0.000000
224.257156	0.000000
224.349792	0.000000
224.442444	0.000000
224.535095	0.000000
224.627747	0.000000
224.720398	0.000000
224.813034	0.000000
224.905685	0.000000
224.998337	145.500000
225.090988	145.260000
225.183640	145.160000
225.276291	145.060000
225.368942	145.780000
225.461594	146.200000
225.554245	146.560000
225.646912	146.560000
225.739578	146.900000
225.832230	146.960000
225.924896	146.240000
226.017548	146.680000
226.110199	147.000000
226.202866	146.580000
226.295532	146.280000
226.388184	146.260000
226.480850	145.440000
226.573517	145.160000
226.666168	145.300000
226.758835	145.740000
226.851501	146.540000
226.944183	146.660000
227.036850	146.180000
227.129517	146.260000
227.222183	146.460000
227.314850	146.360000
227.407516	146.940000
227.500198	147.980000
227.592865	147.300000
227.685532	146.800000
227.778214	146.400000
227.870880	146.400000
227.963562	146.560000
228.056229	147.340000
228.148926	147.420000
228.241592	148.100000
228.334274	147.920000
228.426956	147.560000
228.519638	147.520000
228.612305	147.140000
228.704987	147.040000
228.797668	146.980000
228.890350	146.700000
228.983032	146.260000
229.075714	147.060000
229.168396	146.700000
229.261108	146.160000
229.353790	146.060000
229.446472	146.460000
229.539169	145.880000
229.631851	145.400000
229.724533	145.960000
229.817230	146.140000
229.909912	147.020000
230.002609	147.040000
230.095306	147.040000
230.187988	146.580000
230.280685	146.200000
230.373383	144.760000
230.466095	144.680000
230.558792	145.320000
230.651474	145.600000
230.744171	145.740000
230.836868	145.960000
230.929581	146.300000
231.022278	146.160000
231.114975	146.240000
231.207672	146.140000
231.300369	146.520000
231.393082	146.560000
231.485779	146.440000
231.578506	146.480000
231.671204	146.740000
231.763916	146.600000
231.856613	146.360000
231.949326	146.660000
232.042023	146.380000
232.134735	146.380000
232.227448	146.180000
232.320160	146.580000
232.412872	146.180000
232.505585	147.080000
232.598297	147.260000
232.691010	147.180000
232.783722	146.600000
232.876450	147.340000
232.969162	146.520000
233.061874	146.220000
233.154587	145.900000
233.247314	146.100000
233.340027	145.560000
233.432739	146.140000
233.525467	146.080000
233.618179	146.820000
233.710907	146.620000
233.803635	146.940000
233.896347	146.400000
233.989090	147.080000
234.081818	146.500000
234.174545	146.840000
234.267258	146.100000
234.359985	146.700000
234.452713	146.500000
234.545441	146.660000
234.638168	146.600000
234.730896	147.120000
234.823639	146.780000
234.916367	146.860000
235.009094	146.840000
235.101822	146.760000
235.194580	146.820000
235.287308	146.880000
235.380051	146.120000
235.472778	146.360000
235.565521	146.800000
235.658249	146.200000
235.750992	146.000000
235.843719	146.220000
235.936462	146.440000
236.029205	145.820000
236.121948	145.740000
236.214691	145.940000
236.307449	146.360000
236.400192	145.760000
236.492935	145.440000
236.585678	145.680000
236.678421	145.660000
236.771164	145.640000
236.863907	146.360000
236.956665	147.000000
237.049408	148.600000
237.142151	148.380000
237.234909	148.920000
237.327652	148.700000
237.420410	148.100000
237.513153	146.880000
237.605927	146.760000
237.698669	146.200000
237.791428	145.660000
237.884186	146.320000
237.976944	146.060000
238.069702	146.360000
238.162445	145.860000
238.255203	146.200000
238.347961	146.260000
238.440720	146.360000
238.533478	146.140000
238.626266	146.040000
238.719025	146.000000
238.811783	145.900000
238.904541	145.900000
238.997314	145.900000
239.090073	145.840000
239.182831	146.180000
239.275604	146.720000
239.368362	146.660000
239.461136	146.600000
239.553909	146.620000
239.646667	146.360000
239.739441	146.140000
239.832214	146.380000
239.925003	146.720000
240.017761	147.520000
240.110535	147.980000
240.203308	147.200000
240.296082	147.060000
240.388855	146.820000
240.481628	146.780000
240.574417	146.480000
240.667191	147.080000
240.759964	146.660000
240.852737	146.800000
240.945526	146.560000
241.038315	146.300000
241.131088	145.980000
241.223877	146.640000
241.316650	146.240000
241.409439	146.480000
241.502228	146.180000
241.595001	146.700000
241.687790	146.460000
241.780579	146.660000
241.873367	146.420000
241.966141	147.020000
242.058929	146.160000
242.151718	146.200000
242.244507	146.420000
242.337311	145.520000
242.430099	146.020000
242.522903	146.680000
242.615692	146.440000
242.708481	146.580000
242.801270	147.560000
242.894073	147.020000
242.986862	146.820000
243.079651	147.360000
243.172455	146.880000
243.265244	146.840000
243.358063	146.360000
243.450867	146.460000
243.543655	146.220000
243.636459	146.560000
243.729263	146.620000
243.822067	147.040000
243.914856	147.280000
244.007660	147.400000
244.100464	147.060000
244.193268	146.760000
244.286072	146.700000
244.378876	146.160000
244.471680	145.680000
244.564499	146.040000
244.657318	146.620000
244.750122	146.840000
244.842926	146.400000
244.935745	146.720000
245.028549	146.120000
245.121368	145.580000
245.214172	145.440000
245.306992	146.360000
245.399796	146.100000
245.492615	146.680000
245.585434	146.840000
245.678253	146.520000
245.771072	146.180000
245.863892	146.580000
245.956711	146.460000
246.049530	146.180000
246.142349	146.200000
246.235168	146.380000
246.327988	146.660000
246.420807	146.460000
246.513626	146.720000
246.606445	146.720000
246.699280	146.560000
246.792099	146.000000
246.884918	145.960000
246.977753	145.280000
247.070587	145.440000
247.163422	145.400000
247.256241	145.440000
247.349075	145.760000
247.441895	146.120000
247.534729	145.780000
247.627563	145.560000
247.720383	146.200000
247.813217	145.860000
247.906052	145.760000
247.998886	146.280000
248.091736	146.460000
248.184570	145.820000
248.277405	146.320000
248.370239	147.440000
248.463074	148.100000
248.555908	148.260000
248.648743	148.280000
248.741592	148.160000
248.834427	147.280000
248.927261	146.040000
249.020111	146.220000
249.112946	146.820000
249.205795	146.260000
249.298630	146.320000
249.391495	146.840000
249.484344	146.820000
249.577179	146.400000
249.670029	146.880000
249.762878	147.540000
249.855728	147.380000
249.948563	147.240000
250.041412	146.720000
250.134262	147.000000
250.227112	146.780000
250.319962	147.120000
250.412827	147.160000
250.505692	147.120000
250.598541	146.840000
250.691391	146.260000
250.784241	146.180000
250.877106	146.260000
250.969955	146.120000
251.062805	146.620000
251.155670	147.100000
251.248520	146.700000
251.341385	146.700000
251.434235	146.740000
251.527100	146.360000
251.619965	146.100000
251.712814	146.840000
251.805695	146.680000
251.898560	147.140000
251.991425	147.440000
252.084290	147.680000
252.177155	147.040000
252.270020	146.920000
252.362885	146.980000
252.455750	146.680000
252.548615	146.200000
252.641479	146.160000
252.734360	146.160000
252.827240	145.760000
252.920105	145.840000
253.012970	145.900000
253.105850	146.060000
253.198715	145.800000
253.291595	146.240000
253.384460	145.960000
253.477341	145.780000
253.570221	145.900000
253.663086	146.040000
253.755966	146.420000
253.848846	146.400000
253.941727	146.880000
254.034592	146.760000
254.127472	146.300000
254.220367	145.960000
254.313248	146.140000
254.406128	145.620000
254.499008	145.980000
254.591904	146.860000
254.684784	147.280000
254.777664	147.060000
254.870544	147.040000
254.963440	146.680000
255.056335	146.680000
255.149216	146.120000
255.242111	146.800000
255.334991	147.380000
255.427887	147.340000
255.520767	147.020000
255.613663	147.300000
255.706558	146.480000
255.799438	146.100000
255.892334	145.920000
255.985229	145.940000
256.078125	145.680000
256.171021	145.720000
256.263916	146.500000
256.356812	146.660000
256.449707	146.900000
256.542603	146.760000
256.635498	147.440000
256.728394	146.820000
256.821289	146.780000
256.914215	146.960000
257.007080	147.080000
257.100006	146.880000
257.192932	147.420000
257.285828	147.760000
257.378723	147.620000
257.471619	147.800000
257.564545	147.240000
257.657440	147.180000
257.750336	147.520000
257.843262	147.100000
257.936157	148.120000
258.029053	148.600000
258.121979	148.400000
258.214874	147.840000
258.307800	147.780000
258.400696	146.500000
258.493622	146.040000
258.586517	145.220000
258.679443	145.440000
258.772339	145.340000
258.865265	145.180000
258.958160	145.080000
259.051086	145.840000
259.144012	145.420000
259.236938	146.240000
259.329834	146.580000
259.422791	146.520000
259.515717	146.100000
259.608612	146.080000
259.701538	145.840000
259.794464	145.600000
259.887390	145.700000
259.980316	145.500000
260.073212	145.500000
260.166138	144.640000
260.259064	145.100000
260.351990	145.860000
260.444916	146.320000
260.537842	146.900000
260.630768	147.680000
260.723694	147.640000
260.816620	147.260000
260.909546	147.280000
261.002472	146.680000
261.095398	146.200000
261.188354	145.780000
261.281281	145.700000
261.374207	145.620000
261.467133	146.380000
261.560089	146.720000
261.653015	146.720000
261.745972	147.240000
261.838867	147.360000
261.931824	147.520000
262.024780	146.880000
262.117706	147.140000
262.210663	147.020000
262.303589	146.900000
262.396515	146.840000
262.489471	147.940000
262.582397	147.980000
262.675354	147.400000
262.768280	147.600000
262.861237	147.300000
262.954163	146.920000
263.047119	146.780000
263.140045	146.840000
263.233002	146.660000
263.325958	146.340000
263.418884	146.220000
263.511841	146.320000
263.604797	146.380000
263.697723	146.280000
263.790680	146.500000
263.883636	146.720000
263.976593	146.340000
264.069550	146.600000
264.162476	146.560000
264.255463	146.660000
264.348419	146.240000
264.441376	146.600000
264.534332	145.920000
264.627289	146.120000
264.720245	146.200000
264.813202	145.760000
264.906158	146.240000
264.999115	146.960000
265.092072	146.860000
265.185028	147.440000
265.277985	148.100000
265.370941	147.560000
265.463898	147.300000
265.556854	147.180000
265.649811	146.040000
265.742798	145.860000
265.835754	145.880000
265.928711	146.000000
266.021667	146.140000
266.114655	146.380000
266.207611	146.620000
266.300568	146.300000
266.393585	146.040000
266.486511	146.020000
266.579498	145.240000
266.672485	144.960000
266.765442	145.080000
266.858429	145.660000
266.951385	145.620000
267.044342	146.100000
267.137329	146.240000
267.230316	146.220000
267.323273	145.420000
267.416260	145.860000
267.509216	145.980000
267.602203	146.060000
267.695160	146.440000
267.788147	146.720000
267.881134	146.060000
267.974091	146.180000
268.067078	145.860000
268.160065	145.820000
268.253052	145.620000
268.346008	146.060000
268.438995	145.980000
268.531982	146.240000
268.624969	145.880000
268.717987	146.540000
268.810944	146.120000
268.903961	146.060000
268.996948	145.760000
269.089905	146.360000
269.182892	146.240000
269.275879	146.860000
269.368866	146.640000
269.461853	146.800000
269.554871	146.520000
269.647858	146.560000
269.740845	146.440000
269.833832	146.720000
269.926819	146.800000
270.019806	146.860000
270.112793	146.200000
270.205811	146.380000
270.298798	146.200000
270.391785	146.820000
270.484772	146.580000
270.577789	147.000000
270.670776	146.400000
270.763763	146.460000
270.856750	145.940000
270.949768	145.600000
271.042786	145.500000
271.135773	145.760000
271.228790	146.180000
271.321808	145.820000
271.414795	145.840000
271.507782	145.620000
271.600800	145.360000
271.693817	145.460000
271.786804	146.180000
271.879822	146.520000
271.972809	146.820000
272.065826	147.360000
272.158844	146.760000
272.251831	147.020000
272.344849	146.880000
272.437866	146.380000
272.530853	146.060000
272.623871	146.400000
272.716888	145.400000
272.809906	145.720000
272.902893	145.800000
272.995911	145.420000
273.088928	145.400000
273.181946	145.620000
273.274963	145.440000
273.367981	145.600000
273.460999	145.900000
273.554047	146.360000
273.647003	146.760000
273.740051	146.900000
273.833069	147.640000
273.926086	147.900000
274.019135	147.040000
274.112152	146.660000
274.205170	146.560000
274.298187	146.360000
274.391205	145.940000
274.484222	146.340000
274.577240	146.480000
274.670258	146.280000
274.763306	145.900000
274.856323	146.380000
274.949341	146.420000
275.042358	146.880000
275.135406	147.120000
275.228424	147.000000
275.321442	146.780000
275.414490	146.520000
275.507507	146.220000
275.600525	146.400000
275.693573	146.420000
275.786591	146.160000
275.879669	146.520000
275.972656	146.220000
276.065735	145.920000
276.158752	146.280000
276.251801	147.040000
276.344818	146.980000
276.437866	147.020000
276.530884	146.880000
276.623932	146.240000
276.716980	146.020000
276.809998	145.840000
276.903046	146.200000
276.996094	146.980000
277.089111	147.720000
277.182159	148.220000
277.275208	148.160000
277.368256	148.120000
277.461304	147.580000
277.554321	146.800000
277.647369	146.520000
277.740417	146.580000
277.833466	146.440000
277.926514	146.560000
278.019562	147.280000
278.112610	146.560000
278.205688	146.660000
278.298706	146.780000
278.391785	146.420000
278.484833	145.880000
278.577881	145.920000
278.670929	146.260000
278.763977	146.320000
278.857025	146.780000
278.950073	147.060000
279.043121	146.820000
279.136169	146.440000
279.229248	145.860000
279.322296	145.700000
279.415344	145.340000
279.508392	145.440000
279.601440	145.540000
279.694519	145.820000
279.787567	145.500000
279.880615	145.800000
279.973694	145.980000
280.066742	146.120000
280.159790	146.120000
280.252869	146.220000
280.345917	146.380000
280.438995	146.380000
280.532074	146.300000
280.625122	146.640000
280.718201	147.680000
280.811279	147.320000
280.904327	147.340000
280.997406	147.280000
281.090454	147.060000
281.183533	146.140000
281.276581	146.260000
281.369659	146.100000
281.462738	146.200000
281.555786	146.400000
281.648865	146.500000
281.741943	146.580000
281.835022	147.420000
281.928070	147.140000
282.021149	146.420000
282.114227	146.180000
282.207306	145.880000
282.300385	145.580000
282.393433	145.740000
282.486511	146.160000
282.579590	146.860000
282.672668	147.180000
282.765747	146.680000
282.858856	146.380000
282.951904	146.640000
283.045013	146.220000
283.138062	146.600000
283.231171	146.820000
283.324249	147.500000
283.417328	147.340000
283.510406	147.040000
283.603485	146.580000
283.696564	146.400000
283.789642	146.000000
283.882751	145.780000
283.975830	146.660000
284.068909	146.400000
284.161987	147.580000
284.255066	147.320000
284.348175	147.440000
284.441254	146.940000
284.534332	147.340000
284.627441	146.300000
284.720520	145.920000
284.813599	145.840000
284.906708	145.540000
284.999786	145.020000
285.092896	144.660000
285.185974	145.640000
285.279053	145.280000
285.372192	145.760000
285.465240	146.440000
285.558380	146.420000
285.651459	146.020000
285.744568	147.080000
285.837677	146.560000
285.930756	146.640000
286.023865	146.940000
286.116943	146.920000
286.210052	147.000000
286.303162	147.380000
286.396240	147.080000
286.489349	146.840000
286.582458	147.220000
286.675568	146.300000
286.768646	146.020000
286.861755	146.380000
286.954865	147.100000
287.047974	146.280000
287.141083	146.520000
287.234161	146.280000
287.327271	145.940000
287.420380	145.940000
287.513519	146.400000
287.606598	146.300000
287.699738	146.600000
287.792816	146.320000
287.885956	146.240000
287.979034	145.880000
288.072174	146.000000
288.165283	146.120000
288.258392	146.700000
288.351501	146.180000
288.444611	146.400000
288.537720	146.720000
288.630859	146.600000
288.723969	146.580000
288.817078	147.020000
288.910187	147.000000
289.003296	146.640000
289.096436	146.600000
289.189545	146.340000
289.282654	145.920000
289.375763	146.180000
289.468903	146.600000
289.562012	146.780000
289.655121	146.840000
289.748260	146.880000
289.841400	147.440000
289.934509	147.180000
290.027649	146.880000
290.120728	146.520000
290.213898	146.700000
290.306976	146.140000
290.400146	146.080000
290.493256	145.880000
290.586395	146.320000
290.679535	146.520000
290.772644	146.300000
290.865784	145.900000
290.958893	145.840000
291.052032	145.660000
291.145172	145.500000
291.238281	145.440000
291.331421	145.780000
291.424561	146.660000
291.517670	146.120000
291.610809	146.380000
291.703949	146.220000
291.797089	146.380000
291.890228	145.900000
291.983337	146.380000
292.076477	146.140000
292.169617	146.700000
292.262756	146.500000
292.355927	146.560000
292.449036	146.300000
292.542206	146.440000
292.635315	146.380000
292.728485	146.440000
292.821625	146.260000
292.914764	147.400000
293.007904	147.280000
293.101044	147.200000
293.194183	147.040000
293.287323	147.340000
293.380463	146.640000
293.473602	146.340000
293.566742	146.400000
293.659882	146.920000
293.753021	146.760000
293.846191	146.600000
293.939331	146.420000
294.032471	146.100000
294.125610	145.740000
294.218781	145.920000
294.311920	146.660000
294.405060	146.940000
294.498230	147.200000
294.591370	147.240000
294.684540	146.620000
294.777679	145.680000
294.870850	145.920000
294.963959	145.740000
295.057159	145.440000
295.150299	145.780000
295.243469	145.760000
295.336609	145.340000
295.429779	145.460000
295.522919	146.180000
295.616089	146.460000
295.709229	147.200000
295.802399	147.220000
295.895569	146.900000
295.988708	146.520000
296.081879	146.500000
296.175018	145.880000
296.268188	145.940000
296.361359	146.660000
296.454529	146.660000
296.547668	146.680000
296.640839	147.060000
296.734009	147.160000
296.827179	146.800000
296.920319	147.200000
297.013519	146.700000
297.106659	146.760000
297.199860	146.720000
297.292999	146.920000
297.386200	146.400000
297.479309	146.600000
297.572510	146.660000
297.665680	146.300000
297.758850	146.200000
297.852020	146.300000
297.945190	146.040000
298.038361	145.400000
298.131531	146.560000
298.224701	146.240000
298.317871	145.800000
298.411072	145.620000
298.504242	145.600000
298.597412	144.640000
298.690582	144.840000
298.783752	144.960000
298.876923	145.660000
298.970093	145.740000
299.063293	146.260000
299.156464	146.460000
299.249634	146.800000
299.342834	146.560000
299.436005	147.160000
299.529205	146.880000
299.622345	147.000000
299.715576	146.380000
299.808716	146.020000
299.901917	145.580000
299.995117	145.820000
300.088287	145.660000
300.181488	145.700000
300.274658	145.920000
300.367828	146.060000
300.461029	146.080000
300.554199	146.060000
300.647400	146.100000
300.740601	146.540000
300.833771	146.480000
300.926971	146.560000
301.020142	146.180000
301.113342	146.320000
301.206512	146.100000
301.299713	146.160000
301.392914	145.840000
301.486084	146.320000
301.579285	146.280000
301.672516	146.520000
301.765686	146.260000
301.858887	146.460000
301.952057	146.200000
302.045288	146.300000
302.138458	145.720000
302.231659	145.820000
302.324860	145.620000
302.418060	145.500000
302.511261	145.680000
302.604462	146.100000
302.697662	145.780000
302.790863	145.620000
302.884064	145.440000
302.977264	145.300000
303.070465	145.620000
303.163666	146.420000
303.256866	146.840000
303.350067	147.060000
303.443268	147.020000
303.536469	147.000000
303.629669	146.340000
303.722870	146.420000
303.816071	146.060000
303.909271	146.180000
304.002472	145.340000
304.095673	145.460000
304.188934	144.640000
304.282104	145.740000
304.375336	145.840000
304.468506	146.180000
304.561768	145.920000
304.654968	146.680000
304.748169	146.240000
304.841370	146.140000
304.934601	146.340000
305.027802	146.300000
305.121002	145.940000
305.214233	145.880000
305.307434	145.720000
305.400665	146.160000
305.493866	146.140000
305.587097	146.380000
305.680298	146.020000
305.773499	146.600000
305.866730	146.400000
305.959930	147.220000
306.053162	147.460000
306.146393	147.400000
306.239594	146.800000
306.332825	146.540000
306.426025	146.580000
306.519287	145.880000
306.612488	146.200000
306.705719	146.360000
306.798920	146.580000
306.892181	145.760000
306.985352	145.700000
307.078613	145.080000
307.171844	145.460000
307.265045	144.920000
307.358276	144.920000
307.451508	145.600000
307.544739	146.400000
307.637970	145.720000
307.731201	145.620000
307.824402	146.460000
307.917633	146.440000
308.010864	146.640000
308.104095	147.280000
308.197327	147.620000
308.290558	147.520000
308.383789	147.120000
308.477020	146.560000
308.570251	145.960000
308.663483	145.700000
308.756714	145.260000
308.849976	145.480000
308.943176	145.940000
309.036438	145.860000
309.129639	145.780000
309.222900	145.640000
309.316101	145.420000
309.409393	145.240000
309.502625	145.120000
309.595856	145.440000
309.689087	145.660000
309.782318	145.960000
309.875580	145.940000
309.968811	146.180000
310.062042	145.980000
310.155273	145.880000
310.248535	146.280000
310.341766	146.200000
310.434998	145.900000
310.528259	145.960000
310.621490	146.240000
310.714722	145.560000
310.807983	145.640000
310.901215	146.000000
310.994476	146.300000
311.087708	146.000000
311.181000	146.240000
311.274200	145.820000
311.367462	145.880000
311.460693	145.740000
311.553986	146.520000
311.647186	146.680000
311.740479	147.360000
311.833710	147.000000
311.926971	146.920000
312.020203	145.880000
312.113464	145.500000
312.206726	144.820000
312.299957	145.640000
312.393219	146.200000
312.486481	146.300000
312.579712	146.320000
312.672974	146.120000
312.766235	145.460000
312.859497	145.060000
312.952759	145.260000
313.045990	146.360000
313.139252	146.400000
313.232513	146.860000
313.325775	146.960000
313.419037	146.940000
313.512299	145.700000
313.605530	146.220000
313.698822	146.280000
313.792053	146.240000
313.885345	145.840000
313.978577	146.240000
314.071869	145.740000
314.165131	145.940000
314.258392	146.060000
314.351654	146.260000
314.444916	145.620000
314.538177	146.420000
314.631439	146.320000
314.724701	146.160000
314.817993	146.580000
314.911255	147.080000
315.004517	146.340000
315.097778	145.940000
315.191040	146.280000
315.284302	146.480000
315.377594	146.200000
315.470856	146.240000
315.564117	145.840000
315.657379	145.120000
315.750671	144.520000
315.843933	145.120000
315.937195	145.040000
316.030518	145.140000
316.123749	145.420000
316.217041	146.300000
316.310303	146.100000
316.403595	146.520000
316.496857	147.020000
316.590149	147.260000
316.683411	146.520000
316.776703	146.420000
316.869965	146.220000
316.963257	145.800000
317.056519	145.200000
317.149811	145.040000
317.243073	144.660000
317.336365	144.800000
317.429626	145.300000
317.522919	145.980000
317.616180	146.200000
317.709473	146.300000
317.802765	146.120000
317.896027	146.120000
317.989319	146.000000
318.082611	145.720000
318.175873	145.440000
318.269165	145.620000
318.362488	145.480000
318.455750	145.260000
318.549042	145.820000
318.642303	146.580000
318.735626	146.220000
318.828888	146.300000
318.922211	146.240000
319.015472	146.820000
319.108765	146.020000
319.202057	145.820000
319.295349	145.940000
319.388641	146.060000
319.481934	145.340000
319.575226	145.700000
319.668518	145.960000
319.761810	145.820000
319.855103	145.780000
319.948395	145.920000
320.041687	145.860000
320.134979	145.940000
320.228271	145.820000
320.321564	145.700000
320.414856	145.640000
320.508148	145.340000
320.601440	145.500000
320.694763	145.280000
320.788025	146.040000
320.881348	145.900000
320.974640	146.220000
321.067963	145.740000
321.161224	145.960000
321.254547	145.220000
321.347839	145.760000
321.441162	145.560000
321.534454	145.760000
321.627747	145.680000
321.721069	146.100000
321.814362	145.900000
321.907654	146.060000
322.000946	146.040000
322.094269	146.720000
322.187561	146.300000
322.280884	146.720000
322.374176	146.740000
322.467468	147.300000
322.560791	147.020000
322.654083	147.520000
322.747406	147.260000
322.840698	147.660000
322.934021	147.920000
323.027344	148.020000
323.120636	147.600000
323.213959	147.240000
323.307251	146.560000
323.400574	146.060000
323.493866	145.620000
323.587219	146.040000
323.680511	146.280000
323.773834	146.780000
323.867157	146.780000
323.960449	146.920000
324.053772	146.500000
324.147095	146.340000
324.240387	146.400000
324.333710	146.520000
324.427032	146.620000
324.520355	146.640000
324.613647	146.540000
324.706970	146.480000
324.800293	146.220000
324.893616	146.500000
324.986938	146.620000
325.080231	146.400000
325.173553	146.620000
325.266876	147.100000
325.360199	146.860000
325.453522	146.440000
325.546875	146.480000
325.640167	146.400000
325.733521	146.440000
325.826813	146.800000
325.920166	146.980000
326.013489	146.760000
326.106812	146.180000
326.200134	145.700000
326.293457	144.720000
326.386780	144.640000
326.480103	144.600000
326.573425	144.760000
326.666748	145.080000
326.760071	145.700000
326.853424	145.920000
326.946747	146.260000
327.040070	146.720000
327.133392	146.380000
327.226715	145.680000
327.320068	145.000000
327.413391	145.560000
327.506714	145.120000
327.600037	145.020000
327.693390	145.440000
327.786713	145.880000
327.880066	145.380000
327.973358	145.780000
328.066742	146.480000
328.160034	146.700000
328.253418	147.100000
328.346710	147.120000
328.440063	146.760000
328.533417	146.220000
328.626740	146.260000
328.720093	146.120000
328.813416	145.940000
328.906769	146.420000
329.000092	146.700000
329.093445	146.480000
329.186768	146.260000
329.280121	146.960000
329.373444	146.880000
329.466797	146.580000
329.560120	146.920000
329.653473	147.020000
329.746796	146.540000
329.840149	146.440000
329.933502	146.640000
330.026825	146.280000
330.120178	146.020000
330.213562	145.900000
330.306854	145.700000
330.400238	145.640000
330.493561	145.620000
330.586945	146.380000
330.680237	146.640000
330.773621	146.840000
330.866974	147.300000
330.960327	147.280000
331.053680	146.960000
331.147003	147.020000
331.240356	147.080000
331.333710	146.680000
331.427063	146.580000
331.520416	146.380000
331.613770	146.240000
331.707123	146.400000
331.800476	146.520000
331.893829	147.440000
331.987152	147.800000
332.080505	147.680000
332.173859	147.180000
332.267212	146.680000
332.360565	145.940000
332.453918	145.580000
332.547333	145.560000
332.640656	145.780000
332.734039	146.160000
332.827362	146.120000
332.920746	146.480000
333.014069	146.760000
333.107452	147.280000
333.200806	147.360000
333.294159	147.460000
333.387543	146.800000
333.480896	146.400000
333.574249	146.080000
333.667603	145.760000
333.760956	146.200000
333.854340	146.620000
333.947693	146.820000
334.041046	146.620000
334.134430	147.040000
334.227783	146.380000
334.321136	146.100000
334.414520	145.700000
334.507874	145.820000
334.601227	145.760000
334.694611	145.960000
334.787964	146.100000
334.881348	146.460000
334.974701	146.640000
335.068085	146.440000
335.161438	146.580000
335.254822	146.680000
335.348175	146.540000
335.441559	145.960000
335.534943	146.540000
335.628296	146.400000
335.721680	146.360000
335.815033	146.600000
335.908417	147.160000
336.001770	146.860000
336.095154	146.720000
336.188538	146.360000
336.281891	146.020000
336.375275	145.180000
336.468658	144.760000
336.562012	144.880000
336.655396	145.340000
336.748779	145.900000
336.842133	146.420000
336.935516	146.940000
337.028900	146.800000
337.122284	146.760000
337.215637	146.720000
337.309021	146.780000
337.402435	146.140000
337.495789	146.200000
337.589203	145.680000
337.682526	145.420000
337.775940	145.720000
337.869324	146.340000
337.962708	146.140000
338.056091	147.000000
338.149475	146.520000
338.242859	146.260000
338.336243	145.780000
338.429626	146.260000
338.523010	145.940000
338.616394	146.260000
338.709778	146.420000
338.803162	146.660000
338.896545	146.480000
338.989929	146.180000
339.083313	146.220000
339.176697	145.800000
339.270081	145.360000
339.363464	145.680000
339.456848	146.080000
339.550232	145.700000
339.643616	145.720000
339.737030	145.860000
339.830383	145.440000
339.923828	145.480000
340.017181	145.820000
340.110596	145.920000
340.203949	146.120000
340.297363	145.980000
340.390778	145.940000
340.484161	146.000000
340.577545	146.000000
340.670959	146.100000
340.764343	146.300000
340.857727	146.000000
340.951111	145.380000
341.044525	145.300000
341.137909	144.740000
341.231293	144.680000
341.324707	144.520000
341.418091	145.600000
341.511505	145.780000
341.604889	146.300000
341.698303	146.220000
341.791687	146.300000
341.885071	145.860000
341.978485	145.460000
342.071899	145.320000
342.165283	145.780000
342.258698	146.220000
342.352081	146.520000
342.445496	147.080000
342.538879	147.020000
342.632324	146.780000
342.725708	146.620000
342.819122	146.040000
342.912506	145.800000
343.005920	146.000000
343.099335	146.680000
343.192719	146.600000
343.286133	146.800000
343.379547	147.140000
343.472931	147.120000
343.566345	146.480000
343.659760	146.900000
343.753143	146.500000
343.846558	145.760000
343.939972	145.720000
344.033386	146.180000
344.126770	145.560000
344.220184	145.980000
344.313599	146.720000
344.407043	146.560000
344.500427	145.720000
344.593872	146.320000
344.687225	146.100000
344.780670	145.520000
344.874054	145.660000
344.967499	146.240000
345.060913	145.980000
345.154327	146.040000
345.247742	146.220000
345.341156	146.060000
345.434570	145.680000
345.527985	145.540000
345.621399	145.840000
345.714813	145.640000
345.808228	145.680000
345.901642	145.340000
345.995056	145.120000
346.088470	144.860000
346.181885	145.160000
346.275299	145.160000
346.368713	145.260000
346.462128	145.060000
346.555573	145.160000
346.648987	145.220000
346.742401	145.240000
346.835815	145.840000
346.929260	145.820000
347.022644	145.900000
347.116119	146.020000
347.209503	146.520000
347.302948	147.000000
347.396362	147.720000
347.489807	147.700000
347.583221	148.160000
347.676636	147.420000
347.770050	146.420000
347.863495	146.000000
347.956909	145.980000
348.050323	145.160000
348.143768	145.140000
348.237183	145.160000
348.330597	145.800000
348.424042	146.140000
348.517456	146.820000
348.610901	147.400000
348.704315	147.440000
348.797760	146.540000
348.891174	145.640000
348.984619	144.880000
349.078033	145.180000
349.171448	145.780000
349.264923	146.140000
349.358337	146.460000
349.451782	146.380000
349.545197	145.800000
349.638641	145.000000
349.732086	144.580000
349.825500	145.120000
349.918945	145.120000
350.012390	145.200000
350.105804	145.820000
350.199249	146.020000
350.292664	146.040000
350.386108	146.280000
350.479553	146.820000
350.572968	146.420000
350.666412	146.520000
350.759857	146.140000
350.853302	146.240000
350.946716	145.660000
351.040161	145.800000
351.133606	145.980000
351.227081	146.060000
351.320465	146.900000
351.413940	147.080000
351.507355	147.340000
351.600830	147.200000
351.694244	146.900000
351.787720	146.480000
351.881104	146.540000
351.974579	146.320000
352.067993	147.140000
352.161469	147.560000
352.254883	146.940000
352.348358	146.340000
352.441803	146.280000
352.535248	145.840000
352.628693	146.080000
352.722137	146.220000
352.815582	146.640000
352.909027	146.800000
353.002472	146.620000
353.095917	146.220000
353.189362	146.480000
353.282806	146.320000
353.376251	146.060000
353.469696	145.740000
353.563141	146.180000
353.656586	145.900000
353.750061	145.580000
353.843475	145.760000
353.936981	146.400000
354.030396	146.040000
354.123871	146.120000
354.217285	146.920000
354.310760	146.900000
354.404175	146.720000
354.497681	146.520000
354.591095	146.580000
354.684570	145.760000
354.777985	145.560000
354.871490	145.160000
354.964935	145.580000
355.058380	146.120000
355.151855	146.080000
355.245300	146.580000
355.338745	146.880000
355.432220	146.720000
355.525665	145.900000
355.619110	146.620000
355.712585	146.600000
355.806030	146.460000
355.899475	146.060000
355.992950	146.500000
356.086426	146.700000
356.179871	146.580000
356.273346	146.720000
356.366791	146.920000
356.460266	147.060000
356.553711	146.460000
356.647186	146.860000
356.740631	146.900000
356.834106	146.640000
356.927551	146.640000
357.021027	146.700000
357.114471	146.420000
357.207947	146.340000
357.301422	146.800000
357.394867	146.500000
357.488342	146.780000
357.581818	146.740000
357.675262	147.340000
357.768738	147.240000
357.862213	146.900000
357.955658	147.000000
358.049133	146.460000
358.142609	145.940000
358.236053	145.760000
358.329529	145.940000
358.423035	146.160000
358.516449	146.040000
358.609955	146.740000
358.703400	147.480000
358.796906	147.400000
358.890350	146.840000
358.983826	147.440000
359.077271	146.360000
359.170776	145.560000
359.264221	145.340000
359.357727	145.320000
359.451172	145.600000
359.544647	145.860000
359.638123	146.000000
359.731598	146.700000
359.825073	147.140000
359.918549	146.580000
360.012024	146.680000
360.105499	146.460000
360.198975	146.100000
360.292450	145.580000
360.385925	145.660000
360.479401	145.360000
360.572876	145.700000
360.666351	145.920000
360.759857	146.080000
360.853302	146.120000
360.946808	145.760000
361.040253	145.680000
361.133759	145.400000
361.227203	145.720000
361.320709	145.700000
361.414154	146.380000
361.507660	146.780000
361.601105	147.500000
361.694641	147.740000
361.788086	147.660000
361.881592	148.060000
361.975067	147.560000
362.068542	147.320000
362.162018	147.040000
362.255524	146.780000
362.348999	146.400000
362.442474	146.780000
362.535950	146.320000
362.629456	146.300000
362.722931	146.500000
362.816406	146.660000
362.909882	146.860000
363.003387	146.880000
363.096863	147.000000
363.190338	147.120000
363.283875	146.860000
363.377319	146.520000
363.470825	146.960000
363.564301	146.440000
363.657806	146.420000
363.751282	146.120000
363.844788	146.860000
363.938232	146.240000
364.031769	147.020000
364.125214	147.300000
364.218750	147.860000
364.312225	146.540000
364.405731	147.000000
364.499207	146.220000
364.592712	145.620000
364.686188	145.260000
364.779694	145.840000
364.873169	145.400000
364.966675	145.540000
365.060150	145.780000
365.153656	146.160000
365.247131	146.120000
365.340637	146.420000
365.434143	146.720000
365.527618	146.620000
365.621155	145.980000
365.714600	146.040000
365.808136	146.020000
365.901611	145.040000
365.995117	145.180000
366.088593	145.160000
366.182129	145.080000
366.275604	145.140000
366.369110	146.000000
366.462585	146.140000
366.556122	146.940000
366.649567	147.280000
366.743103	147.540000
366.836609	147.260000
366.930115	147.280000
367.023590	147.180000
367.117096	146.640000
367.210602	146.440000
367.304108	147.040000
367.397614	147.460000
367.491119	147.520000
367.584595	147.900000
367.678101	148.120000
367.771606	147.420000
367.865112	146.780000
367.958649	146.020000
368.052124	145.580000
368.145660	145.160000
368.239136	145.620000
368.332672	145.620000
368.426147	146.020000
368.519684	146.180000
368.613159	146.600000
368.706696	146.160000
368.800171	146.200000
368.893707	146.260000
368.987183	146.140000
369.080719	146.260000
369.174225	146.080000
369.267731	146.180000
369.361237	146.180000
369.454742	146.340000
369.548248	146.240000
369.641754	146.320000
369.735260	146.360000
369.828766	145.400000
369.922272	145.880000
370.015808	145.520000
370.109314	145.600000
370.202820	145.260000
370.296356	146.720000
370.389832	146.300000
370.483368	146.040000
370.576874	146.020000
370.670410	146.520000
370.763885	145.180000
370.857422	145.200000
370.950928	145.240000
371.044464	146.140000
371.137939	146.300000
371.231476	147.260000
371.324982	147.600000
371.418518	147.800000
371.512024	147.020000
371.605560	146.500000
371.699066	146.640000
371.792572	146.240000
371.886108	146.660000
371.979614	146.640000
372.073120	147.040000
372.166656	146.640000
372.260162	146.920000
372.353668	146.580000
372.447205	146.460000
372.540710	146.340000
372.634277	146.060000
372.727753	146.040000
372.821320	146.060000
372.914795	146.120000
373.008362	145.900000
373.101837	146.100000
373.195404	145.620000
373.288879	145.520000
373.382446	146.180000
373.475922	146.140000
373.569489	146.840000
373.662964	147.360000
373.756531	147.300000
373.850037	147.300000
373.943573	147.480000
374.037109	146.460000
374.130615	146.480000
374.224152	146.880000
374.317657	146.360000
374.411194	147.020000
374.504730	147.280000
374.598236	146.840000
374.691772	146.440000
374.785309	146.560000
374.878815	145.600000
374.972351	145.940000
375.065887	146.260000
375.159454	146.820000
375.252930	146.740000
375.346497	146.880000
375.440002	147.240000
375.533569	147.160000
375.627045	146.300000
375.720612	146.400000
375.814117	146.800000
375.907684	146.140000
376.001160	145.780000
376.094727	145.680000
376.188232	146.220000
376.281799	146.140000
376.375336	146.100000
376.468872	146.900000
376.562408	147.260000
376.655914	146.640000
376.749451	146.740000
376.842987	146.980000
376.936523	146.380000
377.030060	146.420000
377.123596	146.520000
377.217133	145.840000
377.310669	145.640000
377.404205	146.020000
377.497772	146.320000
377.591278	146.340000
377.684845	147.140000
377.778351	147.580000
377.871918	147.460000
377.965424	146.760000
378.058990	146.740000
378.152496	146.480000
378.246063	146.600000
378.339569	146.780000
378.433136	147.000000
378.526642	146.980000
378.620209	147.000000
378.713745	146.460000
378.807312	146.540000
378.900848	146.580000
378.994385	146.560000
379.087921	145.720000
379.181458	146.040000
379.274994	145.400000
379.368530	145.460000
379.462097	145.700000
379.555634	146.460000
379.649170	145.720000
379.742706	145.880000
379.836273	146.160000
379.929810	145.920000
380.023376	145.700000
380.116882	146.140000
380.210449	146.280000
380.303986	145.900000
380.397552	145.560000
380.491058	145.660000
380.584656	145.460000
380.678162	145.600000
380.771729	145.680000
380.865265	146.340000
380.958832	146.500000
381.052368	146.840000
381.145935	147.020000
381.239471	147.580000
381.333008	147.480000
381.426575	147.320000
381.520111	147.580000
381.613647	147.460000
381.707214	146.840000
381.800751	146.180000
381.894318	146.480000
381.987854	145.820000
382.081421	145.620000
382.174988	146.040000
382.268524	146.160000
382.362091	145.820000
382.455627	146.820000
382.549194	146.640000
382.642731	145.860000
382.736298	145.880000
382.829834	145.680000
382.923401	146.000000
383.016937	146.280000
383.110504	147.080000
383.204041	147.200000
383.297607	147.640000
383.391174	146.500000
383.484741	147.320000
383.578278	146.820000
383.671844	146.520000
383.765411	146.020000
383.858948	146.400000
383.952515	145.640000
384.046051	146.100000
384.139618	146.540000
384.233185	146.980000
384.326721	146.980000
384.420288	147.460000
384.513855	147.240000
384.607422	147.280000
384.700989	147.340000
384.794525	146.940000
384.888123	146.600000
384.981659	146.840000
385.075226	146.720000
385.168762	146.280000
385.262360	146.560000
385.355896	145.860000
385.449463	145.720000
385.542999	145.600000
385.636597	146.620000
385.730164	146.680000
385.823730	146.520000
385.917267	146.020000
386.010834	146.100000
386.104401	145.600000
386.197968	145.700000
386.291534	146.580000
386.385101	147.080000
386.478668	147.620000
386.572235	147.520000
386.665802	147.060000
386.759338	146.520000
386.852905	146.140000
386.946472	145.420000
387.040070	145.620000
387.133606	145.800000
387.227203	145.860000
387.320740	145.940000
387.414337	146.060000
387.507874	145.760000
387.601471	145.900000
387.695007	145.780000
387.788605	145.780000
387.882141	146.200000
387.975739	145.880000
388.069275	145.580000
388.162872	145.820000
388.256439	146.020000
388.350037	145.440000
388.443604	145.500000
388.537170	145.620000
388.630737	146.040000
388.724304	145.980000
388.817871	145.940000
388.911438	146.400000
389.005005	146.440000
389.098602	146.460000
389.192169	146.160000
389.285736	146.700000
389.379333	146.420000
389.472870	145.940000
389.566467	145.660000
389.660034	146.120000
389.753632	145.860000
389.847168	146.080000
389.940765	146.740000
390.034332	146.740000
390.127930	146.260000
390.221466	146.300000
390.315063	145.940000
390.408630	145.100000
390.502228	144.620000
390.595795	145.060000
390.689362	144.940000
390.782959	145.320000
390.876526	146.120000
390.970093	146.060000
391.063690	146.560000
391.157257	146.760000
391.250824	147.080000
391.344421	146.780000
391.437988	147.500000
391.531555	147.040000
391.625153	147.140000
391.718750	147.400000
391.812317	147.340000
391.905914	146.720000
391.999481	146.940000
392.093079	146.820000
392.186615	146.660000
392.280243	146.840000
392.373779	146.940000
392.467407	147.280000
392.560944	147.040000
392.654572	146.260000
392.748108	146.320000
392.841736	146.720000
392.935303	146.120000
393.028900	146.200000
393.122467	146.580000
393.216064	146.220000
393.309631	145.500000
393.403229	145.080000
393.496796	144.920000
393.590393	144.440000
393.683990	144.840000
393.777557	145.580000
393.871155	146.080000
393.964722	146.720000
394.058350	147.080000
394.151917	146.860000
394.245514	146.600000
394.339081	146.660000
394.432678	146.480000
394.526245	146.160000
394.619873	145.880000
394.713409	146.100000
394.807037	145.580000
394.900604	145.560000
394.994202	145.760000
395.087769	146.300000
395.181396	145.980000
395.274994	147.120000
395.368561	146.660000
395.462158	146.820000
395.555756	146.180000
395.649353	146.580000
395.742920	145.740000
395.836517	146.500000
395.930115	145.980000
396.023712	146.640000
396.117279	146.440000
396.210876	146.020000
396.304474	145.660000
396.398071	145.860000
396.491669	146.040000
396.585266	145.980000
396.678833	145.920000
396.772461	146.080000
396.866028	146.500000
396.959656	146.600000
397.053223	146.940000
397.146851	147.140000
397.240417	147.400000
397.334015	148.200000
397.427582	148.200000
397.521210	148.580000
397.614807	150.080000
397.708405	151.200000
397.802002	152.360000
397.895599	154.820000
397.989197	157.200000
398.082794	160.140000
398.176392	164.540000
398.269989	169.140000
398.363586	175.260000
398.457184	182.980000
398.550781	191.500000
398.644379	199.060000
398.737976	208.840000
398.831573	218.720000
398.925201	228.780000
399.018768	239.640000
399.112396	251.960000
399.205963	263.680000
399.299591	276.840000
399.393158	291.140000
399.486786	306.780000
399.580353	323.480000
399.673981	340.860000
399.767578	358.320000
399.861206	374.960000
399.954773	389.160000
400.048401	399.400000
400.141998	405.700000
400.235596	408.720000
400.329193	407.600000
400.422791	404.220000
400.516418	400.380000
400.610016	396.560000
400.703613	391.340000
400.797211	384.820000
400.890808	376.620000
400.984436	366.160000
401.078033	352.460000
401.171631	336.780000
401.265259	319.020000
401.358826	300.540000
401.452484	280.800000
401.546051	262.080000
401.639679	243.120000
401.733246	226.900000
401.826904	211.520000
401.920471	198.700000
402.014099	187.820000
402.107697	178.980000
402.201324	171.300000
402.294891	165.820000
402.388550	161.440000
402.482147	158.000000
402.575745	154.940000
402.669373	152.640000
402.762970	150.580000
402.856567	149.260000
402.950195	148.500000
403.043793	147.700000
403.137390	147.900000
403.231018	147.100000
403.324615	147.660000
403.418243	146.840000
403.511841	147.280000
403.605469	146.820000
403.699066	147.360000
403.792694	146.720000
403.886292	147.080000
403.979919	146.820000
404.073517	146.700000
404.167145	146.920000
404.260712	147.000000
404.354370	146.880000
404.447937	147.000000
404.541595	147.220000
404.635162	147.180000
404.728821	147.680000
404.822418	147.460000
404.916046	146.940000
405.009644	147.040000
405.103271	147.340000
405.196899	146.560000
405.290497	146.520000
405.384125	147.000000
405.477722	146.660000
405.571350	145.920000
405.664948	146.320000
405.758575	146.200000
405.852203	145.680000
405.945801	145.780000
406.039429	145.940000
406.133057	145.680000
406.226654	145.780000
406.320312	146.100000
406.413879	146.320000
406.507538	146.540000
406.601135	145.740000
406.694763	146.300000
406.788361	146.120000
406.882019	145.680000
406.975586	145.680000
407.069244	147.060000
407.162872	146.860000
407.256470	146.960000
407.350098	147.360000
407.443726	147.180000
407.537323	146.460000
407.630951	146.540000
407.724579	146.100000
407.818207	146.240000
407.911804	146.220000
408.005432	146.280000
408.099060	146.360000
408.192688	146.780000
408.286285	146.420000
408.379913	146.020000
408.473572	146.020000
408.567169	145.160000
408.660828	145.180000
408.754395	145.000000
408.848053	145.160000
408.941650	145.540000
409.035309	145.580000
409.128906	145.620000
409.222565	145.800000
409.316132	146.340000
409.409790	145.480000
409.503387	145.800000
409.597046	145.620000
409.690674	145.680000
409.784302	145.240000
409.877930	145.620000
409.971558	145.900000
410.065186	146.000000
410.158783	146.200000
410.252411	146.280000
410.346039	146.560000
410.439667	146.220000
410.533295	146.660000
410.626923	146.600000
410.720551	146.360000
410.814209	146.640000
410.907806	146.800000
411.001465	146.120000
411.095062	146.340000
411.188721	146.660000
411.282318	146.040000
411.375977	145.880000
411.469574	146.280000
411.563232	145.840000
411.656830	145.360000
411.750488	145.300000
411.844086	145.100000
411.937744	145.100000
412.031372	144.860000
412.125000	145.100000
412.218628	145.460000
412.312256	146.380000
412.405884	146.560000
412.499512	146.560000
412.593170	146.920000
412.686798	147.040000
412.780426	146.340000
412.874054	146.360000
412.967682	146.640000
413.061310	147.260000
413.154968	147.120000
413.248566	147.380000
413.342224	147.200000
413.435852	147.060000
413.529510	146.300000
413.623108	145.760000
413.716766	145.720000
413.810364	146.120000
413.904022	146.020000
413.997650	145.980000
414.091309	146.900000
414.184906	146.440000
414.278564	146.020000
414.372192	146.560000
414.465851	146.720000
414.559479	146.140000
414.653107	147.260000
414.746735	147.240000
414.840393	146.960000
414.934021	147.100000
415.027649	146.880000
415.121277	146.400000
415.214935	146.880000
415.308563	146.840000
415.402191	146.240000
415.495850	146.200000
415.589478	145.940000
415.683136	145.300000
415.776733	145.840000
415.870422	146.500000
415.964020	146.440000
416.057678	146.700000
416.151306	147.000000
416.244965	146.560000
416.338562	146.220000
416.432251	146.680000
416.525848	147.160000
416.619507	147.220000
416.713165	147.400000
416.806793	147.620000
416.900421	147.700000
416.994080	146.860000
417.087708	146.700000
417.181366	146.220000
417.274994	146.200000
417.368622	146.340000
417.462280	146.900000
417.555908	146.980000
417.649567	147.120000
417.743195	146.980000
417.836853	146.820000
417.930481	147.020000
418.024170	147.080000
418.117767	147.780000
418.211426	148.100000
418.305054	148.060000
418.398712	147.160000
418.492340	146.900000
418.585999	146.780000
418.679626	146.680000
418.773285	146.840000
418.866913	147.600000
418.960571	148.120000
419.054230	148.160000
419.147858	148.040000
419.241516	148.280000
419.335144	147.940000
419.428802	147.740000
419.522461	147.220000
419.616089	147.000000
419.709747	146.740000
419.803375	146.560000
419.897034	146.040000
419.990662	145.840000
420.084320	146.060000
420.177979	146.400000
420.271606	146.860000
420.365295	147.700000
420.458893	147.900000
420.552582	148.000000
420.646210	147.640000
420.739868	147.080000
420.833496	146.540000
420.927155	146.280000
421.020782	146.260000
421.114471	145.680000
421.208069	145.860000
421.301758	146.400000
421.395386	146.760000
421.489044	146.620000
421.582703	146.960000
421.676361	147.260000
421.769989	146.500000
421.863647	146.760000
421.957306	146.980000
422.050934	147.120000
422.144592	146.700000
422.238251	147.020000
422.331909	146.460000
422.425537	146.100000
422.519196	146.160000
422.612854	146.240000
422.706543	145.860000
422.800140	146.280000
422.893829	146.080000
422.987457	145.920000
423.081146	146.300000
423.174744	146.680000
423.268433	146.160000
423.362061	146.280000
423.455750	145.860000
423.549347	145.600000
423.643036	145.200000
423.736664	145.760000
423.830353	145.800000
423.924011	146.600000
424.017639	146.080000
424.111298	146.120000
424.204956	146.000000
424.298615	146.220000
424.392273	145.840000
424.485931	146.200000
424.579559	146.640000
424.673218	146.220000
424.766876	146.020000
424.860535	145.780000
424.954193	145.460000
425.047882	145.460000
425.141510	145.720000
425.235199	145.900000
425.328796	145.820000
425.422485	145.980000
425.516113	145.260000
425.609802	145.200000
425.703430	145.140000
425.797119	145.200000
425.890747	145.540000
425.984436	145.960000
426.078064	146.300000
426.171753	146.480000
426.265411	146.520000
426.359070	146.720000
426.452728	146.920000
426.546356	146.520000
426.640015	146.180000
426.733673	146.220000
426.827332	145.700000
426.920990	146.160000
427.014648	145.920000
427.108307	146.120000
427.201965	146.500000
427.295624	146.560000
427.389282	145.640000
427.482941	145.940000
427.576630	145.720000
427.670258	145.220000
427.763947	145.220000
427.857574	145.440000
427.951263	145.580000
428.044922	145.300000
428.138611	145.380000
428.232239	146.040000
428.325928	146.400000
428.419556	146.920000
428.513245	146.920000
428.606903	147.280000
428.700562	146.400000
428.794220	145.920000
428.887878	145.160000
428.981537	145.480000
429.075195	145.500000
429.168854	145.960000
429.262512	146.220000
429.356201	146.540000
429.449860	146.440000
429.543518	146.220000
429.637177	146.200000
429.730835	145.860000
429.824493	145.840000
429.918182	146.240000
430.011810	145.820000
430.105530	145.400000
430.199158	145.620000
430.292847	145.440000
430.386475	145.140000
430.480164	145.080000
430.573792	144.940000
430.667511	145.020000
430.761139	144.940000
430.854828	145.580000
430.948456	145.920000
431.042145	146.420000
431.135834	146.260000
431.229492	146.440000
431.323151	146.180000
431.416809	146.060000
431.510468	146.060000
431.604156	146.260000
431.697815	146.400000
431.791473	145.880000
431.885132	145.740000
431.978821	145.900000
432.072479	146.040000
432.166138	146.160000
432.259827	146.100000
432.353485	146.520000
432.447174	146.560000
432.540802	146.240000
432.634491	146.200000
432.728149	146.660000
432.821838	147.160000
432.915466	146.720000
433.009186	146.820000
433.102814	146.100000
433.196503	145.780000
433.290131	145.140000
433.383850	145.320000
433.477509	145.300000
433.571167	146.460000
433.664856	147.000000
433.758514	147.960000
433.852173	148.040000
433.945862	147.980000
434.039520	147.460000
434.133179	146.820000
434.226868	145.940000
434.320526	145.260000
434.414185	145.700000
434.507874	145.460000
434.601562	145.660000
434.695221	145.260000
434.788910	146.180000
434.882538	146.100000
434.976257	145.580000
435.069885	145.700000
435.163574	146.140000
435.257233	145.440000
435.350922	145.200000
435.444580	145.240000
435.538269	145.080000
435.631897	145.440000
435.725616	146.000000
435.819275	146.220000
435.912964	146.920000
436.006622	147.240000
436.100311	146.980000
436.193970	145.940000
436.287628	145.740000
436.381317	145.400000
436.474976	144.860000
436.568665	144.660000
436.662323	145.220000
436.756012	145.120000
436.849670	144.960000
436.943390	145.020000
437.037018	144.720000
437.130737	144.860000
437.224365	144.840000
437.318085	145.300000
437.411713	145.540000
437.505432	146.160000
437.599060	146.800000
437.692780	147.460000
437.786407	147.140000
437.880127	147.000000
437.973755	146.480000
438.067474	145.440000
438.161133	144.920000
438.254822	145.360000
438.348480	145.400000
438.442169	146.240000
438.535828	146.840000
438.629517	146.480000
438.723175	145.800000
438.816864	146.080000
438.910553	145.180000
439.004211	145.000000
439.097900	144.820000
439.191559	145.420000
439.285248	144.620000
439.378906	145.060000
439.472626	145.040000
439.566284	145.300000
439.659973	145.340000
439.753632	145.620000
439.847321	146.280000
439.940979	146.420000
440.034698	146.560000
440.128326	146.020000
440.222046	146.080000
440.315674	145.000000
440.409393	145.000000
440.503082	144.860000
440.596741	145.200000
440.690430	145.620000
440.784088	145.440000
440.877777	144.980000
440.971466	145.020000
441.065125	144.780000
441.158813	144.500000
441.252502	145.020000
441.346161	145.820000
441.439850	146.380000
441.533539	146.300000
441.627197	146.500000
441.720886	146.640000
441.814606	146.540000
441.908234	146.560000
442.001953	146.600000
442.095612	146.540000
442.189301	146.460000
442.282959	146.540000
442.376678	145.900000
442.470306	146.580000
442.564026	146.320000
442.657684	146.340000
442.751404	146.180000
442.845032	147.160000
442.938751	146.380000
443.032440	146.440000
443.126099	146.220000
443.219788	146.520000
443.313477	146.160000
443.407166	146.720000
443.500824	147.080000
443.594513	147.360000
443.688202	147.080000
443.781891	146.420000
443.875549	145.960000
443.969238	145.680000
444.062927	145.480000
444.156647	145.240000
444.250275	145.740000
444.343994	146.060000
444.437653	146.460000
444.531372	146.580000
444.625031	146.420000
444.718719	146.180000
444.812378	146.220000
444.906097	145.600000
444.999756	145.340000
445.093445	145.820000
445.187103	145.820000
445.280823	146.420000
445.374512	146.380000
445.468201	146.720000
445.561859	146.300000
445.655548	146.420000
445.749237	145.580000
445.842926	145.820000
445.936615	145.860000
446.030304	145.740000
446.123962	146.080000
446.217651	145.980000
446.311340	146.400000
446.405029	145.980000
446.498749	145.960000
446.592407	145.500000
446.686096	145.840000
446.779755	145.640000
446.873474	146.000000
446.967133	146.380000
447.060852	145.920000
447.154510	145.720000
447.248230	145.740000
447.341858	145.700000
447.435577	145.160000
447.529236	145.380000
447.622955	145.000000
447.716644	144.980000
447.810333	144.960000
447.904022	145.820000
447.997711	145.880000
448.091400	146.700000
448.185059	146.500000
448.278748	146.700000
448.372437	145.940000
448.466125	146.160000
448.559814	145.680000
448.653503	145.900000
448.747192	145.880000
448.840912	146.460000
448.934570	146.560000
449.028290	147.040000
449.121948	146.380000
449.215637	145.960000
449.309296	145.480000
449.403015	145.540000
449.496674	145.320000
449.590393	145.600000
449.684052	145.560000
449.777771	146.340000
449.871429	145.300000
449.965149	145.100000
450.058838	145.740000
450.152527	146.480000
450.246216	145.860000
450.339905	146.700000
450.433594	146.560000
450.527283	146.960000
450.620972	146.420000
450.714661	146.840000
450.808350	147.100000
450.902039	147.820000
450.995728	147.260000
451.089417	146.960000
451.183105	146.780000
451.276794	147.100000
451.370514	146.220000
451.464172	145.440000
451.557892	145.700000
451.651550	145.920000
451.745270	144.860000
451.838928	144.720000
451.932648	145.320000
452.026306	145.940000
452.120026	145.540000
452.213684	146.040000
452.307404	146.420000
452.401062	146.640000
452.494781	146.680000
452.588470	146.860000
452.682159	146.680000
452.775848	146.820000
452.869537	146.300000
452.963226	145.420000
453.056915	145.220000
453.150604	145.420000
453.244293	145.560000
453.337982	146.080000
453.431671	146.680000
453.525360	147.320000
453.619049	147.500000
453.712769	147.340000
453.806427	146.840000
453.900146	146.320000
453.993805	145.840000
454.087555	145.900000
454.181213	146.040000
454.274933	146.080000
454.368591	146.140000
454.462311	146.060000
454.555969	145.600000
454.649689	146.360000
454.743347	146.340000
454.837067	147.200000
454.930756	147.680000
455.024445	148.060000
455.118134	147.460000
455.211853	147.720000
455.305542	147.180000
455.399231	146.820000
455.492920	146.660000
455.586609	146.520000
455.680298	146.940000
455.773987	146.360000
455.867676	146.680000
455.961365	146.920000
456.055084	146.720000
456.148773	146.140000
456.242493	146.640000
456.336151	146.540000
456.429871	146.520000
456.523529	146.720000
456.617249	146.620000
456.710907	147.100000
456.804626	147.120000
456.898315	146.460000
456.992035	146.480000
457.085693	146.460000
457.179413	145.820000
457.273102	146.340000
457.366791	146.620000
457.460480	147.060000
457.554199	147.880000
457.647888	148.020000
457.741577	147.300000
457.835266	147.680000
457.928955	147.620000
458.022644	147.500000
458.116364	147.700000
458.210052	147.420000
458.303741	147.400000
458.397461	146.400000
458.491119	145.660000
458.584839	145.420000
458.678528	145.400000
458.772247	145.020000
458.865906	145.480000
458.959625	146.320000
459.053284	146.500000
459.147003	146.500000
459.240692	147.160000
459.334412	147.240000
459.428070	146.680000
459.521790	146.440000
459.615479	146.640000
459.709198	146.760000
459.802887	146.620000
459.896576	146.360000
459.990265	146.700000
460.083954	146.720000
460.177673	146.220000
460.271362	146.020000
460.365051	146.240000
460.458740	145.800000
460.552429	145.200000
460.646149	145.200000
460.739838	145.080000
460.833527	145.080000
460.927246	144.980000
461.020905	145.380000
461.114655	145.160000
461.208313	145.760000
461.302032	145.440000
461.395691	145.580000
461.489441	145.560000
461.583099	145.620000
461.676819	145.400000
461.770477	145.900000
461.864197	145.640000
461.957916	145.520000
462.051605	144.940000
462.145294	145.580000
462.238983	145.300000
462.332703	145.820000
462.426392	146.640000
462.520081	147.020000
462.613770	146.180000
462.707489	146.200000
462.801178	145.920000
462.894867	145.340000
462.988556	145.440000
463.082275	145.620000
463.175964	145.440000
463.269684	145.700000
463.363342	145.820000
463.457092	145.380000
463.550751	145.840000
463.644470	146.140000
463.738129	146.000000
463.831879	146.120000
463.925537	147.120000
464.019257	146.980000
464.112946	147.000000
464.206665	146.920000
464.300323	146.420000
464.394043	145.860000
464.487762	145.680000
464.581451	145.680000
464.675140	145.720000
464.768829	146.320000
464.862549	146.460000
464.956238	146.640000
465.049927	146.720000
465.143646	146.740000
465.237335	146.340000
465.331024	146.960000
465.424713	146.980000
465.518433	147.080000
465.612152	146.900000
465.705811	146.920000
465.799561	146.280000
465.893219	146.140000
465.986938	145.900000
466.080597	145.780000
466.174347	146.180000
466.268005	146.620000
466.361725	146.520000
466.455414	146.580000
466.549133	146.620000
466.642792	146.780000
466.736542	146.140000
466.830231	146.220000
466.923920	146.040000
467.017609	146.140000
467.111328	145.560000
467.205017	145.660000
467.298706	145.620000
467.392426	145.640000
467.486115	145.780000
467.579803	145.760000
467.673523	146.160000
467.767212	146.200000
467.860901	146.400000
467.954651	146.600000
468.048309	146.940000
468.142029	146.620000
468.235718	146.560000
468.329437	146.380000
468.423096	146.060000
468.516846	145.640000
468.610504	145.720000
468.704224	145.280000
468.797913	145.000000
468.891632	145.620000
468.985291	145.920000
469.079010	146.120000
469.172729	145.940000
469.266418	146.700000
469.360107	146.240000
469.453827	145.840000
469.547516	145.940000
469.641205	146.640000
469.734924	146.620000
469.828613	146.940000
469.922302	147.420000
470.016022	147.280000
470.109711	147.160000
470.203430	146.500000
470.297150	145.500000
470.390808	145.580000
470.484558	145.160000
470.578217	145.640000
470.671936	146.120000
470.765625	147.100000
470.859344	146.740000
470.953003	147.180000
471.046753	146.600000
471.140411	146.040000
471.234131	145.800000
471.327820	146.300000
471.421539	146.040000
471.515228	145.980000
471.608948	145.980000
471.702637	145.880000
471.796326	145.360000
471.890045	145.720000
471.983734	145.940000
472.077423	145.880000
472.171143	145.940000
472.264832	145.920000
472.358521	145.440000
472.452240	144.880000
472.545929	145.960000
472.639648	146.180000
472.733337	146.640000
472.827057	146.740000
472.920746	147.120000
473.014465	147.120000
473.108124	147.120000
473.201874	146.860000
473.295532	146.920000
473.389252	147.240000
473.482941	146.860000
473.576660	146.380000
473.670319	146.280000
473.764069	146.540000
473.857727	146.420000
473.951477	146.500000
474.045166	147.240000
474.138855	147.140000
474.232574	146.880000
474.326263	146.920000
474.419952	146.880000
474.513672	146.580000
474.607361	146.660000
474.701050	146.880000
474.794769	147.160000
474.888458	147.440000
474.982178	147.540000
475.075867	147.560000
475.169586	147.680000
475.263275	147.380000
475.356995	147.140000
475.450653	146.780000
475.544403	146.720000
475.638062	147.100000
475.731812	146.480000
475.825470	146.040000
475.919189	146.320000
476.012878	146.520000
476.106598	145.480000
476.200256	146.060000
476.294006	146.140000
476.387695	145.820000
476.481384	145.720000
476.575104	146.240000
476.668793	146.060000
476.762512	146.060000
476.856201	146.620000
476.949890	146.360000
477.043610	145.680000
477.137299	145.740000
477.230988	146.040000
477.324707	145.600000
477.418396	146.360000
477.512146	146.960000
477.605804	146.660000
477.699524	146.620000
477.793213	146.640000
477.886932	146.160000
477.980591	145.760000
478.074341	145.760000
478.167999	145.100000
478.261749	145.120000
478.355408	144.980000
478.449127	145.500000
478.542816	146.560000
478.636536	147.600000
478.730225	147.940000
478.823944	148.300000
478.917633	148.220000
479.011322	147.940000
479.105042	147.600000
479.198730	147.320000
479.292450	147.300000
479.386139	147.460000
479.479828	147.380000
479.573547	147.760000
479.667267	147.620000
479.760925	147.000000
479.854675	147.040000
479.948334	146.940000
480.042084	146.080000
480.135742	146.320000
480.229462	146.420000
480.323151	146.080000
480.416870	145.540000
480.510529	145.880000
480.604279	145.020000
480.697937	145.520000
480.791656	144.940000
480.885345	145.120000
480.979065	145.060000
481.072754	145.980000
481.166473	146.320000
481.260132	146.920000
481.353882	147.180000
481.447540	146.720000
481.541260	146.700000
481.635010	146.020000
481.728668	145.940000
481.822388	145.540000
481.916077	146.140000
482.009796	146.000000
482.103485	146.140000
482.197205	146.100000
482.290863	146.440000
482.384613	146.100000
482.478271	145.740000
482.571991	145.700000
482.665680	145.700000
482.759399	146.080000
482.853058	146.400000
482.946808	146.560000
483.040466	146.540000
483.134216	146.340000
483.227875	145.900000
483.321594	146.360000
483.415283	146.460000
483.509003	146.260000
483.602661	146.000000
483.696411	146.260000
483.790070	145.920000
483.883789	145.960000
483.977478	146.400000
484.071198	147.100000
484.164917	146.400000
484.258606	146.000000
484.352325	146.220000
484.445984	146.140000
484.539734	145.880000
484.633392	146.040000
484.727142	146.600000
484.820801	146.260000
484.914520	146.420000
485.008209	146.900000
485.101929	147.360000
485.195587	146.700000
485.289337	146.620000
485.382996	146.280000
485.476715	146.060000
485.570404	146.340000
485.664124	146.580000
485.757782	147.100000
485.851532	147.180000
485.945190	146.840000
486.038910	146.520000
486.132599	146.800000
486.226318	146.100000
486.319977	145.960000
486.413727	146.500000
486.507446	146.300000
486.601105	145.720000
486.694855	145.820000
486.788513	146.100000
486.882233	145.760000
486.975922	145.780000
487.069641	145.920000
487.163300	145.920000
487.257050	146.640000
487.350708	146.320000
487.444427	146.060000
487.538116	146.000000
487.631836	145.900000
487.725494	145.040000
487.819214	145.420000
487.912903	145.540000
488.006622	146.020000
488.100281	146.140000
488.194031	146.060000
488.287689	146.380000
488.381409	147.200000
488.475098	147.180000
488.568817	147.540000
488.662476	147.400000
488.756226	146.640000
488.849945	145.500000
488.943604	145.320000
489.037354	145.240000
489.131012	145.380000
489.224731	145.620000
489.318390	145.800000
489.412140	145.700000
489.505798	145.740000
489.599518	145.740000
489.693207	145.720000
489.786926	145.660000
489.880585	145.840000
489.974335	146.140000
490.067993	147.080000
490.161713	147.420000
490.255371	148.340000
490.349121	148.420000
490.442780	147.620000
490.536499	146.560000
490.630188	146.500000
490.723907	145.660000
490.817566	145.320000
490.911285	145.580000
491.004974	145.540000
491.098694	145.360000
491.192413	146.200000
491.286102	146.080000
491.379822	146.540000
491.473480	146.780000
491.567200	146.640000
491.660889	145.700000
491.754608	145.680000
491.848267	145.040000
491.941986	144.740000
492.035675	144.920000
492.129395	145.560000
492.223053	145.780000
492.316772	146.420000
492.410461	146.660000
492.504181	146.720000
492.597839	146.180000
492.691559	146.420000
492.785248	146.180000
492.878967	146.480000
492.972626	146.040000
493.066345	146.060000
493.160034	145.380000
493.253754	145.160000
493.347412	144.640000
493.441132	145.120000
493.534882	145.860000
493.628540	146.540000
493.722260	146.760000
493.815918	146.840000
493.909668	147.140000
494.003326	146.940000
494.097046	146.460000
494.190704	146.340000
494.284454	146.580000
494.378113	146.520000
494.471832	146.540000
494.565491	146.640000
494.659210	146.640000
494.752899	146.360000
494.846619	145.900000
494.940277	145.920000
495.033997	146.140000
495.127686	145.940000
495.221405	145.860000
495.315063	146.060000
495.408783	145.860000
495.502441	145.860000
495.596191	146.120000
495.689850	146.180000
495.783569	146.120000
495.877228	146.180000
495.970947	145.680000
496.064697	145.540000
496.158356	146.280000
496.252075	146.180000
496.345734	146.000000
496.439453	146.960000
496.533142	147.020000
496.626862	147.180000
496.720520	147.620000
496.814240	147.800000
496.907898	147.300000
497.001617	147.540000
497.095306	146.580000
497.189026	146.180000
497.282684	146.560000
497.376404	146.840000
497.470062	146.480000
497.563782	146.700000
497.657471	146.640000
497.751190	145.980000
497.844849	145.680000
497.938568	146.040000
498.032227	146.180000
498.125946	145.980000
498.219635	145.820000
498.313354	145.960000
498.407074	145.720000
498.500732	145.960000
498.594452	146.400000
498.688110	146.420000
498.781830	145.920000
498.875519	145.780000
498.969238	145.060000
499.062897	144.780000
499.156616	145.300000
499.250275	145.740000
499.343994	145.460000
499.437653	145.860000
499.531372	146.200000
499.625061	146.580000
499.718781	146.600000
499.812439	147.160000
499.906158	147.220000
499.999817	146.780000
500.093536	145.920000
500.187195	146.000000
500.280914	145.880000
500.374573	146.160000
500.468323	145.940000
500.561981	146.460000
500.655701	146.140000
500.749420	146.000000
500.843079	146.100000
500.936798	146.560000
501.030457	146.500000
501.124176	146.900000
501.217834	146.920000
501.311554	146.400000
501.405212	146.040000
501.498962	145.560000
501.592621	145.380000
501.686340	145.840000
501.779999	146.080000
501.873718	146.460000
501.967377	146.800000
502.061096	146.920000
502.154755	146.140000
502.248474	146.080000
502.342133	146.000000
502.435852	145.760000
502.529510	146.200000
502.623230	147.180000
502.716888	146.940000
502.810608	146.880000
502.904266	147.440000
502.997986	146.960000
503.091705	146.080000
503.185364	146.020000
503.279083	146.240000
503.372772	145.900000
503.466492	145.540000
503.560150	145.800000
503.653870	146.220000
503.747528	146.180000
503.841248	146.460000
503.934906	146.980000
504.028625	146.780000
504.122284	146.840000
504.216003	147.260000
504.309662	146.480000
504.403381	146.340000
504.497040	146.400000
504.590759	145.820000
504.684418	145.540000
504.778137	146.320000
504.871796	146.660000
504.965515	146.600000
505.059174	146.980000
505.152893	146.680000
505.246521	145.980000
505.340240	145.420000
505.433899	145.640000
505.527618	145.800000
505.621338	146.100000
505.714996	146.200000
505.808716	146.320000
505.902374	146.760000
505.996094	146.860000
506.089752	146.660000
506.183472	146.860000
506.277130	147.040000
506.370850	146.540000
506.464508	146.120000
506.558228	146.220000
506.651886	146.040000
506.745605	145.880000
506.839264	146.180000
506.932983	146.420000
507.026611	146.220000
507.120331	146.960000
507.213989	146.260000
507.307709	146.200000
507.401367	146.200000
507.495087	147.100000
507.588745	146.180000
507.682465	147.440000
507.776123	147.240000
507.869843	147.140000
507.963531	146.860000
508.057190	147.400000
508.150909	146.460000
508.244568	146.820000
508.338287	146.700000
508.431946	146.160000
508.525665	145.740000
508.619324	145.960000
508.713013	146.040000
508.806671	146.400000
508.900391	147.340000
508.994049	147.800000
509.087769	147.560000
509.181427	147.420000
509.275146	147.040000
509.368774	146.020000
509.462494	146.040000
509.556152	146.360000
509.649872	146.500000
509.743530	146.700000
509.837250	147.160000
509.930878	147.000000
510.024597	146.700000
510.118256	146.460000
510.211975	146.480000
510.305695	145.900000
510.399353	146.340000
510.493042	146.860000
510.586700	146.920000
510.680420	147.500000
510.774078	147.660000
510.867798	147.420000
510.961426	146.840000
511.055145	146.920000
511.148804	146.080000
511.242523	146.280000
511.336151	146.180000
511.429871	146.800000
511.523529	146.400000
511.617249	146.080000
511.710876	145.980000
511.804596	145.520000
511.898254	145.080000
511.991974	145.440000
512.085632	145.720000
512.179321	145.740000
512.272949	146.440000
512.366699	146.640000
512.460327	146.680000
512.554077	147.480000
512.647766	147.240000
512.741394	147.060000
512.835144	147.540000
512.928772	147.080000
513.022461	146.720000
513.116150	146.600000
513.209839	146.840000
513.303467	145.980000
513.397217	145.440000
513.490845	145.300000
513.584595	145.520000
513.678223	144.740000
513.771912	144.360000
513.865601	145.120000
513.959290	144.620000
514.052917	144.600000
514.146667	145.700000
514.240295	146.460000
514.333984	146.740000
514.427673	147.000000
514.521362	147.360000
514.614990	146.380000
514.708740	146.480000
514.802368	146.280000
514.896057	146.620000
514.989746	147.400000
515.083435	147.400000
515.177124	147.300000
515.270752	146.980000
515.364502	146.900000
515.458130	146.460000
515.551819	146.260000
515.645508	146.200000
515.739197	146.240000
515.832825	146.360000
515.926575	145.660000
516.020203	146.260000
516.113892	146.660000
516.207520	146.800000
516.301270	146.580000
516.394897	146.880000
516.488586	147.240000
516.582275	147.040000
516.675964	146.300000
516.769592	145.900000
516.863281	146.540000
516.956970	146.640000
517.050659	146.320000
517.144287	146.780000
517.238037	147.220000
517.331665	146.340000
517.425354	145.660000
517.519043	145.800000
517.612732	146.160000
517.706421	146.020000
517.800049	145.860000
517.893738	145.640000
517.987427	145.740000
518.081116	145.440000
518.174744	145.380000
518.268433	145.940000
518.362122	146.580000
518.455811	146.320000
518.549438	147.140000
518.643127	147.880000
518.736816	147.480000
518.830505	147.040000
518.924133	147.160000
519.017822	146.840000
519.111511	146.300000
519.205200	146.520000
519.298828	146.680000
519.392517	146.360000
519.486206	146.400000
519.579895	146.600000
519.673523	146.500000
519.767212	146.360000
519.860901	147.180000
519.954590	146.760000
520.048279	146.120000
520.141907	146.160000
520.235596	146.860000
520.329224	146.840000
520.422974	147.160000
520.516602	147.300000
520.610291	146.960000
520.703918	146.620000
520.797607	145.940000
520.891296	145.780000
520.984985	146.060000
521.078613	146.480000
521.172302	145.740000
521.265930	146.720000
521.359680	147.100000
521.453308	146.720000
521.546997	146.460000
521.640625	147.100000
521.734314	146.220000
521.827942	145.840000
521.921692	146.140000
522.015320	146.560000
522.109009	146.140000
522.202698	146.100000
522.296326	146.240000
522.390015	146.460000
522.483704	146.440000
522.577393	146.400000
522.671021	146.740000
522.764709	146.480000
522.858337	146.620000
522.952026	146.400000
523.045654	146.840000
523.139404	147.180000
523.233032	147.280000
523.326721	147.060000
523.420349	146.920000
523.514038	146.640000
523.607666	146.860000
523.701355	146.480000
523.795044	146.080000
523.888733	146.380000
523.982361	146.680000
524.076050	145.820000
524.169678	146.360000
524.263367	146.540000
524.356995	146.380000
524.450684	146.220000
524.544373	145.940000
524.638062	145.860000
524.731750	145.980000
524.825378	145.940000
524.919067	145.540000
525.012695	145.800000
525.106384	145.560000
525.200012	145.620000
525.293701	145.340000
525.387329	146.060000
525.481018	146.480000
525.574646	146.780000
525.668396	146.700000
525.762024	147.120000
525.855713	146.780000
525.949341	146.380000
526.043030	146.500000
526.136658	146.460000
526.230347	146.200000
526.323975	146.140000
526.417664	146.200000
526.511292	146.100000
526.604980	146.500000
526.698608	146.420000
526.792297	146.580000
526.885925	146.720000
526.979614	146.600000
527.073303	146.180000
527.166931	146.300000
527.260620	146.420000
527.354309	146.740000
527.447998	146.740000
527.541626	146.340000
527.635315	146.540000
527.728943	146.760000
527.822632	146.560000
527.916260	146.460000
528.009949	147.180000
528.103577	146.620000
528.197266	145.720000
528.290894	145.720000
528.384583	145.700000
528.478210	145.560000
528.571899	146.240000
528.665527	146.960000
528.759216	146.940000
528.852844	147.240000
528.946533	147.080000
529.040161	146.660000
529.133850	146.040000
529.227478	146.420000
529.321167	146.620000
529.414856	146.940000
529.508484	147.360000
529.602173	147.300000
529.695801	146.780000
529.789490	146.920000
529.883057	146.820000
529.976746	146.980000
530.070374	147.680000
530.164062	147.740000
530.257690	147.620000
530.351379	147.640000
530.445007	147.240000
530.538696	146.460000
530.632324	146.640000
530.726013	146.460000
530.819641	146.240000
530.913330	146.180000
531.006958	146.420000
531.100647	146.400000
531.194275	146.220000
531.287964	146.140000
531.381592	146.180000
531.475220	146.440000
531.568848	146.300000
531.662537	146.160000
531.756226	146.860000
531.849854	146.860000
531.943542	146.420000
532.037170	146.140000
532.130859	146.740000
532.224487	145.640000
532.318176	145.180000
532.411804	145.980000
532.505432	146.220000
532.599060	145.640000
532.692749	146.080000
532.786377	146.760000
532.880066	146.080000
532.973694	145.640000
533.067383	145.520000
533.161011	145.540000
533.254639	145.400000
533.348267	145.340000
533.441956	145.600000
533.535583	145.480000
533.629272	145.440000
533.722900	145.220000
533.816589	145.560000
533.910156	146.000000
534.003845	145.920000
534.097534	146.300000
534.191162	146.840000
534.284851	146.700000
534.378479	146.200000
534.472107	146.500000
534.565735	146.080000
534.659424	146.000000
534.753052	146.100000
534.846741	146.040000
534.940369	146.480000
535.033997	146.400000
535.127625	145.840000
535.221313	146.380000
535.314941	146.460000
535.408630	145.760000
535.502197	146.300000
535.595886	146.400000
535.689514	145.900000
535.783203	146.320000
535.876831	147.020000
535.970459	146.840000
536.064087	146.840000
536.157776	146.900000
536.251404	146.880000
536.345093	146.700000
536.438721	146.700000
536.532349	147.060000
536.626038	146.800000
536.719666	147.040000
536.813293	146.560000
536.906921	146.300000
537.000610	146.300000
537.094238	146.400000
537.187866	145.700000
537.281494	145.880000
537.375183	146.340000
537.468811	146.280000
537.562439	146.260000
537.656067	146.460000
537.749756	146.380000
537.843384	146.640000
537.937012	146.660000
538.030640	146.380000
538.124329	146.320000
538.217896	146.800000
538.311584	146.500000
538.405212	146.120000
538.498901	146.680000
538.592468	147.360000
538.686157	146.420000
538.779785	145.640000
538.873413	145.760000
538.967102	145.160000
539.060730	144.600000
539.154358	145.480000
539.247986	146.100000
539.341675	146.100000
539.435242	146.460000
539.528931	146.680000
539.622559	146.060000
539.716187	146.420000
539.809814	146.540000
539.903503	146.560000
539.997070	146.440000
540.090759	146.840000
540.184387	146.380000
540.278015	146.800000
540.371643	147.060000
540.465332	146.740000
540.558899	146.480000
540.652588	146.320000
540.746216	145.720000
540.839844	145.700000
540.933472	146.180000
541.027100	146.360000
541.120728	146.460000
541.214417	146.700000
541.308044	146.900000
541.401672	146.340000
541.495300	146.220000
541.588928	146.120000
541.682617	145.980000
541.776184	145.540000
541.869873	146.160000
541.963440	146.220000
542.057129	146.480000
542.150757	146.620000
542.244385	146.280000
542.338013	146.020000
542.431641	145.900000
542.525269	145.800000
542.618958	146.000000
542.712524	146.260000
542.806213	146.020000
542.899780	146.180000
542.993469	145.980000
543.087036	145.920000
543.180725	145.520000
543.274292	145.580000
543.367981	145.980000
543.461548	146.340000
543.555237	145.880000
543.648926	146.700000
543.742493	147.480000
543.836182	146.920000
543.929749	146.860000
544.023437	147.160000
544.117004	146.840000
544.210693	146.380000
544.304260	146.480000
544.397949	146.100000
544.491516	146.240000
544.585205	146.300000
544.678772	145.720000
544.772461	146.100000
544.866028	146.280000
544.959717	146.360000
545.053284	146.060000
545.146973	146.560000
545.240540	146.260000
545.334229	146.640000
545.427795	146.620000
545.521423	146.940000
545.615051	146.740000
545.708679	147.180000
545.802307	147.180000
545.895935	147.440000
545.989624	147.940000
546.083191	147.680000
546.176880	147.580000
546.270447	147.060000
546.364136	147.000000
546.457703	146.540000
546.551331	146.840000
546.644958	146.920000
546.738586	147.380000
546.832214	146.880000
546.925842	146.540000
547.019409	147.100000
547.113098	146.380000
547.206665	145.700000
547.300354	145.620000
547.393921	145.960000
547.487549	145.840000
547.581177	146.000000
547.674805	146.460000
547.768433	145.960000
547.862061	146.080000
547.955627	145.360000
548.049316	145.880000
548.142883	146.000000
548.236572	146.900000
548.330139	146.700000
548.423767	146.700000
548.517456	146.860000
548.611023	147.040000
548.704651	146.240000
548.798279	146.680000
548.891907	147.700000
548.985474	147.260000
549.079163	147.220000
549.172729	147.680000
549.266357	147.220000
549.359985	146.900000
549.453613	146.760000
549.547180	146.300000
549.640869	146.700000
549.734436	146.600000
549.828064	146.760000
549.921631	146.460000
550.015320	146.180000
550.108887	146.660000
550.202515	146.680000
550.296143	146.100000
550.389771	146.660000
550.483337	147.080000
550.576965	146.360000
550.670593	146.620000
550.764221	146.800000
550.857849	146.320000
550.951477	145.960000
551.045105	145.640000
551.138672	145.720000
551.232300	145.620000
551.325928	146.180000
551.419556	146.780000
551.513123	146.760000
551.606750	146.380000
551.700378	146.300000
551.794006	145.920000
551.887573	145.600000
551.981201	146.500000
552.074768	146.220000
552.168457	145.880000
552.262024	146.800000
552.355652	146.820000
552.449219	146.900000
552.542847	147.280000
552.636475	147.580000
552.730103	146.660000
552.823669	146.620000
552.917297	145.820000
553.010864	145.720000
553.104553	145.820000
553.198181	145.740000
553.291748	146.180000
553.385376	146.440000
553.478943	146.160000
553.572571	146.400000
553.666199	146.740000
553.759827	146.400000
553.853394	145.980000
553.947021	146.400000
554.040588	146.200000
554.134216	146.220000
554.227783	146.800000
554.321411	147.640000
554.415039	147.180000
554.508667	146.900000
554.602234	146.900000
554.695862	146.020000
554.789429	145.300000
554.883057	145.700000
554.976624	145.780000
555.070251	145.740000
555.163818	145.780000
555.257507	145.960000
555.351074	145.860000
555.444702	147.020000
555.538330	146.720000
555.631897	147.240000
555.725525	147.200000
555.819092	147.140000
555.912720	145.760000
556.006287	146.460000
556.099915	145.880000
556.193481	146.080000
556.287109	146.360000
556.380676	146.740000
556.474304	146.580000
556.567871	147.140000
556.661499	146.480000
556.755066	146.420000
556.848694	146.420000
556.942261	146.160000
557.035889	146.100000
557.129517	146.740000
557.223145	147.060000
557.316711	147.280000
557.410339	147.480000
557.503906	147.160000
557.597473	147.280000
557.691040	146.920000
557.784668	146.780000
557.878296	146.520000
557.971863	147.000000
558.065491	146.960000
558.159058	146.600000
558.252686	147.360000
558.346252	147.820000
558.439880	147.280000
558.533447	146.600000
558.627075	146.360000
558.720642	145.400000
558.814270	144.980000
558.907837	145.140000
559.001465	145.420000
559.095032	146.480000
559.188660	146.820000
559.282227	146.580000
559.375854	147.300000
559.469360	147.240000
559.562988	147.140000
559.656555	146.820000
559.750183	147.140000
559.843750	147.040000
559.937378	147.140000
560.030945	147.100000
560.124573	0.000000
560.218140	0.000000
560.311707	0.000000
560.405334	0.000000
560.498901	0.000000
560.592529	0.000000
560.686096	0.000000
560.779724	0.000000
560.873291	0.000000
560.966858	0.000000
561.060425	0.000000
561.154053	0.000000
561.247620	0.000000
561.341248	0.000000
561.434814	0.000000
561.528381	0.000000
561.621948	0.000000
561.715576	0.000000
561.809143	0.000000
561.902771	0.000000
561.996277	0.000000
562.089905	0.000000
562.183472	0.000000
562.277100	0.000000
