Model Number: SPM-002-B   
Serial Number: 70087108
Firmware Version: 004.15.4
Exposure Time: 100000.000000us
Data Taken on: 11-12-2020 18:50:15.521
Wavelength	Amplitude
221.570786	0.000000
221.663406	0.000000
221.756027	0.000000
221.848648	0.000000
221.941269	0.000000
222.033905	0.000000
222.126526	0.000000
222.219162	0.000000
222.311798	0.000000
222.404419	0.000000
222.497055	0.000000
222.589676	0.000000
222.682312	0.000000
222.774933	0.000000
222.867569	0.000000
222.960205	0.000000
223.052841	0.000000
223.145462	0.000000
223.238098	0.000000
223.330734	0.000000
223.423386	0.000000
223.516022	0.000000
223.608658	0.000000
223.701309	0.000000
223.793945	0.000000
223.886581	0.000000
223.979218	0.000000
224.071869	0.000000
224.164505	0.000000
224.257156	0.000000
224.349792	0.000000
224.442444	0.000000
224.535095	0.000000
224.627747	0.000000
224.720398	0.000000
224.813034	0.000000
224.905685	0.000000
224.998337	145.840000
225.090988	145.640000
225.183640	145.520000
225.276291	145.460000
225.368942	146.320000
225.461594	146.780000
225.554245	147.000000
225.646912	147.000000
225.739578	147.500000
225.832230	147.680000
225.924896	146.940000
226.017548	147.000000
226.110199	147.620000
226.202866	147.180000
226.295532	146.940000
226.388184	146.980000
226.480850	146.800000
226.573517	146.100000
226.666168	146.180000
226.758835	146.520000
226.851501	146.880000
226.944183	146.800000
227.036850	146.800000
227.129517	146.740000
227.222183	146.880000
227.314850	147.120000
227.407516	147.360000
227.500198	148.080000
227.592865	147.720000
227.685532	147.280000
227.778214	146.780000
227.870880	147.040000
227.963562	147.100000
228.056229	147.520000
228.148926	147.300000
228.241592	148.020000
228.334274	147.720000
228.426956	147.160000
228.519638	147.000000
228.612305	146.720000
228.704987	146.560000
228.797668	146.120000
228.890350	145.980000
228.983032	145.380000
229.075714	146.080000
229.168396	145.560000
229.261108	145.540000
229.353790	145.700000
229.446472	146.140000
229.539169	145.900000
229.631851	145.840000
229.724533	146.200000
229.817230	146.340000
229.909912	147.180000
230.002609	147.200000
230.095306	147.180000
230.187988	147.160000
230.280685	146.820000
230.373383	145.820000
230.466095	145.840000
230.558792	146.180000
230.651474	146.440000
230.744171	146.720000
230.836868	146.760000
230.929581	146.900000
231.022278	147.020000
231.114975	146.640000
231.207672	146.060000
231.300369	146.640000
231.393082	146.820000
231.485779	146.440000
231.578506	146.560000
231.671204	147.220000
231.763916	146.820000
231.856613	146.640000
231.949326	146.820000
232.042023	146.660000
232.134735	146.380000
232.227448	146.160000
232.320160	146.240000
232.412872	146.200000
232.505585	147.180000
232.598297	147.480000
232.691010	147.400000
232.783722	147.020000
232.876450	147.460000
232.969162	146.640000
233.061874	146.100000
233.154587	146.180000
233.247314	146.580000
233.340027	146.040000
233.432739	146.360000
233.525467	146.700000
233.618179	147.120000
233.710907	146.440000
233.803635	146.920000
233.896347	146.620000
233.989090	147.180000
234.081818	146.760000
234.174545	147.460000
234.267258	146.960000
234.359985	146.880000
234.452713	146.740000
234.545441	146.840000
234.638168	146.320000
234.730896	146.740000
234.823639	146.780000
234.916367	146.460000
235.009094	146.460000
235.101822	146.600000
235.194580	146.320000
235.287308	146.360000
235.380051	145.960000
235.472778	146.120000
235.565521	146.540000
235.658249	146.220000
235.750992	146.200000
235.843719	146.540000
235.936462	146.540000
236.029205	145.880000
236.121948	145.760000
236.214691	146.260000
236.307449	146.800000
236.400192	146.480000
236.492935	146.720000
236.585678	146.840000
236.678421	146.420000
236.771164	145.780000
236.863907	146.540000
236.956665	146.480000
237.049408	148.160000
237.142151	147.840000
237.234909	148.940000
237.327652	148.600000
237.420410	148.400000
237.513153	147.400000
237.605927	147.240000
237.698669	146.160000
237.791428	145.780000
237.884186	146.660000
237.976944	145.840000
238.069702	146.300000
238.162445	146.140000
238.255203	146.420000
238.347961	146.220000
238.440720	146.720000
238.533478	146.520000
238.626266	146.500000
238.719025	146.660000
238.811783	146.480000
238.904541	146.140000
238.997314	146.180000
239.090073	145.940000
239.182831	146.120000
239.275604	147.060000
239.368362	146.800000
239.461136	146.900000
239.553909	147.080000
239.646667	146.620000
239.739441	145.680000
239.832214	146.080000
239.925003	146.020000
240.017761	146.780000
240.110535	147.480000
240.203308	147.140000
240.296082	147.320000
240.388855	147.400000
240.481628	147.280000
240.574417	147.040000
240.667191	147.240000
240.759964	146.920000
240.852737	146.920000
240.945526	146.480000
241.038315	145.900000
241.131088	145.840000
241.223877	146.320000
241.316650	146.060000
241.409439	146.120000
241.502228	146.080000
241.595001	146.740000
241.687790	146.540000
241.780579	146.240000
241.873367	146.420000
241.966141	146.680000
242.058929	146.040000
242.151718	145.800000
242.244507	146.640000
242.337311	146.080000
242.430099	146.460000
242.522903	146.800000
242.615692	146.800000
242.708481	146.780000
242.801270	147.400000
242.894073	147.020000
242.986862	146.880000
243.079651	147.400000
243.172455	147.040000
243.265244	147.180000
243.358063	146.700000
243.450867	146.980000
243.543655	146.740000
243.636459	146.840000
243.729263	146.680000
243.822067	146.960000
243.914856	147.040000
244.007660	147.240000
244.100464	147.460000
244.193268	147.080000
244.286072	147.300000
244.378876	146.600000
244.471680	146.340000
244.564499	146.300000
244.657318	147.080000
244.750122	147.260000
244.842926	147.120000
244.935745	147.300000
245.028549	146.940000
245.121368	146.360000
245.214172	146.200000
245.306992	146.700000
245.399796	146.480000
245.492615	146.720000
245.585434	146.580000
245.678253	146.720000
245.771072	146.420000
245.863892	146.720000
245.956711	146.860000
246.049530	146.860000
246.142349	146.400000
246.235168	146.680000
246.327988	147.020000
246.420807	146.780000
246.513626	146.840000
246.606445	146.760000
246.699280	146.500000
246.792099	146.200000
246.884918	145.880000
246.977753	145.480000
247.070587	145.840000
247.163422	145.800000
247.256241	145.660000
247.349075	146.240000
247.441895	146.780000
247.534729	146.560000
247.627563	146.680000
247.720383	147.340000
247.813217	147.000000
247.906052	146.640000
247.998886	146.900000
248.091736	146.820000
248.184570	146.140000
248.277405	146.180000
248.370239	147.280000
248.463074	148.160000
248.555908	148.340000
248.648743	148.280000
248.741592	148.740000
248.834427	148.180000
248.927261	146.900000
249.020111	147.420000
249.112946	147.680000
249.205795	146.620000
249.298630	146.400000
249.391495	146.440000
249.484344	145.960000
249.577179	145.940000
249.670029	146.780000
249.762878	147.260000
249.855728	147.740000
249.948563	147.680000
250.041412	147.160000
250.134262	147.280000
250.227112	147.140000
250.319962	146.860000
250.412827	147.020000
250.505692	146.800000
250.598541	146.440000
250.691391	146.000000
250.784241	145.960000
250.877106	146.000000
250.969955	146.200000
251.062805	146.900000
251.155670	147.340000
251.248520	147.320000
251.341385	147.220000
251.434235	147.300000
251.527100	146.600000
251.619965	146.200000
251.712814	147.020000
251.805695	146.960000
251.898560	146.900000
251.991425	147.240000
252.084290	147.500000
252.177155	146.740000
252.270020	146.660000
252.362885	146.900000
252.455750	146.660000
252.548615	146.200000
252.641479	145.960000
252.734360	145.840000
252.827240	145.620000
252.920105	145.880000
253.012970	146.020000
253.105850	146.020000
253.198715	146.200000
253.291595	146.240000
253.384460	145.940000
253.477341	145.960000
253.570221	146.280000
253.663086	145.800000
253.755966	146.580000
253.848846	146.400000
253.941727	146.560000
254.034592	146.760000
254.127472	146.460000
254.220367	146.080000
254.313248	146.480000
254.406128	146.040000
254.499008	146.160000
254.591904	147.220000
254.684784	147.400000
254.777664	147.160000
254.870544	147.100000
254.963440	146.940000
255.056335	146.720000
255.149216	146.340000
255.242111	146.760000
255.334991	147.420000
255.427887	147.520000
255.520767	147.380000
255.613663	147.420000
255.706558	146.940000
255.799438	146.580000
255.892334	146.120000
255.985229	146.220000
256.078125	146.220000
256.171021	146.340000
256.263916	146.640000
256.356812	147.160000
256.449707	147.180000
256.542603	146.860000
256.635498	147.380000
256.728394	147.120000
256.821289	146.660000
256.914215	146.980000
257.007080	147.240000
257.100006	147.100000
257.192932	147.340000
257.285828	147.720000
257.378723	147.500000
257.471619	147.520000
257.564545	146.920000
257.657440	146.880000
257.750336	147.140000
257.843262	146.700000
257.936157	147.880000
258.029053	148.160000
258.121979	148.200000
258.214874	147.780000
258.307800	148.040000
258.400696	146.760000
258.493622	146.880000
258.586517	146.280000
258.679443	146.340000
258.772339	146.220000
258.865265	146.060000
258.958160	145.540000
259.051086	146.260000
259.144012	146.020000
259.236938	146.620000
259.329834	146.920000
259.422791	147.080000
259.515717	146.420000
259.608612	146.200000
259.701538	146.100000
259.794464	145.760000
259.887390	145.900000
259.980316	145.960000
260.073212	145.920000
260.166138	144.760000
260.259064	145.340000
260.351990	145.720000
260.444916	145.920000
260.537842	146.400000
260.630768	147.300000
260.723694	147.160000
260.816620	146.980000
260.909546	146.880000
261.002472	146.560000
261.095398	146.200000
261.188354	146.060000
261.281281	145.760000
261.374207	145.920000
261.467133	146.540000
261.560089	146.740000
261.653015	146.480000
261.745972	147.240000
261.838867	147.620000
261.931824	147.760000
262.024780	147.320000
262.117706	147.680000
262.210663	147.500000
262.303589	147.120000
262.396515	146.880000
262.489471	147.780000
262.582397	147.360000
262.675354	146.740000
262.768280	146.740000
262.861237	146.460000
262.954163	146.120000
263.047119	146.580000
263.140045	146.460000
263.233002	146.660000
263.325958	146.680000
263.418884	146.240000
263.511841	146.040000
263.604797	146.000000
263.697723	146.080000
263.790680	146.140000
263.883636	146.540000
263.976593	146.220000
264.069550	146.460000
264.162476	146.080000
264.255463	146.120000
264.348419	146.000000
264.441376	146.760000
264.534332	146.400000
264.627289	146.500000
264.720245	146.620000
264.813202	146.360000
264.906158	146.120000
264.999115	146.740000
265.092072	146.600000
265.185028	147.020000
265.277985	147.140000
265.370941	147.160000
265.463898	147.080000
265.556854	147.160000
265.649811	146.240000
265.742798	146.600000
265.835754	146.680000
265.928711	146.780000
266.021667	146.560000
266.114655	146.980000
266.207611	147.060000
266.300568	146.460000
266.393585	146.200000
266.486511	146.780000
266.579498	146.120000
266.672485	145.880000
266.765442	146.080000
266.858429	146.480000
266.951385	146.040000
267.044342	146.480000
267.137329	146.620000
267.230316	147.080000
267.323273	146.660000
267.416260	147.500000
267.509216	147.480000
267.602203	147.320000
267.695160	147.560000
267.788147	147.880000
267.881134	146.960000
267.974091	147.280000
268.067078	147.240000
268.160065	146.640000
268.253052	146.200000
268.346008	146.520000
268.438995	146.040000
268.531982	146.160000
268.624969	146.100000
268.717987	146.360000
268.810944	146.180000
268.903961	146.260000
268.996948	145.760000
269.089905	146.160000
269.182892	146.440000
269.275879	147.040000
269.368866	147.020000
269.461853	147.500000
269.554871	147.120000
269.647858	147.180000
269.740845	147.220000
269.833832	147.460000
269.926819	147.300000
270.019806	147.860000
270.112793	147.220000
270.205811	146.940000
270.298798	146.540000
270.391785	147.160000
270.484772	146.520000
270.577789	146.520000
270.670776	146.080000
270.763763	146.100000
270.856750	145.460000
270.949768	145.100000
271.042786	145.380000
271.135773	145.620000
271.228790	146.200000
271.321808	146.000000
271.414795	146.240000
271.507782	145.680000
271.600800	145.380000
271.693817	145.140000
271.786804	145.660000
271.879822	145.940000
271.972809	146.240000
272.065826	146.860000
272.158844	146.480000
272.251831	146.860000
272.344849	146.740000
272.437866	146.760000
272.530853	146.560000
272.623871	147.160000
272.716888	145.880000
272.809906	146.300000
272.902893	146.000000
272.995911	145.280000
273.088928	144.900000
273.181946	145.540000
273.274963	144.900000
273.367981	145.280000
273.460999	145.860000
273.554047	146.420000
273.647003	147.120000
273.740051	147.260000
273.833069	147.640000
273.926086	147.860000
274.019135	147.240000
274.112152	146.620000
274.205170	146.900000
274.298187	146.840000
274.391205	146.200000
274.484222	146.300000
274.577240	146.120000
274.670258	145.780000
274.763306	145.480000
274.856323	146.180000
274.949341	146.260000
275.042358	146.480000
275.135406	146.580000
275.228424	146.660000
275.321442	146.460000
275.414490	146.140000
275.507507	146.580000
275.600525	147.160000
275.693573	146.860000
275.786591	146.620000
275.879669	147.060000
275.972656	146.360000
276.065735	145.840000
276.158752	146.560000
276.251801	147.180000
276.344818	147.000000
276.437866	147.340000
276.530884	147.360000
276.623932	146.860000
276.716980	146.700000
276.809998	146.760000
276.903046	146.900000
276.996094	147.820000
277.089111	148.060000
277.182159	148.600000
277.275208	148.440000
277.368256	148.360000
277.461304	147.800000
277.554321	147.200000
277.647369	146.740000
277.740417	146.920000
277.833466	146.560000
277.926514	146.160000
278.019562	146.940000
278.112610	146.560000
278.205688	146.600000
278.298706	147.040000
278.391785	147.060000
278.484833	146.540000
278.577881	146.360000
278.670929	146.580000
278.763977	146.580000
278.857025	146.840000
278.950073	146.840000
279.043121	146.700000
279.136169	146.360000
279.229248	145.880000
279.322296	145.820000
279.415344	145.960000
279.508392	146.060000
279.601440	146.100000
279.694519	146.180000
279.787567	145.940000
279.880615	145.700000
279.973694	145.900000
280.066742	145.820000
280.159790	146.140000
280.252869	146.300000
280.345917	146.280000
280.438995	146.200000
280.532074	146.160000
280.625122	146.340000
280.718201	146.900000
280.811279	147.400000
280.904327	147.320000
280.997406	147.620000
281.090454	147.280000
281.183533	146.620000
281.276581	146.240000
281.369659	146.120000
281.462738	146.100000
281.555786	146.200000
281.648865	146.540000
281.741943	146.420000
281.835022	147.260000
281.928070	147.220000
282.021149	147.180000
282.114227	146.800000
282.207306	147.120000
282.300385	146.960000
282.393433	146.880000
282.486511	146.900000
282.579590	147.580000
282.672668	147.540000
282.765747	146.960000
282.858856	146.720000
282.951904	146.640000
283.045013	146.400000
283.138062	146.920000
283.231171	147.100000
283.324249	147.460000
283.417328	147.680000
283.510406	147.300000
283.603485	146.760000
283.696564	146.660000
283.789642	146.740000
283.882751	146.280000
283.975830	147.060000
284.068909	146.860000
284.161987	147.760000
284.255066	147.160000
284.348175	147.600000
284.441254	147.100000
284.534332	147.500000
284.627441	146.780000
284.720520	146.760000
284.813599	146.560000
284.906708	146.620000
284.999786	145.900000
285.092896	145.540000
285.185974	146.540000
285.279053	146.220000
285.372192	146.320000
285.465240	147.600000
285.558380	147.600000
285.651459	146.940000
285.744568	147.820000
285.837677	147.320000
285.930756	146.660000
286.023865	146.880000
286.116943	146.800000
286.210052	146.520000
286.303162	146.540000
286.396240	146.520000
286.489349	146.440000
286.582458	146.580000
286.675568	145.900000
286.768646	145.840000
286.861755	146.200000
286.954865	146.880000
287.047974	146.300000
287.141083	146.560000
287.234161	146.520000
287.327271	146.060000
287.420380	146.220000
287.513519	146.640000
287.606598	146.680000
287.699738	146.800000
287.792816	146.660000
287.885956	146.200000
287.979034	146.260000
288.072174	146.480000
288.165283	146.440000
288.258392	146.720000
288.351501	146.280000
288.444611	146.420000
288.537720	146.700000
288.630859	146.660000
288.723969	146.800000
288.817078	147.180000
288.910187	147.080000
289.003296	146.580000
289.096436	146.660000
289.189545	146.500000
289.282654	145.980000
289.375763	146.420000
289.468903	146.880000
289.562012	146.880000
289.655121	146.980000
289.748260	147.120000
289.841400	147.040000
289.934509	146.720000
290.027649	146.940000
290.120728	146.640000
290.213898	146.760000
290.306976	146.500000
290.400146	146.460000
290.493256	146.000000
290.586395	146.020000
290.679535	146.400000
290.772644	146.260000
290.865784	145.800000
290.958893	146.040000
291.052032	145.860000
291.145172	145.740000
291.238281	145.500000
291.331421	145.600000
291.424561	145.840000
291.517670	145.920000
291.610809	146.000000
291.703949	146.240000
291.797089	146.740000
291.890228	146.400000
291.983337	146.360000
292.076477	145.920000
292.169617	146.100000
292.262756	145.820000
292.355927	145.720000
292.449036	145.540000
292.542206	145.840000
292.635315	145.940000
292.728485	146.040000
292.821625	145.940000
292.914764	147.140000
293.007904	147.260000
293.101044	147.020000
293.194183	146.820000
293.287323	147.000000
293.380463	146.400000
293.473602	146.100000
293.566742	146.380000
293.659882	147.240000
293.753021	147.580000
293.846191	147.260000
293.939331	146.980000
294.032471	146.700000
294.125610	146.160000
294.218781	146.640000
294.311920	147.020000
294.405060	147.180000
294.498230	147.240000
294.591370	147.040000
294.684540	145.760000
294.777679	145.200000
294.870850	145.780000
294.963959	145.780000
295.057159	145.880000
295.150299	146.480000
295.243469	146.580000
295.336609	145.600000
295.429779	145.480000
295.522919	145.680000
295.616089	145.860000
295.709229	146.500000
295.802399	147.160000
295.895569	147.240000
295.988708	146.840000
296.081879	146.940000
296.175018	146.600000
296.268188	146.400000
296.361359	146.980000
296.454529	147.640000
296.547668	147.460000
296.640839	147.760000
296.734009	147.720000
296.827179	147.400000
296.920319	147.420000
297.013519	147.340000
297.106659	147.220000
297.199860	146.920000
297.292999	146.700000
297.386200	146.200000
297.479309	146.180000
297.572510	146.100000
297.665680	145.980000
297.758850	145.920000
297.852020	145.960000
297.945190	145.900000
298.038361	145.340000
298.131531	146.660000
298.224701	146.540000
298.317871	146.260000
298.411072	145.540000
298.504242	145.440000
298.597412	144.420000
298.690582	144.660000
298.783752	144.800000
298.876923	145.560000
298.970093	145.940000
299.063293	146.660000
299.156464	147.040000
299.249634	147.340000
299.342834	147.560000
299.436005	147.780000
299.529205	147.400000
299.622345	147.040000
299.715576	146.300000
299.808716	146.080000
299.901917	146.060000
299.995117	146.380000
300.088287	146.760000
300.181488	146.900000
300.274658	146.660000
300.367828	146.620000
300.461029	146.320000
300.554199	146.100000
300.647400	146.600000
300.740601	147.100000
300.833771	146.800000
300.926971	146.900000
301.020142	146.240000
301.113342	145.860000
301.206512	145.540000
301.299713	145.980000
301.392914	145.980000
301.486084	146.820000
301.579285	146.800000
301.672516	147.240000
301.765686	146.940000
301.858887	146.820000
301.952057	146.460000
302.045288	146.740000
302.138458	146.280000
302.231659	146.360000
302.324860	146.260000
302.418060	146.200000
302.511261	145.960000
302.604462	146.420000
302.697662	146.060000
302.790863	146.000000
302.884064	145.700000
302.977264	145.880000
303.070465	145.940000
303.163666	146.960000
303.256866	147.120000
303.350067	147.520000
303.443268	147.340000
303.536469	147.120000
303.629669	146.180000
303.722870	146.480000
303.816071	146.160000
303.909271	146.300000
304.002472	145.960000
304.095673	145.940000
304.188934	145.060000
304.282104	146.120000
304.375336	146.200000
304.468506	146.380000
304.561768	146.180000
304.654968	147.000000
304.748169	146.080000
304.841370	146.060000
304.934601	146.200000
305.027802	146.280000
305.121002	145.960000
305.214233	146.440000
305.307434	146.320000
305.400665	146.860000
305.493866	147.040000
305.587097	147.220000
305.680298	146.780000
305.773499	147.220000
305.866730	146.620000
305.959930	147.340000
306.053162	147.360000
306.146393	147.020000
306.239594	146.180000
306.332825	146.180000
306.426025	146.200000
306.519287	145.820000
306.612488	146.080000
306.705719	146.340000
306.798920	146.580000
306.892181	145.800000
306.985352	145.580000
307.078613	144.920000
307.171844	145.620000
307.265045	144.960000
307.358276	144.820000
307.451508	145.460000
307.544739	146.520000
307.637970	145.820000
307.731201	145.820000
307.824402	146.360000
307.917633	146.460000
308.010864	146.460000
308.104095	147.280000
308.197327	147.680000
308.290558	147.620000
308.383789	147.100000
308.477020	146.820000
308.570251	145.820000
308.663483	145.380000
308.756714	145.120000
308.849976	145.360000
308.943176	145.660000
309.036438	145.720000
309.129639	145.520000
309.222900	145.560000
309.316101	145.380000
309.409393	144.820000
309.502625	145.000000
309.595856	145.640000
309.689087	145.900000
309.782318	145.720000
309.875580	146.060000
309.968811	145.800000
310.062042	145.320000
310.155273	144.940000
310.248535	145.400000
310.341766	145.200000
310.434998	145.460000
310.528259	145.500000
310.621490	145.920000
310.714722	145.660000
310.807983	145.740000
310.901215	145.760000
310.994476	146.280000
311.087708	145.800000
311.181000	145.940000
311.274200	145.560000
311.367462	145.480000
311.460693	145.120000
311.553986	146.160000
311.647186	146.300000
311.740479	147.080000
311.833710	147.000000
311.926971	147.140000
312.020203	146.200000
312.113464	146.000000
312.206726	145.360000
312.299957	145.640000
312.393219	146.240000
312.486481	146.520000
312.579712	146.560000
312.672974	146.840000
312.766235	146.540000
312.859497	145.880000
312.952759	145.740000
313.045990	146.240000
313.139252	145.840000
313.232513	146.420000
313.325775	146.360000
313.419037	146.200000
313.512299	145.580000
313.605530	146.040000
313.698822	146.000000
313.792053	146.120000
313.885345	145.940000
313.978577	145.900000
314.071869	145.560000
314.165131	145.360000
314.258392	145.420000
314.351654	145.500000
314.444916	145.040000
314.538177	145.540000
314.631439	146.020000
314.724701	145.860000
314.817993	146.040000
314.911255	146.620000
315.004517	146.020000
315.097778	145.440000
315.191040	145.820000
315.284302	146.120000
315.377594	146.120000
315.470856	146.480000
315.564117	146.220000
315.657379	145.720000
315.750671	145.400000
315.843933	145.700000
315.937195	145.540000
316.030518	145.600000
316.123749	145.840000
316.217041	146.440000
316.310303	146.260000
316.403595	146.260000
316.496857	146.640000
316.590149	146.520000
316.683411	145.800000
316.776703	145.680000
316.869965	145.540000
316.963257	145.060000
317.056519	144.780000
317.149811	144.820000
317.243073	144.560000
317.336365	144.980000
317.429626	145.520000
317.522919	146.020000
317.616180	146.200000
317.709473	146.200000
317.802765	145.940000
317.896027	145.420000
317.989319	145.700000
318.082611	145.700000
318.175873	145.660000
318.269165	145.760000
318.362488	145.960000
318.455750	145.280000
318.549042	145.560000
318.642303	146.100000
318.735626	145.700000
318.828888	145.900000
318.922211	146.020000
319.015472	146.500000
319.108765	145.880000
319.202057	145.780000
319.295349	145.760000
319.388641	145.840000
319.481934	145.240000
319.575226	145.500000
319.668518	145.960000
319.761810	146.100000
319.855103	146.220000
319.948395	146.400000
320.041687	146.540000
320.134979	146.540000
320.228271	146.060000
320.321564	145.700000
320.414856	145.320000
320.508148	144.960000
320.601440	144.740000
320.694763	144.760000
320.788025	145.900000
320.881348	146.240000
320.974640	146.360000
321.067963	146.020000
321.161224	146.500000
321.254547	145.540000
321.347839	145.820000
321.441162	145.560000
321.534454	145.880000
321.627747	145.380000
321.721069	146.120000
321.814362	145.860000
321.907654	146.020000
322.000946	146.040000
322.094269	146.680000
322.187561	146.160000
322.280884	146.420000
322.374176	146.540000
322.467468	147.100000
322.560791	146.780000
322.654083	146.900000
322.747406	146.760000
322.840698	147.000000
322.934021	146.860000
323.027344	147.180000
323.120636	147.040000
323.213959	146.960000
323.307251	146.380000
323.400574	146.300000
323.493866	145.800000
323.587219	145.800000
323.680511	146.020000
323.773834	146.340000
323.867157	146.060000
323.960449	146.240000
324.053772	146.220000
324.147095	146.060000
324.240387	146.360000
324.333710	146.500000
324.427032	146.580000
324.520355	146.760000
324.613647	146.120000
324.706970	145.800000
324.800293	145.760000
324.893616	145.840000
324.986938	145.940000
325.080231	146.060000
325.173553	146.660000
325.266876	147.260000
325.360199	147.260000
325.453522	147.040000
325.546875	147.180000
325.640167	146.800000
325.733521	146.700000
325.826813	147.060000
325.920166	146.760000
326.013489	146.780000
326.106812	146.120000
326.200134	145.640000
326.293457	145.060000
326.386780	145.200000
326.480103	144.760000
326.573425	145.200000
326.666748	145.400000
326.760071	145.840000
326.853424	145.780000
326.946747	146.340000
327.040070	146.820000
327.133392	146.640000
327.226715	145.800000
327.320068	145.580000
327.413391	145.820000
327.506714	145.320000
327.600037	145.280000
327.693390	145.460000
327.786713	145.480000
327.880066	145.320000
327.973358	145.820000
328.066742	146.080000
328.160034	146.420000
328.253418	146.960000
328.346710	146.740000
328.440063	146.040000
328.533417	145.700000
328.626740	146.020000
328.720093	145.800000
328.813416	145.640000
328.906769	146.060000
329.000092	146.120000
329.093445	146.000000
329.186768	145.880000
329.280121	146.480000
329.373444	146.560000
329.466797	146.740000
329.560120	146.460000
329.653473	146.820000
329.746796	146.380000
329.840149	146.260000
329.933502	146.260000
330.026825	146.200000
330.120178	145.620000
330.213562	145.580000
330.306854	145.740000
330.400238	145.760000
330.493561	145.800000
330.586945	146.620000
330.680237	146.880000
330.773621	146.740000
330.866974	146.460000
330.960327	146.600000
331.053680	146.160000
331.147003	146.180000
331.240356	146.480000
331.333710	146.680000
331.427063	146.480000
331.520416	146.340000
331.613770	146.260000
331.707123	146.300000
331.800476	146.420000
331.893829	147.440000
331.987152	147.660000
332.080505	147.640000
332.173859	147.320000
332.267212	146.800000
332.360565	145.900000
332.453918	145.540000
332.547333	145.540000
332.640656	145.560000
332.734039	145.820000
332.827362	145.980000
332.920746	146.720000
333.014069	146.820000
333.107452	147.420000
333.200806	147.920000
333.294159	148.000000
333.387543	147.040000
333.480896	146.920000
333.574249	146.120000
333.667603	145.820000
333.760956	145.640000
333.854340	146.100000
333.947693	146.000000
334.041046	146.280000
334.134430	146.600000
334.227783	146.260000
334.321136	146.200000
334.414520	145.980000
334.507874	146.000000
334.601227	145.760000
334.694611	146.020000
334.787964	146.180000
334.881348	146.880000
334.974701	146.960000
335.068085	146.720000
335.161438	146.880000
335.254822	146.860000
335.348175	146.500000
335.441559	146.000000
335.534943	146.760000
335.628296	146.780000
335.721680	146.660000
335.815033	146.600000
335.908417	147.220000
336.001770	146.620000
336.095154	146.260000
336.188538	145.980000
336.281891	145.760000
336.375275	145.120000
336.468658	144.960000
336.562012	145.340000
336.655396	145.600000
336.748779	146.340000
336.842133	146.720000
336.935516	146.800000
337.028900	146.240000
337.122284	146.080000
337.215637	145.660000
337.309021	145.780000
337.402435	145.620000
337.495789	145.740000
337.589203	145.920000
337.682526	145.480000
337.775940	145.480000
337.869324	145.940000
337.962708	146.040000
338.056091	146.360000
338.149475	146.360000
338.242859	146.340000
338.336243	145.660000
338.429626	145.740000
338.523010	145.500000
338.616394	145.620000
338.709778	145.900000
338.803162	146.300000
338.896545	146.160000
338.989929	145.880000
339.083313	146.040000
339.176697	145.600000
339.270081	145.620000
339.363464	146.080000
339.456848	146.740000
339.550232	146.440000
339.643616	146.380000
339.737030	146.340000
339.830383	146.240000
339.923828	146.100000
340.017181	146.440000
340.110596	146.660000
340.203949	146.420000
340.297363	145.840000
340.390778	145.660000
340.484161	145.640000
340.577545	145.080000
340.670959	145.580000
340.764343	145.680000
340.857727	145.800000
340.951111	145.300000
341.044525	145.900000
341.137909	145.220000
341.231293	145.700000
341.324707	145.220000
341.418091	146.160000
341.511505	145.840000
341.604889	146.320000
341.698303	146.100000
341.791687	146.620000
341.885071	146.080000
341.978485	146.080000
342.071899	146.100000
342.165283	146.400000
342.258698	146.400000
342.352081	146.940000
342.445496	147.560000
342.538879	147.120000
342.632324	146.600000
342.725708	146.440000
342.819122	145.540000
342.912506	144.900000
343.005920	145.180000
343.099335	146.260000
343.192719	146.160000
343.286133	146.440000
343.379547	146.940000
343.472931	147.080000
343.566345	146.060000
343.659760	146.380000
343.753143	146.180000
343.846558	145.980000
343.939972	145.960000
344.033386	146.560000
344.126770	146.280000
344.220184	146.420000
344.313599	146.540000
344.407043	146.660000
344.500427	145.920000
344.593872	146.400000
344.687225	146.300000
344.780670	145.800000
344.874054	145.660000
344.967499	146.320000
345.060913	146.080000
345.154327	146.180000
345.247742	146.120000
345.341156	145.600000
345.434570	145.320000
345.527985	145.020000
345.621399	145.020000
345.714813	145.140000
345.808228	145.820000
345.901642	145.520000
345.995056	145.180000
346.088470	145.660000
346.181885	145.920000
346.275299	145.520000
346.368713	145.560000
346.462128	145.520000
346.555573	145.280000
346.648987	145.220000
346.742401	145.360000
346.835815	146.140000
346.929260	146.120000
347.022644	145.980000
347.116119	146.160000
347.209503	146.500000
347.302948	146.780000
347.396362	147.340000
347.489807	147.420000
347.583221	147.660000
347.676636	147.360000
347.770050	146.240000
347.863495	146.000000
347.956909	146.420000
348.050323	145.920000
348.143768	145.880000
348.237183	146.100000
348.330597	146.620000
348.424042	146.580000
348.517456	146.980000
348.610901	147.480000
348.704315	147.640000
348.797760	146.940000
348.891174	145.940000
348.984619	145.380000
349.078033	145.480000
349.171448	145.960000
349.264923	145.960000
349.358337	146.400000
349.451782	146.540000
349.545197	145.500000
349.638641	144.500000
349.732086	144.120000
349.825500	144.380000
349.918945	144.120000
350.012390	144.980000
350.105804	145.920000
350.199249	146.420000
350.292664	146.700000
350.386108	146.980000
350.479553	146.920000
350.572968	146.320000
350.666412	146.380000
350.759857	146.200000
350.853302	146.420000
350.946716	146.160000
351.040161	146.280000
351.133606	146.280000
351.227081	146.000000
351.320465	146.900000
351.413940	146.960000
351.507355	147.060000
351.600830	147.280000
351.694244	147.140000
351.787720	146.220000
351.881104	146.260000
351.974579	146.040000
352.067993	146.520000
352.161469	146.560000
352.254883	145.980000
352.348358	145.700000
352.441803	145.840000
352.535248	145.520000
352.628693	146.040000
352.722137	146.320000
352.815582	146.800000
352.909027	146.860000
353.002472	146.620000
353.095917	146.480000
353.189362	147.000000
353.282806	146.640000
353.376251	146.400000
353.469696	145.920000
353.563141	146.360000
353.656586	146.140000
353.750061	145.740000
353.843475	145.640000
353.936981	146.200000
354.030396	145.300000
354.123871	145.240000
354.217285	146.260000
354.310760	146.220000
354.404175	146.180000
354.497681	146.240000
354.591095	146.020000
354.684570	145.000000
354.777985	144.960000
354.871490	144.560000
354.964935	145.220000
355.058380	145.360000
355.151855	145.400000
355.245300	146.000000
355.338745	146.420000
355.432220	146.280000
355.525665	146.040000
355.619110	146.760000
355.712585	146.560000
355.806030	146.460000
355.899475	145.960000
355.992950	146.260000
356.086426	146.440000
356.179871	146.320000
356.273346	146.280000
356.366791	146.920000
356.460266	146.800000
356.553711	146.180000
356.647186	146.280000
356.740631	146.100000
356.834106	145.500000
356.927551	145.740000
357.021027	145.920000
357.114471	145.940000
357.207947	146.380000
357.301422	146.680000
357.394867	146.520000
357.488342	146.760000
357.581818	146.680000
357.675262	146.520000
357.768738	146.320000
357.862213	145.820000
357.955658	145.680000
358.049133	145.600000
358.142609	145.940000
358.236053	145.680000
358.329529	146.060000
358.423035	145.920000
358.516449	145.840000
358.609955	145.920000
358.703400	146.880000
358.796906	147.240000
358.890350	146.900000
358.983826	147.160000
359.077271	146.480000
359.170776	145.940000
359.264221	145.420000
359.357727	145.780000
359.451172	146.200000
359.544647	146.240000
359.638123	146.060000
359.731598	146.380000
359.825073	146.680000
359.918549	146.240000
360.012024	146.440000
360.105499	145.960000
360.198975	145.820000
360.292450	145.660000
360.385925	145.480000
360.479401	144.980000
360.572876	145.780000
360.666351	146.020000
360.759857	145.540000
360.853302	145.600000
360.946808	145.460000
361.040253	145.120000
361.133759	145.040000
361.227203	145.880000
361.320709	145.820000
361.414154	146.760000
361.507660	146.860000
361.601105	147.240000
361.694641	147.300000
361.788086	147.260000
361.881592	147.320000
361.975067	147.220000
362.068542	147.360000
362.162018	146.920000
362.255524	146.720000
362.348999	146.220000
362.442474	146.520000
362.535950	145.860000
362.629456	145.600000
362.722931	145.660000
362.816406	146.260000
362.909882	146.540000
363.003387	146.220000
363.096863	146.620000
363.190338	146.580000
363.283875	146.120000
363.377319	145.720000
363.470825	146.560000
363.564301	146.100000
363.657806	146.560000
363.751282	146.280000
363.844788	147.120000
363.938232	146.600000
364.031769	147.480000
364.125214	147.620000
364.218750	148.280000
364.312225	147.040000
364.405731	147.240000
364.499207	146.420000
364.592712	145.960000
364.686188	145.780000
364.779694	146.480000
364.873169	146.700000
364.966675	146.860000
365.060150	146.780000
365.153656	146.880000
365.247131	146.780000
365.340637	146.640000
365.434143	147.060000
365.527618	147.300000
365.621155	146.480000
365.714600	146.100000
365.808136	146.040000
365.901611	145.100000
365.995117	145.120000
366.088593	145.440000
366.182129	145.380000
366.275604	145.460000
366.369110	145.900000
366.462585	145.820000
366.556122	146.400000
366.649567	146.280000
366.743103	146.400000
366.836609	146.080000
366.930115	146.100000
367.023590	145.960000
367.117096	146.320000
367.210602	145.860000
367.304108	146.480000
367.397614	146.920000
367.491119	147.060000
367.584595	147.140000
367.678101	147.680000
367.771606	147.300000
367.865112	146.860000
367.958649	146.180000
368.052124	145.700000
368.145660	145.360000
368.239136	145.920000
368.332672	146.300000
368.426147	146.700000
368.519684	146.820000
368.613159	146.880000
368.706696	146.460000
368.800171	146.140000
368.893707	145.800000
368.987183	146.020000
369.080719	146.080000
369.174225	146.140000
369.267731	146.300000
369.361237	146.480000
369.454742	146.580000
369.548248	146.960000
369.641754	146.600000
369.735260	146.560000
369.828766	146.100000
369.922272	146.420000
370.015808	145.800000
370.109314	145.620000
370.202820	145.080000
370.296356	146.100000
370.389832	145.760000
370.483368	145.620000
370.576874	145.660000
370.670410	146.480000
370.763885	145.240000
370.857422	145.200000
370.950928	145.340000
371.044464	146.280000
371.137939	146.080000
371.231476	147.040000
371.324982	147.520000
371.418518	147.460000
371.512024	147.140000
371.605560	146.660000
371.699066	146.500000
371.792572	145.940000
371.886108	146.480000
371.979614	146.420000
372.073120	147.060000
372.166656	146.920000
372.260162	147.500000
372.353668	147.180000
372.447205	146.760000
372.540710	146.520000
372.634277	146.640000
372.727753	146.080000
372.821320	146.080000
372.914795	146.320000
373.008362	146.180000
373.101837	146.320000
373.195404	146.460000
373.288879	146.100000
373.382446	146.620000
373.475922	146.680000
373.569489	147.080000
373.662964	147.320000
373.756531	147.740000
373.850037	147.800000
373.943573	147.680000
374.037109	146.840000
374.130615	146.800000
374.224152	146.680000
374.317657	146.040000
374.411194	146.820000
374.504730	146.680000
374.598236	146.300000
374.691772	146.120000
374.785309	146.180000
374.878815	145.060000
374.972351	145.800000
375.065887	145.620000
375.159454	146.300000
375.252930	146.320000
375.346497	146.940000
375.440002	147.260000
375.533569	147.340000
375.627045	146.740000
375.720612	146.840000
375.814117	146.940000
375.907684	146.380000
376.001160	146.400000
376.094727	146.000000
376.188232	146.420000
376.281799	146.480000
376.375336	146.180000
376.468872	146.940000
376.562408	147.340000
376.655914	146.660000
376.749451	146.220000
376.842987	146.420000
376.936523	145.500000
377.030060	145.660000
377.123596	146.240000
377.217133	146.240000
377.310669	146.340000
377.404205	147.140000
377.497772	147.260000
377.591278	146.740000
377.684845	147.480000
377.778351	147.400000
377.871918	146.880000
377.965424	146.180000
378.058990	146.360000
378.152496	145.760000
378.246063	146.240000
378.339569	146.460000
378.433136	146.680000
378.526642	146.700000
378.620209	146.740000
378.713745	146.020000
378.807312	146.500000
378.900848	146.400000
378.994385	146.520000
379.087921	145.960000
379.181458	146.380000
379.274994	145.320000
379.368530	145.520000
379.462097	145.700000
379.555634	146.540000
379.649170	145.980000
379.742706	146.300000
379.836273	146.580000
379.929810	146.220000
380.023376	145.720000
380.116882	145.620000
380.210449	145.760000
380.303986	145.200000
380.397552	144.720000
380.491058	144.860000
380.584656	144.960000
380.678162	145.060000
380.771729	145.460000
380.865265	146.520000
380.958832	146.680000
381.052368	147.300000
381.145935	147.460000
381.239471	147.560000
381.333008	147.100000
381.426575	146.820000
381.520111	146.720000
381.613647	146.840000
381.707214	146.460000
381.800751	145.920000
381.894318	146.440000
381.987854	145.940000
382.081421	145.640000
382.174988	146.060000
382.268524	146.060000
382.362091	145.920000
382.455627	146.620000
382.549194	146.360000
382.642731	145.460000
382.736298	145.580000
382.829834	145.060000
382.923401	145.220000
383.016937	145.600000
383.110504	146.240000
383.204041	146.360000
383.297607	146.820000
383.391174	145.960000
383.484741	146.380000
383.578278	146.420000
383.671844	146.220000
383.765411	145.460000
383.858948	146.220000
383.952515	146.020000
384.046051	146.280000
384.139618	146.920000
384.233185	147.600000
384.326721	147.280000
384.420288	147.400000
384.513855	146.820000
384.607422	146.860000
384.700989	147.060000
384.794525	146.720000
384.888123	146.440000
384.981659	146.940000
385.075226	146.300000
385.168762	145.700000
385.262360	145.980000
385.355896	145.420000
385.449463	145.200000
385.542999	145.620000
385.636597	146.560000
385.730164	146.820000
385.823730	146.900000
385.917267	146.700000
386.010834	146.760000
386.104401	146.440000
386.197968	146.440000
386.291534	146.560000
386.385101	147.060000
386.478668	147.260000
386.572235	147.120000
386.665802	146.800000
386.759338	146.960000
386.852905	146.260000
386.946472	145.740000
387.040070	145.840000
387.133606	145.600000
387.227203	145.380000
387.320740	145.880000
387.414337	145.900000
387.507874	145.800000
387.601471	146.240000
387.695007	145.960000
387.788605	145.960000
387.882141	146.000000
387.975739	145.940000
388.069275	145.580000
388.162872	146.060000
388.256439	145.760000
388.350037	145.640000
388.443604	145.580000
388.537170	145.620000
388.630737	146.380000
388.724304	146.760000
388.817871	146.840000
388.911438	146.900000
389.005005	147.400000
389.098602	147.220000
389.192169	147.000000
389.285736	147.260000
389.379333	147.280000
389.472870	146.620000
389.566467	146.200000
389.660034	146.380000
389.753632	146.160000
389.847168	146.360000
389.940765	146.720000
390.034332	147.060000
390.127930	146.420000
390.221466	146.220000
390.315063	145.560000
390.408630	144.700000
390.502228	143.520000
390.595795	143.920000
390.689362	144.000000
390.782959	144.500000
390.876526	145.340000
390.970093	145.760000
391.063690	146.240000
391.157257	146.420000
391.250824	146.680000
391.344421	146.420000
391.437988	147.000000
391.531555	146.780000
391.625153	146.840000
391.718750	146.880000
391.812317	146.800000
391.905914	145.880000
391.999481	146.020000
392.093079	146.220000
392.186615	146.160000
392.280243	146.460000
392.373779	147.080000
392.467407	147.280000
392.560944	146.900000
392.654572	146.600000
392.748108	146.520000
392.841736	146.480000
392.935303	146.000000
393.028900	146.020000
393.122467	146.160000
393.216064	145.740000
393.309631	145.180000
393.403229	145.000000
393.496796	144.740000
393.590393	144.260000
393.683990	144.940000
393.777557	145.660000
393.871155	146.040000
393.964722	146.660000
394.058350	146.920000
394.151917	146.540000
394.245514	146.300000
394.339081	146.540000
394.432678	146.640000
394.526245	146.680000
394.619873	146.440000
394.713409	146.660000
394.807037	146.360000
394.900604	146.440000
394.994202	146.740000
395.087769	147.080000
395.181396	146.460000
395.274994	147.140000
395.368561	146.380000
395.462158	145.960000
395.555756	145.600000
395.649353	146.220000
395.742920	145.460000
395.836517	146.220000
395.930115	145.760000
396.023712	146.180000
396.117279	146.320000
396.210876	145.980000
396.304474	145.760000
396.398071	146.440000
396.491669	146.440000
396.585266	146.260000
396.678833	146.720000
396.772461	146.800000
396.866028	146.500000
396.959656	146.800000
397.053223	147.120000
397.146851	146.920000
397.240417	147.080000
397.334015	148.040000
397.427582	147.900000
397.521210	148.360000
397.614807	149.260000
397.708405	150.120000
397.802002	151.100000
397.895599	153.580000
397.989197	155.100000
398.082794	157.660000
398.176392	160.900000
398.269989	164.780000
398.363586	168.920000
398.457184	175.280000
398.550781	182.040000
398.644379	188.540000
398.737976	195.980000
398.831573	204.060000
398.925201	211.660000
399.018768	220.100000
399.112396	229.380000
399.205963	238.080000
399.299591	247.580000
399.393158	257.900000
399.486786	269.160000
399.580353	280.900000
399.673981	294.340000
399.767578	309.260000
399.861206	325.080000
399.954773	339.100000
400.048401	352.180000
400.141998	361.120000
400.235596	366.900000
400.329193	368.140000
400.422791	368.700000
400.516418	366.480000
400.610016	365.580000
400.703613	363.740000
400.797211	360.940000
400.890808	354.740000
400.984436	348.220000
401.078033	336.840000
401.171631	322.260000
401.265259	306.200000
401.358826	289.940000
401.452484	271.500000
401.546051	255.540000
401.639679	239.020000
401.733246	224.020000
401.826904	209.740000
401.920471	197.320000
402.014099	186.140000
402.107697	177.760000
402.201324	170.820000
402.294891	165.680000
402.388550	161.820000
402.482147	158.540000
402.575745	155.700000
402.669373	153.180000
402.762970	151.060000
402.856567	149.880000
402.950195	149.040000
403.043793	148.420000
403.137390	148.660000
403.231018	147.760000
403.324615	147.800000
403.418243	146.880000
403.511841	147.020000
403.605469	146.400000
403.699066	147.060000
403.792694	146.900000
403.886292	147.260000
403.979919	147.080000
404.073517	147.020000
404.167145	147.160000
404.260712	147.180000
404.354370	147.240000
404.447937	147.300000
404.541595	147.520000
404.635162	147.600000
404.728821	147.840000
404.822418	147.500000
404.916046	147.580000
405.009644	147.540000
405.103271	147.560000
405.196899	146.980000
405.290497	147.040000
405.384125	147.040000
405.477722	146.540000
405.571350	145.960000
405.664948	146.280000
405.758575	146.200000
405.852203	145.700000
405.945801	145.860000
406.039429	146.160000
406.133057	145.880000
406.226654	145.760000
406.320312	145.920000
406.413879	146.180000
406.507538	146.200000
406.601135	146.120000
406.694763	146.640000
406.788361	146.240000
406.882019	146.040000
406.975586	146.680000
407.069244	147.160000
407.162872	147.060000
407.256470	147.080000
407.350098	146.980000
407.443726	146.300000
407.537323	145.540000
407.630951	145.760000
407.724579	145.620000
407.818207	145.800000
407.911804	145.600000
408.005432	145.960000
408.099060	145.920000
408.192688	146.480000
408.286285	146.560000
408.379913	146.520000
408.473572	146.440000
408.567169	145.880000
408.660828	145.780000
408.754395	145.420000
408.848053	145.440000
408.941650	145.240000
409.035309	145.060000
409.128906	144.940000
409.222565	145.320000
409.316132	145.560000
409.409790	145.480000
409.503387	145.660000
409.597046	145.700000
409.690674	145.560000
409.784302	145.560000
409.877930	145.740000
409.971558	145.960000
410.065186	146.060000
410.158783	145.920000
410.252411	145.880000
410.346039	146.160000
410.439667	146.140000
410.533295	146.300000
410.626923	146.560000
410.720551	146.200000
410.814209	146.440000
410.907806	146.400000
411.001465	145.960000
411.095062	146.380000
411.188721	146.940000
411.282318	146.320000
411.375977	146.160000
411.469574	146.420000
411.563232	145.780000
411.656830	145.580000
411.750488	145.420000
411.844086	145.280000
411.937744	145.360000
412.031372	145.240000
412.125000	144.920000
412.218628	145.000000
412.312256	145.860000
412.405884	146.000000
412.499512	146.080000
412.593170	146.600000
412.686798	147.160000
412.780426	146.600000
412.874054	146.800000
412.967682	147.000000
413.061310	147.400000
413.154968	147.380000
413.248566	147.540000
413.342224	147.100000
413.435852	147.100000
413.529510	146.240000
413.623108	145.640000
413.716766	145.420000
413.810364	145.920000
413.904022	145.520000
413.997650	145.760000
414.091309	146.520000
414.184906	146.740000
414.278564	146.020000
414.372192	146.560000
414.465851	146.480000
414.559479	146.160000
414.653107	146.560000
414.746735	146.520000
414.840393	146.240000
414.934021	146.640000
415.027649	146.200000
415.121277	145.920000
415.214935	146.720000
415.308563	146.920000
415.402191	146.040000
415.495850	146.140000
415.589478	145.940000
415.683136	145.320000
415.776733	145.460000
415.870422	146.260000
415.964020	146.040000
416.057678	146.000000
416.151306	146.500000
416.244965	146.040000
416.338562	146.060000
416.432251	146.960000
416.525848	147.760000
416.619507	147.700000
416.713165	148.160000
416.806793	147.880000
416.900421	147.380000
416.994080	146.480000
417.087708	146.180000
417.181366	145.820000
417.274994	145.760000
417.368622	146.240000
417.462280	146.700000
417.555908	146.680000
417.649567	146.620000
417.743195	146.640000
417.836853	146.240000
417.930481	146.220000
418.024170	146.360000
418.117767	147.040000
418.211426	147.260000
418.305054	147.320000
418.398712	146.680000
418.492340	146.600000
418.585999	146.620000
418.679626	146.940000
418.773285	146.960000
418.866913	147.560000
418.960571	147.900000
419.054230	147.680000
419.147858	147.360000
419.241516	147.380000
419.335144	147.080000
419.428802	146.720000
419.522461	146.620000
419.616089	146.160000
419.709747	146.320000
419.803375	146.480000
419.897034	146.260000
419.990662	145.960000
420.084320	146.660000
420.177979	146.900000
420.271606	147.080000
420.365295	148.160000
420.458893	148.480000
420.552582	148.380000
420.646210	148.140000
420.739868	147.820000
420.833496	146.880000
420.927155	146.700000
421.020782	146.400000
421.114471	146.040000
421.208069	146.080000
421.301758	146.460000
421.395386	146.420000
421.489044	146.480000
421.582703	146.500000
421.676361	147.060000
421.769989	146.620000
421.863647	146.860000
421.957306	146.920000
422.050934	146.840000
422.144592	146.320000
422.238251	146.180000
422.331909	145.820000
422.425537	145.800000
422.519196	145.940000
422.612854	145.540000
422.706543	145.480000
422.800140	145.800000
422.893829	145.340000
422.987457	145.220000
423.081146	145.620000
423.174744	146.480000
423.268433	146.160000
423.362061	146.220000
423.455750	146.360000
423.549347	146.360000
423.643036	145.180000
423.736664	145.820000
423.830353	146.000000
423.924011	146.280000
424.017639	146.060000
424.111298	146.560000
424.204956	146.160000
424.298615	146.320000
424.392273	146.200000
424.485931	146.560000
424.579559	146.660000
424.673218	146.320000
424.766876	146.160000
424.860535	145.520000
424.954193	145.020000
425.047882	145.300000
425.141510	145.560000
425.235199	145.740000
425.328796	145.900000
425.422485	145.880000
425.516113	145.440000
425.609802	145.440000
425.703430	145.600000
425.797119	145.640000
425.890747	145.720000
425.984436	146.060000
426.078064	145.980000
426.171753	145.500000
426.265411	145.240000
426.359070	145.560000
426.452728	145.220000
426.546356	145.040000
426.640015	145.220000
426.733673	145.520000
426.827332	145.000000
426.920990	145.980000
427.014648	145.860000
427.108307	146.200000
427.201965	146.620000
427.295624	147.040000
427.389282	146.000000
427.482941	146.340000
427.576630	146.360000
427.670258	145.780000
427.763947	145.380000
427.857574	145.500000
427.951263	145.400000
428.044922	144.720000
428.138611	144.980000
428.232239	145.680000
428.325928	146.080000
428.419556	146.460000
428.513245	146.480000
428.606903	146.660000
428.700562	145.980000
428.794220	145.520000
428.887878	144.880000
428.981537	145.400000
429.075195	145.300000
429.168854	145.980000
429.262512	145.920000
429.356201	146.280000
429.449860	145.900000
429.543518	145.940000
429.637177	145.760000
429.730835	145.960000
429.824493	145.840000
429.918182	146.020000
430.011810	145.440000
430.105530	145.100000
430.199158	145.360000
430.292847	145.400000
430.386475	145.100000
430.480164	145.300000
430.573792	145.060000
430.667511	144.760000
430.761139	145.000000
430.854828	145.740000
430.948456	145.900000
431.042145	146.500000
431.135834	146.380000
431.229492	146.180000
431.323151	145.840000
431.416809	145.880000
431.510468	145.700000
431.604156	145.840000
431.697815	145.800000
431.791473	145.380000
431.885132	145.060000
431.978821	145.300000
432.072479	145.380000
432.166138	145.900000
432.259827	146.220000
432.353485	146.580000
432.447174	146.540000
432.540802	146.460000
432.634491	146.120000
432.728149	146.160000
432.821838	146.700000
432.915466	145.960000
433.009186	145.980000
433.102814	145.520000
433.196503	145.320000
433.290131	144.860000
433.383850	145.600000
433.477509	145.620000
433.571167	146.700000
433.664856	147.140000
433.758514	147.980000
433.852173	147.880000
433.945862	147.700000
434.039520	146.940000
434.133179	146.420000
434.226868	145.740000
434.320526	144.920000
434.414185	145.840000
434.507874	145.940000
434.601562	146.260000
434.695221	145.920000
434.788910	146.680000
434.882538	146.220000
434.976257	145.800000
435.069885	145.800000
435.163574	145.920000
435.257233	145.320000
435.350922	145.100000
435.444580	145.100000
435.538269	145.060000
435.631897	145.620000
435.725616	146.280000
435.819275	146.720000
435.912964	147.440000
436.006622	147.980000
436.100311	147.460000
436.193970	146.700000
436.287628	146.000000
436.381317	145.680000
436.474976	144.860000
436.568665	144.780000
436.662323	145.480000
436.756012	145.640000
436.849670	145.460000
436.943390	145.560000
437.037018	145.240000
437.130737	145.140000
437.224365	145.060000
437.318085	145.040000
437.411713	145.260000
437.505432	146.020000
437.599060	146.740000
437.692780	147.480000
437.786407	147.500000
437.880127	147.560000
437.973755	147.260000
438.067474	146.500000
438.161133	146.280000
438.254822	146.980000
438.348480	146.780000
438.442169	147.420000
438.535828	147.640000
438.629517	146.980000
438.723175	146.240000
438.816864	146.740000
438.910553	145.860000
439.004211	145.760000
439.097900	145.820000
439.191559	145.960000
439.285248	145.220000
439.378906	145.600000
439.472626	145.560000
439.566284	145.160000
439.659973	145.540000
439.753632	145.360000
439.847321	145.760000
439.940979	145.760000
440.034698	146.420000
440.128326	145.600000
440.222046	145.820000
440.315674	144.740000
440.409393	145.020000
440.503082	144.640000
440.596741	145.480000
440.690430	145.560000
440.784088	145.720000
440.877777	145.060000
440.971466	145.200000
441.065125	144.600000
441.158813	144.620000
441.252502	144.780000
441.346161	145.060000
441.439850	145.280000
441.533539	145.180000
441.627197	145.340000
441.720886	145.520000
441.814606	145.920000
441.908234	146.160000
442.001953	146.340000
442.095612	146.320000
442.189301	146.460000
442.282959	146.260000
442.376678	145.600000
442.470306	146.320000
442.564026	146.440000
442.657684	146.420000
442.751404	146.400000
442.845032	147.600000
442.938751	147.080000
443.032440	146.760000
443.126099	146.260000
443.219788	146.880000
443.313477	146.160000
443.407166	146.260000
443.500824	146.500000
443.594513	147.020000
443.688202	146.580000
443.781891	146.020000
443.875549	145.660000
443.969238	145.660000
444.062927	145.460000
444.156647	145.260000
444.250275	145.860000
444.343994	146.020000
444.437653	145.940000
444.531372	145.820000
444.625031	145.480000
444.718719	145.080000
444.812378	145.180000
444.906097	145.120000
444.999756	145.020000
445.093445	145.100000
445.187103	145.340000
445.280823	145.740000
445.374512	145.360000
445.468201	145.460000
445.561859	145.720000
445.655548	145.800000
445.749237	145.500000
445.842926	145.940000
445.936615	146.540000
446.030304	146.060000
446.123962	146.260000
446.217651	145.880000
446.311340	146.240000
446.405029	145.500000
446.498749	145.700000
446.592407	145.180000
446.686096	145.380000
446.779755	145.060000
446.873474	145.480000
446.967133	145.960000
447.060852	145.920000
447.154510	145.680000
447.248230	145.660000
447.341858	145.460000
447.435577	144.780000
447.529236	144.780000
447.622955	144.740000
447.716644	144.760000
447.810333	144.600000
447.904022	145.140000
447.997711	145.160000
448.091400	145.540000
448.185059	145.500000
448.278748	145.880000
448.372437	145.720000
448.466125	146.100000
448.559814	145.780000
448.653503	146.180000
448.747192	146.520000
448.840912	146.800000
448.934570	146.340000
449.028290	146.800000
449.121948	146.420000
449.215637	145.660000
449.309296	145.260000
449.403015	145.640000
449.496674	145.460000
449.590393	145.660000
449.684052	145.620000
449.777771	146.460000
449.871429	146.160000
449.965149	146.120000
450.058838	146.020000
450.152527	146.640000
450.246216	146.280000
450.339905	146.440000
450.433594	146.100000
450.527283	146.780000
450.620972	146.180000
450.714661	146.000000
450.808350	145.920000
450.902039	146.320000
450.995728	145.580000
451.089417	145.660000
451.183105	145.620000
451.276794	146.140000
451.370514	145.840000
451.464172	145.100000
451.557892	145.340000
451.651550	145.240000
451.745270	144.760000
451.838928	144.280000
451.932648	144.960000
452.026306	145.380000
452.120026	145.380000
452.213684	145.940000
452.307404	146.520000
452.401062	146.720000
452.494781	146.420000
452.588470	146.340000
452.682159	145.680000
452.775848	145.560000
452.869537	145.100000
452.963226	144.880000
453.056915	145.120000
453.150604	145.300000
453.244293	145.620000
453.337982	146.400000
453.431671	146.580000
453.525360	146.540000
453.619049	146.700000
453.712769	146.840000
453.806427	146.260000
453.900146	146.080000
453.993805	145.900000
454.087555	146.340000
454.181213	146.360000
454.274933	145.960000
454.368591	146.040000
454.462311	146.120000
454.555969	145.440000
454.649689	145.960000
454.743347	146.080000
454.837067	146.640000
454.930756	147.300000
455.024445	147.620000
455.118134	146.780000
455.211853	147.220000
455.305542	146.700000
455.399231	146.200000
455.492920	145.980000
455.586609	146.300000
455.680298	146.340000
455.773987	146.260000
455.867676	146.100000
455.961365	146.220000
456.055084	145.900000
456.148773	145.620000
456.242493	145.600000
456.336151	145.560000
456.429871	145.660000
456.523529	146.260000
456.617249	146.160000
456.710907	146.820000
456.804626	146.920000
456.898315	146.520000
456.992035	146.060000
457.085693	145.840000
457.179413	144.740000
457.273102	145.480000
457.366791	145.660000
457.460480	145.680000
457.554199	146.740000
457.647888	147.160000
457.741577	146.380000
457.835266	146.280000
457.928955	146.380000
458.022644	146.220000
458.116364	146.580000
458.210052	146.600000
458.303741	146.820000
458.397461	146.180000
458.491119	145.000000
458.584839	144.980000
458.678528	144.720000
458.772247	144.460000
458.865906	144.820000
458.959625	146.220000
459.053284	145.880000
459.147003	145.940000
459.240692	146.260000
459.334412	146.520000
459.428070	145.920000
459.521790	145.960000
459.615479	145.780000
459.709198	146.300000
459.802887	146.000000
459.896576	145.920000
459.990265	146.220000
460.083954	146.760000
460.177673	146.100000
460.271362	146.260000
460.365051	146.080000
460.458740	145.800000
460.552429	145.160000
460.646149	145.220000
460.739838	144.900000
460.833527	145.440000
460.927246	145.080000
461.020905	145.460000
461.114655	145.500000
461.208313	145.860000
461.302032	144.820000
461.395691	145.160000
461.489441	145.040000
461.583099	144.740000
461.676819	144.380000
461.770477	145.140000
461.864197	145.000000
461.957916	144.920000
462.051605	144.720000
462.145294	145.420000
462.238983	145.340000
462.332703	145.980000
462.426392	146.540000
462.520081	146.840000
462.613770	146.220000
462.707489	146.340000
462.801178	145.720000
462.894867	145.560000
462.988556	145.340000
463.082275	145.580000
463.175964	145.140000
463.269684	145.640000
463.363342	145.480000
463.457092	144.920000
463.550751	145.040000
463.644470	145.300000
463.738129	144.920000
463.831879	145.100000
463.925537	146.420000
464.019257	146.380000
464.112946	146.480000
464.206665	146.560000
464.300323	146.340000
464.394043	145.660000
464.487762	145.640000
464.581451	145.640000
464.675140	145.380000
464.768829	145.640000
464.862549	145.900000
464.956238	145.980000
465.049927	146.220000
465.143646	146.620000
465.237335	146.520000
465.331024	146.900000
465.424713	147.160000
465.518433	147.180000
465.612152	146.840000
465.705811	146.860000
465.799561	146.600000
465.893219	146.100000
465.986938	145.800000
466.080597	145.700000
466.174347	145.880000
466.268005	145.800000
466.361725	145.780000
466.455414	145.860000
466.549133	145.740000
466.642792	145.840000
466.736542	145.460000
466.830231	145.600000
466.923920	145.480000
467.017609	145.920000
467.111328	145.300000
467.205017	145.740000
467.298706	145.820000
467.392426	145.680000
467.486115	145.640000
467.579803	145.600000
467.673523	145.760000
467.767212	145.680000
467.860901	145.940000
467.954651	146.180000
468.048309	146.560000
468.142029	146.100000
468.235718	146.280000
468.329437	146.080000
468.423096	145.880000
468.516846	145.560000
468.610504	145.580000
468.704224	145.060000
468.797913	145.040000
468.891632	145.360000
468.985291	145.460000
469.079010	145.620000
469.172729	145.680000
469.266418	146.300000
469.360107	146.160000
469.453827	146.080000
469.547516	145.860000
469.641205	146.100000
469.734924	146.080000
469.828613	146.240000
469.922302	146.460000
470.016022	146.740000
470.109711	146.600000
470.203430	145.740000
470.297150	144.860000
470.390808	145.040000
470.484558	144.560000
470.578217	145.220000
470.671936	146.100000
470.765625	147.080000
470.859344	146.800000
470.953003	147.140000
471.046753	146.720000
471.140411	145.820000
471.234131	145.680000
471.327820	146.000000
471.421539	146.140000
471.515228	145.820000
471.608948	146.380000
471.702637	145.700000
471.796326	145.420000
471.890045	145.560000
471.983734	145.720000
472.077423	145.400000
472.171143	145.680000
472.264832	145.580000
472.358521	145.140000
472.452240	144.840000
472.545929	145.520000
472.639648	145.760000
472.733337	146.100000
472.827057	146.480000
472.920746	147.040000
473.014465	147.020000
473.108124	146.820000
473.201874	146.840000
473.295532	146.740000
473.389252	146.560000
473.482941	146.420000
473.576660	146.100000
473.670319	145.700000
473.764069	145.800000
473.857727	145.920000
473.951477	145.960000
474.045166	146.600000
474.138855	146.840000
474.232574	146.280000
474.326263	146.460000
474.419952	146.500000
474.513672	146.280000
474.607361	145.880000
474.701050	146.520000
474.794769	146.640000
474.888458	146.740000
474.982178	147.040000
475.075867	147.280000
475.169586	146.880000
475.263275	146.520000
475.356995	146.020000
475.450653	145.440000
475.544403	145.160000
475.638062	145.880000
475.731812	145.440000
475.825470	145.340000
475.919189	145.580000
476.012878	145.960000
476.106598	145.360000
476.200256	145.620000
476.294006	145.780000
476.387695	145.900000
476.481384	145.840000
476.575104	145.840000
476.668793	145.500000
476.762512	145.060000
476.856201	145.520000
476.949890	145.380000
477.043610	144.980000
477.137299	145.160000
477.230988	145.840000
477.324707	145.400000
477.418396	145.660000
477.512146	145.800000
477.605804	146.020000
477.699524	146.140000
477.793213	145.900000
477.886932	145.680000
477.980591	145.840000
478.074341	145.660000
478.167999	145.100000
478.261749	145.080000
478.355408	144.920000
478.449127	145.240000
478.542816	146.140000
478.636536	146.660000
478.730225	146.880000
478.823944	147.600000
478.917633	147.420000
479.011322	147.280000
479.105042	147.140000
479.198730	147.200000
479.292450	146.640000
479.386139	147.140000
479.479828	146.860000
479.573547	147.120000
479.667267	146.740000
479.760925	146.960000
479.854675	146.540000
479.948334	146.460000
480.042084	145.860000
480.135742	146.480000
480.229462	146.080000
480.323151	145.940000
480.416870	145.240000
480.510529	145.520000
480.604279	145.000000
480.697937	145.480000
480.791656	145.380000
480.885345	145.300000
480.979065	144.960000
481.072754	145.560000
481.166473	145.960000
481.260132	145.820000
481.353882	146.300000
481.447540	146.340000
481.541260	146.140000
481.635010	145.260000
481.728668	145.560000
481.822388	145.500000
481.916077	146.120000
482.009796	146.080000
482.103485	146.780000
482.197205	146.840000
482.290863	147.120000
482.384613	146.420000
482.478271	146.200000
482.571991	145.900000
482.665680	145.820000
482.759399	146.460000
482.853058	147.040000
482.946808	146.840000
483.040466	147.040000
483.134216	146.760000
483.227875	145.900000
483.321594	146.360000
483.415283	146.440000
483.509003	146.000000
483.602661	146.160000
483.696411	146.580000
483.790070	145.860000
483.883789	145.780000
483.977478	146.220000
484.071198	146.120000
484.164917	145.700000
484.258606	145.340000
484.352325	145.560000
484.445984	145.520000
484.539734	145.600000
484.633392	145.300000
484.727142	145.920000
484.820801	145.920000
484.914520	145.560000
485.008209	145.920000
485.101929	146.720000
485.195587	146.340000
485.289337	146.100000
485.382996	146.280000
485.476715	146.060000
485.570404	146.260000
485.664124	146.160000
485.757782	146.820000
485.851532	146.480000
485.945190	146.340000
486.038910	145.880000
486.132599	146.620000
486.226318	145.880000
486.319977	146.120000
486.413727	146.880000
486.507446	146.480000
486.601105	145.440000
486.694855	145.540000
486.788513	145.220000
486.882233	144.740000
486.975922	145.140000
487.069641	145.360000
487.163300	145.240000
487.257050	146.740000
487.350708	146.380000
487.444427	146.040000
487.538116	146.200000
487.631836	146.060000
487.725494	145.260000
487.819214	145.200000
487.912903	145.240000
488.006622	145.240000
488.100281	145.680000
488.194031	145.440000
488.287689	146.100000
488.381409	146.840000
488.475098	147.080000
488.568817	147.260000
488.662476	147.040000
488.756226	146.400000
488.849945	145.320000
488.943604	145.200000
489.037354	145.120000
489.131012	145.220000
489.224731	145.360000
489.318390	145.480000
489.412140	145.420000
489.505798	145.020000
489.599518	144.680000
489.693207	144.720000
489.786926	144.980000
489.880585	145.000000
489.974335	145.480000
490.067993	146.760000
490.161713	147.100000
490.255371	147.860000
490.349121	148.060000
490.442780	147.960000
490.536499	146.840000
490.630188	146.520000
490.723907	145.500000
490.817566	145.280000
490.911285	145.160000
491.004974	145.020000
491.098694	144.860000
491.192413	145.640000
491.286102	145.660000
491.379822	145.900000
491.473480	146.280000
491.567200	146.080000
491.660889	145.700000
491.754608	145.600000
491.848267	145.520000
491.941986	145.640000
492.035675	145.900000
492.129395	146.080000
492.223053	145.980000
492.316772	146.100000
492.410461	145.880000
492.504181	146.000000
492.597839	146.020000
492.691559	146.360000
492.785248	146.240000
492.878967	146.540000
492.972626	146.500000
493.066345	146.240000
493.160034	145.860000
493.253754	145.840000
493.347412	145.420000
493.441132	145.680000
493.534882	146.120000
493.628540	146.480000
493.722260	146.720000
493.815918	147.100000
493.909668	147.480000
494.003326	147.620000
494.097046	147.480000
494.190704	147.060000
494.284454	147.140000
494.378113	146.960000
494.471832	146.360000
494.565491	146.280000
494.659210	146.360000
494.752899	145.860000
494.846619	145.480000
494.940277	145.980000
495.033997	145.940000
495.127686	145.780000
495.221405	145.660000
495.315063	145.680000
495.408783	145.700000
495.502441	145.900000
495.596191	146.340000
495.689850	146.560000
495.783569	146.900000
495.877228	146.720000
495.970947	146.420000
496.064697	145.840000
496.158356	146.640000
496.252075	146.400000
496.345734	146.200000
496.439453	147.100000
496.533142	147.460000
496.626862	147.680000
496.720520	147.680000
496.814240	147.880000
496.907898	147.240000
497.001617	147.300000
497.095306	146.120000
497.189026	146.040000
497.282684	145.840000
497.376404	146.020000
497.470062	145.540000
497.563782	145.800000
497.657471	145.680000
497.751190	145.540000
497.844849	145.240000
497.938568	145.980000
498.032227	145.940000
498.125946	146.260000
498.219635	146.180000
498.313354	146.380000
498.407074	145.980000
498.500732	146.200000
498.594452	146.100000
498.688110	146.000000
498.781830	145.780000
498.875519	145.560000
498.969238	145.260000
499.062897	145.020000
499.156616	145.460000
499.250275	145.540000
499.343994	145.760000
499.437653	145.920000
499.531372	146.100000
499.625061	146.580000
499.718781	146.580000
499.812439	146.720000
499.906158	146.760000
499.999817	146.520000
500.093536	145.940000
500.187195	146.380000
500.280914	146.180000
500.374573	146.400000
500.468323	146.420000
500.561981	146.940000
500.655701	146.120000
500.749420	146.240000
500.843079	146.240000
500.936798	146.500000
501.030457	146.620000
501.124176	147.240000
501.217834	147.120000
501.311554	146.620000
501.405212	146.160000
501.498962	145.180000
501.592621	144.880000
501.686340	145.240000
501.779999	145.820000
501.873718	146.260000
501.967377	146.860000
502.061096	147.080000
502.154755	146.500000
502.248474	145.920000
502.342133	145.940000
502.435852	145.540000
502.529510	146.000000
502.623230	146.720000
502.716888	146.520000
502.810608	146.540000
502.904266	147.080000
502.997986	146.440000
503.091705	146.020000
503.185364	146.180000
503.279083	146.240000
503.372772	146.020000
503.466492	145.620000
503.560150	145.580000
503.653870	145.820000
503.747528	145.760000
503.841248	145.640000
503.934906	146.280000
504.028625	145.940000
504.122284	146.180000
504.216003	146.460000
504.309662	145.940000
504.403381	145.880000
504.497040	146.000000
504.590759	145.660000
504.684418	145.840000
504.778137	146.460000
504.871796	146.620000
504.965515	146.500000
505.059174	146.760000
505.152893	145.820000
505.246521	145.520000
505.340240	145.300000
505.433899	145.260000
505.527618	145.020000
505.621338	145.500000
505.714996	145.480000
505.808716	145.300000
505.902374	146.060000
505.996094	145.960000
506.089752	145.680000
506.183472	145.540000
506.277130	145.800000
506.370850	145.700000
506.464508	145.580000
506.558228	145.760000
506.651886	145.680000
506.745605	145.440000
506.839264	145.120000
506.932983	145.340000
507.026611	145.140000
507.120331	145.600000
507.213989	145.380000
507.307709	145.540000
507.401367	146.060000
507.495087	146.960000
507.588745	146.580000
507.682465	147.520000
507.776123	147.480000
507.869843	147.280000
507.963531	146.580000
508.057190	147.300000
508.150909	146.260000
508.244568	146.240000
508.338287	145.980000
508.431946	145.860000
508.525665	145.420000
508.619324	145.580000
508.713013	145.500000
508.806671	145.700000
508.900391	146.480000
508.994049	146.660000
509.087769	146.340000
509.181427	146.340000
509.275146	145.740000
509.368774	144.900000
509.462494	144.580000
509.556152	144.860000
509.649872	145.480000
509.743530	146.060000
509.837250	146.560000
509.930878	146.760000
510.024597	147.180000
510.118256	146.400000
510.211975	146.420000
510.305695	145.920000
510.399353	146.120000
510.493042	146.380000
510.586700	146.780000
510.680420	147.180000
510.774078	147.420000
510.867798	147.280000
510.961426	146.520000
511.055145	146.260000
511.148804	145.980000
511.242523	146.220000
511.336151	146.180000
511.429871	147.040000
511.523529	147.180000
511.617249	146.720000
511.710876	146.360000
511.804596	146.080000
511.898254	145.480000
511.991974	145.840000
512.085632	145.800000
512.179321	145.780000
512.272949	146.220000
512.366699	146.560000
512.460327	146.300000
512.554077	147.460000
512.647766	147.580000
512.741394	147.380000
512.835144	147.900000
512.928772	147.500000
513.022461	146.460000
513.116150	146.140000
513.209839	146.320000
513.303467	145.400000
513.397217	145.180000
513.490845	145.000000
513.584595	145.180000
513.678223	144.880000
513.771912	144.420000
513.865601	144.980000
513.959290	145.120000
514.052917	145.060000
514.146667	145.660000
514.240295	146.440000
514.333984	146.640000
514.427673	146.720000
514.521362	147.260000
514.614990	146.620000
514.708740	146.520000
514.802368	146.480000
514.896057	146.600000
514.989746	147.160000
515.083435	147.220000
515.177124	147.600000
515.270752	147.400000
515.364502	147.140000
515.458130	146.520000
515.551819	146.440000
515.645508	146.160000
515.739197	145.720000
515.832825	146.100000
515.926575	145.620000
516.020203	146.120000
516.113892	146.200000
516.207520	146.660000
516.301270	146.520000
516.394897	147.140000
516.488586	147.240000
516.582275	147.100000
516.675964	146.580000
516.769592	146.660000
516.863281	147.220000
516.956970	147.260000
517.050659	147.120000
517.144287	147.800000
517.238037	147.740000
517.331665	146.560000
517.425354	146.040000
517.519043	145.860000
517.612732	145.760000
517.706421	145.900000
517.800049	145.960000
517.893738	145.900000
517.987427	145.780000
518.081116	145.520000
518.174744	145.080000
518.268433	145.600000
518.362122	146.260000
518.455811	146.480000
518.549438	147.080000
518.643127	147.960000
518.736816	147.360000
518.830505	146.620000
518.924133	146.920000
519.017822	146.820000
519.111511	146.380000
519.205200	147.060000
519.298828	147.300000
519.392517	146.980000
519.486206	147.040000
519.579895	147.260000
519.673523	146.720000
519.767212	146.460000
519.860901	147.040000
519.954590	146.940000
520.048279	146.220000
520.141907	146.420000
520.235596	147.480000
520.329224	147.200000
520.422974	146.900000
520.516602	147.100000
520.610291	146.740000
520.703918	146.440000
520.797607	146.100000
520.891296	146.000000
520.984985	146.200000
521.078613	146.980000
521.172302	146.120000
521.265930	147.060000
521.359680	147.660000
521.453308	147.420000
521.546997	146.820000
521.640625	147.360000
521.734314	146.660000
521.827942	146.140000
521.921692	146.420000
522.015320	146.720000
522.109009	146.440000
522.202698	146.600000
522.296326	146.740000
522.390015	146.800000
522.483704	146.780000
522.577393	146.640000
522.671021	146.320000
522.764709	145.960000
522.858337	146.300000
522.952026	146.260000
523.045654	146.820000
523.139404	147.220000
523.233032	147.300000
523.326721	146.920000
523.420349	146.660000
523.514038	146.360000
523.607666	146.960000
523.701355	146.880000
523.795044	146.720000
523.888733	147.140000
523.982361	147.400000
524.076050	146.660000
524.169678	147.140000
524.263367	146.940000
524.356995	146.460000
524.450684	146.100000
524.544373	145.540000
524.638062	145.460000
524.731750	145.680000
524.825378	145.560000
524.919067	145.300000
525.012695	145.800000
525.106384	145.320000
525.200012	145.400000
525.293701	145.400000
525.387329	146.080000
525.481018	146.240000
525.574646	146.780000
525.668396	146.940000
525.762024	147.300000
525.855713	146.920000
525.949341	146.340000
526.043030	146.280000
526.136658	146.120000
526.230347	146.020000
526.323975	145.920000
526.417664	145.960000
526.511292	146.000000
526.604980	146.180000
526.698608	146.100000
526.792297	146.140000
526.885925	146.680000
526.979614	146.540000
527.073303	146.260000
527.166931	146.300000
527.260620	146.420000
527.354309	146.480000
527.447998	146.180000
527.541626	145.840000
527.635315	145.940000
527.728943	146.460000
527.822632	146.340000
527.916260	146.660000
528.009949	147.320000
528.103577	146.960000
528.197266	146.140000
528.290894	146.000000
528.384583	145.820000
528.478210	145.940000
528.571899	146.560000
528.665527	147.140000
528.759216	147.220000
528.852844	147.760000
528.946533	147.240000
529.040161	147.040000
529.133850	146.560000
529.227478	146.800000
529.321167	146.900000
529.414856	147.240000
529.508484	147.620000
529.602173	147.540000
529.695801	147.460000
529.789490	147.100000
529.883057	146.900000
529.976746	146.740000
530.070374	147.380000
530.164062	147.080000
530.257690	147.160000
530.351379	147.380000
530.445007	147.260000
530.538696	146.500000
530.632324	147.180000
530.726013	146.840000
530.819641	146.520000
530.913330	146.340000
531.006958	146.220000
531.100647	145.940000
531.194275	146.240000
531.287964	146.000000
531.381592	146.060000
531.475220	146.400000
531.568848	145.980000
531.662537	145.860000
531.756226	146.540000
531.849854	146.220000
531.943542	146.580000
532.037170	146.200000
532.130859	146.700000
532.224487	146.240000
532.318176	146.380000
532.411804	146.320000
532.505432	146.960000
532.599060	146.420000
532.692749	146.360000
532.786377	146.840000
532.880066	146.240000
532.973694	145.680000
533.067383	145.760000
533.161011	145.860000
533.254639	145.620000
533.348267	145.700000
533.441956	146.060000
533.535583	145.820000
533.629272	145.980000
533.722900	145.440000
533.816589	145.540000
533.910156	145.860000
534.003845	145.600000
534.097534	145.780000
534.191162	146.400000
534.284851	146.620000
534.378479	146.040000
534.472107	146.320000
534.565735	145.840000
534.659424	146.040000
534.753052	146.200000
534.846741	146.320000
534.940369	146.860000
535.033997	147.360000
535.127625	147.040000
535.221313	147.080000
535.314941	147.040000
535.408630	146.440000
535.502197	146.440000
535.595886	146.400000
535.689514	146.060000
535.783203	146.480000
535.876831	146.920000
535.970459	146.480000
536.064087	145.940000
536.157776	145.860000
536.251404	145.680000
536.345093	145.320000
536.438721	145.680000
536.532349	146.360000
536.626038	146.620000
536.719666	146.780000
536.813293	146.700000
536.906921	146.500000
537.000610	146.900000
537.094238	146.800000
537.187866	146.600000
537.281494	146.660000
537.375183	147.160000
537.468811	146.520000
537.562439	146.480000
537.656067	146.640000
537.749756	146.680000
537.843384	146.460000
537.937012	146.520000
538.030640	146.480000
538.124329	146.380000
538.217896	146.680000
538.311584	146.800000
538.405212	146.800000
538.498901	147.100000
538.592468	147.560000
538.686157	146.920000
538.779785	146.280000
538.873413	146.220000
538.967102	145.880000
539.060730	145.560000
539.154358	146.060000
539.247986	146.580000
539.341675	146.600000
539.435242	146.620000
539.528931	146.680000
539.622559	146.280000
539.716187	146.580000
539.809814	146.480000
539.903503	146.620000
539.997070	146.480000
540.090759	146.760000
540.184387	146.060000
540.278015	146.600000
540.371643	146.740000
540.465332	146.860000
540.558899	146.800000
540.652588	147.040000
540.746216	146.460000
540.839844	146.640000
540.933472	146.660000
541.027100	146.560000
541.120728	146.600000
541.214417	147.060000
541.308044	147.180000
541.401672	146.840000
541.495300	146.640000
541.588928	146.440000
541.682617	145.980000
541.776184	145.580000
541.869873	145.880000
541.963440	146.320000
542.057129	146.540000
542.150757	146.920000
542.244385	146.600000
542.338013	146.220000
542.431641	146.000000
542.525269	145.760000
542.618958	145.880000
542.712524	146.320000
542.806213	146.160000
542.899780	146.320000
542.993469	146.080000
543.087036	145.740000
543.180725	145.220000
543.274292	145.620000
543.367981	145.800000
543.461548	146.380000
543.555237	146.300000
543.648926	146.840000
543.742493	147.620000
543.836182	147.520000
543.929749	147.240000
544.023437	147.500000
544.117004	147.580000
544.210693	147.040000
544.304260	147.160000
544.397949	147.020000
544.491516	146.960000
544.585205	146.740000
544.678772	146.320000
544.772461	146.160000
544.866028	146.400000
544.959717	146.420000
545.053284	146.280000
545.146973	146.420000
545.240540	146.420000
545.334229	146.820000
545.427795	147.000000
545.521423	147.100000
545.615051	147.140000
545.708679	147.240000
545.802307	147.060000
545.895935	147.140000
545.989624	147.860000
546.083191	147.620000
546.176880	147.600000
546.270447	147.160000
546.364136	147.240000
546.457703	146.820000
546.551331	147.100000
546.644958	147.200000
546.738586	147.200000
546.832214	146.800000
546.925842	146.420000
547.019409	146.700000
547.113098	146.360000
547.206665	146.220000
547.300354	146.300000
547.393921	146.300000
547.487549	146.480000
547.581177	146.360000
547.674805	146.540000
547.768433	145.900000
547.862061	145.760000
547.955627	144.900000
548.049316	145.600000
548.142883	145.920000
548.236572	146.720000
548.330139	147.360000
548.423767	147.560000
548.517456	147.480000
548.611023	147.640000
548.704651	147.000000
548.798279	146.680000
548.891907	147.040000
548.985474	146.800000
549.079163	146.900000
549.172729	146.720000
549.266357	146.180000
549.359985	146.080000
549.453613	145.720000
549.547180	145.260000
549.640869	146.100000
549.734436	146.320000
549.828064	146.480000
549.921631	146.640000
550.015320	146.420000
550.108887	146.400000
550.202515	146.860000
550.296143	146.460000
550.389771	146.680000
550.483337	147.100000
550.576965	146.800000
550.670593	146.700000
550.764221	147.220000
550.857849	146.920000
550.951477	146.160000
551.045105	145.940000
551.138672	145.900000
551.232300	145.260000
551.325928	145.680000
551.419556	146.340000
551.513123	146.740000
551.606750	146.640000
551.700378	146.940000
551.794006	146.200000
551.887573	145.960000
551.981201	146.100000
552.074768	146.300000
552.168457	145.940000
552.262024	147.160000
552.355652	147.240000
552.449219	147.800000
552.542847	147.600000
552.636475	147.520000
552.730103	146.480000
552.823669	146.240000
552.917297	145.480000
553.010864	145.540000
553.104553	146.140000
553.198181	146.020000
553.291748	146.520000
553.385376	146.680000
553.478943	146.720000
553.572571	146.680000
553.666199	147.120000
553.759827	146.680000
553.853394	146.160000
553.947021	146.060000
554.040588	145.880000
554.134216	146.040000
554.227783	146.800000
554.321411	147.200000
554.415039	147.160000
554.508667	147.080000
554.602234	146.800000
554.695862	145.860000
554.789429	145.900000
554.883057	146.020000
554.976624	146.140000
555.070251	146.180000
555.163818	146.420000
555.257507	146.540000
555.351074	146.560000
555.444702	147.320000
555.538330	147.220000
555.631897	147.700000
555.725525	147.100000
555.819092	146.740000
555.912720	145.920000
556.006287	146.200000
556.099915	145.980000
556.193481	146.240000
556.287109	146.520000
556.380676	146.340000
556.474304	146.260000
556.567871	146.000000
556.661499	145.640000
556.755066	145.500000
556.848694	145.780000
556.942261	145.340000
557.035889	145.820000
557.129517	145.920000
557.223145	146.300000
557.316711	146.100000
557.410339	146.820000
557.503906	146.420000
557.597473	146.800000
557.691040	146.320000
557.784668	146.340000
557.878296	146.200000
557.971863	146.500000
558.065491	146.520000
558.159058	146.500000
558.252686	147.280000
558.346252	147.820000
558.439880	147.120000
558.533447	146.680000
558.627075	146.620000
558.720642	145.860000
558.814270	145.340000
558.907837	145.920000
559.001465	146.060000
559.095032	146.480000
559.188660	146.780000
559.282227	146.300000
559.375854	146.560000
559.469360	146.240000
559.562988	146.540000
559.656555	146.460000
559.750183	147.040000
559.843750	146.940000
559.937378	147.300000
560.030945	147.080000
560.124573	0.000000
560.218140	0.000000
560.311707	0.000000
560.405334	0.000000
560.498901	0.000000
560.592529	0.000000
560.686096	0.000000
560.779724	0.000000
560.873291	0.000000
560.966858	0.000000
561.060425	0.000000
561.154053	0.000000
561.247620	0.000000
561.341248	0.000000
561.434814	0.000000
561.528381	0.000000
561.621948	0.000000
561.715576	0.000000
561.809143	0.000000
561.902771	0.000000
561.996277	0.000000
562.089905	0.000000
562.183472	0.000000
562.277100	0.000000
