Model Number: SPM-002-B   
Serial Number: 70087108
Firmware Version: 004.15.4
Exposure Time: 100000.000000us
Data Taken on: 11-12-2020 18:50:26.647
Wavelength	Amplitude
221.570786	0.000000
221.663406	0.000000
221.756027	0.000000
221.848648	0.000000
221.941269	0.000000
222.033905	0.000000
222.126526	0.000000
222.219162	0.000000
222.311798	0.000000
222.404419	0.000000
222.497055	0.000000
222.589676	0.000000
222.682312	0.000000
222.774933	0.000000
222.867569	0.000000
222.960205	0.000000
223.052841	0.000000
223.145462	0.000000
223.238098	0.000000
223.330734	0.000000
223.423386	0.000000
223.516022	0.000000
223.608658	0.000000
223.701309	0.000000
223.793945	0.000000
223.886581	0.000000
223.979218	0.000000
224.071869	0.000000
224.164505	0.000000
224.257156	0.000000
224.349792	0.000000
224.442444	0.000000
224.535095	0.000000
224.627747	0.000000
224.720398	0.000000
224.813034	0.000000
224.905685	0.000000
224.998337	145.680000
225.090988	145.460000
225.183640	145.540000
225.276291	145.600000
225.368942	146.240000
225.461594	147.000000
225.554245	147.080000
225.646912	147.100000
225.739578	147.420000
225.832230	147.580000
225.924896	146.660000
226.017548	147.060000
226.110199	147.520000
226.202866	146.740000
226.295532	146.380000
226.388184	146.400000
226.480850	146.080000
226.573517	145.380000
226.666168	145.820000
226.758835	146.060000
226.851501	146.680000
226.944183	146.540000
227.036850	146.320000
227.129517	146.160000
227.222183	146.180000
227.314850	146.160000
227.407516	146.580000
227.500198	147.460000
227.592865	147.040000
227.685532	146.740000
227.778214	146.440000
227.870880	146.600000
227.963562	146.900000
228.056229	147.780000
228.148926	147.700000
228.241592	148.480000
228.334274	148.060000
228.426956	147.600000
228.519638	147.120000
228.612305	146.660000
228.704987	146.460000
228.797668	146.600000
228.890350	146.380000
228.983032	146.080000
229.075714	146.980000
229.168396	146.480000
229.261108	145.900000
229.353790	146.120000
229.446472	146.480000
229.539169	146.080000
229.631851	145.800000
229.724533	146.220000
229.817230	146.300000
229.909912	147.060000
230.002609	147.240000
230.095306	147.580000
230.187988	147.600000
230.280685	147.340000
230.373383	146.380000
230.466095	146.080000
230.558792	146.000000
230.651474	146.080000
230.744171	146.040000
230.836868	145.940000
230.929581	146.140000
231.022278	146.160000
231.114975	146.220000
231.207672	146.260000
231.300369	147.140000
231.393082	147.220000
231.485779	146.980000
231.578506	146.840000
231.671204	146.840000
231.763916	146.480000
231.856613	146.380000
231.949326	146.560000
232.042023	146.380000
232.134735	146.500000
232.227448	146.000000
232.320160	146.420000
232.412872	146.300000
232.505585	147.060000
232.598297	147.280000
232.691010	147.560000
232.783722	146.900000
232.876450	147.520000
232.969162	146.880000
233.061874	146.540000
233.154587	146.120000
233.247314	146.700000
233.340027	146.200000
233.432739	146.600000
233.525467	146.380000
233.618179	147.120000
233.710907	146.800000
233.803635	147.260000
233.896347	146.800000
233.989090	147.460000
234.081818	146.800000
234.174545	146.660000
234.267258	146.140000
234.359985	146.240000
234.452713	145.840000
234.545441	145.920000
234.638168	145.980000
234.730896	146.340000
234.823639	146.300000
234.916367	146.600000
235.009094	146.900000
235.101822	147.020000
235.194580	146.620000
235.287308	146.720000
235.380051	146.060000
235.472778	146.240000
235.565521	146.400000
235.658249	146.160000
235.750992	146.200000
235.843719	146.560000
235.936462	146.580000
236.029205	146.000000
236.121948	145.820000
236.214691	145.980000
236.307449	146.700000
236.400192	146.440000
236.492935	146.640000
236.585678	147.260000
236.678421	147.160000
236.771164	146.760000
236.863907	147.200000
236.956665	147.520000
237.049408	148.700000
237.142151	148.160000
237.234909	148.500000
237.327652	148.220000
237.420410	147.800000
237.513153	146.780000
237.605927	147.220000
237.698669	146.560000
237.791428	145.920000
237.884186	146.540000
237.976944	146.120000
238.069702	146.160000
238.162445	145.740000
238.255203	146.020000
238.347961	146.020000
238.440720	146.020000
238.533478	145.880000
238.626266	145.860000
238.719025	146.160000
238.811783	146.040000
238.904541	146.060000
238.997314	145.900000
239.090073	145.880000
239.182831	146.140000
239.275604	146.760000
239.368362	146.680000
239.461136	147.180000
239.553909	147.280000
239.646667	147.120000
239.739441	146.560000
239.832214	147.120000
239.925003	147.040000
240.017761	147.760000
240.110535	148.120000
240.203308	147.700000
240.296082	147.600000
240.388855	147.640000
240.481628	147.400000
240.574417	147.200000
240.667191	147.200000
240.759964	146.780000
240.852737	146.580000
240.945526	146.300000
241.038315	146.020000
241.131088	146.340000
241.223877	146.460000
241.316650	146.220000
241.409439	146.760000
241.502228	146.520000
241.595001	146.920000
241.687790	146.940000
241.780579	146.780000
241.873367	146.660000
241.966141	146.940000
242.058929	146.400000
242.151718	146.660000
242.244507	147.180000
242.337311	146.620000
242.430099	147.080000
242.522903	147.160000
242.615692	147.100000
242.708481	146.920000
242.801270	147.280000
242.894073	146.920000
242.986862	147.080000
243.079651	147.160000
243.172455	146.920000
243.265244	147.020000
243.358063	146.560000
243.450867	146.840000
243.543655	146.800000
243.636459	147.080000
243.729263	147.420000
243.822067	147.900000
243.914856	147.640000
244.007660	147.500000
244.100464	147.500000
244.193268	146.700000
244.286072	146.460000
244.378876	145.860000
244.471680	145.920000
244.564499	145.900000
244.657318	146.740000
244.750122	146.760000
244.842926	146.520000
244.935745	146.580000
245.028549	146.360000
245.121368	145.720000
245.214172	145.800000
245.306992	146.420000
245.399796	146.180000
245.492615	146.380000
245.585434	146.300000
245.678253	146.220000
245.771072	146.180000
245.863892	146.520000
245.956711	146.720000
246.049530	146.660000
246.142349	146.480000
246.235168	146.460000
246.327988	146.680000
246.420807	146.360000
246.513626	146.600000
246.606445	146.780000
246.699280	146.740000
246.792099	146.480000
246.884918	146.320000
246.977753	145.980000
247.070587	146.240000
247.163422	146.040000
247.256241	145.880000
247.349075	146.220000
247.441895	146.440000
247.534729	146.040000
247.627563	146.020000
247.720383	146.600000
247.813217	146.540000
247.906052	146.440000
247.998886	146.480000
248.091736	146.680000
248.184570	146.080000
248.277405	146.220000
248.370239	147.040000
248.463074	148.060000
248.555908	148.240000
248.648743	148.300000
248.741592	148.380000
248.834427	147.780000
248.927261	146.300000
249.020111	146.500000
249.112946	147.120000
249.205795	146.620000
249.298630	147.020000
249.391495	147.480000
249.484344	147.120000
249.577179	146.680000
249.670029	147.240000
249.762878	147.660000
249.855728	147.820000
249.948563	147.740000
250.041412	147.060000
250.134262	147.280000
250.227112	146.820000
250.319962	146.680000
250.412827	146.860000
250.505692	146.880000
250.598541	146.100000
250.691391	145.820000
250.784241	146.120000
250.877106	146.120000
250.969955	146.280000
251.062805	147.240000
251.155670	147.860000
251.248520	147.780000
251.341385	147.920000
251.434235	147.900000
251.527100	147.440000
251.619965	146.500000
251.712814	146.900000
251.805695	146.820000
251.898560	147.120000
251.991425	147.020000
252.084290	147.520000
252.177155	146.820000
252.270020	146.800000
252.362885	146.400000
252.455750	146.520000
252.548615	146.280000
252.641479	146.300000
252.734360	146.160000
252.827240	146.340000
252.920105	146.140000
253.012970	145.860000
253.105850	145.680000
253.198715	145.460000
253.291595	145.360000
253.384460	145.300000
253.477341	145.360000
253.570221	145.800000
253.663086	145.600000
253.755966	146.480000
253.848846	146.640000
253.941727	147.200000
254.034592	147.240000
254.127472	146.960000
254.220367	146.580000
254.313248	146.620000
254.406128	145.960000
254.499008	146.160000
254.591904	146.900000
254.684784	147.440000
254.777664	147.180000
254.870544	146.880000
254.963440	146.340000
255.056335	146.520000
255.149216	145.760000
255.242111	146.180000
255.334991	147.020000
255.427887	147.520000
255.520767	147.420000
255.613663	147.760000
255.706558	147.520000
255.799438	147.020000
255.892334	146.500000
255.985229	146.420000
256.078125	146.040000
256.171021	146.020000
256.263916	146.660000
256.356812	147.020000
256.449707	147.080000
256.542603	147.040000
256.635498	147.420000
256.728394	147.040000
256.821289	146.640000
256.914215	146.820000
257.007080	147.180000
257.100006	147.180000
257.192932	147.460000
257.285828	148.100000
257.378723	147.680000
257.471619	147.360000
257.564545	146.680000
257.657440	146.600000
257.750336	146.540000
257.843262	146.680000
257.936157	147.980000
258.029053	148.280000
258.121979	148.320000
258.214874	147.700000
258.307800	147.360000
258.400696	145.820000
258.493622	145.940000
258.586517	145.400000
258.679443	146.000000
258.772339	146.000000
258.865265	146.280000
258.958160	145.740000
259.051086	146.160000
259.144012	145.600000
259.236938	146.720000
259.329834	146.740000
259.422791	146.620000
259.515717	146.100000
259.608612	146.380000
259.701538	145.940000
259.794464	145.760000
259.887390	146.120000
259.980316	146.360000
260.073212	146.080000
260.166138	145.200000
260.259064	145.740000
260.351990	146.300000
260.444916	146.220000
260.537842	146.580000
260.630768	147.560000
260.723694	147.420000
260.816620	147.120000
260.909546	147.140000
261.002472	146.800000
261.095398	146.080000
261.188354	145.700000
261.281281	145.260000
261.374207	145.460000
261.467133	146.080000
261.560089	146.300000
261.653015	146.380000
261.745972	147.180000
261.838867	147.600000
261.931824	147.580000
262.024780	147.280000
262.117706	147.500000
262.210663	147.300000
262.303589	146.980000
262.396515	147.000000
262.489471	148.020000
262.582397	147.840000
262.675354	147.420000
262.768280	147.380000
262.861237	147.120000
262.954163	146.500000
263.047119	146.640000
263.140045	146.340000
263.233002	146.040000
263.325958	146.020000
263.418884	145.600000
263.511841	145.340000
263.604797	145.580000
263.697723	145.320000
263.790680	145.220000
263.883636	145.860000
263.976593	145.880000
264.069550	146.040000
264.162476	146.160000
264.255463	146.100000
264.348419	145.720000
264.441376	145.960000
264.534332	145.660000
264.627289	145.960000
264.720245	146.300000
264.813202	145.880000
264.906158	145.920000
264.999115	146.360000
265.092072	146.300000
265.185028	146.760000
265.277985	147.220000
265.370941	146.920000
265.463898	146.660000
265.556854	146.560000
265.649811	145.560000
265.742798	145.320000
265.835754	145.600000
265.928711	146.040000
266.021667	146.040000
266.114655	146.360000
266.207611	146.800000
266.300568	146.240000
266.393585	145.620000
266.486511	145.920000
266.579498	145.320000
266.672485	145.220000
266.765442	145.360000
266.858429	146.000000
266.951385	145.500000
267.044342	145.780000
267.137329	145.460000
267.230316	145.900000
267.323273	145.380000
267.416260	146.260000
267.509216	146.200000
267.602203	146.480000
267.695160	146.740000
267.788147	147.060000
267.881134	146.260000
267.974091	146.600000
268.067078	146.280000
268.160065	146.020000
268.253052	145.880000
268.346008	146.100000
268.438995	145.820000
268.531982	146.320000
268.624969	145.940000
268.717987	145.840000
268.810944	145.800000
268.903961	146.040000
268.996948	145.540000
269.089905	146.100000
269.182892	146.480000
269.275879	146.700000
269.368866	146.340000
269.461853	146.500000
269.554871	146.120000
269.647858	145.880000
269.740845	146.020000
269.833832	146.340000
269.926819	145.900000
270.019806	145.960000
270.112793	145.560000
270.205811	145.520000
270.298798	145.400000
270.391785	146.240000
270.484772	146.200000
270.577789	146.420000
270.670776	146.020000
270.763763	145.940000
270.856750	145.720000
270.949768	145.480000
271.042786	145.980000
271.135773	146.260000
271.228790	146.520000
271.321808	146.400000
271.414795	146.360000
271.507782	145.880000
271.600800	145.220000
271.693817	145.400000
271.786804	145.640000
271.879822	146.040000
271.972809	145.940000
272.065826	146.860000
272.158844	146.260000
272.251831	146.860000
272.344849	146.840000
272.437866	147.040000
272.530853	147.120000
272.623871	147.600000
272.716888	146.360000
272.809906	146.240000
272.902893	146.000000
272.995911	145.160000
273.088928	145.160000
273.181946	145.560000
273.274963	145.440000
273.367981	145.440000
273.460999	145.880000
273.554047	146.120000
273.647003	146.600000
273.740051	146.620000
273.833069	147.000000
273.926086	147.400000
274.019135	146.860000
274.112152	146.600000
274.205170	146.540000
274.298187	146.740000
274.391205	146.260000
274.484222	146.440000
274.577240	146.300000
274.670258	146.460000
274.763306	145.960000
274.856323	146.080000
274.949341	146.020000
275.042358	146.400000
275.135406	146.440000
275.228424	146.520000
275.321442	146.500000
275.414490	146.340000
275.507507	146.440000
275.600525	146.700000
275.693573	146.560000
275.786591	146.220000
275.879669	146.460000
275.972656	146.080000
276.065735	145.940000
276.158752	146.480000
276.251801	147.420000
276.344818	147.560000
276.437866	147.420000
276.530884	147.060000
276.623932	146.220000
276.716980	145.760000
276.809998	145.960000
276.903046	146.160000
276.996094	146.980000
277.089111	147.720000
277.182159	148.240000
277.275208	147.800000
277.368256	147.620000
277.461304	146.920000
277.554321	146.340000
277.647369	145.940000
277.740417	145.860000
277.833466	145.740000
277.926514	145.920000
278.019562	146.500000
278.112610	146.100000
278.205688	146.300000
278.298706	146.660000
278.391785	146.300000
278.484833	145.720000
278.577881	145.760000
278.670929	145.920000
278.763977	146.060000
278.857025	146.580000
278.950073	147.040000
279.043121	146.760000
279.136169	146.700000
279.229248	146.300000
279.322296	146.100000
279.415344	145.660000
279.508392	145.840000
279.601440	145.760000
279.694519	145.660000
279.787567	145.720000
279.880615	145.700000
279.973694	145.780000
280.066742	145.780000
280.159790	145.980000
280.252869	145.620000
280.345917	145.700000
280.438995	145.700000
280.532074	145.920000
280.625122	146.440000
280.718201	147.520000
280.811279	147.840000
280.904327	147.780000
280.997406	147.620000
281.090454	147.420000
281.183533	146.600000
281.276581	146.500000
281.369659	146.200000
281.462738	146.240000
281.555786	145.940000
281.648865	145.980000
281.741943	145.980000
281.835022	146.740000
281.928070	146.440000
282.021149	146.560000
282.114227	146.480000
282.207306	146.280000
282.300385	146.420000
282.393433	146.580000
282.486511	146.580000
282.579590	147.360000
282.672668	147.860000
282.765747	147.200000
282.858856	147.160000
282.951904	146.960000
283.045013	146.760000
283.138062	146.600000
283.231171	146.920000
283.324249	147.460000
283.417328	147.540000
283.510406	146.980000
283.603485	146.880000
283.696564	146.600000
283.789642	146.460000
283.882751	146.220000
283.975830	146.780000
284.068909	146.460000
284.161987	147.160000
284.255066	146.600000
284.348175	146.800000
284.441254	146.360000
284.534332	147.020000
284.627441	146.280000
284.720520	146.160000
284.813599	146.240000
284.906708	146.220000
284.999786	145.380000
285.092896	145.420000
285.185974	146.400000
285.279053	146.160000
285.372192	146.260000
285.465240	147.080000
285.558380	147.000000
285.651459	146.420000
285.744568	147.240000
285.837677	147.000000
285.930756	146.740000
286.023865	146.880000
286.116943	146.700000
286.210052	146.520000
286.303162	146.400000
286.396240	146.380000
286.489349	146.360000
286.582458	146.200000
286.675568	145.720000
286.768646	145.880000
286.861755	145.900000
286.954865	146.460000
287.047974	146.380000
287.141083	146.320000
287.234161	146.260000
287.327271	146.160000
287.420380	146.340000
287.513519	146.300000
287.606598	146.460000
287.699738	146.480000
287.792816	146.400000
287.885956	146.120000
287.979034	146.360000
288.072174	146.260000
288.165283	146.460000
288.258392	146.880000
288.351501	146.340000
288.444611	146.940000
288.537720	147.600000
288.630859	147.320000
288.723969	147.460000
288.817078	147.720000
288.910187	147.380000
289.003296	146.620000
289.096436	146.420000
289.189545	145.820000
289.282654	145.560000
289.375763	145.780000
289.468903	146.400000
289.562012	146.880000
289.655121	146.980000
289.748260	147.120000
289.841400	147.280000
289.934509	146.920000
290.027649	147.140000
290.120728	146.800000
290.213898	146.840000
290.306976	146.320000
290.400146	146.440000
290.493256	145.880000
290.586395	146.200000
290.679535	146.580000
290.772644	146.500000
290.865784	145.900000
290.958893	145.960000
291.052032	145.880000
291.145172	145.540000
291.238281	145.460000
291.331421	145.540000
291.424561	145.840000
291.517670	145.700000
291.610809	145.720000
291.703949	145.660000
291.797089	146.160000
291.890228	145.860000
291.983337	145.720000
292.076477	145.520000
292.169617	145.740000
292.262756	145.720000
292.355927	145.660000
292.449036	145.900000
292.542206	146.420000
292.635315	146.620000
292.728485	146.560000
292.821625	146.300000
292.914764	147.400000
293.007904	147.200000
293.101044	147.140000
293.194183	146.980000
293.287323	147.380000
293.380463	146.620000
293.473602	146.540000
293.566742	146.800000
293.659882	147.320000
293.753021	147.420000
293.846191	147.380000
293.939331	147.040000
294.032471	146.420000
294.125610	145.780000
294.218781	146.200000
294.311920	146.620000
294.405060	147.100000
294.498230	147.480000
294.591370	147.820000
294.684540	146.860000
294.777679	146.040000
294.870850	146.240000
294.963959	146.120000
295.057159	145.900000
295.150299	146.640000
295.243469	146.840000
295.336609	146.200000
295.429779	146.340000
295.522919	146.700000
295.616089	146.580000
295.709229	147.040000
295.802399	147.320000
295.895569	146.880000
295.988708	146.820000
296.081879	146.980000
296.175018	146.520000
296.268188	146.340000
296.361359	146.900000
296.454529	146.820000
296.547668	146.540000
296.640839	146.700000
296.734009	146.520000
296.827179	146.520000
296.920319	146.720000
297.013519	146.380000
297.106659	146.400000
297.199860	146.320000
297.292999	146.220000
297.386200	145.640000
297.479309	145.800000
297.572510	145.500000
297.665680	145.500000
297.758850	145.360000
297.852020	145.540000
297.945190	145.560000
298.038361	145.700000
298.131531	146.580000
298.224701	146.340000
298.317871	145.960000
298.411072	145.680000
298.504242	145.660000
298.597412	145.080000
298.690582	145.540000
298.783752	145.760000
298.876923	146.220000
298.970093	146.260000
299.063293	146.720000
299.156464	146.880000
299.249634	147.060000
299.342834	147.080000
299.436005	147.280000
299.529205	146.760000
299.622345	146.340000
299.715576	145.940000
299.808716	145.780000
299.901917	146.020000
299.995117	146.340000
300.088287	146.420000
300.181488	146.440000
300.274658	146.400000
300.367828	146.100000
300.461029	146.140000
300.554199	146.720000
300.647400	146.840000
300.740601	147.400000
300.833771	147.320000
300.926971	147.340000
301.020142	146.220000
301.113342	146.180000
301.206512	146.040000
301.299713	146.320000
301.392914	146.120000
301.486084	146.920000
301.579285	146.960000
301.672516	146.920000
301.765686	146.620000
301.858887	146.720000
301.952057	146.340000
302.045288	146.260000
302.138458	145.980000
302.231659	145.780000
302.324860	145.640000
302.418060	145.660000
302.511261	145.660000
302.604462	146.020000
302.697662	145.840000
302.790863	145.580000
302.884064	145.360000
302.977264	145.560000
303.070465	145.540000
303.163666	146.420000
303.256866	146.920000
303.350067	147.300000
303.443268	147.180000
303.536469	147.300000
303.629669	146.540000
303.722870	146.580000
303.816071	146.340000
303.909271	146.500000
304.002472	145.560000
304.095673	145.600000
304.188934	144.700000
304.282104	145.360000
304.375336	145.240000
304.468506	145.460000
304.561768	145.400000
304.654968	146.320000
304.748169	145.740000
304.841370	145.720000
304.934601	146.080000
305.027802	146.100000
305.121002	145.520000
305.214233	146.040000
305.307434	146.260000
305.400665	146.860000
305.493866	146.780000
305.587097	147.080000
305.680298	146.400000
305.773499	146.620000
305.866730	146.240000
305.959930	146.920000
306.053162	147.160000
306.146393	147.100000
306.239594	146.400000
306.332825	146.320000
306.426025	146.360000
306.519287	145.980000
306.612488	146.500000
306.705719	146.520000
306.798920	146.420000
306.892181	145.740000
306.985352	145.800000
307.078613	145.120000
307.171844	145.800000
307.265045	145.320000
307.358276	145.280000
307.451508	145.680000
307.544739	146.220000
307.637970	145.580000
307.731201	145.920000
307.824402	146.660000
307.917633	146.560000
308.010864	147.040000
308.104095	147.520000
308.197327	147.540000
308.290558	147.120000
308.383789	146.960000
308.477020	146.140000
308.570251	145.700000
308.663483	145.580000
308.756714	145.760000
308.849976	145.420000
308.943176	146.080000
309.036438	145.980000
309.129639	145.640000
309.222900	145.520000
309.316101	145.660000
309.409393	144.920000
309.502625	144.720000
309.595856	145.040000
309.689087	145.220000
309.782318	145.420000
309.875580	145.820000
309.968811	146.300000
310.062042	146.120000
310.155273	145.720000
310.248535	146.020000
310.341766	146.040000
310.434998	145.760000
310.528259	145.820000
310.621490	146.140000
310.714722	145.360000
310.807983	145.200000
310.901215	145.520000
310.994476	145.640000
311.087708	145.360000
311.181000	145.940000
311.274200	145.560000
311.367462	145.340000
311.460693	145.240000
311.553986	146.060000
311.647186	146.520000
311.740479	147.300000
311.833710	147.000000
311.926971	147.100000
312.020203	145.820000
312.113464	145.200000
312.206726	144.760000
312.299957	145.240000
312.393219	145.720000
312.486481	146.180000
312.579712	146.160000
312.672974	146.140000
312.766235	145.920000
312.859497	145.600000
312.952759	145.760000
313.045990	146.760000
313.139252	146.260000
313.232513	146.760000
313.325775	146.840000
313.419037	146.420000
313.512299	145.080000
313.605530	146.040000
313.698822	145.900000
313.792053	145.860000
313.885345	145.840000
313.978577	146.320000
314.071869	145.720000
314.165131	145.760000
314.258392	145.900000
314.351654	146.140000
314.444916	145.540000
314.538177	146.000000
314.631439	146.240000
314.724701	146.100000
314.817993	146.260000
314.911255	146.640000
315.004517	145.980000
315.097778	145.660000
315.191040	146.160000
315.284302	146.520000
315.377594	146.460000
315.470856	146.900000
315.564117	146.640000
315.657379	145.980000
315.750671	145.360000
315.843933	145.780000
315.937195	145.160000
316.030518	145.140000
316.123749	144.940000
316.217041	145.520000
316.310303	145.340000
316.403595	145.840000
316.496857	146.120000
316.590149	146.620000
316.683411	145.960000
316.776703	145.760000
316.869965	145.860000
316.963257	145.580000
317.056519	144.920000
317.149811	145.180000
317.243073	145.200000
317.336365	145.240000
317.429626	145.680000
317.522919	146.260000
317.616180	145.920000
317.709473	145.760000
317.802765	145.980000
317.896027	145.760000
317.989319	145.940000
318.082611	146.040000
318.175873	146.200000
318.269165	145.580000
318.362488	145.860000
318.455750	145.400000
318.549042	145.880000
318.642303	146.260000
318.735626	146.580000
318.828888	146.580000
318.922211	146.260000
319.015472	146.520000
319.108765	145.720000
319.202057	145.320000
319.295349	145.380000
319.388641	145.760000
319.481934	145.480000
319.575226	145.620000
319.668518	146.060000
319.761810	145.860000
319.855103	145.880000
319.948395	145.820000
320.041687	146.320000
320.134979	146.360000
320.228271	146.180000
320.321564	146.280000
320.414856	146.160000
320.508148	145.520000
320.601440	145.300000
320.694763	145.100000
320.788025	145.660000
320.881348	145.840000
320.974640	146.300000
321.067963	145.800000
321.161224	146.160000
321.254547	145.320000
321.347839	145.800000
321.441162	145.740000
321.534454	146.420000
321.627747	146.040000
321.721069	147.040000
321.814362	146.880000
321.907654	146.940000
322.000946	146.800000
322.094269	147.680000
322.187561	146.760000
322.280884	146.700000
322.374176	146.640000
322.467468	146.940000
322.560791	146.480000
322.654083	147.000000
322.747406	146.860000
322.840698	146.960000
322.934021	146.860000
323.027344	147.280000
323.120636	147.020000
323.213959	147.480000
323.307251	147.220000
323.400574	147.400000
323.493866	146.500000
323.587219	146.860000
323.680511	146.500000
323.773834	146.620000
323.867157	146.300000
323.960449	146.720000
324.053772	146.140000
324.147095	145.800000
324.240387	146.300000
324.333710	146.480000
324.427032	146.720000
324.520355	146.920000
324.613647	146.580000
324.706970	146.420000
324.800293	146.400000
324.893616	146.180000
324.986938	146.540000
325.080231	146.660000
325.173553	146.680000
325.266876	146.980000
325.360199	147.040000
325.453522	146.320000
325.546875	146.360000
325.640167	146.360000
325.733521	146.520000
325.826813	146.680000
325.920166	146.680000
326.013489	146.620000
326.106812	145.940000
326.200134	144.920000
326.293457	144.460000
326.386780	144.740000
326.480103	144.900000
326.573425	144.940000
326.666748	145.680000
326.760071	146.200000
326.853424	146.520000
326.946747	146.360000
327.040070	147.340000
327.133392	146.560000
327.226715	145.780000
327.320068	145.260000
327.413391	145.840000
327.506714	144.840000
327.600037	145.440000
327.693390	145.700000
327.786713	146.080000
327.880066	145.820000
327.973358	146.500000
328.066742	146.680000
328.160034	147.140000
328.253418	147.180000
328.346710	146.800000
328.440063	146.300000
328.533417	145.780000
328.626740	145.740000
328.720093	145.380000
328.813416	145.520000
328.906769	145.420000
329.000092	146.080000
329.093445	145.860000
329.186768	145.960000
329.280121	146.540000
329.373444	147.000000
329.466797	146.820000
329.560120	146.960000
329.653473	147.100000
329.746796	146.380000
329.840149	146.080000
329.933502	145.880000
330.026825	145.420000
330.120178	145.180000
330.213562	145.420000
330.306854	145.560000
330.400238	145.420000
330.493561	145.600000
330.586945	146.320000
330.680237	146.720000
330.773621	146.820000
330.866974	147.040000
330.960327	147.480000
331.053680	146.920000
331.147003	146.700000
331.240356	146.860000
331.333710	146.780000
331.427063	146.400000
331.520416	146.380000
331.613770	146.220000
331.707123	146.080000
331.800476	146.280000
331.893829	147.220000
331.987152	147.300000
332.080505	147.380000
332.173859	147.200000
332.267212	146.760000
332.360565	145.920000
332.453918	145.580000
332.547333	145.280000
332.640656	145.360000
332.734039	145.840000
332.827362	145.820000
332.920746	146.320000
333.014069	147.020000
333.107452	147.600000
333.200806	147.680000
333.294159	147.700000
333.387543	147.160000
333.480896	146.180000
333.574249	145.740000
333.667603	145.360000
333.760956	145.480000
333.854340	145.920000
333.947693	146.400000
334.041046	146.320000
334.134430	146.300000
334.227783	145.800000
334.321136	145.340000
334.414520	145.060000
334.507874	144.940000
334.601227	145.060000
334.694611	145.320000
334.787964	145.280000
334.881348	145.820000
334.974701	146.120000
335.068085	145.780000
335.161438	145.780000
335.254822	146.180000
335.348175	146.020000
335.441559	145.960000
335.534943	146.800000
335.628296	147.080000
335.721680	146.980000
335.815033	147.180000
335.908417	147.240000
336.001770	146.900000
336.095154	146.400000
336.188538	146.020000
336.281891	145.580000
336.375275	145.060000
336.468658	144.620000
336.562012	145.040000
336.655396	145.660000
336.748779	146.180000
336.842133	146.380000
336.935516	147.060000
337.028900	146.580000
337.122284	146.440000
337.215637	146.280000
337.309021	146.220000
337.402435	145.220000
337.495789	145.400000
337.589203	145.460000
337.682526	145.040000
337.775940	145.260000
337.869324	145.880000
337.962708	145.660000
338.056091	145.960000
338.149475	145.980000
338.242859	145.980000
338.336243	145.660000
338.429626	145.920000
338.523010	145.380000
338.616394	145.400000
338.709778	145.460000
338.803162	145.700000
338.896545	145.900000
338.989929	145.700000
339.083313	145.900000
339.176697	145.540000
339.270081	145.500000
339.363464	145.700000
339.456848	146.240000
339.550232	145.580000
339.643616	145.460000
339.737030	145.580000
339.830383	145.400000
339.923828	145.380000
340.017181	146.000000
340.110596	146.220000
340.203949	145.960000
340.297363	145.460000
340.390778	145.320000
340.484161	145.040000
340.577545	144.880000
340.670959	144.920000
340.764343	145.080000
340.857727	145.120000
340.951111	144.860000
341.044525	145.120000
341.137909	144.700000
341.231293	144.860000
341.324707	144.520000
341.418091	145.600000
341.511505	145.540000
341.604889	146.020000
341.698303	146.180000
341.791687	146.480000
341.885071	145.840000
341.978485	145.660000
342.071899	145.880000
342.165283	146.120000
342.258698	146.240000
342.352081	146.580000
342.445496	147.080000
342.538879	146.800000
342.632324	146.300000
342.725708	146.000000
342.819122	145.620000
342.912506	145.300000
343.005920	145.360000
343.099335	146.180000
343.192719	146.120000
343.286133	146.120000
343.379547	146.240000
343.472931	146.220000
343.566345	145.460000
343.659760	145.680000
343.753143	145.320000
343.846558	145.160000
343.939972	145.160000
344.033386	145.620000
344.126770	145.440000
344.220184	145.840000
344.313599	146.220000
344.407043	146.220000
344.500427	145.540000
344.593872	146.180000
344.687225	146.140000
344.780670	145.860000
344.874054	145.700000
344.967499	146.340000
345.060913	145.880000
345.154327	145.780000
345.247742	145.480000
345.341156	145.460000
345.434570	145.080000
345.527985	144.980000
345.621399	144.840000
345.714813	145.040000
345.808228	145.580000
345.901642	145.260000
345.995056	145.120000
346.088470	145.200000
346.181885	145.240000
346.275299	144.760000
346.368713	145.340000
346.462128	145.100000
346.555573	145.200000
346.648987	145.600000
346.742401	145.540000
346.835815	145.700000
346.929260	145.940000
347.022644	146.300000
347.116119	146.080000
347.209503	146.500000
347.302948	147.180000
347.396362	147.640000
347.489807	147.560000
347.583221	147.880000
347.676636	147.540000
347.770050	146.220000
347.863495	145.540000
347.956909	145.720000
348.050323	145.180000
348.143768	145.120000
348.237183	145.380000
348.330597	146.160000
348.424042	145.960000
348.517456	146.380000
348.610901	147.000000
348.704315	146.800000
348.797760	146.160000
348.891174	145.500000
348.984619	145.140000
349.078033	145.240000
349.171448	145.980000
349.264923	146.020000
349.358337	146.180000
349.451782	146.040000
349.545197	145.320000
349.638641	144.620000
349.732086	144.140000
349.825500	145.080000
349.918945	145.080000
350.012390	145.360000
350.105804	145.780000
350.199249	146.440000
350.292664	146.460000
350.386108	146.600000
350.479553	147.080000
350.572968	146.900000
350.666412	146.840000
350.759857	146.400000
350.853302	146.820000
350.946716	146.160000
351.040161	146.160000
351.133606	146.220000
351.227081	146.100000
351.320465	146.560000
351.413940	146.860000
351.507355	147.120000
351.600830	147.020000
351.694244	146.780000
351.787720	146.420000
351.881104	146.380000
351.974579	146.100000
352.067993	147.080000
352.161469	147.140000
352.254883	146.360000
352.348358	146.120000
352.441803	146.000000
352.535248	145.120000
352.628693	145.760000
352.722137	145.780000
352.815582	146.200000
352.909027	146.180000
353.002472	145.900000
353.095917	145.480000
353.189362	145.780000
353.282806	145.540000
353.376251	145.480000
353.469696	145.560000
353.563141	146.260000
353.656586	146.040000
353.750061	145.520000
353.843475	145.540000
353.936981	145.940000
354.030396	144.860000
354.123871	144.940000
354.217285	145.900000
354.310760	146.320000
354.404175	146.260000
354.497681	146.260000
354.591095	146.480000
354.684570	145.520000
354.777985	145.060000
354.871490	145.000000
354.964935	145.620000
355.058380	145.540000
355.151855	145.500000
355.245300	146.020000
355.338745	146.140000
355.432220	145.900000
355.525665	145.560000
355.619110	146.140000
355.712585	145.860000
355.806030	145.660000
355.899475	145.460000
355.992950	145.760000
356.086426	146.180000
356.179871	146.200000
356.273346	146.120000
356.366791	146.220000
356.460266	146.480000
356.553711	145.820000
356.647186	146.000000
356.740631	145.760000
356.834106	145.660000
356.927551	145.680000
357.021027	145.800000
357.114471	145.680000
357.207947	146.160000
357.301422	146.460000
357.394867	146.400000
357.488342	146.600000
357.581818	146.560000
357.675262	146.720000
357.768738	146.380000
357.862213	146.040000
357.955658	145.900000
358.049133	145.920000
358.142609	146.000000
358.236053	145.980000
358.329529	145.940000
358.423035	146.120000
358.516449	145.540000
358.609955	145.740000
358.703400	146.360000
358.796906	146.920000
358.890350	146.400000
358.983826	147.040000
359.077271	146.120000
359.170776	145.880000
359.264221	145.460000
359.357727	145.880000
359.451172	146.140000
359.544647	146.500000
359.638123	146.440000
359.731598	146.560000
359.825073	147.060000
359.918549	146.760000
360.012024	146.640000
360.105499	146.240000
360.198975	146.240000
360.292450	146.000000
360.385925	145.980000
360.479401	145.800000
360.572876	146.080000
360.666351	146.180000
360.759857	145.880000
360.853302	145.760000
360.946808	145.540000
361.040253	145.680000
361.133759	145.280000
361.227203	145.480000
361.320709	145.140000
361.414154	145.860000
361.507660	145.980000
361.601105	146.420000
361.694641	146.760000
361.788086	146.820000
361.881592	146.980000
361.975067	146.460000
362.068542	146.780000
362.162018	146.420000
362.255524	146.480000
362.348999	146.200000
362.442474	146.380000
362.535950	145.660000
362.629456	145.420000
362.722931	145.540000
362.816406	145.880000
362.909882	146.220000
363.003387	146.160000
363.096863	146.760000
363.190338	147.040000
363.283875	146.560000
363.377319	146.380000
363.470825	146.980000
363.564301	146.040000
363.657806	145.840000
363.751282	145.700000
363.844788	146.460000
363.938232	146.020000
364.031769	146.900000
364.125214	147.060000
364.218750	147.900000
364.312225	146.600000
364.405731	146.900000
364.499207	145.980000
364.592712	145.700000
364.686188	145.300000
364.779694	146.080000
364.873169	145.940000
364.966675	146.300000
365.060150	146.180000
365.153656	146.580000
365.247131	146.300000
365.340637	146.440000
365.434143	146.880000
365.527618	147.180000
365.621155	146.220000
365.714600	146.200000
365.808136	146.140000
365.901611	145.100000
365.995117	144.700000
366.088593	144.600000
366.182129	144.260000
366.275604	144.340000
366.369110	144.660000
366.462585	144.600000
366.556122	145.420000
366.649567	145.680000
366.743103	145.460000
366.836609	145.480000
366.930115	145.880000
367.023590	145.720000
367.117096	145.680000
367.210602	145.920000
367.304108	146.560000
367.397614	146.740000
367.491119	146.500000
367.584595	146.820000
367.678101	147.020000
367.771606	146.540000
367.865112	146.080000
367.958649	145.900000
368.052124	145.360000
368.145660	145.080000
368.239136	145.620000
368.332672	145.900000
368.426147	146.260000
368.519684	146.320000
368.613159	146.300000
368.706696	145.740000
368.800171	145.920000
368.893707	145.500000
368.987183	145.860000
369.080719	146.280000
369.174225	146.200000
369.267731	146.120000
369.361237	146.480000
369.454742	145.980000
369.548248	145.900000
369.641754	145.900000
369.735260	145.860000
369.828766	145.340000
369.922272	146.340000
370.015808	145.820000
370.109314	145.860000
370.202820	145.360000
370.296356	146.420000
370.389832	145.780000
370.483368	145.540000
370.576874	145.320000
370.670410	145.980000
370.763885	144.680000
370.857422	144.860000
370.950928	145.020000
371.044464	146.100000
371.137939	145.840000
371.231476	146.720000
371.324982	146.840000
371.418518	147.160000
371.512024	146.480000
371.605560	146.340000
371.699066	146.320000
371.792572	146.080000
371.886108	146.300000
371.979614	146.240000
372.073120	146.760000
372.166656	146.200000
372.260162	146.340000
372.353668	146.020000
372.447205	145.780000
372.540710	145.460000
372.634277	145.640000
372.727753	145.820000
372.821320	146.040000
372.914795	146.340000
373.008362	146.160000
373.101837	146.480000
373.195404	146.240000
373.288879	145.820000
373.382446	146.260000
373.475922	146.460000
373.569489	147.040000
373.662964	147.360000
373.756531	147.640000
373.850037	147.580000
373.943573	147.520000
374.037109	146.500000
374.130615	146.360000
374.224152	146.340000
374.317657	146.080000
374.411194	146.880000
374.504730	146.920000
374.598236	146.800000
374.691772	146.580000
374.785309	146.680000
374.878815	145.620000
374.972351	146.260000
375.065887	146.180000
375.159454	146.820000
375.252930	146.400000
375.346497	146.940000
375.440002	146.920000
375.533569	146.680000
375.627045	145.840000
375.720612	146.300000
375.814117	146.280000
375.907684	145.800000
376.001160	145.640000
376.094727	145.200000
376.188232	145.480000
376.281799	145.660000
376.375336	145.500000
376.468872	146.320000
376.562408	147.300000
376.655914	146.700000
376.749451	146.520000
376.842987	146.860000
376.936523	146.400000
377.030060	146.060000
377.123596	146.360000
377.217133	145.680000
377.310669	145.820000
377.404205	146.060000
377.497772	146.520000
377.591278	145.900000
377.684845	146.900000
377.778351	146.920000
377.871918	146.720000
377.965424	145.880000
378.058990	146.480000
378.152496	145.800000
378.246063	146.060000
378.339569	146.520000
378.433136	146.780000
378.526642	146.660000
378.620209	146.800000
378.713745	146.220000
378.807312	146.140000
378.900848	146.200000
378.994385	146.180000
379.087921	145.740000
379.181458	145.800000
379.274994	145.240000
379.368530	145.280000
379.462097	145.400000
379.555634	146.060000
379.649170	145.840000
379.742706	145.920000
379.836273	146.140000
379.929810	146.000000
380.023376	145.380000
380.116882	145.340000
380.210449	145.540000
380.303986	145.020000
380.397552	144.620000
380.491058	145.200000
380.584656	145.540000
380.678162	145.440000
380.771729	145.740000
380.865265	146.740000
380.958832	146.460000
381.052368	146.720000
381.145935	147.140000
381.239471	147.360000
381.333008	146.740000
381.426575	146.960000
381.520111	146.980000
381.613647	146.940000
381.707214	146.680000
381.800751	146.080000
381.894318	146.080000
381.987854	145.320000
382.081421	145.220000
382.174988	145.280000
382.268524	145.580000
382.362091	145.400000
382.455627	146.280000
382.549194	146.000000
382.642731	145.440000
382.736298	145.500000
382.829834	145.720000
382.923401	146.060000
383.016937	146.320000
383.110504	147.220000
383.204041	147.280000
383.297607	147.560000
383.391174	146.580000
383.484741	147.240000
383.578278	146.720000
383.671844	146.320000
383.765411	145.520000
383.858948	146.100000
383.952515	145.660000
384.046051	146.040000
384.139618	146.660000
384.233185	147.000000
384.326721	146.820000
384.420288	146.940000
384.513855	146.780000
384.607422	147.000000
384.700989	147.280000
384.794525	146.760000
384.888123	146.540000
384.981659	146.600000
385.075226	145.780000
385.168762	145.520000
385.262360	145.840000
385.355896	145.140000
385.449463	145.120000
385.542999	145.340000
385.636597	145.620000
385.730164	145.640000
385.823730	145.720000
385.917267	145.260000
386.010834	145.620000
386.104401	145.600000
386.197968	146.080000
386.291534	146.480000
386.385101	147.080000
386.478668	147.200000
386.572235	147.000000
386.665802	146.440000
386.759338	146.160000
386.852905	145.460000
386.946472	144.960000
387.040070	145.240000
387.133606	145.240000
387.227203	145.180000
387.320740	145.680000
387.414337	145.820000
387.507874	145.620000
387.601471	145.740000
387.695007	145.620000
387.788605	145.340000
387.882141	145.460000
387.975739	145.680000
388.069275	145.280000
388.162872	145.680000
388.256439	145.760000
388.350037	145.700000
388.443604	145.260000
388.537170	145.640000
388.630737	146.020000
388.724304	146.380000
388.817871	146.320000
388.911438	146.500000
389.005005	146.400000
389.098602	146.460000
389.192169	146.260000
389.285736	146.880000
389.379333	146.960000
389.472870	146.780000
389.566467	146.320000
389.660034	146.080000
389.753632	145.340000
389.847168	145.520000
389.940765	145.860000
390.034332	146.160000
390.127930	145.920000
390.221466	146.140000
390.315063	145.600000
390.408630	144.940000
390.502228	144.500000
390.595795	144.960000
390.689362	145.080000
390.782959	145.780000
390.876526	146.360000
390.970093	146.480000
391.063690	146.880000
391.157257	146.940000
391.250824	146.780000
391.344421	146.540000
391.437988	146.520000
391.531555	146.340000
391.625153	146.380000
391.718750	146.580000
391.812317	146.700000
391.905914	146.440000
391.999481	146.380000
392.093079	146.320000
392.186615	146.100000
392.280243	146.240000
392.373779	146.520000
392.467407	147.080000
392.560944	146.720000
392.654572	146.300000
392.748108	146.180000
392.841736	146.420000
392.935303	145.680000
393.028900	145.780000
393.122467	145.880000
393.216064	145.580000
393.309631	144.840000
393.403229	144.780000
393.496796	144.880000
393.590393	144.440000
393.683990	144.800000
393.777557	145.320000
393.871155	145.420000
393.964722	145.800000
394.058350	146.440000
394.151917	146.600000
394.245514	146.320000
394.339081	146.960000
394.432678	147.020000
394.526245	146.800000
394.619873	146.180000
394.713409	146.480000
394.807037	145.880000
394.900604	145.840000
394.994202	146.060000
395.087769	146.680000
395.181396	146.220000
395.274994	146.920000
395.368561	146.300000
395.462158	146.460000
395.555756	145.800000
395.649353	146.500000
395.742920	145.980000
395.836517	146.600000
395.930115	145.980000
396.023712	146.380000
396.117279	146.500000
396.210876	146.160000
396.304474	145.980000
396.398071	146.300000
396.491669	146.500000
396.585266	145.980000
396.678833	145.840000
396.772461	146.160000
396.866028	145.920000
396.959656	146.000000
397.053223	146.240000
397.146851	146.380000
397.240417	146.380000
397.334015	147.300000
397.427582	147.380000
397.521210	147.980000
397.614807	148.700000
397.708405	149.460000
397.802002	150.400000
397.895599	152.400000
397.989197	154.120000
398.082794	156.780000
398.176392	160.100000
398.269989	163.820000
398.363586	168.400000
398.457184	174.560000
398.550781	181.300000
398.644379	187.520000
398.737976	194.740000
398.831573	202.500000
398.925201	209.840000
399.018768	218.020000
399.112396	227.640000
399.205963	237.620000
399.299591	248.300000
399.393158	260.280000
399.486786	273.640000
399.580353	287.500000
399.673981	302.520000
399.767578	319.140000
399.861206	336.480000
399.954773	352.940000
400.048401	367.300000
400.141998	378.280000
400.235596	385.620000
400.329193	388.720000
400.422791	389.100000
400.516418	388.560000
400.610016	387.860000
400.703613	387.000000
400.797211	383.920000
400.890808	378.920000
400.984436	371.540000
401.078033	360.740000
401.171631	345.760000
401.265259	329.100000
401.358826	311.080000
401.452484	291.160000
401.546051	271.620000
401.639679	252.640000
401.733246	236.240000
401.826904	219.680000
401.920471	205.800000
402.014099	193.820000
402.107697	183.780000
402.201324	174.880000
402.294891	168.900000
402.388550	163.960000
402.482147	159.980000
402.575745	156.700000
402.669373	154.040000
402.762970	151.980000
402.856567	150.540000
402.950195	149.720000
403.043793	148.760000
403.137390	148.600000
403.231018	147.520000
403.324615	147.740000
403.418243	147.000000
403.511841	147.240000
403.605469	147.020000
403.699066	147.480000
403.792694	147.060000
403.886292	147.300000
403.979919	147.040000
404.073517	146.480000
404.167145	146.560000
404.260712	146.820000
404.354370	146.600000
404.447937	146.960000
404.541595	147.580000
404.635162	147.860000
404.728821	147.780000
404.822418	147.420000
404.916046	146.780000
405.009644	146.760000
405.103271	147.020000
405.196899	146.800000
405.290497	147.280000
405.384125	147.920000
405.477722	147.380000
405.571350	146.500000
405.664948	146.660000
405.758575	146.280000
405.852203	145.820000
405.945801	145.780000
406.039429	145.820000
406.133057	145.300000
406.226654	145.120000
406.320312	144.980000
406.413879	145.000000
406.507538	145.580000
406.601135	145.480000
406.694763	145.960000
406.788361	145.860000
406.882019	145.700000
406.975586	145.740000
407.069244	146.080000
407.162872	146.140000
407.256470	146.440000
407.350098	146.600000
407.443726	145.940000
407.537323	145.660000
407.630951	145.720000
407.724579	145.360000
407.818207	145.800000
407.911804	146.040000
408.005432	146.020000
408.099060	145.960000
408.192688	146.400000
408.286285	146.280000
408.379913	146.000000
408.473572	146.160000
408.567169	145.580000
408.660828	145.580000
408.754395	145.320000
408.848053	145.460000
408.941650	145.620000
409.035309	145.620000
409.128906	145.240000
409.222565	145.300000
409.316132	145.700000
409.409790	145.380000
409.503387	145.520000
409.597046	145.820000
409.690674	145.880000
409.784302	145.540000
409.877930	145.400000
409.971558	145.760000
410.065186	145.480000
410.158783	145.360000
410.252411	145.300000
410.346039	145.880000
410.439667	145.840000
410.533295	146.140000
410.626923	146.480000
410.720551	146.380000
410.814209	146.780000
410.907806	146.760000
411.001465	146.180000
411.095062	146.340000
411.188721	146.660000
411.282318	145.860000
411.375977	145.340000
411.469574	145.740000
411.563232	145.180000
411.656830	144.800000
411.750488	145.100000
411.844086	145.040000
411.937744	145.340000
412.031372	145.280000
412.125000	145.420000
412.218628	145.260000
412.312256	146.420000
412.405884	146.500000
412.499512	146.600000
412.593170	146.940000
412.686798	147.240000
412.780426	146.560000
412.874054	146.600000
412.967682	146.720000
413.061310	146.940000
413.154968	146.880000
413.248566	146.660000
413.342224	146.480000
413.435852	146.220000
413.529510	145.640000
413.623108	144.660000
413.716766	144.660000
413.810364	144.960000
413.904022	144.940000
413.997650	145.040000
414.091309	146.400000
414.184906	146.580000
414.278564	146.320000
414.372192	146.800000
414.465851	146.780000
414.559479	146.140000
414.653107	146.620000
414.746735	146.420000
414.840393	146.120000
414.934021	146.300000
415.027649	145.780000
415.121277	145.360000
415.214935	146.160000
415.308563	146.200000
415.402191	145.580000
415.495850	146.040000
415.589478	145.880000
415.683136	145.000000
415.776733	145.200000
415.870422	146.240000
415.964020	145.840000
416.057678	146.180000
416.151306	146.140000
416.244965	146.200000
416.338562	145.700000
416.432251	146.440000
416.525848	146.940000
416.619507	147.420000
416.713165	147.420000
416.806793	147.200000
416.900421	147.120000
416.994080	146.180000
417.087708	145.780000
417.181366	145.220000
417.274994	145.540000
417.368622	145.760000
417.462280	146.600000
417.555908	146.400000
417.649567	146.640000
417.743195	146.700000
417.836853	146.540000
417.930481	146.380000
418.024170	146.580000
418.117767	147.100000
418.211426	147.200000
418.305054	147.140000
418.398712	146.540000
418.492340	146.380000
418.585999	146.360000
418.679626	146.220000
418.773285	146.280000
418.866913	146.560000
418.960571	147.040000
419.054230	147.040000
419.147858	147.320000
419.241516	147.440000
419.335144	147.280000
419.428802	147.100000
419.522461	146.620000
419.616089	146.020000
419.709747	146.040000
419.803375	146.320000
419.897034	146.100000
419.990662	146.280000
420.084320	146.500000
420.177979	146.600000
420.271606	146.520000
420.365295	147.140000
420.458893	147.280000
420.552582	147.840000
420.646210	147.620000
420.739868	147.480000
420.833496	146.880000
420.927155	146.420000
421.020782	145.740000
421.114471	145.100000
421.208069	145.260000
421.301758	145.660000
421.395386	145.860000
421.489044	145.860000
421.582703	146.280000
421.676361	146.700000
421.769989	146.220000
421.863647	146.740000
421.957306	146.860000
422.050934	147.260000
422.144592	146.880000
422.238251	146.860000
422.331909	146.360000
422.425537	146.240000
422.519196	145.900000
422.612854	145.380000
422.706543	145.220000
422.800140	145.760000
422.893829	145.640000
422.987457	145.480000
423.081146	145.580000
423.174744	146.220000
423.268433	145.440000
423.362061	145.200000
423.455750	145.080000
423.549347	145.480000
423.643036	144.640000
423.736664	145.340000
423.830353	145.680000
423.924011	146.420000
424.017639	145.860000
424.111298	146.360000
424.204956	146.080000
424.298615	146.240000
424.392273	145.780000
424.485931	146.380000
424.579559	146.320000
424.673218	146.020000
424.766876	146.040000
424.860535	145.940000
424.954193	145.340000
425.047882	146.040000
425.141510	146.080000
425.235199	145.860000
425.328796	145.640000
425.422485	145.740000
425.516113	145.020000
425.609802	145.040000
425.703430	145.480000
425.797119	145.480000
425.890747	145.960000
425.984436	146.120000
426.078064	146.400000
426.171753	146.360000
426.265411	146.520000
426.359070	146.440000
426.452728	146.260000
426.546356	146.020000
426.640015	145.640000
426.733673	145.460000
426.827332	145.240000
426.920990	146.140000
427.014648	145.960000
427.108307	146.340000
427.201965	146.840000
427.295624	147.240000
427.389282	146.340000
427.482941	146.840000
427.576630	146.480000
427.670258	145.980000
427.763947	145.720000
427.857574	145.860000
427.951263	145.600000
428.044922	145.400000
428.138611	145.600000
428.232239	145.980000
428.325928	146.380000
428.419556	146.900000
428.513245	146.980000
428.606903	147.060000
428.700562	146.400000
428.794220	145.620000
428.887878	144.980000
428.981537	145.260000
429.075195	145.160000
429.168854	145.640000
429.262512	146.240000
429.356201	146.540000
429.449860	146.340000
429.543518	146.320000
429.637177	146.440000
429.730835	146.060000
429.824493	145.920000
429.918182	146.080000
430.011810	145.400000
430.105530	144.640000
430.199158	145.020000
430.292847	144.600000
430.386475	144.440000
430.480164	144.860000
430.573792	145.060000
430.667511	144.640000
430.761139	145.220000
430.854828	145.520000
430.948456	145.640000
431.042145	146.280000
431.135834	146.000000
431.229492	145.820000
431.323151	146.500000
431.416809	146.540000
431.510468	146.380000
431.604156	146.420000
431.697815	146.280000
431.791473	145.360000
431.885132	145.100000
431.978821	145.160000
432.072479	145.700000
432.166138	146.180000
432.259827	146.200000
432.353485	146.520000
432.447174	146.400000
432.540802	146.160000
432.634491	146.360000
432.728149	146.540000
432.821838	147.180000
432.915466	146.800000
433.009186	146.920000
433.102814	146.060000
433.196503	145.880000
433.290131	145.400000
433.383850	145.640000
433.477509	145.800000
433.571167	146.860000
433.664856	147.080000
433.758514	147.160000
433.852173	147.060000
433.945862	147.060000
434.039520	146.400000
434.133179	145.920000
434.226868	145.780000
434.320526	145.420000
434.414185	145.700000
434.507874	145.600000
434.601562	145.920000
434.695221	145.980000
434.788910	146.420000
434.882538	146.440000
434.976257	146.220000
435.069885	146.300000
435.163574	146.400000
435.257233	146.400000
435.350922	145.960000
435.444580	145.940000
435.538269	145.660000
435.631897	145.920000
435.725616	146.180000
435.819275	146.740000
435.912964	147.140000
436.006622	147.700000
436.100311	147.300000
436.193970	146.500000
436.287628	145.920000
436.381317	145.680000
436.474976	145.120000
436.568665	145.160000
436.662323	145.660000
436.756012	145.660000
436.849670	145.500000
436.943390	145.540000
437.037018	145.400000
437.130737	145.260000
437.224365	144.880000
437.318085	145.240000
437.411713	145.340000
437.505432	145.820000
437.599060	146.300000
437.692780	147.340000
437.786407	147.060000
437.880127	146.880000
437.973755	146.280000
438.067474	145.780000
438.161133	145.420000
438.254822	145.820000
438.348480	146.020000
438.442169	146.820000
438.535828	147.200000
438.629517	146.580000
438.723175	146.000000
438.816864	146.280000
438.910553	145.680000
439.004211	145.180000
439.097900	145.200000
439.191559	145.560000
439.285248	144.780000
439.378906	145.180000
439.472626	145.400000
439.566284	145.580000
439.659973	145.800000
439.753632	146.380000
439.847321	146.640000
439.940979	146.680000
440.034698	146.840000
440.128326	146.320000
440.222046	146.080000
440.315674	145.080000
440.409393	145.460000
440.503082	145.220000
440.596741	145.580000
440.690430	145.820000
440.784088	145.760000
440.877777	145.060000
440.971466	144.980000
441.065125	144.620000
441.158813	144.340000
441.252502	144.720000
441.346161	145.220000
441.439850	145.740000
441.533539	145.840000
441.627197	146.280000
441.720886	146.200000
441.814606	146.380000
441.908234	146.660000
442.001953	146.560000
442.095612	146.520000
442.189301	146.720000
442.282959	146.640000
442.376678	145.740000
442.470306	146.400000
442.564026	145.940000
442.657684	145.900000
442.751404	145.860000
442.845032	146.680000
442.938751	145.960000
443.032440	146.180000
443.126099	145.860000
443.219788	146.180000
443.313477	145.960000
443.407166	146.460000
443.500824	146.580000
443.594513	146.560000
443.688202	146.320000
443.781891	145.620000
443.875549	145.200000
443.969238	144.980000
444.062927	145.400000
444.156647	145.060000
444.250275	145.920000
444.343994	146.040000
444.437653	146.740000
444.531372	146.680000
444.625031	146.660000
444.718719	146.080000
444.812378	145.980000
444.906097	145.420000
444.999756	144.900000
445.093445	145.140000
445.187103	145.680000
445.280823	146.300000
445.374512	145.780000
445.468201	146.180000
445.561859	146.060000
445.655548	145.740000
445.749237	145.140000
445.842926	145.420000
445.936615	145.820000
446.030304	145.820000
446.123962	146.260000
446.217651	146.100000
446.311340	146.540000
446.405029	145.940000
446.498749	145.700000
446.592407	145.120000
446.686096	145.820000
446.779755	145.540000
446.873474	145.940000
446.967133	146.480000
447.060852	146.300000
447.154510	145.920000
447.248230	146.120000
447.341858	146.200000
447.435577	145.320000
447.529236	145.420000
447.622955	145.040000
447.716644	144.960000
447.810333	144.880000
447.904022	145.780000
447.997711	145.740000
448.091400	146.480000
448.185059	146.520000
448.278748	146.620000
448.372437	146.080000
448.466125	146.140000
448.559814	145.860000
448.653503	146.220000
448.747192	146.460000
448.840912	147.040000
448.934570	147.240000
449.028290	147.640000
449.121948	147.300000
449.215637	146.520000
449.309296	145.960000
449.403015	146.000000
449.496674	145.440000
449.590393	145.400000
449.684052	145.300000
449.777771	145.900000
449.871429	145.420000
449.965149	145.660000
450.058838	146.000000
450.152527	146.480000
450.246216	146.060000
450.339905	146.260000
450.433594	145.720000
450.527283	146.240000
450.620972	146.000000
450.714661	146.120000
450.808350	146.240000
450.902039	147.000000
450.995728	146.420000
451.089417	146.340000
451.183105	146.300000
451.276794	146.760000
451.370514	146.060000
451.464172	145.200000
451.557892	145.040000
451.651550	144.940000
451.745270	144.420000
451.838928	143.980000
451.932648	144.720000
452.026306	145.540000
452.120026	145.340000
452.213684	145.700000
452.307404	146.340000
452.401062	146.300000
452.494781	146.120000
452.588470	146.340000
452.682159	145.940000
452.775848	146.060000
452.869537	145.800000
452.963226	145.260000
453.056915	145.160000
453.150604	145.220000
453.244293	145.480000
453.337982	145.900000
453.431671	146.260000
453.525360	146.860000
453.619049	146.800000
453.712769	146.700000
453.806427	146.300000
453.900146	146.240000
453.993805	145.800000
454.087555	146.160000
454.181213	146.040000
454.274933	146.020000
454.368591	145.880000
454.462311	145.640000
454.555969	145.420000
454.649689	145.960000
454.743347	145.800000
454.837067	146.620000
454.930756	147.400000
455.024445	147.560000
455.118134	147.240000
455.211853	147.560000
455.305542	146.640000
455.399231	146.000000
455.492920	145.920000
455.586609	145.660000
455.680298	145.700000
455.773987	145.560000
455.867676	145.800000
455.961365	145.960000
456.055084	145.740000
456.148773	145.340000
456.242493	145.540000
456.336151	145.540000
456.429871	145.500000
456.523529	146.140000
456.617249	146.040000
456.710907	146.980000
456.804626	146.740000
456.898315	146.100000
456.992035	145.680000
457.085693	145.620000
457.179413	144.240000
457.273102	145.140000
457.366791	145.660000
457.460480	146.180000
457.554199	147.180000
457.647888	147.680000
457.741577	147.100000
457.835266	147.080000
457.928955	146.720000
458.022644	146.440000
458.116364	146.700000
458.210052	146.580000
458.303741	146.700000
458.397461	146.460000
458.491119	145.580000
458.584839	145.320000
458.678528	145.100000
458.772247	144.980000
458.865906	145.080000
458.959625	146.200000
459.053284	146.600000
459.147003	146.580000
459.240692	147.140000
459.334412	147.180000
459.428070	146.600000
459.521790	146.220000
459.615479	146.180000
459.709198	146.340000
459.802887	146.120000
459.896576	145.940000
459.990265	146.300000
460.083954	146.660000
460.177673	145.560000
460.271362	145.880000
460.365051	146.000000
460.458740	145.760000
460.552429	145.280000
460.646149	145.620000
460.739838	145.160000
460.833527	145.400000
460.927246	145.140000
461.020905	145.140000
461.114655	145.300000
461.208313	145.980000
461.302032	145.520000
461.395691	146.020000
461.489441	145.940000
461.583099	146.040000
461.676819	145.500000
461.770477	146.160000
461.864197	145.360000
461.957916	145.520000
462.051605	145.000000
462.145294	145.720000
462.238983	144.980000
462.332703	145.800000
462.426392	146.400000
462.520081	146.520000
462.613770	146.120000
462.707489	146.560000
462.801178	146.240000
462.894867	145.840000
462.988556	145.960000
463.082275	145.900000
463.175964	145.440000
463.269684	145.760000
463.363342	145.680000
463.457092	145.500000
463.550751	146.120000
463.644470	146.780000
463.738129	146.420000
463.831879	146.700000
463.925537	147.220000
464.019257	146.920000
464.112946	146.660000
464.206665	146.620000
464.300323	146.440000
464.394043	145.840000
464.487762	145.560000
464.581451	145.800000
464.675140	145.720000
464.768829	145.900000
464.862549	146.320000
464.956238	146.580000
465.049927	146.440000
465.143646	146.520000
465.237335	146.260000
465.331024	146.540000
465.424713	146.400000
465.518433	146.240000
465.612152	146.120000
465.705811	146.260000
465.799561	145.780000
465.893219	145.660000
465.986938	145.880000
466.080597	145.780000
466.174347	145.780000
466.268005	146.200000
466.361725	146.020000
466.455414	145.920000
466.549133	146.080000
466.642792	146.240000
466.736542	145.440000
466.830231	145.460000
466.923920	145.140000
467.017609	145.160000
467.111328	144.860000
467.205017	145.380000
467.298706	145.500000
467.392426	145.760000
467.486115	146.120000
467.579803	146.040000
467.673523	146.240000
467.767212	146.280000
467.860901	146.520000
467.954651	146.320000
468.048309	146.500000
468.142029	146.360000
468.235718	146.380000
468.329437	145.940000
468.423096	146.240000
468.516846	145.860000
468.610504	145.400000
468.704224	145.060000
468.797913	145.100000
468.891632	144.720000
468.985291	145.180000
469.079010	145.520000
469.172729	145.140000
469.266418	145.660000
469.360107	145.960000
469.453827	145.540000
469.547516	145.560000
469.641205	146.320000
469.734924	146.080000
469.828613	146.300000
469.922302	146.600000
470.016022	146.500000
470.109711	146.420000
470.203430	145.880000
470.297150	144.960000
470.390808	145.060000
470.484558	144.960000
470.578217	145.160000
470.671936	146.140000
470.765625	146.940000
470.859344	146.440000
470.953003	146.600000
471.046753	146.320000
471.140411	145.220000
471.234131	145.160000
471.327820	145.720000
471.421539	146.040000
471.515228	145.820000
471.608948	146.280000
471.702637	145.700000
471.796326	145.480000
471.890045	145.600000
471.983734	146.120000
472.077423	145.860000
472.171143	146.260000
472.264832	146.180000
472.358521	145.680000
472.452240	145.180000
472.545929	146.100000
472.639648	146.260000
472.733337	146.680000
472.827057	146.720000
472.920746	146.740000
473.014465	146.720000
473.108124	146.620000
473.201874	146.120000
473.295532	146.380000
473.389252	146.880000
473.482941	146.800000
473.576660	146.360000
473.670319	146.480000
473.764069	146.420000
473.857727	146.280000
473.951477	146.100000
474.045166	146.780000
474.138855	146.940000
474.232574	146.780000
474.326263	146.800000
474.419952	146.900000
474.513672	146.680000
474.607361	146.280000
474.701050	146.480000
474.794769	146.580000
474.888458	146.740000
474.982178	146.740000
475.075867	146.880000
475.169586	146.860000
475.263275	146.520000
475.356995	146.260000
475.450653	146.140000
475.544403	146.240000
475.638062	146.780000
475.731812	146.480000
475.825470	146.140000
475.919189	146.000000
476.012878	146.200000
476.106598	145.540000
476.200256	146.040000
476.294006	146.300000
476.387695	146.400000
476.481384	146.260000
476.575104	146.240000
476.668793	145.900000
476.762512	145.400000
476.856201	146.100000
476.949890	146.140000
477.043610	145.640000
477.137299	145.620000
477.230988	146.140000
477.324707	145.360000
477.418396	145.520000
477.512146	145.980000
477.605804	146.200000
477.699524	146.420000
477.793213	146.400000
477.886932	146.080000
477.980591	145.720000
478.074341	145.600000
478.167999	144.660000
478.261749	144.800000
478.355408	144.780000
478.449127	145.440000
478.542816	146.320000
478.636536	147.200000
478.730225	147.440000
478.823944	147.680000
478.917633	147.540000
479.011322	147.300000
479.105042	147.060000
479.198730	147.100000
479.292450	146.880000
479.386139	147.020000
479.479828	146.620000
479.573547	147.080000
479.667267	146.980000
479.760925	147.000000
479.854675	146.760000
479.948334	147.160000
480.042084	146.460000
480.135742	146.780000
480.229462	146.480000
480.323151	146.920000
480.416870	146.120000
480.510529	146.580000
480.604279	145.800000
480.697937	146.440000
480.791656	145.880000
480.885345	145.780000
480.979065	145.500000
481.072754	146.300000
481.166473	146.800000
481.260132	147.060000
481.353882	147.400000
481.447540	147.580000
481.541260	147.420000
481.635010	146.520000
481.728668	146.220000
481.822388	146.180000
481.916077	146.280000
482.009796	145.900000
482.103485	146.320000
482.197205	146.780000
482.290863	146.960000
482.384613	146.420000
482.478271	146.240000
482.571991	145.980000
482.665680	145.620000
482.759399	146.260000
482.853058	146.960000
482.946808	146.900000
483.040466	146.960000
483.134216	146.740000
483.227875	145.620000
483.321594	145.760000
483.415283	146.100000
483.509003	146.040000
483.602661	145.860000
483.696411	146.660000
483.790070	146.060000
483.883789	145.980000
483.977478	146.120000
484.071198	146.460000
484.164917	145.760000
484.258606	145.360000
484.352325	145.740000
484.445984	145.800000
484.539734	145.720000
484.633392	145.540000
484.727142	146.200000
484.820801	145.740000
484.914520	145.440000
485.008209	145.800000
485.101929	146.620000
485.195587	146.260000
485.289337	146.480000
485.382996	146.700000
485.476715	146.660000
485.570404	146.760000
485.664124	146.520000
485.757782	146.620000
485.851532	146.160000
485.945190	146.020000
486.038910	145.860000
486.132599	146.500000
486.226318	145.880000
486.319977	146.120000
486.413727	146.480000
486.507446	146.100000
486.601105	145.580000
486.694855	145.620000
486.788513	145.400000
486.882233	144.920000
486.975922	145.160000
487.069641	144.920000
487.163300	145.060000
487.257050	146.240000
487.350708	146.260000
487.444427	146.140000
487.538116	146.460000
487.631836	146.600000
487.725494	145.960000
487.819214	146.100000
487.912903	146.040000
488.006622	146.440000
488.100281	146.640000
488.194031	146.560000
488.287689	146.860000
488.381409	147.160000
488.475098	146.820000
488.568817	146.660000
488.662476	146.420000
488.756226	145.780000
488.849945	145.260000
488.943604	145.500000
489.037354	145.860000
489.131012	145.700000
489.224731	145.780000
489.318390	145.540000
489.412140	145.780000
489.505798	145.320000
489.599518	145.220000
489.693207	145.580000
489.786926	145.940000
489.880585	145.540000
489.974335	145.800000
490.067993	146.960000
490.161713	147.020000
490.255371	147.840000
490.349121	147.880000
490.442780	147.820000
490.536499	146.780000
490.630188	146.680000
490.723907	145.780000
490.817566	145.620000
490.911285	145.460000
491.004974	145.400000
491.098694	144.900000
491.192413	145.820000
491.286102	146.060000
491.379822	146.140000
491.473480	146.440000
491.567200	146.760000
491.660889	145.780000
491.754608	145.700000
491.848267	145.780000
491.941986	145.800000
492.035675	145.880000
492.129395	146.360000
492.223053	146.120000
492.316772	146.160000
492.410461	146.040000
492.504181	145.900000
492.597839	145.620000
492.691559	146.080000
492.785248	146.100000
492.878967	146.220000
492.972626	146.040000
493.066345	146.120000
493.160034	145.440000
493.253754	145.240000
493.347412	144.600000
493.441132	144.940000
493.534882	145.480000
493.628540	145.860000
493.722260	146.220000
493.815918	147.000000
493.909668	147.300000
494.003326	147.420000
494.097046	147.460000
494.190704	147.080000
494.284454	147.020000
494.378113	146.920000
494.471832	146.240000
494.565491	146.260000
494.659210	146.500000
494.752899	146.380000
494.846619	146.080000
494.940277	146.340000
495.033997	146.260000
495.127686	146.020000
495.221405	145.980000
495.315063	146.180000
495.408783	146.160000
495.502441	146.320000
495.596191	146.340000
495.689850	145.980000
495.783569	146.360000
495.877228	146.280000
495.970947	145.880000
496.064697	145.980000
496.158356	146.900000
496.252075	146.580000
496.345734	146.560000
496.439453	147.420000
496.533142	147.520000
496.626862	147.800000
496.720520	147.880000
496.814240	147.960000
496.907898	147.280000
497.001617	147.200000
497.095306	145.800000
497.189026	145.540000
497.282684	145.660000
497.376404	146.060000
497.470062	145.880000
497.563782	146.680000
497.657471	146.800000
497.751190	146.340000
497.844849	146.140000
497.938568	146.340000
498.032227	145.840000
498.125946	145.560000
498.219635	145.520000
498.313354	145.980000
498.407074	145.440000
498.500732	145.900000
498.594452	146.320000
498.688110	146.340000
498.781830	145.440000
498.875519	145.580000
498.969238	145.380000
499.062897	145.180000
499.156616	145.540000
499.250275	145.940000
499.343994	145.720000
499.437653	145.840000
499.531372	146.020000
499.625061	146.360000
499.718781	146.520000
499.812439	147.040000
499.906158	146.840000
499.999817	146.480000
500.093536	146.040000
500.187195	146.260000
500.280914	146.140000
500.374573	146.520000
500.468323	146.500000
500.561981	146.640000
500.655701	145.840000
500.749420	145.760000
500.843079	145.680000
500.936798	145.780000
501.030457	146.100000
501.124176	146.460000
501.217834	146.400000
501.311554	146.060000
501.405212	145.580000
501.498962	144.880000
501.592621	145.040000
501.686340	145.600000
501.779999	146.040000
501.873718	146.660000
501.967377	146.860000
502.061096	146.700000
502.154755	146.140000
502.248474	145.960000
502.342133	145.860000
502.435852	145.840000
502.529510	146.400000
502.623230	146.940000
502.716888	146.420000
502.810608	146.400000
502.904266	146.780000
502.997986	146.240000
503.091705	145.740000
503.185364	145.900000
503.279083	145.880000
503.372772	145.460000
503.466492	145.180000
503.560150	145.440000
503.653870	145.740000
503.747528	145.620000
503.841248	145.680000
503.934906	146.200000
504.028625	145.900000
504.122284	146.300000
504.216003	147.000000
504.309662	146.680000
504.403381	146.700000
504.497040	146.900000
504.590759	146.380000
504.684418	146.220000
504.778137	146.740000
504.871796	146.840000
504.965515	146.540000
505.059174	146.540000
505.152893	145.980000
505.246521	145.640000
505.340240	145.240000
505.433899	145.460000
505.527618	145.900000
505.621338	146.240000
505.714996	146.040000
505.808716	146.060000
505.902374	146.500000
505.996094	146.220000
506.089752	146.180000
506.183472	146.460000
506.277130	146.580000
506.370850	146.200000
506.464508	145.880000
506.558228	145.760000
506.651886	145.280000
506.745605	145.420000
506.839264	145.560000
506.932983	145.860000
507.026611	145.680000
507.120331	146.380000
507.213989	145.940000
507.307709	146.020000
507.401367	146.280000
507.495087	147.380000
507.588745	147.160000
507.682465	148.020000
507.776123	147.720000
507.869843	147.380000
507.963531	146.700000
508.057190	146.960000
508.150909	146.100000
508.244568	146.560000
508.338287	146.440000
508.431946	146.100000
508.525665	145.760000
508.619324	145.760000
508.713013	145.440000
508.806671	146.020000
508.900391	146.960000
508.994049	147.040000
509.087769	147.020000
509.181427	147.200000
509.275146	146.620000
509.368774	145.360000
509.462494	145.240000
509.556152	145.320000
509.649872	145.640000
509.743530	146.060000
509.837250	146.580000
509.930878	146.720000
510.024597	146.780000
510.118256	146.540000
510.211975	146.260000
510.305695	146.100000
510.399353	146.300000
510.493042	146.880000
510.586700	146.680000
510.680420	147.220000
510.774078	147.140000
510.867798	147.440000
510.961426	146.700000
511.055145	146.660000
511.148804	146.000000
511.242523	146.640000
511.336151	146.260000
511.429871	146.840000
511.523529	146.700000
511.617249	146.680000
511.710876	146.000000
511.804596	145.900000
511.898254	145.460000
511.991974	145.720000
512.085632	145.440000
512.179321	145.820000
512.272949	146.100000
512.366699	146.400000
512.460327	146.140000
512.554077	147.420000
512.647766	146.920000
512.741394	146.360000
512.835144	147.000000
512.928772	146.900000
513.022461	146.280000
513.116150	146.340000
513.209839	147.320000
513.303467	146.320000
513.397217	146.360000
513.490845	146.200000
513.584595	146.300000
513.678223	145.540000
513.771912	145.140000
513.865601	145.460000
513.959290	145.040000
514.052917	145.140000
514.146667	145.780000
514.240295	146.220000
514.333984	146.240000
514.427673	146.320000
514.521362	146.660000
514.614990	146.000000
514.708740	146.240000
514.802368	146.340000
514.896057	146.760000
514.989746	147.480000
515.083435	147.740000
515.177124	147.740000
515.270752	147.260000
515.364502	146.980000
515.458130	146.460000
515.551819	146.060000
515.645508	146.000000
515.739197	146.320000
515.832825	146.540000
515.926575	146.080000
516.020203	146.400000
516.113892	146.880000
516.207520	146.940000
516.301270	146.840000
516.394897	147.120000
516.488586	147.640000
516.582275	147.100000
516.675964	146.360000
516.769592	146.280000
516.863281	146.640000
516.956970	146.560000
517.050659	146.720000
517.144287	147.180000
517.238037	147.300000
517.331665	146.260000
517.425354	145.880000
517.519043	145.560000
517.612732	145.920000
517.706421	145.980000
517.800049	146.100000
517.893738	145.840000
517.987427	145.820000
518.081116	145.320000
518.174744	145.220000
518.268433	145.740000
518.362122	146.380000
518.455811	146.440000
518.549438	147.180000
518.643127	147.940000
518.736816	147.680000
518.830505	147.000000
518.924133	147.220000
519.017822	146.900000
519.111511	146.400000
519.205200	146.840000
519.298828	147.220000
519.392517	146.640000
519.486206	146.840000
519.579895	146.820000
519.673523	146.660000
519.767212	146.520000
519.860901	147.080000
519.954590	146.720000
520.048279	146.400000
520.141907	145.900000
520.235596	146.660000
520.329224	146.760000
520.422974	146.680000
520.516602	146.760000
520.610291	146.820000
520.703918	146.560000
520.797607	146.060000
520.891296	145.960000
520.984985	145.860000
521.078613	146.480000
521.172302	145.520000
521.265930	146.580000
521.359680	147.100000
521.453308	147.020000
521.546997	146.580000
521.640625	147.080000
521.734314	146.040000
521.827942	145.860000
521.921692	146.360000
522.015320	146.520000
522.109009	146.380000
522.202698	146.800000
522.296326	146.620000
522.390015	146.800000
522.483704	146.500000
522.577393	146.480000
522.671021	146.420000
522.764709	146.020000
522.858337	146.080000
522.952026	146.320000
523.045654	146.840000
523.139404	147.200000
523.233032	147.680000
523.326721	147.200000
523.420349	147.120000
523.514038	146.520000
523.607666	146.740000
523.701355	146.060000
523.795044	145.920000
523.888733	146.220000
523.982361	146.340000
524.076050	145.640000
524.169678	146.340000
524.263367	146.020000
524.356995	145.660000
524.450684	145.580000
524.544373	145.420000
524.638062	145.640000
524.731750	146.060000
524.825378	145.980000
524.919067	145.800000
525.012695	146.040000
525.106384	145.300000
525.200012	145.320000
525.293701	145.200000
525.387329	145.460000
525.481018	145.360000
525.574646	145.980000
525.668396	145.860000
525.762024	146.360000
525.855713	146.460000
525.949341	146.060000
526.043030	146.100000
526.136658	146.080000
526.230347	145.980000
526.323975	145.640000
526.417664	145.820000
526.511292	145.640000
526.604980	145.900000
526.698608	145.680000
526.792297	145.860000
526.885925	146.280000
526.979614	146.500000
527.073303	146.300000
527.166931	146.560000
527.260620	146.620000
527.354309	146.980000
527.447998	146.880000
527.541626	146.460000
527.635315	146.200000
527.728943	146.640000
527.822632	146.760000
527.916260	146.460000
528.009949	147.080000
528.103577	147.100000
528.197266	146.340000
528.290894	145.920000
528.384583	146.080000
528.478210	145.920000
528.571899	146.060000
528.665527	146.560000
528.759216	146.700000
528.852844	147.000000
528.946533	147.080000
529.040161	146.900000
529.133850	146.540000
529.227478	146.720000
529.321167	147.020000
529.414856	147.240000
529.508484	147.820000
529.602173	147.720000
529.695801	147.200000
529.789490	146.620000
529.883057	146.360000
529.976746	146.300000
530.070374	146.680000
530.164062	146.840000
530.257690	147.160000
530.351379	147.200000
530.445007	146.700000
530.538696	146.180000
530.632324	146.380000
530.726013	146.060000
530.819641	146.000000
530.913330	146.460000
531.006958	146.700000
531.100647	146.620000
531.194275	146.520000
531.287964	146.280000
531.381592	145.940000
531.475220	146.040000
531.568848	145.900000
531.662537	145.860000
531.756226	146.380000
531.849854	146.340000
531.943542	146.340000
532.037170	145.840000
532.130859	146.420000
532.224487	145.860000
532.318176	145.440000
532.411804	146.100000
532.505432	146.580000
532.599060	145.900000
532.692749	146.280000
532.786377	147.120000
532.880066	146.020000
532.973694	145.760000
533.067383	146.140000
533.161011	146.040000
533.254639	145.580000
533.348267	145.820000
533.441956	146.260000
533.535583	145.760000
533.629272	145.740000
533.722900	145.440000
533.816589	145.320000
533.910156	145.560000
534.003845	145.800000
534.097534	146.040000
534.191162	146.720000
534.284851	147.120000
534.378479	146.540000
534.472107	146.380000
534.565735	146.080000
534.659424	146.040000
534.753052	146.320000
534.846741	146.200000
534.940369	146.740000
535.033997	146.780000
535.127625	146.540000
535.221313	146.660000
535.314941	146.620000
535.408630	145.760000
535.502197	146.180000
535.595886	146.000000
535.689514	145.680000
535.783203	146.180000
535.876831	146.700000
535.970459	146.140000
536.064087	146.120000
536.157776	146.080000
536.251404	145.800000
536.345093	146.040000
536.438721	146.440000
536.532349	146.480000
536.626038	146.060000
536.719666	146.500000
536.813293	146.180000
536.906921	145.840000
537.000610	146.520000
537.094238	146.780000
537.187866	146.240000
537.281494	146.360000
537.375183	146.620000
537.468811	145.800000
537.562439	145.900000
537.656067	145.880000
537.749756	145.900000
537.843384	146.080000
537.937012	146.620000
538.030640	146.340000
538.124329	146.520000
538.217896	146.840000
538.311584	146.620000
538.405212	146.520000
538.498901	147.160000
538.592468	147.680000
538.686157	147.180000
538.779785	146.700000
538.873413	146.820000
538.967102	146.340000
539.060730	145.620000
539.154358	145.800000
539.247986	146.280000
539.341675	145.860000
539.435242	145.700000
539.528931	146.200000
539.622559	145.880000
539.716187	146.400000
539.809814	146.600000
539.903503	146.540000
539.997070	145.820000
540.090759	146.300000
540.184387	145.660000
540.278015	146.160000
540.371643	146.600000
540.465332	147.020000
540.558899	146.660000
540.652588	146.720000
540.746216	145.540000
540.839844	145.780000
540.933472	145.700000
541.027100	145.560000
541.120728	145.480000
541.214417	146.040000
541.308044	145.960000
541.401672	145.700000
541.495300	145.600000
541.588928	145.760000
541.682617	145.680000
541.776184	145.080000
541.869873	145.880000
541.963440	146.200000
542.057129	146.160000
542.150757	146.240000
542.244385	146.320000
542.338013	145.560000
542.431641	145.500000
542.525269	145.420000
542.618958	145.920000
542.712524	146.340000
542.806213	146.520000
542.899780	146.680000
542.993469	146.720000
543.087036	146.260000
543.180725	145.580000
543.274292	145.800000
543.367981	145.940000
543.461548	146.140000
543.555237	145.940000
543.648926	146.800000
543.742493	147.100000
543.836182	146.780000
543.929749	146.520000
544.023437	146.760000
544.117004	146.140000
544.210693	146.080000
544.304260	146.180000
544.397949	146.000000
544.491516	146.120000
544.585205	146.420000
544.678772	145.880000
544.772461	146.300000
544.866028	146.380000
544.959717	146.300000
545.053284	146.060000
545.146973	146.240000
545.240540	146.180000
545.334229	146.620000
545.427795	146.660000
545.521423	146.680000
545.615051	146.660000
545.708679	146.720000
545.802307	146.460000
545.895935	146.460000
545.989624	147.320000
546.083191	147.300000
546.176880	147.120000
546.270447	146.900000
546.364136	147.060000
546.457703	146.460000
546.551331	146.520000
546.644958	146.700000
546.738586	147.020000
546.832214	146.640000
546.925842	146.560000
547.019409	146.860000
547.113098	146.460000
547.206665	146.020000
547.300354	146.260000
547.393921	146.420000
547.487549	146.460000
547.581177	146.420000
547.674805	146.640000
547.768433	146.080000
547.862061	146.220000
547.955627	145.540000
548.049316	146.100000
548.142883	146.400000
548.236572	147.260000
548.330139	147.240000
548.423767	147.220000
548.517456	146.580000
548.611023	146.540000
548.704651	145.520000
548.798279	145.400000
548.891907	145.940000
548.985474	146.260000
549.079163	146.340000
549.172729	146.680000
549.266357	146.200000
549.359985	146.140000
549.453613	145.360000
549.547180	145.120000
549.640869	145.680000
549.734436	146.040000
549.828064	146.160000
549.921631	146.580000
550.015320	146.160000
550.108887	146.180000
550.202515	146.060000
550.296143	145.920000
550.389771	146.120000
550.483337	146.340000
550.576965	145.980000
550.670593	146.360000
550.764221	146.380000
550.857849	146.120000
550.951477	145.900000
551.045105	145.620000
551.138672	145.260000
551.232300	144.980000
551.325928	145.620000
551.419556	146.160000
551.513123	146.520000
551.606750	146.480000
551.700378	146.480000
551.794006	146.060000
551.887573	145.640000
551.981201	146.060000
552.074768	146.140000
552.168457	145.900000
552.262024	146.720000
552.355652	146.680000
552.449219	146.600000
552.542847	146.700000
552.636475	146.800000
552.730103	145.900000
552.823669	146.080000
552.917297	145.520000
553.010864	145.180000
553.104553	145.460000
553.198181	145.220000
553.291748	145.820000
553.385376	146.340000
553.478943	146.200000
553.572571	146.320000
553.666199	146.740000
553.759827	146.000000
553.853394	145.420000
553.947021	145.860000
554.040588	145.700000
554.134216	145.820000
554.227783	146.600000
554.321411	147.100000
554.415039	146.440000
554.508667	146.360000
554.602234	146.500000
554.695862	145.580000
554.789429	145.460000
554.883057	146.200000
554.976624	146.160000
555.070251	145.940000
555.163818	146.260000
555.257507	146.480000
555.351074	146.120000
555.444702	147.120000
555.538330	146.840000
555.631897	147.460000
555.725525	147.180000
555.819092	147.240000
555.912720	146.140000
556.006287	146.560000
556.099915	146.040000
556.193481	145.900000
556.287109	146.160000
556.380676	146.240000
556.474304	146.220000
556.567871	146.260000
556.661499	146.160000
556.755066	146.140000
556.848694	146.140000
556.942261	146.080000
557.035889	146.340000
557.129517	146.560000
557.223145	146.860000
557.316711	147.180000
557.410339	147.400000
557.503906	146.920000
557.597473	147.140000
557.691040	146.760000
557.784668	146.800000
557.878296	146.520000
557.971863	146.800000
558.065491	146.380000
558.159058	146.200000
558.252686	146.680000
558.346252	147.440000
558.439880	147.020000
558.533447	146.980000
558.627075	146.820000
558.720642	146.280000
558.814270	145.420000
558.907837	145.720000
559.001465	145.680000
559.095032	146.700000
559.188660	146.920000
559.282227	146.540000
559.375854	147.020000
559.469360	146.940000
559.562988	146.560000
559.656555	146.300000
559.750183	146.580000
559.843750	146.460000
559.937378	146.600000
560.030945	146.240000
560.124573	0.000000
560.218140	0.000000
560.311707	0.000000
560.405334	0.000000
560.498901	0.000000
560.592529	0.000000
560.686096	0.000000
560.779724	0.000000
560.873291	0.000000
560.966858	0.000000
561.060425	0.000000
561.154053	0.000000
561.247620	0.000000
561.341248	0.000000
561.434814	0.000000
561.528381	0.000000
561.621948	0.000000
561.715576	0.000000
561.809143	0.000000
561.902771	0.000000
561.996277	0.000000
562.089905	0.000000
562.183472	0.000000
562.277100	0.000000
