Model Number: SPM-002-B   
Serial Number: 70087108
Firmware Version: 004.15.4
Exposure Time: 100000.000000us
Data Taken on: 11-12-2020 18:50:36.930
Wavelength	Amplitude
221.570786	0.000000
221.663406	0.000000
221.756027	0.000000
221.848648	0.000000
221.941269	0.000000
222.033905	0.000000
222.126526	0.000000
222.219162	0.000000
222.311798	0.000000
222.404419	0.000000
222.497055	0.000000
222.589676	0.000000
222.682312	0.000000
222.774933	0.000000
222.867569	0.000000
222.960205	0.000000
223.052841	0.000000
223.145462	0.000000
223.238098	0.000000
223.330734	0.000000
223.423386	0.000000
223.516022	0.000000
223.608658	0.000000
223.701309	0.000000
223.793945	0.000000
223.886581	0.000000
223.979218	0.000000
224.071869	0.000000
224.164505	0.000000
224.257156	0.000000
224.349792	0.000000
224.442444	0.000000
224.535095	0.000000
224.627747	0.000000
224.720398	0.000000
224.813034	0.000000
224.905685	0.000000
224.998337	145.000000
225.090988	144.840000
225.183640	144.940000
225.276291	144.400000
225.368942	145.180000
225.461594	145.580000
225.554245	145.980000
225.646912	145.780000
225.739578	146.840000
225.832230	146.840000
225.924896	146.140000
226.017548	145.920000
226.110199	146.580000
226.202866	145.740000
226.295532	145.740000
226.388184	145.860000
226.480850	145.920000
226.573517	145.200000
226.666168	145.460000
226.758835	145.800000
226.851501	146.460000
226.944183	146.380000
227.036850	145.980000
227.129517	145.800000
227.222183	145.580000
227.314850	145.460000
227.407516	145.620000
227.500198	146.500000
227.592865	146.440000
227.685532	146.200000
227.778214	145.940000
227.870880	146.240000
227.963562	146.600000
228.056229	147.120000
228.148926	146.860000
228.241592	147.680000
228.334274	147.400000
228.426956	146.900000
228.519638	146.540000
228.612305	146.340000
228.704987	146.080000
228.797668	146.000000
228.890350	145.800000
228.983032	145.680000
229.075714	146.640000
229.168396	146.180000
229.261108	145.900000
229.353790	146.000000
229.446472	145.900000
229.539169	145.180000
229.631851	144.820000
229.724533	144.980000
229.817230	145.300000
229.909912	146.340000
230.002609	146.400000
230.095306	146.500000
230.187988	146.600000
230.280685	146.380000
230.373383	145.220000
230.466095	145.220000
230.558792	145.740000
230.651474	145.640000
230.744171	145.400000
230.836868	145.460000
230.929581	145.760000
231.022278	145.600000
231.114975	145.940000
231.207672	145.760000
231.300369	146.480000
231.393082	146.540000
231.485779	146.340000
231.578506	146.040000
231.671204	146.420000
231.763916	145.780000
231.856613	145.720000
231.949326	145.880000
232.042023	146.000000
232.134735	145.700000
232.227448	145.540000
232.320160	145.780000
232.412872	145.660000
232.505585	146.340000
232.598297	146.660000
232.691010	146.820000
232.783722	146.520000
232.876450	146.960000
232.969162	146.060000
233.061874	145.760000
233.154587	145.480000
233.247314	145.420000
233.340027	144.900000
233.432739	145.620000
233.525467	145.280000
233.618179	145.720000
233.710907	145.400000
233.803635	146.160000
233.896347	145.940000
233.989090	146.960000
234.081818	146.900000
234.174545	147.260000
234.267258	146.460000
234.359985	146.500000
234.452713	146.000000
234.545441	145.860000
234.638168	145.440000
234.730896	146.180000
234.823639	145.780000
234.916367	146.200000
235.009094	146.200000
235.101822	146.380000
235.194580	146.160000
235.287308	146.480000
235.380051	145.860000
235.472778	146.320000
235.565521	146.620000
235.658249	146.180000
235.750992	145.980000
235.843719	146.020000
235.936462	145.920000
236.029205	145.480000
236.121948	145.240000
236.214691	145.700000
236.307449	146.480000
236.400192	146.140000
236.492935	145.960000
236.585678	146.380000
236.678421	146.100000
236.771164	145.540000
236.863907	146.120000
236.956665	146.580000
237.049408	147.900000
237.142151	147.480000
237.234909	148.020000
237.327652	147.600000
237.420410	147.660000
237.513153	146.680000
237.605927	146.520000
237.698669	146.060000
237.791428	145.860000
237.884186	146.080000
237.976944	145.400000
238.069702	145.980000
238.162445	145.560000
238.255203	145.740000
238.347961	146.040000
238.440720	146.520000
238.533478	146.440000
238.626266	146.440000
238.719025	146.500000
238.811783	146.280000
238.904541	145.960000
238.997314	145.800000
239.090073	145.360000
239.182831	145.820000
239.275604	146.160000
239.368362	146.220000
239.461136	146.480000
239.553909	146.860000
239.646667	146.500000
239.739441	146.040000
239.832214	146.140000
239.925003	146.280000
240.017761	146.960000
240.110535	147.140000
240.203308	146.600000
240.296082	146.740000
240.388855	146.300000
240.481628	146.160000
240.574417	146.220000
240.667191	146.540000
240.759964	146.060000
240.852737	146.140000
240.945526	145.840000
241.038315	145.420000
241.131088	145.560000
241.223877	145.880000
241.316650	145.480000
241.409439	146.060000
241.502228	145.880000
241.595001	146.100000
241.687790	146.260000
241.780579	146.660000
241.873367	146.460000
241.966141	146.440000
242.058929	145.820000
242.151718	145.700000
242.244507	146.060000
242.337311	145.680000
242.430099	146.460000
242.522903	147.160000
242.615692	146.960000
242.708481	146.920000
242.801270	147.240000
242.894073	147.040000
242.986862	146.820000
243.079651	147.480000
243.172455	146.740000
243.265244	146.940000
243.358063	146.360000
243.450867	146.660000
243.543655	146.240000
243.636459	146.900000
243.729263	146.860000
243.822067	147.340000
243.914856	147.480000
244.007660	147.640000
244.100464	147.420000
244.193268	146.900000
244.286072	146.700000
244.378876	146.280000
244.471680	145.800000
244.564499	145.980000
244.657318	146.640000
244.750122	146.840000
244.842926	146.300000
244.935745	146.920000
245.028549	146.520000
245.121368	145.820000
245.214172	145.520000
245.306992	146.160000
245.399796	145.540000
245.492615	145.760000
245.585434	145.980000
245.678253	146.260000
245.771072	146.100000
245.863892	146.460000
245.956711	146.860000
246.049530	146.620000
246.142349	146.320000
246.235168	146.200000
246.327988	146.840000
246.420807	146.200000
246.513626	146.380000
246.606445	146.180000
246.699280	146.140000
246.792099	145.620000
246.884918	145.680000
246.977753	145.360000
247.070587	145.780000
247.163422	145.860000
247.256241	145.940000
247.349075	146.120000
247.441895	146.400000
247.534729	146.220000
247.627563	146.180000
247.720383	146.500000
247.813217	146.660000
247.906052	146.620000
247.998886	146.520000
248.091736	146.220000
248.184570	145.480000
248.277405	145.400000
248.370239	146.320000
248.463074	147.220000
248.555908	147.900000
248.648743	148.020000
248.741592	148.040000
248.834427	147.060000
248.927261	146.060000
249.020111	146.000000
249.112946	146.520000
249.205795	146.060000
249.298630	146.220000
249.391495	146.180000
249.484344	145.620000
249.577179	145.540000
249.670029	145.840000
249.762878	146.340000
249.855728	146.640000
249.948563	146.840000
250.041412	146.260000
250.134262	146.560000
250.227112	146.480000
250.319962	146.520000
250.412827	146.580000
250.505692	146.460000
250.598541	145.960000
250.691391	145.120000
250.784241	145.260000
250.877106	145.440000
250.969955	145.440000
251.062805	146.520000
251.155670	147.600000
251.248520	147.240000
251.341385	147.240000
251.434235	147.400000
251.527100	146.660000
251.619965	146.160000
251.712814	147.000000
251.805695	146.900000
251.898560	147.040000
251.991425	147.360000
252.084290	147.720000
252.177155	146.680000
252.270020	146.680000
252.362885	146.620000
252.455750	146.620000
252.548615	145.980000
252.641479	146.440000
252.734360	146.260000
252.827240	146.000000
252.920105	145.900000
253.012970	145.860000
253.105850	145.620000
253.198715	145.320000
253.291595	145.420000
253.384460	144.900000
253.477341	144.980000
253.570221	144.980000
253.663086	145.000000
253.755966	145.580000
253.848846	145.720000
253.941727	146.020000
254.034592	145.780000
254.127472	145.420000
254.220367	145.400000
254.313248	145.600000
254.406128	145.380000
254.499008	145.840000
254.591904	146.840000
254.684784	146.880000
254.777664	146.780000
254.870544	146.380000
254.963440	146.520000
255.056335	146.420000
255.149216	146.160000
255.242111	146.640000
255.334991	147.360000
255.427887	147.580000
255.520767	147.520000
255.613663	147.680000
255.706558	146.900000
255.799438	146.440000
255.892334	145.980000
255.985229	145.520000
256.078125	145.260000
256.171021	145.580000
256.263916	145.780000
256.356812	146.080000
256.449707	146.340000
256.542603	146.040000
256.635498	146.400000
256.728394	146.320000
256.821289	145.640000
256.914215	146.120000
257.007080	146.700000
257.100006	146.580000
257.192932	146.940000
257.285828	147.660000
257.378723	147.160000
257.471619	146.840000
257.564545	146.200000
257.657440	146.060000
257.750336	146.080000
257.843262	145.840000
257.936157	146.900000
258.029053	147.300000
258.121979	147.100000
258.214874	146.700000
258.307800	146.560000
258.400696	145.420000
258.493622	145.540000
258.586517	145.040000
258.679443	145.500000
258.772339	145.280000
258.865265	145.220000
258.958160	144.840000
259.051086	145.880000
259.144012	145.440000
259.236938	146.420000
259.329834	146.560000
259.422791	146.580000
259.515717	145.920000
259.608612	145.740000
259.701538	145.740000
259.794464	145.580000
259.887390	145.460000
259.980316	145.420000
260.073212	145.380000
260.166138	144.520000
260.259064	144.680000
260.351990	145.620000
260.444916	145.500000
260.537842	146.060000
260.630768	147.020000
260.723694	146.980000
260.816620	146.360000
260.909546	146.560000
261.002472	146.220000
261.095398	145.320000
261.188354	145.340000
261.281281	144.840000
261.374207	144.800000
261.467133	145.360000
261.560089	146.060000
261.653015	146.060000
261.745972	147.000000
261.838867	147.340000
261.931824	147.200000
262.024780	146.260000
262.117706	146.240000
262.210663	146.340000
262.303589	146.260000
262.396515	146.100000
262.489471	147.300000
262.582397	147.300000
262.675354	146.380000
262.768280	146.340000
262.861237	146.200000
262.954163	145.800000
263.047119	146.000000
263.140045	146.040000
263.233002	146.040000
263.325958	146.160000
263.418884	146.120000
263.511841	145.980000
263.604797	146.380000
263.697723	146.360000
263.790680	146.220000
263.883636	146.440000
263.976593	146.400000
264.069550	146.220000
264.162476	145.760000
264.255463	145.740000
264.348419	145.400000
264.441376	145.540000
264.534332	145.180000
264.627289	145.500000
264.720245	145.820000
264.813202	145.360000
264.906158	145.380000
264.999115	146.120000
265.092072	146.060000
265.185028	146.500000
265.277985	146.980000
265.370941	146.940000
265.463898	146.640000
265.556854	146.600000
265.649811	145.680000
265.742798	146.000000
265.835754	146.100000
265.928711	146.660000
266.021667	146.640000
266.114655	147.260000
266.207611	147.020000
266.300568	146.220000
266.393585	145.460000
266.486511	145.720000
266.579498	144.880000
266.672485	144.700000
266.765442	144.940000
266.858429	145.500000
266.951385	145.240000
267.044342	145.760000
267.137329	145.940000
267.230316	146.660000
267.323273	146.220000
267.416260	146.940000
267.509216	146.600000
267.602203	146.360000
267.695160	146.500000
267.788147	146.660000
267.881134	145.660000
267.974091	145.820000
268.067078	145.640000
268.160065	145.220000
268.253052	145.020000
268.346008	145.440000
268.438995	145.060000
268.531982	145.380000
268.624969	145.100000
268.717987	145.620000
268.810944	145.420000
268.903961	145.800000
268.996948	145.500000
269.089905	146.000000
269.182892	145.840000
269.275879	146.320000
269.368866	145.960000
269.461853	146.360000
269.554871	146.120000
269.647858	145.920000
269.740845	145.960000
269.833832	146.680000
269.926819	146.360000
270.019806	146.700000
270.112793	146.720000
270.205811	146.500000
270.298798	146.120000
270.391785	146.800000
270.484772	146.260000
270.577789	146.040000
270.670776	145.780000
270.763763	145.780000
270.856750	145.700000
270.949768	145.640000
271.042786	145.780000
271.135773	145.880000
271.228790	146.100000
271.321808	145.480000
271.414795	145.240000
271.507782	144.980000
271.600800	144.820000
271.693817	144.920000
271.786804	145.320000
271.879822	145.840000
271.972809	145.820000
272.065826	146.200000
272.158844	145.660000
272.251831	146.300000
272.344849	146.080000
272.437866	145.900000
272.530853	145.900000
272.623871	145.980000
272.716888	144.560000
272.809906	145.040000
272.902893	145.420000
272.995911	145.020000
273.088928	145.200000
273.181946	145.740000
273.274963	145.140000
273.367981	145.080000
273.460999	145.460000
273.554047	145.780000
273.647003	146.420000
273.740051	146.340000
273.833069	146.460000
273.926086	146.380000
274.019135	145.940000
274.112152	145.420000
274.205170	145.640000
274.298187	146.080000
274.391205	145.760000
274.484222	146.020000
274.577240	146.140000
274.670258	146.140000
274.763306	145.660000
274.856323	145.980000
274.949341	146.160000
275.042358	146.460000
275.135406	146.440000
275.228424	146.620000
275.321442	146.520000
275.414490	146.000000
275.507507	146.000000
275.600525	146.580000
275.693573	146.420000
275.786591	145.820000
275.879669	146.080000
275.972656	145.580000
276.065735	144.780000
276.158752	145.040000
276.251801	146.180000
276.344818	146.460000
276.437866	146.800000
276.530884	146.980000
276.623932	146.360000
276.716980	146.640000
276.809998	146.320000
276.903046	146.160000
276.996094	146.920000
277.089111	147.760000
277.182159	147.500000
277.275208	147.240000
277.368256	147.120000
277.461304	146.720000
277.554321	145.960000
277.647369	145.640000
277.740417	145.640000
277.833466	145.780000
277.926514	145.300000
278.019562	146.240000
278.112610	145.980000
278.205688	146.280000
278.298706	146.240000
278.391785	146.140000
278.484833	145.240000
278.577881	145.060000
278.670929	145.500000
278.763977	145.580000
278.857025	146.200000
278.950073	146.440000
279.043121	146.300000
279.136169	145.760000
279.229248	145.520000
279.322296	145.520000
279.415344	145.200000
279.508392	145.200000
279.601440	145.220000
279.694519	145.080000
279.787567	144.480000
279.880615	144.600000
279.973694	144.760000
280.066742	144.880000
280.159790	145.320000
280.252869	145.100000
280.345917	145.260000
280.438995	145.480000
280.532074	145.200000
280.625122	145.420000
280.718201	146.740000
280.811279	146.840000
280.904327	146.940000
280.997406	147.420000
281.090454	147.420000
281.183533	146.660000
281.276581	146.420000
281.369659	146.420000
281.462738	146.380000
281.555786	146.180000
281.648865	146.080000
281.741943	146.200000
281.835022	146.600000
281.928070	146.060000
282.021149	145.840000
282.114227	145.920000
282.207306	145.800000
282.300385	145.880000
282.393433	146.220000
282.486511	146.480000
282.579590	147.040000
282.672668	147.640000
282.765747	147.060000
282.858856	146.900000
282.951904	146.780000
283.045013	146.740000
283.138062	146.740000
283.231171	146.860000
283.324249	147.420000
283.417328	147.560000
283.510406	146.880000
283.603485	146.560000
283.696564	146.400000
283.789642	146.060000
283.882751	145.780000
283.975830	146.840000
284.068909	146.700000
284.161987	147.380000
284.255066	147.160000
284.348175	147.500000
284.441254	147.080000
284.534332	147.640000
284.627441	146.940000
284.720520	146.700000
284.813599	146.700000
284.906708	146.320000
284.999786	145.420000
285.092896	145.260000
285.185974	146.320000
285.279053	145.720000
285.372192	145.780000
285.465240	146.480000
285.558380	146.380000
285.651459	145.700000
285.744568	146.680000
285.837677	146.220000
285.930756	146.120000
286.023865	146.260000
286.116943	146.160000
286.210052	145.960000
286.303162	145.980000
286.396240	146.120000
286.489349	145.960000
286.582458	146.300000
286.675568	145.740000
286.768646	146.000000
286.861755	145.880000
286.954865	146.460000
287.047974	145.840000
287.141083	145.840000
287.234161	145.680000
287.327271	145.480000
287.420380	145.760000
287.513519	145.600000
287.606598	145.580000
287.699738	145.640000
287.792816	145.640000
287.885956	145.340000
287.979034	145.580000
288.072174	145.820000
288.165283	146.060000
288.258392	146.360000
288.351501	145.600000
288.444611	145.880000
288.537720	146.260000
288.630859	146.000000
288.723969	145.840000
288.817078	146.760000
288.910187	146.960000
289.003296	146.340000
289.096436	146.100000
289.189545	145.960000
289.282654	145.440000
289.375763	145.460000
289.468903	145.920000
289.562012	146.420000
289.655121	146.280000
289.748260	146.320000
289.841400	146.600000
289.934509	146.340000
290.027649	146.400000
290.120728	146.640000
290.213898	146.840000
290.306976	146.440000
290.400146	146.500000
290.493256	146.000000
290.586395	146.120000
290.679535	146.260000
290.772644	146.080000
290.865784	145.320000
290.958893	145.540000
291.052032	145.080000
291.145172	144.920000
291.238281	144.620000
291.331421	145.200000
291.424561	145.640000
291.517670	145.820000
291.610809	145.960000
291.703949	146.180000
291.797089	146.460000
291.890228	146.100000
291.983337	145.940000
292.076477	145.580000
292.169617	145.980000
292.262756	145.820000
292.355927	145.660000
292.449036	145.460000
292.542206	145.780000
292.635315	145.560000
292.728485	145.700000
292.821625	145.500000
292.914764	146.940000
293.007904	147.100000
293.101044	147.300000
293.194183	147.080000
293.287323	147.400000
293.380463	146.440000
293.473602	145.900000
293.566742	145.880000
293.659882	146.300000
293.753021	146.600000
293.846191	146.380000
293.939331	145.940000
294.032471	145.780000
294.125610	145.400000
294.218781	145.580000
294.311920	146.280000
294.405060	147.000000
294.498230	146.900000
294.591370	146.880000
294.684540	146.140000
294.777679	145.380000
294.870850	145.660000
294.963959	145.680000
295.057159	145.740000
295.150299	146.280000
295.243469	146.340000
295.336609	145.540000
295.429779	145.680000
295.522919	145.800000
295.616089	145.680000
295.709229	146.400000
295.802399	146.980000
295.895569	146.740000
295.988708	146.580000
296.081879	146.760000
296.175018	146.020000
296.268188	146.060000
296.361359	146.580000
296.454529	146.700000
296.547668	146.740000
296.640839	147.160000
296.734009	146.580000
296.827179	146.700000
296.920319	146.980000
297.013519	146.560000
297.106659	146.700000
297.199860	147.100000
297.292999	146.680000
297.386200	146.060000
297.479309	145.920000
297.572510	145.700000
297.665680	145.260000
297.758850	145.480000
297.852020	145.680000
297.945190	145.840000
298.038361	145.520000
298.131531	146.780000
298.224701	146.260000
298.317871	145.880000
298.411072	145.400000
298.504242	145.420000
298.597412	144.560000
298.690582	145.000000
298.783752	145.640000
298.876923	146.400000
298.970093	146.260000
299.063293	146.500000
299.156464	146.600000
299.249634	146.380000
299.342834	146.300000
299.436005	146.880000
299.529205	146.500000
299.622345	146.340000
299.715576	145.840000
299.808716	145.620000
299.901917	145.300000
299.995117	145.620000
300.088287	145.800000
300.181488	146.080000
300.274658	146.060000
300.367828	146.040000
300.461029	146.000000
300.554199	146.040000
300.647400	146.000000
300.740601	146.560000
300.833771	146.560000
300.926971	147.040000
301.020142	146.340000
301.113342	146.120000
301.206512	145.700000
301.299713	146.000000
301.392914	145.540000
301.486084	146.060000
301.579285	146.480000
301.672516	146.900000
301.765686	146.420000
301.858887	146.220000
301.952057	146.080000
302.045288	146.060000
302.138458	145.800000
302.231659	145.760000
302.324860	145.860000
302.418060	145.780000
302.511261	145.600000
302.604462	145.900000
302.697662	146.080000
302.790863	146.200000
302.884064	145.820000
302.977264	145.920000
303.070465	145.780000
303.163666	146.320000
303.256866	146.480000
303.350067	146.580000
303.443268	146.520000
303.536469	146.760000
303.629669	146.220000
303.722870	146.280000
303.816071	146.280000
303.909271	146.380000
304.002472	145.160000
304.095673	144.960000
304.188934	144.020000
304.282104	145.080000
304.375336	145.080000
304.468506	145.700000
304.561768	145.640000
304.654968	146.480000
304.748169	145.880000
304.841370	145.640000
304.934601	145.800000
305.027802	145.640000
305.121002	145.200000
305.214233	145.120000
305.307434	145.340000
305.400665	145.740000
305.493866	146.040000
305.587097	146.500000
305.680298	146.300000
305.773499	146.760000
305.866730	146.500000
305.959930	146.860000
306.053162	147.040000
306.146393	146.860000
306.239594	145.820000
306.332825	145.520000
306.426025	145.680000
306.519287	145.040000
306.612488	145.180000
306.705719	145.780000
306.798920	145.900000
306.892181	145.240000
306.985352	145.200000
307.078613	144.860000
307.171844	145.040000
307.265045	144.960000
307.358276	144.840000
307.451508	145.380000
307.544739	145.980000
307.637970	145.440000
307.731201	145.340000
307.824402	146.120000
307.917633	146.140000
308.010864	146.600000
308.104095	147.140000
308.197327	147.480000
308.290558	147.400000
308.383789	146.840000
308.477020	146.180000
308.570251	145.420000
308.663483	144.900000
308.756714	144.460000
308.849976	144.740000
308.943176	145.420000
309.036438	145.620000
309.129639	145.380000
309.222900	145.500000
309.316101	145.400000
309.409393	144.720000
309.502625	144.660000
309.595856	145.080000
309.689087	145.100000
309.782318	144.920000
309.875580	145.140000
309.968811	145.480000
310.062042	145.440000
310.155273	145.360000
310.248535	145.920000
310.341766	145.680000
310.434998	145.260000
310.528259	145.000000
310.621490	145.520000
310.714722	144.700000
310.807983	144.700000
310.901215	144.900000
310.994476	145.240000
311.087708	144.620000
311.181000	145.120000
311.274200	144.880000
311.367462	145.160000
311.460693	144.960000
311.553986	145.620000
311.647186	145.840000
311.740479	146.720000
311.833710	146.180000
311.926971	146.160000
312.020203	145.400000
312.113464	145.040000
312.206726	144.320000
312.299957	144.780000
312.393219	145.340000
312.486481	145.500000
312.579712	145.600000
312.672974	145.640000
312.766235	145.720000
312.859497	145.260000
312.952759	145.540000
313.045990	146.500000
313.139252	146.400000
313.232513	146.520000
313.325775	147.040000
313.419037	146.720000
313.512299	145.340000
313.605530	145.980000
313.698822	145.940000
313.792053	145.780000
313.885345	145.620000
313.978577	146.220000
314.071869	145.620000
314.165131	145.380000
314.258392	145.540000
314.351654	145.800000
314.444916	145.120000
314.538177	145.840000
314.631439	146.340000
314.724701	145.880000
314.817993	145.800000
314.911255	146.520000
315.004517	145.620000
315.097778	145.200000
315.191040	145.520000
315.284302	145.960000
315.377594	145.500000
315.470856	145.800000
315.564117	145.540000
315.657379	145.080000
315.750671	144.460000
315.843933	145.080000
315.937195	144.800000
316.030518	144.760000
316.123749	145.060000
316.217041	145.840000
316.310303	145.500000
316.403595	146.020000
316.496857	146.380000
316.590149	146.380000
316.683411	145.740000
316.776703	145.660000
316.869965	145.480000
316.963257	145.520000
317.056519	144.920000
317.149811	145.000000
317.243073	145.240000
317.336365	145.440000
317.429626	145.720000
317.522919	146.360000
317.616180	146.420000
317.709473	146.220000
317.802765	146.120000
317.896027	145.780000
317.989319	146.280000
318.082611	146.240000
318.175873	146.100000
318.269165	145.920000
318.362488	146.020000
318.455750	145.260000
318.549042	145.580000
318.642303	146.180000
318.735626	146.040000
318.828888	146.000000
318.922211	146.060000
319.015472	146.560000
319.108765	145.860000
319.202057	145.820000
319.295349	145.840000
319.388641	145.860000
319.481934	145.100000
319.575226	145.020000
319.668518	145.420000
319.761810	145.580000
319.855103	145.760000
319.948395	146.000000
320.041687	146.380000
320.134979	146.280000
320.228271	146.060000
320.321564	145.940000
320.414856	145.880000
320.508148	145.460000
320.601440	145.300000
320.694763	145.180000
320.788025	145.700000
320.881348	145.640000
320.974640	145.680000
321.067963	145.300000
321.161224	145.760000
321.254547	145.020000
321.347839	145.700000
321.441162	145.840000
321.534454	146.180000
321.627747	145.640000
321.721069	146.500000
321.814362	145.900000
321.907654	145.880000
322.000946	145.920000
322.094269	146.480000
322.187561	145.700000
322.280884	146.140000
322.374176	146.380000
322.467468	146.840000
322.560791	146.580000
322.654083	147.040000
322.747406	146.940000
322.840698	146.760000
322.934021	146.780000
323.027344	146.880000
323.120636	146.840000
323.213959	146.520000
323.307251	146.380000
323.400574	145.980000
323.493866	145.520000
323.587219	145.380000
323.680511	145.960000
323.773834	146.040000
323.867157	146.220000
323.960449	146.640000
324.053772	146.680000
324.147095	146.300000
324.240387	146.780000
324.333710	146.760000
324.427032	146.520000
324.520355	146.520000
324.613647	146.120000
324.706970	145.860000
324.800293	145.540000
324.893616	145.880000
324.986938	145.940000
325.080231	145.800000
325.173553	146.200000
325.266876	146.880000
325.360199	146.720000
325.453522	146.300000
325.546875	146.280000
325.640167	146.220000
325.733521	146.080000
325.826813	146.300000
325.920166	146.200000
326.013489	146.140000
326.106812	145.280000
326.200134	144.600000
326.293457	144.100000
326.386780	144.400000
326.480103	144.380000
326.573425	144.500000
326.666748	144.920000
326.760071	145.400000
326.853424	145.400000
326.946747	145.720000
327.040070	146.320000
327.133392	146.020000
327.226715	145.400000
327.320068	145.340000
327.413391	145.860000
327.506714	145.260000
327.600037	145.320000
327.693390	145.680000
327.786713	145.540000
327.880066	144.980000
327.973358	145.100000
328.066742	145.680000
328.160034	145.660000
328.253418	145.960000
328.346710	145.840000
328.440063	145.680000
328.533417	145.160000
328.626740	145.420000
328.720093	145.220000
328.813416	145.220000
328.906769	145.300000
329.000092	145.720000
329.093445	145.480000
329.186768	145.380000
329.280121	146.060000
329.373444	146.300000
329.466797	146.080000
329.560120	146.240000
329.653473	146.480000
329.746796	145.620000
329.840149	145.740000
329.933502	145.540000
330.026825	145.080000
330.120178	144.600000
330.213562	144.860000
330.306854	144.520000
330.400238	144.460000
330.493561	144.380000
330.586945	145.240000
330.680237	145.400000
330.773621	145.780000
330.866974	146.020000
330.960327	146.520000
331.053680	146.100000
331.147003	146.180000
331.240356	146.160000
331.333710	146.000000
331.427063	145.760000
331.520416	145.600000
331.613770	145.440000
331.707123	145.600000
331.800476	146.000000
331.893829	146.680000
331.987152	146.900000
332.080505	147.000000
332.173859	146.820000
332.267212	146.140000
332.360565	145.420000
332.453918	145.380000
332.547333	145.200000
332.640656	145.300000
332.734039	145.920000
332.827362	145.940000
332.920746	146.140000
333.014069	146.180000
333.107452	146.440000
333.200806	146.360000
333.294159	146.420000
333.387543	145.940000
333.480896	145.620000
333.574249	145.160000
333.667603	144.900000
333.760956	145.200000
333.854340	145.320000
333.947693	145.640000
334.041046	146.020000
334.134430	146.340000
334.227783	145.900000
334.321136	145.900000
334.414520	145.580000
334.507874	145.260000
334.601227	145.000000
334.694611	144.940000
334.787964	145.040000
334.881348	145.700000
334.974701	145.720000
335.068085	145.580000
335.161438	146.240000
335.254822	145.980000
335.348175	145.620000
335.441559	145.620000
335.534943	146.340000
335.628296	145.900000
335.721680	146.180000
335.815033	146.460000
335.908417	146.640000
336.001770	146.300000
336.095154	146.260000
336.188538	146.160000
336.281891	145.720000
336.375275	145.180000
336.468658	145.080000
336.562012	145.280000
336.655396	145.740000
336.748779	145.980000
336.842133	146.240000
336.935516	146.320000
337.028900	146.120000
337.122284	145.660000
337.215637	146.100000
337.309021	146.220000
337.402435	145.880000
337.495789	145.840000
337.589203	145.760000
337.682526	145.140000
337.775940	145.180000
337.869324	145.400000
337.962708	145.040000
338.056091	145.580000
338.149475	145.460000
338.242859	145.480000
338.336243	144.960000
338.429626	145.380000
338.523010	145.040000
338.616394	145.080000
338.709778	145.180000
338.803162	145.640000
338.896545	145.820000
338.989929	145.620000
339.083313	145.920000
339.176697	145.500000
339.270081	145.280000
339.363464	145.260000
339.456848	145.620000
339.550232	145.240000
339.643616	145.340000
339.737030	145.560000
339.830383	145.440000
339.923828	145.340000
340.017181	145.340000
340.110596	145.640000
340.203949	145.320000
340.297363	144.920000
340.390778	145.020000
340.484161	145.040000
340.577545	144.780000
340.670959	145.260000
340.764343	145.480000
340.857727	145.380000
340.951111	145.120000
341.044525	145.420000
341.137909	144.980000
341.231293	144.800000
341.324707	144.480000
341.418091	145.600000
341.511505	145.360000
341.604889	145.680000
341.698303	146.160000
341.791687	146.300000
341.885071	145.380000
341.978485	145.360000
342.071899	145.480000
342.165283	145.760000
342.258698	146.140000
342.352081	146.860000
342.445496	147.360000
342.538879	146.900000
342.632324	146.520000
342.725708	146.200000
342.819122	145.620000
342.912506	145.300000
343.005920	145.420000
343.099335	146.020000
343.192719	145.940000
343.286133	146.000000
343.379547	146.220000
343.472931	146.380000
343.566345	145.600000
343.659760	145.960000
343.753143	145.740000
343.846558	145.380000
343.939972	145.340000
344.033386	146.180000
344.126770	146.020000
344.220184	146.180000
344.313599	146.440000
344.407043	146.440000
344.500427	145.840000
344.593872	146.120000
344.687225	145.880000
344.780670	145.460000
344.874054	145.560000
344.967499	146.060000
345.060913	145.800000
345.154327	146.060000
345.247742	146.140000
345.341156	145.780000
345.434570	144.920000
345.527985	144.900000
345.621399	144.960000
345.714813	144.980000
345.808228	145.480000
345.901642	145.420000
345.995056	145.080000
346.088470	145.320000
346.181885	145.580000
346.275299	145.340000
346.368713	145.280000
346.462128	145.400000
346.555573	145.220000
346.648987	145.020000
346.742401	144.960000
346.835815	145.620000
346.929260	145.500000
347.022644	145.460000
347.116119	145.940000
347.209503	146.260000
347.302948	146.960000
347.396362	147.720000
347.489807	147.880000
347.583221	147.840000
347.676636	147.340000
347.770050	145.960000
347.863495	145.320000
347.956909	145.400000
348.050323	144.540000
348.143768	144.820000
348.237183	144.720000
348.330597	145.160000
348.424042	145.100000
348.517456	145.920000
348.610901	146.060000
348.704315	146.400000
348.797760	145.520000
348.891174	145.080000
348.984619	144.520000
349.078033	144.680000
349.171448	145.280000
349.264923	145.680000
349.358337	145.660000
349.451782	145.860000
349.545197	145.200000
349.638641	144.520000
349.732086	144.040000
349.825500	144.700000
349.918945	144.140000
350.012390	144.840000
350.105804	145.440000
350.199249	145.960000
350.292664	146.000000
350.386108	146.400000
350.479553	146.700000
350.572968	146.300000
350.666412	146.560000
350.759857	146.160000
350.853302	146.780000
350.946716	146.100000
351.040161	146.220000
351.133606	146.040000
351.227081	145.980000
351.320465	146.280000
351.413940	146.520000
351.507355	146.740000
351.600830	146.700000
351.694244	146.520000
351.787720	146.220000
351.881104	146.100000
351.974579	145.820000
352.067993	146.740000
352.161469	146.700000
352.254883	145.940000
352.348358	145.720000
352.441803	145.600000
352.535248	144.800000
352.628693	145.380000
352.722137	145.460000
352.815582	145.840000
352.909027	146.360000
353.002472	146.200000
353.095917	145.780000
353.189362	146.000000
353.282806	146.020000
353.376251	145.660000
353.469696	145.460000
353.563141	146.080000
353.656586	146.020000
353.750061	145.460000
353.843475	145.320000
353.936981	146.040000
354.030396	145.380000
354.123871	145.420000
354.217285	146.240000
354.310760	146.600000
354.404175	146.380000
354.497681	146.380000
354.591095	146.440000
354.684570	145.560000
354.777985	145.120000
354.871490	144.800000
354.964935	145.200000
355.058380	145.260000
355.151855	145.260000
355.245300	145.960000
355.338745	146.260000
355.432220	146.140000
355.525665	145.820000
355.619110	146.460000
355.712585	145.760000
355.806030	145.340000
355.899475	144.920000
355.992950	145.220000
356.086426	145.220000
356.179871	145.380000
356.273346	145.560000
356.366791	145.960000
356.460266	146.280000
356.553711	145.800000
356.647186	146.200000
356.740631	146.340000
356.834106	146.040000
356.927551	145.840000
357.021027	145.700000
357.114471	145.320000
357.207947	145.020000
357.301422	145.460000
357.394867	145.400000
357.488342	145.860000
357.581818	146.100000
357.675262	146.480000
357.768738	146.020000
357.862213	145.620000
357.955658	145.760000
358.049133	145.420000
358.142609	145.780000
358.236053	145.820000
358.329529	145.800000
358.423035	145.680000
358.516449	145.520000
358.609955	145.380000
358.703400	145.980000
358.796906	146.540000
358.890350	145.980000
358.983826	146.580000
359.077271	146.100000
359.170776	145.720000
359.264221	144.980000
359.357727	145.520000
359.451172	145.420000
359.544647	145.300000
359.638123	145.260000
359.731598	146.080000
359.825073	146.380000
359.918549	146.220000
360.012024	146.740000
360.105499	146.380000
360.198975	146.080000
360.292450	145.780000
360.385925	145.640000
360.479401	144.900000
360.572876	145.280000
360.666351	145.420000
360.759857	145.240000
360.853302	145.620000
360.946808	145.540000
361.040253	145.400000
361.133759	145.060000
361.227203	145.360000
361.320709	144.900000
361.414154	145.520000
361.507660	145.880000
361.601105	146.400000
361.694641	146.920000
361.788086	147.000000
361.881592	147.220000
361.975067	146.940000
362.068542	147.140000
362.162018	146.700000
362.255524	146.460000
362.348999	146.160000
362.442474	146.520000
362.535950	145.960000
362.629456	145.820000
362.722931	145.940000
362.816406	146.300000
362.909882	146.100000
363.003387	145.940000
363.096863	146.060000
363.190338	146.080000
363.283875	145.720000
363.377319	145.600000
363.470825	146.320000
363.564301	145.760000
363.657806	145.840000
363.751282	145.580000
363.844788	146.440000
363.938232	145.800000
364.031769	146.540000
364.125214	146.700000
364.218750	147.440000
364.312225	146.340000
364.405731	146.480000
364.499207	145.640000
364.592712	145.420000
364.686188	144.960000
364.779694	145.200000
364.873169	145.080000
364.966675	145.200000
365.060150	145.100000
365.153656	145.560000
365.247131	145.620000
365.340637	145.860000
365.434143	146.360000
365.527618	146.300000
365.621155	145.300000
365.714600	145.160000
365.808136	145.020000
365.901611	144.280000
365.995117	144.340000
366.088593	144.760000
366.182129	144.680000
366.275604	144.580000
366.369110	144.920000
366.462585	144.860000
366.556122	145.560000
366.649567	145.720000
366.743103	145.960000
366.836609	145.700000
366.930115	146.200000
367.023590	145.980000
367.117096	145.920000
367.210602	145.580000
367.304108	146.280000
367.397614	146.600000
367.491119	146.540000
367.584595	146.560000
367.678101	146.980000
367.771606	146.740000
367.865112	146.100000
367.958649	145.580000
368.052124	145.500000
368.145660	145.300000
368.239136	145.660000
368.332672	146.060000
368.426147	146.340000
368.519684	146.260000
368.613159	146.320000
368.706696	145.900000
368.800171	145.760000
368.893707	145.500000
368.987183	145.360000
369.080719	145.540000
369.174225	145.260000
369.267731	145.420000
369.361237	145.420000
369.454742	145.440000
369.548248	145.640000
369.641754	145.640000
369.735260	145.220000
369.828766	144.540000
369.922272	145.320000
370.015808	144.900000
370.109314	144.940000
370.202820	145.000000
370.296356	146.400000
370.389832	145.860000
370.483368	145.480000
370.576874	145.560000
370.670410	145.620000
370.763885	144.680000
370.857422	144.620000
370.950928	144.800000
371.044464	145.220000
371.137939	145.480000
371.231476	145.820000
371.324982	146.540000
371.418518	146.900000
371.512024	146.740000
371.605560	146.340000
371.699066	146.820000
371.792572	146.120000
371.886108	146.240000
371.979614	146.200000
372.073120	146.920000
372.166656	146.500000
372.260162	146.760000
372.353668	146.200000
372.447205	146.220000
372.540710	145.560000
372.634277	145.300000
372.727753	145.380000
372.821320	145.520000
372.914795	145.400000
373.008362	145.460000
373.101837	145.680000
373.195404	145.420000
373.288879	145.440000
373.382446	146.040000
373.475922	145.880000
373.569489	146.480000
373.662964	146.920000
373.756531	146.700000
373.850037	146.560000
373.943573	146.380000
374.037109	145.440000
374.130615	145.640000
374.224152	146.020000
374.317657	145.820000
374.411194	147.000000
374.504730	147.120000
374.598236	146.420000
374.691772	146.100000
374.785309	146.020000
374.878815	145.000000
374.972351	145.680000
375.065887	145.700000
375.159454	146.420000
375.252930	146.320000
375.346497	146.740000
375.440002	146.860000
375.533569	146.980000
375.627045	146.240000
375.720612	146.140000
375.814117	146.100000
375.907684	145.320000
376.001160	144.980000
376.094727	144.760000
376.188232	145.600000
376.281799	145.900000
376.375336	145.920000
376.468872	146.780000
376.562408	147.020000
376.655914	146.300000
376.749451	146.020000
376.842987	146.480000
376.936523	145.860000
377.030060	145.900000
377.123596	146.320000
377.217133	145.760000
377.310669	145.660000
377.404205	146.080000
377.497772	146.720000
377.591278	146.180000
377.684845	147.020000
377.778351	147.020000
377.871918	146.720000
377.965424	145.840000
378.058990	145.940000
378.152496	145.360000
378.246063	145.640000
378.339569	145.800000
378.433136	146.140000
378.526642	146.160000
378.620209	146.380000
378.713745	145.860000
378.807312	146.100000
378.900848	146.060000
378.994385	146.360000
379.087921	145.720000
379.181458	146.140000
379.274994	145.460000
379.368530	145.600000
379.462097	145.780000
379.555634	146.540000
379.649170	145.980000
379.742706	146.120000
379.836273	145.980000
379.929810	145.300000
380.023376	144.860000
380.116882	144.800000
380.210449	144.600000
380.303986	144.220000
380.397552	144.040000
380.491058	144.320000
380.584656	144.380000
380.678162	144.660000
380.771729	144.820000
380.865265	145.700000
380.958832	145.620000
381.052368	146.180000
381.145935	146.680000
381.239471	146.960000
381.333008	146.500000
381.426575	146.680000
381.520111	146.700000
381.613647	146.580000
381.707214	146.400000
381.800751	145.760000
381.894318	145.680000
381.987854	145.020000
382.081421	144.540000
382.174988	144.740000
382.268524	144.900000
382.362091	144.900000
382.455627	145.680000
382.549194	145.900000
382.642731	145.420000
382.736298	145.320000
382.829834	145.200000
382.923401	145.640000
383.016937	145.680000
383.110504	146.280000
383.204041	146.880000
383.297607	147.040000
383.391174	145.960000
383.484741	146.580000
383.578278	145.900000
383.671844	145.380000
383.765411	144.660000
383.858948	145.160000
383.952515	144.620000
384.046051	145.560000
384.139618	146.240000
384.233185	146.840000
384.326721	146.700000
384.420288	147.220000
384.513855	146.920000
384.607422	146.940000
384.700989	146.960000
384.794525	146.500000
384.888123	146.080000
384.981659	146.320000
385.075226	146.040000
385.168762	145.780000
385.262360	146.000000
385.355896	145.340000
385.449463	145.200000
385.542999	144.900000
385.636597	145.680000
385.730164	146.020000
385.823730	146.180000
385.917267	145.640000
386.010834	146.100000
386.104401	145.860000
386.197968	145.900000
386.291534	146.200000
386.385101	146.560000
386.478668	146.760000
386.572235	146.460000
386.665802	145.940000
386.759338	145.820000
386.852905	145.760000
386.946472	145.020000
387.040070	145.280000
387.133606	145.480000
387.227203	145.440000
387.320740	145.420000
387.414337	145.380000
387.507874	144.960000
387.601471	145.200000
387.695007	145.140000
387.788605	145.160000
387.882141	145.420000
387.975739	145.840000
388.069275	145.280000
388.162872	145.600000
388.256439	145.260000
388.350037	145.120000
388.443604	144.800000
388.537170	145.120000
388.630737	145.520000
388.724304	146.160000
388.817871	146.080000
388.911438	146.240000
389.005005	146.540000
389.098602	146.320000
389.192169	145.660000
389.285736	146.360000
389.379333	146.360000
389.472870	145.920000
389.566467	145.920000
389.660034	145.960000
389.753632	145.460000
389.847168	145.820000
389.940765	146.460000
390.034332	146.380000
390.127930	146.340000
390.221466	146.300000
390.315063	145.820000
390.408630	144.740000
390.502228	144.060000
390.595795	144.300000
390.689362	144.380000
390.782959	144.740000
390.876526	145.620000
390.970093	145.800000
391.063690	146.280000
391.157257	146.380000
391.250824	146.420000
391.344421	145.840000
391.437988	146.280000
391.531555	146.140000
391.625153	146.060000
391.718750	146.180000
391.812317	146.240000
391.905914	145.960000
391.999481	146.180000
392.093079	146.360000
392.186615	146.500000
392.280243	146.800000
392.373779	146.820000
392.467407	146.920000
392.560944	146.660000
392.654572	145.980000
392.748108	145.680000
392.841736	145.780000
392.935303	145.300000
393.028900	145.580000
393.122467	145.820000
393.216064	145.800000
393.309631	145.200000
393.403229	144.840000
393.496796	144.360000
393.590393	143.740000
393.683990	144.020000
393.777557	144.840000
393.871155	145.280000
393.964722	145.960000
394.058350	146.460000
394.151917	146.340000
394.245514	146.060000
394.339081	146.480000
394.432678	146.180000
394.526245	146.140000
394.619873	146.240000
394.713409	146.520000
394.807037	145.980000
394.900604	146.140000
394.994202	146.300000
395.087769	146.260000
395.181396	145.800000
395.274994	146.420000
395.368561	145.960000
395.462158	146.220000
395.555756	145.640000
395.649353	146.280000
395.742920	145.580000
395.836517	146.520000
395.930115	145.620000
396.023712	146.380000
396.117279	146.340000
396.210876	146.080000
396.304474	145.540000
396.398071	146.100000
396.491669	146.160000
396.585266	145.960000
396.678833	146.200000
396.772461	146.500000
396.866028	146.300000
396.959656	146.440000
397.053223	146.540000
397.146851	146.260000
397.240417	146.300000
397.334015	147.100000
397.427582	146.780000
397.521210	147.420000
397.614807	148.600000
397.708405	149.220000
397.802002	149.600000
397.895599	151.520000
397.989197	152.860000
398.082794	155.020000
398.176392	157.920000
398.269989	161.520000
398.363586	165.700000
398.457184	171.140000
398.550781	176.980000
398.644379	182.260000
398.737976	188.740000
398.831573	195.260000
398.925201	201.380000
399.018768	207.940000
399.112396	216.260000
399.205963	224.600000
399.299591	234.100000
399.393158	244.820000
399.486786	257.180000
399.580353	269.800000
399.673981	283.380000
399.767578	297.700000
399.861206	313.080000
399.954773	327.440000
400.048401	340.340000
400.141998	350.640000
400.235596	359.100000
400.329193	362.580000
400.422791	364.800000
400.516418	364.900000
400.610016	364.620000
400.703613	362.760000
400.797211	359.340000
400.890808	353.280000
400.984436	346.280000
401.078033	336.380000
401.171631	322.860000
401.265259	308.580000
401.358826	292.880000
401.452484	275.120000
401.546051	258.280000
401.639679	241.360000
401.733246	226.620000
401.826904	212.280000
401.920471	199.720000
402.014099	188.460000
402.107697	179.860000
402.201324	172.020000
402.294891	166.460000
402.388550	162.620000
402.482147	159.220000
402.575745	156.120000
402.669373	153.560000
402.762970	151.520000
402.856567	150.020000
402.950195	149.120000
403.043793	148.460000
403.137390	148.540000
403.231018	147.720000
403.324615	147.980000
403.418243	147.420000
403.511841	147.820000
403.605469	147.300000
403.699066	147.840000
403.792694	147.280000
403.886292	147.360000
403.979919	147.040000
404.073517	146.880000
404.167145	146.600000
404.260712	146.980000
404.354370	146.680000
404.447937	146.700000
404.541595	147.020000
404.635162	147.400000
404.728821	147.480000
404.822418	147.120000
404.916046	146.880000
405.009644	146.980000
405.103271	147.060000
405.196899	146.460000
405.290497	146.720000
405.384125	146.880000
405.477722	146.280000
405.571350	145.780000
405.664948	146.180000
405.758575	146.140000
405.852203	145.600000
405.945801	145.780000
406.039429	145.900000
406.133057	145.500000
406.226654	145.340000
406.320312	145.660000
406.413879	145.880000
406.507538	146.020000
406.601135	145.560000
406.694763	146.060000
406.788361	145.660000
406.882019	145.120000
406.975586	145.220000
407.069244	146.100000
407.162872	146.220000
407.256470	146.180000
407.350098	146.420000
407.443726	146.280000
407.537323	145.960000
407.630951	145.740000
407.724579	145.800000
407.818207	146.100000
407.911804	145.800000
408.005432	145.500000
408.099060	145.780000
408.192688	146.320000
408.286285	146.040000
408.379913	145.900000
408.473572	146.080000
408.567169	145.380000
408.660828	145.420000
408.754395	145.600000
408.848053	145.700000
408.941650	145.800000
409.035309	145.600000
409.128906	145.420000
409.222565	145.200000
409.316132	145.620000
409.409790	145.380000
409.503387	145.920000
409.597046	145.860000
409.690674	145.960000
409.784302	145.860000
409.877930	145.820000
409.971558	146.000000
410.065186	146.100000
410.158783	146.200000
410.252411	145.940000
410.346039	146.300000
410.439667	146.120000
410.533295	146.320000
410.626923	146.640000
410.720551	146.560000
410.814209	147.080000
410.907806	147.120000
411.001465	146.240000
411.095062	145.740000
411.188721	146.180000
411.282318	145.700000
411.375977	145.240000
411.469574	145.920000
411.563232	146.040000
411.656830	145.760000
411.750488	145.640000
411.844086	145.580000
411.937744	145.640000
412.031372	145.640000
412.125000	145.640000
412.218628	145.340000
412.312256	146.060000
412.405884	146.520000
412.499512	146.400000
412.593170	146.500000
412.686798	146.940000
412.780426	146.380000
412.874054	146.000000
412.967682	145.940000
413.061310	146.440000
413.154968	146.560000
413.248566	146.880000
413.342224	146.560000
413.435852	146.980000
413.529510	146.480000
413.623108	145.940000
413.716766	145.700000
413.810364	146.280000
413.904022	145.520000
413.997650	145.300000
414.091309	145.880000
414.184906	146.120000
414.278564	145.420000
414.372192	146.180000
414.465851	146.440000
414.559479	146.000000
414.653107	146.800000
414.746735	146.840000
414.840393	146.740000
414.934021	146.800000
415.027649	146.520000
415.121277	146.080000
415.214935	146.520000
415.308563	146.520000
415.402191	146.040000
415.495850	146.200000
415.589478	145.740000
415.683136	145.280000
415.776733	145.400000
415.870422	146.180000
415.964020	145.740000
416.057678	145.680000
416.151306	145.860000
416.244965	145.500000
416.338562	145.120000
416.432251	145.940000
416.525848	146.760000
416.619507	147.100000
416.713165	147.820000
416.806793	147.720000
416.900421	147.860000
416.994080	146.980000
417.087708	146.920000
417.181366	146.020000
417.274994	145.920000
417.368622	146.000000
417.462280	146.740000
417.555908	146.460000
417.649567	146.540000
417.743195	146.640000
417.836853	146.460000
417.930481	146.180000
418.024170	146.560000
418.117767	147.100000
418.211426	147.420000
418.305054	147.260000
418.398712	146.760000
418.492340	146.500000
418.585999	146.740000
418.679626	146.900000
418.773285	147.000000
418.866913	147.820000
418.960571	147.880000
419.054230	147.800000
419.147858	147.520000
419.241516	147.800000
419.335144	147.200000
419.428802	147.240000
419.522461	146.440000
419.616089	146.120000
419.709747	146.140000
419.803375	146.440000
419.897034	146.020000
419.990662	146.220000
420.084320	146.580000
420.177979	146.560000
420.271606	146.640000
420.365295	147.400000
420.458893	147.620000
420.552582	147.700000
420.646210	147.180000
420.739868	146.520000
420.833496	145.940000
420.927155	145.600000
421.020782	145.200000
421.114471	144.980000
421.208069	145.200000
421.301758	145.680000
421.395386	145.960000
421.489044	145.840000
421.582703	146.120000
421.676361	146.740000
421.769989	146.400000
421.863647	146.700000
421.957306	147.000000
422.050934	147.340000
422.144592	147.120000
422.238251	146.880000
422.331909	146.580000
422.425537	146.580000
422.519196	146.260000
422.612854	145.560000
422.706543	145.400000
422.800140	145.460000
422.893829	145.200000
422.987457	145.020000
423.081146	145.540000
423.174744	145.960000
423.268433	145.640000
423.362061	145.560000
423.455750	145.660000
423.549347	145.680000
423.643036	145.120000
423.736664	145.900000
423.830353	146.100000
423.924011	146.500000
424.017639	145.880000
424.111298	146.220000
424.204956	145.860000
424.298615	145.740000
424.392273	145.300000
424.485931	145.620000
424.579559	145.620000
424.673218	145.280000
424.766876	145.540000
424.860535	145.240000
424.954193	145.100000
425.047882	145.520000
425.141510	145.540000
425.235199	145.360000
425.328796	145.300000
425.422485	145.220000
425.516113	144.760000
425.609802	144.880000
425.703430	145.000000
425.797119	145.300000
425.890747	145.800000
425.984436	145.880000
426.078064	145.620000
426.171753	145.280000
426.265411	144.920000
426.359070	144.740000
426.452728	144.700000
426.546356	144.740000
426.640015	144.580000
426.733673	144.620000
426.827332	144.180000
426.920990	144.840000
427.014648	144.760000
427.108307	145.280000
427.201965	146.180000
427.295624	146.420000
427.389282	145.520000
427.482941	145.780000
427.576630	145.480000
427.670258	144.620000
427.763947	144.640000
427.857574	144.700000
427.951263	144.800000
428.044922	144.840000
428.138611	145.320000
428.232239	145.880000
428.325928	146.500000
428.419556	146.780000
428.513245	146.640000
428.606903	146.660000
428.700562	146.160000
428.794220	145.400000
428.887878	144.580000
428.981537	145.080000
429.075195	144.880000
429.168854	145.420000
429.262512	145.720000
429.356201	146.280000
429.449860	145.860000
429.543518	145.940000
429.637177	145.840000
429.730835	145.940000
429.824493	145.820000
429.918182	146.180000
430.011810	145.940000
430.105530	145.380000
430.199158	145.380000
430.292847	145.120000
430.386475	144.880000
430.480164	144.780000
430.573792	144.800000
430.667511	144.780000
430.761139	145.080000
430.854828	145.320000
430.948456	145.560000
431.042145	145.940000
431.135834	145.340000
431.229492	145.460000
431.323151	145.460000
431.416809	145.600000
431.510468	145.400000
431.604156	145.620000
431.697815	145.460000
431.791473	144.900000
431.885132	144.640000
431.978821	144.820000
432.072479	145.360000
432.166138	145.840000
432.259827	146.160000
432.353485	146.240000
432.447174	146.480000
432.540802	146.020000
432.634491	145.720000
432.728149	146.020000
432.821838	146.800000
432.915466	145.980000
433.009186	146.120000
433.102814	145.720000
433.196503	145.340000
433.290131	144.660000
433.383850	145.240000
433.477509	145.480000
433.571167	146.160000
433.664856	146.700000
433.758514	146.940000
433.852173	146.760000
433.945862	146.520000
434.039520	146.080000
434.133179	145.140000
434.226868	144.860000
434.320526	144.320000
434.414185	144.920000
434.507874	144.820000
434.601562	145.600000
434.695221	145.560000
434.788910	146.140000
434.882538	145.980000
434.976257	145.800000
435.069885	145.780000
435.163574	146.060000
435.257233	145.660000
435.350922	145.700000
435.444580	145.500000
435.538269	145.040000
435.631897	145.080000
435.725616	145.740000
435.819275	145.760000
435.912964	146.620000
436.006622	147.460000
436.100311	147.060000
436.193970	146.380000
436.287628	146.100000
436.381317	145.640000
436.474976	144.820000
436.568665	144.860000
436.662323	144.740000
436.756012	144.880000
436.849670	144.740000
436.943390	144.660000
437.037018	144.680000
437.130737	145.140000
437.224365	144.800000
437.318085	145.020000
437.411713	145.380000
437.505432	145.800000
437.599060	146.380000
437.692780	147.120000
437.786407	147.220000
437.880127	147.100000
437.973755	146.720000
438.067474	145.900000
438.161133	145.740000
438.254822	146.020000
438.348480	145.840000
438.442169	146.400000
438.535828	146.980000
438.629517	146.440000
438.723175	145.760000
438.816864	146.160000
438.910553	145.420000
439.004211	144.840000
439.097900	144.880000
439.191559	144.920000
439.285248	144.520000
439.378906	144.960000
439.472626	144.740000
439.566284	144.420000
439.659973	144.960000
439.753632	144.960000
439.847321	145.080000
439.940979	145.440000
440.034698	145.860000
440.128326	144.940000
440.222046	144.780000
440.315674	144.200000
440.409393	144.540000
440.503082	144.360000
440.596741	145.020000
440.690430	145.600000
440.784088	145.420000
440.877777	144.820000
440.971466	144.880000
441.065125	144.900000
441.158813	144.420000
441.252502	145.000000
441.346161	145.580000
441.439850	145.940000
441.533539	145.800000
441.627197	146.220000
441.720886	145.840000
441.814606	146.040000
441.908234	146.160000
442.001953	145.860000
442.095612	145.780000
442.189301	146.280000
442.282959	146.200000
442.376678	145.400000
442.470306	146.520000
442.564026	146.460000
442.657684	146.460000
442.751404	146.300000
442.845032	147.220000
442.938751	146.280000
443.032440	146.220000
443.126099	145.700000
443.219788	146.040000
443.313477	145.600000
443.407166	146.080000
443.500824	146.360000
443.594513	146.800000
443.688202	146.500000
443.781891	146.080000
443.875549	145.460000
443.969238	145.200000
444.062927	145.060000
444.156647	144.860000
444.250275	145.580000
444.343994	145.920000
444.437653	146.080000
444.531372	146.220000
444.625031	146.320000
444.718719	145.700000
444.812378	145.560000
444.906097	145.500000
444.999756	145.020000
445.093445	144.980000
445.187103	145.360000
445.280823	146.200000
445.374512	145.720000
445.468201	146.040000
445.561859	145.900000
445.655548	145.820000
445.749237	145.040000
445.842926	145.180000
445.936615	145.540000
446.030304	145.440000
446.123962	145.660000
446.217651	145.440000
446.311340	145.740000
446.405029	145.100000
446.498749	144.900000
446.592407	144.620000
446.686096	144.940000
446.779755	145.080000
446.873474	145.580000
446.967133	146.040000
447.060852	145.700000
447.154510	145.420000
447.248230	145.320000
447.341858	145.200000
447.435577	144.520000
447.529236	144.620000
447.622955	144.700000
447.716644	144.720000
447.810333	144.500000
447.904022	145.280000
447.997711	145.160000
448.091400	145.660000
448.185059	145.520000
448.278748	145.760000
448.372437	145.400000
448.466125	145.760000
448.559814	145.440000
448.653503	145.960000
448.747192	146.020000
448.840912	146.360000
448.934570	146.420000
449.028290	146.840000
449.121948	146.300000
449.215637	146.020000
449.309296	145.540000
449.403015	145.440000
449.496674	144.940000
449.590393	145.180000
449.684052	144.880000
449.777771	145.920000
449.871429	145.560000
449.965149	145.560000
450.058838	145.740000
450.152527	146.680000
450.246216	145.980000
450.339905	146.200000
450.433594	145.760000
450.527283	146.200000
450.620972	145.480000
450.714661	145.340000
450.808350	145.620000
450.902039	146.120000
450.995728	145.600000
451.089417	145.600000
451.183105	145.840000
451.276794	146.020000
451.370514	145.580000
451.464172	144.720000
451.557892	144.560000
451.651550	144.780000
451.745270	144.080000
451.838928	143.980000
451.932648	144.840000
452.026306	145.400000
452.120026	144.880000
452.213684	145.480000
452.307404	145.760000
452.401062	145.360000
452.494781	145.380000
452.588470	145.200000
452.682159	144.420000
452.775848	144.720000
452.869537	144.480000
452.963226	143.960000
453.056915	144.460000
453.150604	145.100000
453.244293	145.180000
453.337982	146.280000
453.431671	146.760000
453.525360	147.040000
453.619049	147.100000
453.712769	146.640000
453.806427	145.720000
453.900146	145.300000
453.993805	144.840000
454.087555	145.260000
454.181213	145.620000
454.274933	145.600000
454.368591	145.680000
454.462311	145.520000
454.555969	144.820000
454.649689	145.400000
454.743347	145.440000
454.837067	146.060000
454.930756	146.660000
455.024445	146.660000
455.118134	145.820000
455.211853	146.000000
455.305542	145.360000
455.399231	144.980000
455.492920	145.060000
455.586609	145.500000
455.680298	145.980000
455.773987	145.780000
455.867676	146.180000
455.961365	146.300000
456.055084	146.220000
456.148773	145.820000
456.242493	146.180000
456.336151	145.740000
456.429871	146.100000
456.523529	146.480000
456.617249	145.780000
456.710907	146.100000
456.804626	146.140000
456.898315	145.600000
456.992035	145.280000
457.085693	145.560000
457.179413	144.680000
457.273102	145.560000
457.366791	145.760000
457.460480	145.960000
457.554199	146.840000
457.647888	147.580000
457.741577	146.880000
457.835266	146.920000
457.928955	146.940000
458.022644	147.020000
458.116364	147.120000
458.210052	147.120000
458.303741	147.080000
458.397461	146.260000
458.491119	145.400000
458.584839	145.220000
458.678528	144.980000
458.772247	144.780000
458.865906	145.180000
458.959625	145.880000
459.053284	145.680000
459.147003	145.400000
459.240692	146.120000
459.334412	146.100000
459.428070	145.740000
459.521790	145.940000
459.615479	146.280000
459.709198	146.240000
459.802887	145.880000
459.896576	145.360000
459.990265	145.320000
460.083954	145.540000
460.177673	145.100000
460.271362	145.300000
460.365051	145.700000
460.458740	145.560000
460.552429	144.820000
460.646149	144.940000
460.739838	145.040000
460.833527	145.140000
460.927246	145.120000
461.020905	145.460000
461.114655	145.460000
461.208313	145.640000
461.302032	145.220000
461.395691	145.480000
461.489441	145.720000
461.583099	145.200000
461.676819	144.820000
461.770477	145.620000
461.864197	145.380000
461.957916	145.300000
462.051605	145.240000
462.145294	146.200000
462.238983	145.560000
462.332703	146.060000
462.426392	146.760000
462.520081	147.000000
462.613770	146.120000
462.707489	146.680000
462.801178	146.020000
462.894867	145.400000
462.988556	145.580000
463.082275	146.080000
463.175964	145.320000
463.269684	145.760000
463.363342	145.780000
463.457092	144.940000
463.550751	144.900000
463.644470	145.280000
463.738129	144.860000
463.831879	144.920000
463.925537	146.000000
464.019257	145.760000
464.112946	145.840000
464.206665	145.860000
464.300323	145.700000
464.394043	145.060000
464.487762	145.140000
464.581451	145.460000
464.675140	145.500000
464.768829	145.780000
464.862549	146.120000
464.956238	146.460000
465.049927	146.200000
465.143646	146.440000
465.237335	146.360000
465.331024	146.740000
465.424713	146.200000
465.518433	146.140000
465.612152	145.780000
465.705811	145.440000
465.799561	145.000000
465.893219	145.120000
465.986938	145.300000
466.080597	145.380000
466.174347	145.780000
466.268005	145.940000
466.361725	145.820000
466.455414	145.520000
466.549133	145.240000
466.642792	145.340000
466.736542	145.100000
466.830231	145.460000
466.923920	145.480000
467.017609	145.860000
467.111328	145.400000
467.205017	145.400000
467.298706	145.020000
467.392426	145.140000
467.486115	145.640000
467.579803	145.540000
467.673523	146.160000
467.767212	146.500000
467.860901	146.280000
467.954651	146.140000
468.048309	146.440000
468.142029	145.820000
468.235718	145.860000
468.329437	145.720000
468.423096	145.480000
468.516846	145.520000
468.610504	145.440000
468.704224	145.040000
468.797913	145.200000
468.891632	145.480000
468.985291	145.500000
469.079010	145.580000
469.172729	145.160000
469.266418	145.560000
469.360107	145.500000
469.453827	145.160000
469.547516	145.300000
469.641205	146.200000
469.734924	146.340000
469.828613	146.620000
469.922302	147.060000
470.016022	147.140000
470.109711	146.580000
470.203430	145.880000
470.297150	144.980000
470.390808	145.120000
470.484558	144.800000
470.578217	145.340000
470.671936	145.780000
470.765625	146.740000
470.859344	146.160000
470.953003	146.640000
471.046753	146.300000
471.140411	145.780000
471.234131	145.480000
471.327820	146.160000
471.421539	145.920000
471.515228	145.640000
471.608948	146.220000
471.702637	145.760000
471.796326	145.480000
471.890045	145.840000
471.983734	146.580000
472.077423	146.240000
472.171143	146.380000
472.264832	146.240000
472.358521	145.960000
472.452240	145.360000
472.545929	146.020000
472.639648	146.260000
472.733337	146.660000
472.827057	146.460000
472.920746	146.460000
473.014465	146.460000
473.108124	146.460000
473.201874	146.100000
473.295532	146.080000
473.389252	146.220000
473.482941	145.780000
473.576660	145.420000
473.670319	145.280000
473.764069	145.720000
473.857727	146.020000
473.951477	146.300000
474.045166	147.140000
474.138855	147.080000
474.232574	146.840000
474.326263	146.720000
474.419952	146.520000
474.513672	146.120000
474.607361	145.980000
474.701050	146.040000
474.794769	146.360000
474.888458	146.440000
474.982178	146.280000
475.075867	146.640000
475.169586	146.500000
475.263275	145.880000
475.356995	146.160000
475.450653	145.980000
475.544403	145.440000
475.638062	145.900000
475.731812	145.500000
475.825470	145.140000
475.919189	145.380000
476.012878	145.640000
476.106598	144.800000
476.200256	145.640000
476.294006	145.620000
476.387695	145.460000
476.481384	145.540000
476.575104	145.800000
476.668793	145.360000
476.762512	144.960000
476.856201	145.580000
476.949890	145.380000
477.043610	145.120000
477.137299	145.140000
477.230988	145.660000
477.324707	144.960000
477.418396	145.560000
477.512146	145.680000
477.605804	145.500000
477.699524	145.540000
477.793213	145.400000
477.886932	144.960000
477.980591	144.700000
478.074341	144.660000
478.167999	144.120000
478.261749	144.160000
478.355408	144.100000
478.449127	144.900000
478.542816	145.920000
478.636536	146.740000
478.730225	146.820000
478.823944	147.140000
478.917633	147.140000
479.011322	146.820000
479.105042	146.320000
479.198730	146.580000
479.292450	146.220000
479.386139	146.360000
479.479828	146.320000
479.573547	146.780000
479.667267	146.580000
479.760925	146.960000
479.854675	146.740000
479.948334	146.600000
480.042084	146.200000
480.135742	146.480000
480.229462	145.720000
480.323151	145.560000
480.416870	145.000000
480.510529	144.880000
480.604279	144.360000
480.697937	145.120000
480.791656	144.780000
480.885345	144.940000
480.979065	144.960000
481.072754	145.800000
481.166473	146.100000
481.260132	146.380000
481.353882	146.460000
481.447540	146.340000
481.541260	145.900000
481.635010	145.160000
481.728668	145.000000
481.822388	145.200000
481.916077	145.300000
482.009796	145.220000
482.103485	145.880000
482.197205	146.040000
482.290863	145.720000
482.384613	145.480000
482.478271	145.080000
482.571991	144.560000
482.665680	144.640000
482.759399	145.500000
482.853058	146.080000
482.946808	146.440000
483.040466	146.500000
483.134216	146.380000
483.227875	145.560000
483.321594	145.820000
483.415283	146.020000
483.509003	145.940000
483.602661	145.540000
483.696411	146.020000
483.790070	145.660000
483.883789	145.520000
483.977478	146.060000
484.071198	146.340000
484.164917	145.960000
484.258606	145.620000
484.352325	145.880000
484.445984	145.760000
484.539734	145.820000
484.633392	145.340000
484.727142	145.700000
484.820801	145.300000
484.914520	144.760000
485.008209	144.900000
485.101929	145.620000
485.195587	145.220000
485.289337	145.220000
485.382996	145.560000
485.476715	145.420000
485.570404	145.820000
485.664124	146.100000
485.757782	146.580000
485.851532	146.240000
485.945190	146.180000
486.038910	146.060000
486.132599	146.320000
486.226318	145.680000
486.319977	145.740000
486.413727	146.280000
486.507446	145.640000
486.601105	144.960000
486.694855	144.660000
486.788513	144.540000
486.882233	144.020000
486.975922	144.400000
487.069641	144.440000
487.163300	144.700000
487.257050	145.980000
487.350708	145.800000
487.444427	145.360000
487.538116	145.420000
487.631836	145.400000
487.725494	144.680000
487.819214	144.980000
487.912903	144.900000
488.006622	145.160000
488.100281	145.680000
488.194031	145.760000
488.287689	146.180000
488.381409	146.960000
488.475098	146.880000
488.568817	146.520000
488.662476	145.980000
488.756226	145.200000
488.849945	144.080000
488.943604	144.200000
489.037354	144.360000
489.131012	144.600000
489.224731	144.480000
489.318390	144.920000
489.412140	145.100000
489.505798	145.140000
489.599518	144.700000
489.693207	145.520000
489.786926	145.560000
489.880585	145.180000
489.974335	145.400000
490.067993	146.760000
490.161713	146.740000
490.255371	147.320000
490.349121	147.540000
490.442780	147.180000
490.536499	145.860000
490.630188	145.660000
490.723907	145.080000
490.817566	144.840000
490.911285	145.040000
491.004974	145.240000
491.098694	144.780000
491.192413	145.520000
491.286102	145.580000
491.379822	145.500000
491.473480	145.860000
491.567200	146.080000
491.660889	145.340000
491.754608	145.400000
491.848267	145.520000
491.941986	144.960000
492.035675	145.040000
492.129395	145.560000
492.223053	145.260000
492.316772	145.460000
492.410461	145.600000
492.504181	145.680000
492.597839	145.260000
492.691559	145.600000
492.785248	145.220000
492.878967	145.480000
492.972626	145.000000
493.066345	145.180000
493.160034	144.640000
493.253754	144.640000
493.347412	144.320000
493.441132	144.660000
493.534882	145.200000
493.628540	145.760000
493.722260	145.620000
493.815918	146.020000
493.909668	146.480000
494.003326	146.660000
494.097046	146.560000
494.190704	146.760000
494.284454	146.860000
494.378113	146.840000
494.471832	146.040000
494.565491	146.180000
494.659210	146.300000
494.752899	146.180000
494.846619	145.880000
494.940277	146.100000
495.033997	145.680000
495.127686	145.120000
495.221405	144.940000
495.315063	144.980000
495.408783	145.040000
495.502441	145.320000
495.596191	145.480000
495.689850	145.080000
495.783569	145.300000
495.877228	145.240000
495.970947	145.200000
496.064697	145.560000
496.158356	146.640000
496.252075	146.460000
496.345734	146.140000
496.439453	146.740000
496.533142	146.760000
496.626862	146.780000
496.720520	146.780000
496.814240	147.100000
496.907898	146.680000
497.001617	146.740000
497.095306	145.780000
497.189026	145.860000
497.282684	145.900000
497.376404	145.960000
497.470062	145.580000
497.563782	145.800000
497.657471	145.700000
497.751190	145.400000
497.844849	145.300000
497.938568	145.520000
498.032227	145.660000
498.125946	145.580000
498.219635	145.640000
498.313354	145.620000
498.407074	145.480000
498.500732	145.800000
498.594452	145.920000
498.688110	145.720000
498.781830	145.100000
498.875519	145.000000
498.969238	144.600000
499.062897	144.260000
499.156616	144.740000
499.250275	145.180000
499.343994	145.120000
499.437653	145.340000
499.531372	145.700000
499.625061	145.960000
499.718781	146.340000
499.812439	146.880000
499.906158	146.520000
499.999817	146.240000
500.093536	145.580000
500.187195	145.500000
500.280914	145.140000
500.374573	145.300000
500.468323	145.180000
500.561981	145.780000
500.655701	145.120000
500.749420	145.220000
500.843079	145.520000
500.936798	145.580000
501.030457	145.500000
501.124176	145.980000
501.217834	145.780000
501.311554	145.340000
501.405212	145.060000
501.498962	144.400000
501.592621	144.500000
501.686340	144.980000
501.779999	145.220000
501.873718	145.760000
501.967377	146.260000
502.061096	146.260000
502.154755	145.660000
502.248474	145.760000
502.342133	145.860000
502.435852	145.580000
502.529510	146.200000
502.623230	146.980000
502.716888	146.600000
502.810608	146.440000
502.904266	147.060000
502.997986	146.260000
503.091705	145.440000
503.185364	145.460000
503.279083	145.120000
503.372772	144.740000
503.466492	144.420000
503.560150	144.760000
503.653870	145.160000
503.747528	145.580000
503.841248	145.680000
503.934906	146.220000
504.028625	145.720000
504.122284	146.060000
504.216003	146.720000
504.309662	146.160000
504.403381	146.100000
504.497040	146.480000
504.590759	145.800000
504.684418	145.340000
504.778137	146.000000
504.871796	146.400000
504.965515	146.440000
505.059174	146.580000
505.152893	146.080000
505.246521	145.620000
505.340240	145.020000
505.433899	145.060000
505.527618	145.000000
505.621338	145.460000
505.714996	145.200000
505.808716	144.900000
505.902374	145.240000
505.996094	145.280000
506.089752	145.160000
506.183472	145.500000
506.277130	145.960000
506.370850	145.700000
506.464508	145.700000
506.558228	145.700000
506.651886	145.720000
506.745605	145.860000
506.839264	145.880000
506.932983	146.060000
507.026611	145.900000
507.120331	146.040000
507.213989	145.460000
507.307709	145.460000
507.401367	145.640000
507.495087	146.460000
507.588745	145.860000
507.682465	146.700000
507.776123	146.740000
507.869843	146.400000
507.963531	145.740000
508.057190	146.500000
508.150909	145.880000
508.244568	145.760000
508.338287	145.500000
508.431946	145.380000
508.525665	145.040000
508.619324	144.940000
508.713013	145.040000
508.806671	145.400000
508.900391	146.180000
508.994049	146.220000
509.087769	146.340000
509.181427	146.300000
509.275146	145.960000
509.368774	145.240000
509.462494	145.180000
509.556152	145.120000
509.649872	145.760000
509.743530	146.140000
509.837250	146.120000
509.930878	146.120000
510.024597	146.200000
510.118256	145.600000
510.211975	145.320000
510.305695	145.040000
510.399353	145.420000
510.493042	145.820000
510.586700	145.940000
510.680420	146.640000
510.774078	146.960000
510.867798	146.780000
510.961426	146.500000
511.055145	146.440000
511.148804	145.760000
511.242523	146.200000
511.336151	146.200000
511.429871	146.580000
511.523529	146.580000
511.617249	146.580000
511.710876	146.060000
511.804596	145.640000
511.898254	145.400000
511.991974	145.820000
512.085632	145.660000
512.179321	146.000000
512.272949	146.580000
512.366699	146.520000
512.460327	146.020000
512.554077	147.120000
512.647766	146.840000
512.741394	146.820000
512.835144	147.360000
512.928772	147.140000
513.022461	146.580000
513.116150	146.240000
513.209839	146.600000
513.303467	145.820000
513.397217	145.560000
513.490845	145.300000
513.584595	145.260000
513.678223	144.500000
513.771912	144.300000
513.865601	144.680000
513.959290	144.500000
514.052917	144.780000
514.146667	145.400000
514.240295	145.800000
514.333984	146.180000
514.427673	146.180000
514.521362	146.280000
514.614990	145.420000
514.708740	145.620000
514.802368	145.540000
514.896057	145.540000
514.989746	146.200000
515.083435	146.500000
515.177124	146.800000
515.270752	146.280000
515.364502	146.640000
515.458130	146.280000
515.551819	145.900000
515.645508	145.260000
515.739197	145.460000
515.832825	145.580000
515.926575	145.200000
516.020203	145.960000
516.113892	146.340000
516.207520	146.440000
516.301270	146.260000
516.394897	146.640000
516.488586	146.780000
516.582275	146.620000
516.675964	146.060000
516.769592	145.680000
516.863281	146.120000
516.956970	146.080000
517.050659	145.740000
517.144287	146.260000
517.238037	146.820000
517.331665	145.960000
517.425354	145.520000
517.519043	145.760000
517.612732	145.760000
517.706421	145.200000
517.800049	145.040000
517.893738	144.780000
517.987427	144.920000
518.081116	144.800000
518.174744	144.800000
518.268433	145.420000
518.362122	146.260000
518.455811	145.900000
518.549438	146.520000
518.643127	147.740000
518.736816	147.460000
518.830505	146.800000
518.924133	147.000000
519.017822	146.660000
519.111511	145.600000
519.205200	145.840000
519.298828	146.100000
519.392517	145.820000
519.486206	146.080000
519.579895	146.080000
519.673523	145.780000
519.767212	145.500000
519.860901	145.940000
519.954590	145.460000
520.048279	145.340000
520.141907	145.220000
520.235596	146.220000
520.329224	146.220000
520.422974	146.180000
520.516602	146.300000
520.610291	146.020000
520.703918	145.560000
520.797607	145.400000
520.891296	145.320000
520.984985	145.200000
521.078613	145.940000
521.172302	145.460000
521.265930	146.260000
521.359680	146.960000
521.453308	147.180000
521.546997	147.140000
521.640625	147.400000
521.734314	146.380000
521.827942	145.920000
521.921692	146.140000
522.015320	146.100000
522.109009	145.900000
522.202698	146.140000
522.296326	146.120000
522.390015	146.260000
522.483704	146.160000
522.577393	146.040000
522.671021	145.920000
522.764709	145.520000
522.858337	145.520000
522.952026	145.440000
523.045654	146.060000
523.139404	146.800000
523.233032	147.100000
523.326721	146.760000
523.420349	146.760000
523.514038	146.140000
523.607666	146.140000
523.701355	145.720000
523.795044	145.740000
523.888733	145.720000
523.982361	146.120000
524.076050	145.140000
524.169678	145.800000
524.263367	145.640000
524.356995	145.540000
524.450684	145.320000
524.544373	145.320000
524.638062	145.340000
524.731750	145.580000
524.825378	145.580000
524.919067	145.200000
525.012695	145.520000
525.106384	145.060000
525.200012	145.240000
525.293701	145.140000
525.387329	145.860000
525.481018	146.060000
525.574646	146.400000
525.668396	146.200000
525.762024	146.640000
525.855713	146.300000
525.949341	145.680000
526.043030	145.760000
526.136658	145.440000
526.230347	145.140000
526.323975	144.820000
526.417664	144.800000
526.511292	144.820000
526.604980	145.260000
526.698608	145.260000
526.792297	145.380000
526.885925	146.300000
526.979614	146.000000
527.073303	145.600000
527.166931	145.300000
527.260620	145.620000
527.354309	145.460000
527.447998	145.580000
527.541626	145.620000
527.635315	145.960000
527.728943	146.540000
527.822632	146.520000
527.916260	146.300000
528.009949	146.480000
528.103577	146.300000
528.197266	145.140000
528.290894	145.080000
528.384583	145.180000
528.478210	145.260000
528.571899	145.780000
528.665527	146.400000
528.759216	146.620000
528.852844	147.100000
528.946533	147.160000
529.040161	146.680000
529.133850	146.420000
529.227478	146.240000
529.321167	146.520000
529.414856	146.480000
529.508484	147.020000
529.602173	146.800000
529.695801	146.700000
529.789490	146.600000
529.883057	146.520000
529.976746	146.480000
530.070374	147.020000
530.164062	147.020000
530.257690	146.780000
530.351379	146.840000
530.445007	146.420000
530.538696	145.940000
530.632324	146.320000
530.726013	146.000000
530.819641	145.760000
530.913330	145.900000
531.006958	145.860000
531.100647	145.340000
531.194275	145.360000
531.287964	145.160000
531.381592	144.900000
531.475220	145.160000
531.568848	145.360000
531.662537	145.340000
531.756226	146.280000
531.849854	146.160000
531.943542	146.320000
532.037170	145.660000
532.130859	146.000000
532.224487	145.100000
532.318176	145.020000
532.411804	145.240000
532.505432	145.780000
532.599060	145.340000
532.692749	145.640000
532.786377	146.380000
532.880066	145.800000
532.973694	145.380000
533.067383	145.500000
533.161011	145.320000
533.254639	144.960000
533.348267	144.800000
533.441956	145.400000
533.535583	144.980000
533.629272	145.200000
533.722900	144.820000
533.816589	145.020000
533.910156	145.200000
534.003845	145.220000
534.097534	145.380000
534.191162	145.840000
534.284851	145.880000
534.378479	145.220000
534.472107	145.500000
534.565735	145.320000
534.659424	145.600000
534.753052	145.880000
534.846741	145.780000
534.940369	146.520000
535.033997	146.520000
535.127625	146.020000
535.221313	146.360000
535.314941	146.480000
535.408630	145.480000
535.502197	145.920000
535.595886	145.960000
535.689514	145.560000
535.783203	146.300000
535.876831	146.800000
535.970459	146.500000
536.064087	146.380000
536.157776	146.620000
536.251404	146.340000
536.345093	146.140000
536.438721	146.300000
536.532349	146.560000
536.626038	146.080000
536.719666	146.180000
536.813293	146.140000
536.906921	145.840000
537.000610	146.040000
537.094238	146.120000
537.187866	146.080000
537.281494	146.220000
537.375183	146.300000
537.468811	146.000000
537.562439	145.920000
537.656067	145.640000
537.749756	145.600000
537.843384	146.020000
537.937012	146.120000
538.030640	145.960000
538.124329	145.920000
538.217896	146.440000
538.311584	146.140000
538.405212	146.020000
538.498901	146.480000
538.592468	146.840000
538.686157	146.000000
538.779785	145.360000
538.873413	145.300000
538.967102	144.980000
539.060730	144.680000
539.154358	145.180000
539.247986	145.640000
539.341675	145.720000
539.435242	145.900000
539.528931	146.260000
539.622559	145.720000
539.716187	146.320000
539.809814	146.300000
539.903503	146.240000
539.997070	145.720000
540.090759	145.960000
540.184387	145.440000
540.278015	145.880000
540.371643	145.980000
540.465332	146.180000
540.558899	146.080000
540.652588	146.000000
540.746216	145.640000
540.839844	145.820000
540.933472	145.660000
541.027100	145.880000
541.120728	146.080000
541.214417	146.220000
541.308044	146.400000
541.401672	146.240000
541.495300	145.980000
541.588928	145.820000
541.682617	145.540000
541.776184	145.120000
541.869873	145.540000
541.963440	145.700000
542.057129	145.640000
542.150757	145.760000
542.244385	145.480000
542.338013	144.800000
542.431641	144.900000
542.525269	144.780000
542.618958	145.060000
542.712524	145.280000
542.806213	145.600000
542.899780	145.500000
542.993469	145.420000
543.087036	145.280000
543.180725	144.880000
543.274292	145.320000
543.367981	145.680000
543.461548	146.040000
543.555237	145.860000
543.648926	146.580000
543.742493	146.800000
543.836182	146.720000
543.929749	146.360000
544.023437	146.460000
544.117004	146.360000
544.210693	146.040000
544.304260	145.880000
544.397949	146.140000
544.491516	146.420000
544.585205	146.340000
544.678772	145.880000
544.772461	146.300000
544.866028	146.040000
544.959717	145.800000
545.053284	145.360000
545.146973	146.060000
545.240540	145.740000
545.334229	146.420000
545.427795	146.600000
545.521423	146.900000
545.615051	146.620000
545.708679	146.880000
545.802307	146.180000
545.895935	146.460000
545.989624	147.120000
546.083191	146.940000
546.176880	146.680000
546.270447	146.600000
546.364136	146.780000
546.457703	145.980000
546.551331	145.700000
546.644958	145.720000
546.738586	146.120000
546.832214	145.360000
546.925842	145.460000
547.019409	146.260000
547.113098	145.960000
547.206665	145.880000
547.300354	146.020000
547.393921	146.220000
547.487549	145.980000
547.581177	145.840000
547.674805	145.740000
547.768433	145.520000
547.862061	145.340000
547.955627	144.780000
548.049316	145.460000
548.142883	145.800000
548.236572	146.240000
548.330139	146.380000
548.423767	146.560000
548.517456	146.200000
548.611023	146.180000
548.704651	145.580000
548.798279	145.920000
548.891907	146.480000
548.985474	146.560000
549.079163	146.720000
549.172729	146.540000
549.266357	146.040000
549.359985	145.920000
549.453613	145.260000
549.547180	145.120000
549.640869	145.720000
549.734436	145.800000
549.828064	145.940000
549.921631	146.300000
550.015320	145.820000
550.108887	146.200000
550.202515	146.140000
550.296143	145.800000
550.389771	145.880000
550.483337	146.080000
550.576965	145.940000
550.670593	146.420000
550.764221	146.540000
550.857849	146.600000
550.951477	146.220000
551.045105	145.700000
551.138672	145.480000
551.232300	145.300000
551.325928	145.380000
551.419556	145.880000
551.513123	145.960000
551.606750	145.660000
551.700378	145.520000
551.794006	145.440000
551.887573	145.000000
551.981201	145.280000
552.074768	145.120000
552.168457	145.200000
552.262024	146.040000
552.355652	146.380000
552.449219	146.740000
552.542847	147.280000
552.636475	147.220000
552.730103	146.040000
552.823669	146.100000
552.917297	145.660000
553.010864	145.240000
553.104553	145.520000
553.198181	145.300000
553.291748	145.620000
553.385376	145.700000
553.478943	145.800000
553.572571	145.880000
553.666199	146.620000
553.759827	146.180000
553.853394	145.640000
553.947021	145.600000
554.040588	145.200000
554.134216	145.120000
554.227783	145.920000
554.321411	146.800000
554.415039	146.320000
554.508667	146.540000
554.602234	146.840000
554.695862	145.900000
554.789429	145.300000
554.883057	145.560000
554.976624	145.420000
555.070251	144.880000
555.163818	144.880000
555.257507	144.860000
555.351074	145.080000
555.444702	146.060000
555.538330	145.760000
555.631897	146.320000
555.725525	146.180000
555.819092	145.900000
555.912720	144.940000
556.006287	145.700000
556.099915	145.140000
556.193481	145.520000
556.287109	145.940000
556.380676	145.700000
556.474304	145.440000
556.567871	146.160000
556.661499	145.640000
556.755066	145.340000
556.848694	145.620000
556.942261	145.380000
557.035889	145.020000
557.129517	145.520000
557.223145	146.120000
557.316711	146.180000
557.410339	146.400000
557.503906	146.080000
557.597473	146.100000
557.691040	145.560000
557.784668	145.620000
557.878296	146.080000
557.971863	146.460000
558.065491	146.380000
558.159058	146.120000
558.252686	146.940000
558.346252	147.200000
558.439880	146.580000
558.533447	146.260000
558.627075	146.640000
558.720642	145.560000
558.814270	145.100000
558.907837	145.500000
559.001465	145.460000
559.095032	145.880000
559.188660	146.200000
559.282227	145.680000
559.375854	146.220000
559.469360	145.840000
559.562988	145.940000
559.656555	145.840000
559.750183	146.320000
559.843750	145.960000
559.937378	146.520000
560.030945	146.080000
560.124573	0.000000
560.218140	0.000000
560.311707	0.000000
560.405334	0.000000
560.498901	0.000000
560.592529	0.000000
560.686096	0.000000
560.779724	0.000000
560.873291	0.000000
560.966858	0.000000
561.060425	0.000000
561.154053	0.000000
561.247620	0.000000
561.341248	0.000000
561.434814	0.000000
561.528381	0.000000
561.621948	0.000000
561.715576	0.000000
561.809143	0.000000
561.902771	0.000000
561.996277	0.000000
562.089905	0.000000
562.183472	0.000000
562.277100	0.000000
