Model Number: SPM-002-B   
Serial Number: 70087108
Firmware Version: 004.15.4
Exposure Time: 100000.000000us
Data Taken on: 11-12-2020 18:50:42.203
Wavelength	Amplitude
221.570786	0.000000
221.663406	0.000000
221.756027	0.000000
221.848648	0.000000
221.941269	0.000000
222.033905	0.000000
222.126526	0.000000
222.219162	0.000000
222.311798	0.000000
222.404419	0.000000
222.497055	0.000000
222.589676	0.000000
222.682312	0.000000
222.774933	0.000000
222.867569	0.000000
222.960205	0.000000
223.052841	0.000000
223.145462	0.000000
223.238098	0.000000
223.330734	0.000000
223.423386	0.000000
223.516022	0.000000
223.608658	0.000000
223.701309	0.000000
223.793945	0.000000
223.886581	0.000000
223.979218	0.000000
224.071869	0.000000
224.164505	0.000000
224.257156	0.000000
224.349792	0.000000
224.442444	0.000000
224.535095	0.000000
224.627747	0.000000
224.720398	0.000000
224.813034	0.000000
224.905685	0.000000
224.998337	145.600000
225.090988	145.540000
225.183640	145.560000
225.276291	145.300000
225.368942	145.560000
225.461594	145.960000
225.554245	146.060000
225.646912	146.280000
225.739578	147.180000
225.832230	147.460000
225.924896	146.560000
226.017548	146.680000
226.110199	147.060000
226.202866	146.520000
226.295532	146.040000
226.388184	146.240000
226.480850	145.740000
226.573517	145.120000
226.666168	145.160000
226.758835	145.600000
226.851501	146.300000
226.944183	146.620000
227.036850	146.380000
227.129517	146.400000
227.222183	146.200000
227.314850	145.760000
227.407516	146.180000
227.500198	147.080000
227.592865	146.620000
227.685532	146.540000
227.778214	146.440000
227.870880	146.220000
227.963562	146.240000
228.056229	146.500000
228.148926	146.360000
228.241592	147.040000
228.334274	146.660000
228.426956	146.200000
228.519638	146.360000
228.612305	146.200000
228.704987	146.080000
228.797668	146.240000
228.890350	145.800000
228.983032	145.280000
229.075714	146.040000
229.168396	145.480000
229.261108	145.280000
229.353790	145.360000
229.446472	145.760000
229.539169	145.380000
229.631851	145.160000
229.724533	145.520000
229.817230	145.920000
229.909912	147.080000
230.002609	147.000000
230.095306	147.080000
230.187988	146.820000
230.280685	146.700000
230.373383	145.380000
230.466095	145.200000
230.558792	145.500000
230.651474	145.780000
230.744171	145.700000
230.836868	145.440000
230.929581	145.720000
231.022278	145.720000
231.114975	145.600000
231.207672	145.440000
231.300369	146.180000
231.393082	146.220000
231.485779	145.700000
231.578506	145.760000
231.671204	146.160000
231.763916	146.020000
231.856613	145.880000
231.949326	146.360000
232.042023	146.100000
232.134735	145.700000
232.227448	145.440000
232.320160	145.620000
232.412872	145.660000
232.505585	146.560000
232.598297	147.000000
232.691010	146.880000
232.783722	146.480000
232.876450	147.280000
232.969162	146.560000
233.061874	146.140000
233.154587	145.860000
233.247314	146.140000
233.340027	145.060000
233.432739	145.420000
233.525467	145.200000
233.618179	145.660000
233.710907	145.500000
233.803635	146.220000
233.896347	145.980000
233.989090	146.760000
234.081818	146.660000
234.174545	147.060000
234.267258	146.260000
234.359985	146.300000
234.452713	146.060000
234.545441	145.800000
234.638168	145.100000
234.730896	145.760000
234.823639	145.660000
234.916367	145.940000
235.009094	146.560000
235.101822	146.900000
235.194580	146.760000
235.287308	146.540000
235.380051	145.900000
235.472778	146.040000
235.565521	146.140000
235.658249	146.000000
235.750992	146.400000
235.843719	146.520000
235.936462	146.160000
236.029205	145.840000
236.121948	145.160000
236.214691	145.280000
236.307449	145.840000
236.400192	145.600000
236.492935	145.620000
236.585678	146.160000
236.678421	146.000000
236.771164	145.680000
236.863907	146.340000
236.956665	146.620000
237.049408	148.280000
237.142151	148.020000
237.234909	148.480000
237.327652	147.900000
237.420410	147.640000
237.513153	146.380000
237.605927	146.280000
237.698669	145.800000
237.791428	145.680000
237.884186	145.900000
237.976944	145.400000
238.069702	145.880000
238.162445	145.340000
238.255203	145.460000
238.347961	145.660000
238.440720	146.120000
238.533478	145.800000
238.626266	145.960000
238.719025	146.120000
238.811783	146.300000
238.904541	145.920000
238.997314	145.580000
239.090073	145.520000
239.182831	146.120000
239.275604	146.520000
239.368362	146.400000
239.461136	146.780000
239.553909	146.700000
239.646667	146.140000
239.739441	145.460000
239.832214	145.820000
239.925003	145.800000
240.017761	146.580000
240.110535	146.920000
240.203308	146.520000
240.296082	146.560000
240.388855	146.580000
240.481628	146.420000
240.574417	146.480000
240.667191	146.600000
240.759964	146.020000
240.852737	146.000000
240.945526	145.620000
241.038315	145.220000
241.131088	145.720000
241.223877	146.300000
241.316650	145.920000
241.409439	146.300000
241.502228	145.820000
241.595001	146.260000
241.687790	146.120000
241.780579	146.300000
241.873367	146.180000
241.966141	146.620000
242.058929	145.780000
242.151718	145.980000
242.244507	146.680000
242.337311	146.180000
242.430099	146.600000
242.522903	146.740000
242.615692	146.000000
242.708481	145.560000
242.801270	145.960000
242.894073	145.460000
242.986862	145.700000
243.079651	146.560000
243.172455	146.560000
243.265244	146.800000
243.358063	146.380000
243.450867	146.780000
243.543655	146.500000
243.636459	146.380000
243.729263	146.120000
243.822067	146.580000
243.914856	146.580000
244.007660	146.740000
244.100464	146.900000
244.193268	147.020000
244.286072	146.960000
244.378876	146.420000
244.471680	146.100000
244.564499	146.100000
244.657318	146.500000
244.750122	146.760000
244.842926	146.040000
244.935745	146.420000
245.028549	146.000000
245.121368	145.400000
245.214172	145.420000
245.306992	146.220000
245.399796	145.860000
245.492615	146.140000
245.585434	145.880000
245.678253	145.660000
245.771072	145.320000
245.863892	145.440000
245.956711	145.640000
246.049530	145.880000
246.142349	145.560000
246.235168	145.900000
246.327988	146.380000
246.420807	145.960000
246.513626	145.820000
246.606445	145.920000
246.699280	145.580000
246.792099	145.180000
246.884918	144.960000
246.977753	144.860000
247.070587	145.060000
247.163422	145.120000
247.256241	145.120000
247.349075	145.640000
247.441895	145.740000
247.534729	145.600000
247.627563	145.420000
247.720383	145.960000
247.813217	146.000000
247.906052	145.840000
247.998886	145.680000
248.091736	145.900000
248.184570	145.520000
248.277405	145.620000
248.370239	146.660000
248.463074	147.940000
248.555908	148.100000
248.648743	147.800000
248.741592	147.620000
248.834427	146.640000
248.927261	145.240000
249.020111	145.560000
249.112946	146.340000
249.205795	145.940000
249.298630	146.220000
249.391495	146.520000
249.484344	146.140000
249.577179	145.800000
249.670029	146.380000
249.762878	146.980000
249.855728	147.320000
249.948563	147.300000
250.041412	146.660000
250.134262	146.640000
250.227112	146.540000
250.319962	146.500000
250.412827	146.580000
250.505692	146.380000
250.598541	146.300000
250.691391	145.760000
250.784241	145.840000
250.877106	145.900000
250.969955	145.800000
251.062805	146.400000
251.155670	146.960000
251.248520	146.560000
251.341385	146.640000
251.434235	147.020000
251.527100	146.480000
251.619965	145.980000
251.712814	146.920000
251.805695	146.760000
251.898560	147.040000
251.991425	147.220000
252.084290	147.440000
252.177155	146.540000
252.270020	146.240000
252.362885	145.920000
252.455750	145.880000
252.548615	145.440000
252.641479	145.500000
252.734360	145.420000
252.827240	145.300000
252.920105	145.420000
253.012970	145.480000
253.105850	145.180000
253.198715	145.060000
253.291595	145.420000
253.384460	144.760000
253.477341	144.500000
253.570221	144.860000
253.663086	144.940000
253.755966	145.620000
253.848846	145.860000
253.941727	146.600000
254.034592	146.360000
254.127472	146.080000
254.220367	145.580000
254.313248	145.460000
254.406128	144.940000
254.499008	145.400000
254.591904	146.260000
254.684784	146.660000
254.777664	146.800000
254.870544	146.620000
254.963440	146.540000
255.056335	146.240000
255.149216	145.840000
255.242111	146.340000
255.334991	146.860000
255.427887	146.860000
255.520767	146.960000
255.613663	146.900000
255.706558	146.060000
255.799438	145.760000
255.892334	145.580000
255.985229	145.360000
256.078125	145.180000
256.171021	145.620000
256.263916	146.140000
256.356812	146.540000
256.449707	146.660000
256.542603	146.440000
256.635498	146.680000
256.728394	146.280000
256.821289	145.520000
256.914215	145.820000
257.007080	146.460000
257.100006	146.400000
257.192932	146.960000
257.285828	147.660000
257.378723	147.420000
257.471619	147.140000
257.564545	146.640000
257.657440	146.540000
257.750336	146.860000
257.843262	146.660000
257.936157	147.400000
258.029053	148.160000
258.121979	148.000000
258.214874	147.400000
258.307800	147.340000
258.400696	146.360000
258.493622	146.060000
258.586517	145.140000
258.679443	145.500000
258.772339	145.180000
258.865265	145.020000
258.958160	144.560000
259.051086	145.660000
259.144012	145.260000
259.236938	146.260000
259.329834	146.760000
259.422791	146.560000
259.515717	145.860000
259.608612	145.760000
259.701538	145.420000
259.794464	145.240000
259.887390	145.320000
259.980316	145.420000
260.073212	145.140000
260.166138	144.460000
260.259064	144.680000
260.351990	145.520000
260.444916	145.540000
260.537842	146.320000
260.630768	147.100000
260.723694	147.060000
260.816620	146.620000
260.909546	146.580000
261.002472	145.900000
261.095398	145.420000
261.188354	145.220000
261.281281	145.080000
261.374207	145.500000
261.467133	146.320000
261.560089	146.480000
261.653015	146.220000
261.745972	147.060000
261.838867	147.320000
261.931824	147.240000
262.024780	146.600000
262.117706	147.080000
262.210663	146.520000
262.303589	145.840000
262.396515	145.440000
262.489471	146.660000
262.582397	146.340000
262.675354	145.920000
262.768280	146.480000
262.861237	146.760000
262.954163	146.280000
263.047119	146.520000
263.140045	146.540000
263.233002	146.000000
263.325958	145.660000
263.418884	145.060000
263.511841	144.980000
263.604797	145.240000
263.697723	145.300000
263.790680	145.400000
263.883636	146.340000
263.976593	145.960000
264.069550	145.780000
264.162476	145.760000
264.255463	145.700000
264.348419	145.320000
264.441376	145.700000
264.534332	145.440000
264.627289	145.360000
264.720245	145.600000
264.813202	145.180000
264.906158	145.320000
264.999115	146.000000
265.092072	145.940000
265.185028	146.400000
265.277985	146.920000
265.370941	146.800000
265.463898	146.360000
265.556854	146.600000
265.649811	145.540000
265.742798	145.420000
265.835754	145.260000
265.928711	146.080000
266.021667	145.980000
266.114655	146.500000
266.207611	146.940000
266.300568	146.480000
266.393585	145.860000
266.486511	146.100000
266.579498	145.400000
266.672485	144.920000
266.765442	145.320000
266.858429	145.740000
266.951385	145.300000
267.044342	145.780000
267.137329	145.720000
267.230316	145.900000
267.323273	145.180000
267.416260	145.720000
267.509216	145.680000
267.602203	145.700000
267.695160	146.100000
267.788147	146.600000
267.881134	146.220000
267.974091	146.360000
268.067078	146.500000
268.160065	145.960000
268.253052	145.420000
268.346008	145.740000
268.438995	145.540000
268.531982	145.340000
268.624969	145.360000
268.717987	145.500000
268.810944	145.240000
268.903961	145.300000
268.996948	144.960000
269.089905	145.580000
269.182892	146.040000
269.275879	146.340000
269.368866	146.260000
269.461853	146.920000
269.554871	146.340000
269.647858	146.280000
269.740845	146.480000
269.833832	146.700000
269.926819	146.380000
270.019806	146.460000
270.112793	145.640000
270.205811	145.340000
270.298798	145.320000
270.391785	146.020000
270.484772	145.720000
270.577789	146.160000
270.670776	145.680000
270.763763	145.400000
270.856750	145.040000
270.949768	144.980000
271.042786	145.160000
271.135773	145.480000
271.228790	145.800000
271.321808	145.540000
271.414795	145.460000
271.507782	144.960000
271.600800	144.820000
271.693817	144.940000
271.786804	145.180000
271.879822	145.520000
271.972809	145.660000
272.065826	146.120000
272.158844	145.600000
272.251831	145.840000
272.344849	145.860000
272.437866	145.600000
272.530853	145.400000
272.623871	145.720000
272.716888	144.820000
272.809906	145.160000
272.902893	145.580000
272.995911	145.040000
273.088928	144.800000
273.181946	145.160000
273.274963	144.580000
273.367981	144.540000
273.460999	145.220000
273.554047	145.640000
273.647003	146.180000
273.740051	146.440000
273.833069	146.960000
273.926086	146.860000
274.019135	146.400000
274.112152	145.960000
274.205170	145.820000
274.298187	145.860000
274.391205	145.420000
274.484222	145.540000
274.577240	145.380000
274.670258	145.320000
274.763306	144.720000
274.856323	144.920000
274.949341	145.060000
275.042358	145.680000
275.135406	145.340000
275.228424	145.500000
275.321442	145.860000
275.414490	145.580000
275.507507	145.720000
275.600525	146.680000
275.693573	146.540000
275.786591	145.940000
275.879669	146.380000
275.972656	145.780000
276.065735	145.240000
276.158752	145.760000
276.251801	146.660000
276.344818	146.700000
276.437866	146.860000
276.530884	146.600000
276.623932	145.860000
276.716980	145.640000
276.809998	145.540000
276.903046	145.660000
276.996094	146.760000
277.089111	147.600000
277.182159	148.020000
277.275208	147.740000
277.368256	147.380000
277.461304	146.620000
277.554321	145.940000
277.647369	145.560000
277.740417	145.760000
277.833466	145.860000
277.926514	145.780000
278.019562	146.400000
278.112610	145.700000
278.205688	145.820000
278.298706	145.920000
278.391785	145.820000
278.484833	145.120000
278.577881	145.440000
278.670929	145.820000
278.763977	145.980000
278.857025	146.620000
278.950073	146.860000
279.043121	146.940000
279.136169	146.860000
279.229248	146.500000
279.322296	146.200000
279.415344	146.200000
279.508392	146.020000
279.601440	145.600000
279.694519	145.460000
279.787567	145.280000
279.880615	144.980000
279.973694	144.940000
280.066742	145.100000
280.159790	145.620000
280.252869	145.320000
280.345917	145.720000
280.438995	145.780000
280.532074	145.580000
280.625122	145.760000
280.718201	146.580000
280.811279	146.540000
280.904327	146.420000
280.997406	146.560000
281.090454	146.420000
281.183533	146.020000
281.276581	146.120000
281.369659	145.700000
281.462738	145.720000
281.555786	145.560000
281.648865	145.580000
281.741943	145.320000
281.835022	146.440000
281.928070	146.140000
282.021149	146.120000
282.114227	145.680000
282.207306	145.600000
282.300385	145.280000
282.393433	145.760000
282.486511	145.840000
282.579590	146.780000
282.672668	147.200000
282.765747	146.660000
282.858856	146.140000
282.951904	146.320000
283.045013	146.120000
283.138062	146.240000
283.231171	146.600000
283.324249	146.800000
283.417328	146.720000
283.510406	146.160000
283.603485	145.840000
283.696564	146.120000
283.789642	146.360000
283.882751	145.920000
283.975830	146.640000
284.068909	146.420000
284.161987	146.600000
284.255066	146.020000
284.348175	146.160000
284.441254	145.840000
284.534332	146.520000
284.627441	146.040000
284.720520	146.180000
284.813599	146.580000
284.906708	146.600000
284.999786	145.740000
285.092896	145.480000
285.185974	146.420000
285.279053	145.800000
285.372192	145.840000
285.465240	146.780000
285.558380	147.060000
285.651459	146.360000
285.744568	147.160000
285.837677	146.700000
285.930756	146.260000
286.023865	146.220000
286.116943	146.120000
286.210052	145.920000
286.303162	146.100000
286.396240	146.240000
286.489349	145.940000
286.582458	146.280000
286.675568	145.820000
286.768646	145.740000
286.861755	145.780000
286.954865	146.500000
287.047974	146.040000
287.141083	146.100000
287.234161	145.940000
287.327271	145.900000
287.420380	146.080000
287.513519	146.000000
287.606598	146.120000
287.699738	146.780000
287.792816	146.660000
287.885956	146.140000
287.979034	146.060000
288.072174	146.040000
288.165283	145.520000
288.258392	145.300000
288.351501	144.920000
288.444611	145.280000
288.537720	145.740000
288.630859	145.800000
288.723969	146.220000
288.817078	146.860000
288.910187	146.520000
289.003296	145.860000
289.096436	145.620000
289.189545	145.320000
289.282654	144.740000
289.375763	145.380000
289.468903	145.880000
289.562012	146.140000
289.655121	146.220000
289.748260	146.640000
289.841400	146.600000
289.934509	146.080000
290.027649	146.420000
290.120728	146.460000
290.213898	146.380000
290.306976	146.320000
290.400146	146.680000
290.493256	146.080000
290.586395	146.020000
290.679535	146.160000
290.772644	145.700000
290.865784	145.280000
290.958893	145.540000
291.052032	145.340000
291.145172	145.340000
291.238281	145.340000
291.331421	145.440000
291.424561	145.980000
291.517670	146.180000
291.610809	146.480000
291.703949	146.620000
291.797089	146.980000
291.890228	146.360000
291.983337	146.220000
292.076477	145.580000
292.169617	145.880000
292.262756	145.860000
292.355927	145.900000
292.449036	145.760000
292.542206	146.240000
292.635315	146.340000
292.728485	146.300000
292.821625	146.020000
292.914764	147.240000
293.007904	146.880000
293.101044	146.380000
293.194183	146.500000
293.287323	146.600000
293.380463	145.700000
293.473602	145.680000
293.566742	146.020000
293.659882	146.400000
293.753021	146.620000
293.846191	146.440000
293.939331	146.120000
294.032471	145.960000
294.125610	145.460000
294.218781	145.940000
294.311920	146.680000
294.405060	147.080000
294.498230	147.160000
294.591370	147.120000
294.684540	146.380000
294.777679	145.300000
294.870850	145.780000
294.963959	145.580000
295.057159	145.340000
295.150299	145.680000
295.243469	145.780000
295.336609	144.740000
295.429779	144.820000
295.522919	145.320000
295.616089	145.260000
295.709229	146.080000
295.802399	146.520000
295.895569	146.240000
295.988708	145.820000
296.081879	145.680000
296.175018	145.080000
296.268188	145.260000
296.361359	146.020000
296.454529	146.220000
296.547668	146.540000
296.640839	146.880000
296.734009	146.600000
296.827179	146.620000
296.920319	146.860000
297.013519	146.440000
297.106659	146.400000
297.199860	146.620000
297.292999	146.360000
297.386200	145.960000
297.479309	146.040000
297.572510	145.840000
297.665680	145.680000
297.758850	145.600000
297.852020	145.740000
297.945190	145.700000
298.038361	145.320000
298.131531	146.140000
298.224701	145.800000
298.317871	145.480000
298.411072	145.120000
298.504242	145.160000
298.597412	144.600000
298.690582	145.160000
298.783752	145.160000
298.876923	146.000000
298.970093	146.180000
299.063293	146.660000
299.156464	146.900000
299.249634	147.340000
299.342834	147.200000
299.436005	147.680000
299.529205	146.840000
299.622345	146.640000
299.715576	145.860000
299.808716	145.420000
299.901917	145.200000
299.995117	145.840000
300.088287	145.760000
300.181488	145.880000
300.274658	146.180000
300.367828	146.200000
300.461029	146.160000
300.554199	146.500000
300.647400	146.760000
300.740601	147.080000
300.833771	146.580000
300.926971	146.600000
301.020142	146.060000
301.113342	145.940000
301.206512	145.780000
301.299713	146.480000
301.392914	146.060000
301.486084	146.140000
301.579285	146.440000
301.672516	146.780000
301.765686	146.340000
301.858887	146.600000
301.952057	146.360000
302.045288	146.420000
302.138458	145.800000
302.231659	145.540000
302.324860	145.400000
302.418060	145.500000
302.511261	145.120000
302.604462	145.600000
302.697662	145.820000
302.790863	145.720000
302.884064	145.420000
302.977264	145.700000
303.070465	145.580000
303.163666	146.140000
303.256866	146.520000
303.350067	146.760000
303.443268	146.500000
303.536469	146.920000
303.629669	146.260000
303.722870	146.360000
303.816071	146.320000
303.909271	146.600000
304.002472	145.520000
304.095673	145.680000
304.188934	144.800000
304.282104	145.500000
304.375336	145.240000
304.468506	145.460000
304.561768	145.300000
304.654968	145.860000
304.748169	145.020000
304.841370	144.980000
304.934601	145.260000
305.027802	145.140000
305.121002	144.900000
305.214233	145.100000
305.307434	145.140000
305.400665	145.520000
305.493866	145.500000
305.587097	145.820000
305.680298	145.880000
305.773499	146.520000
305.866730	145.960000
305.959930	146.500000
306.053162	146.800000
306.146393	146.660000
306.239594	145.600000
306.332825	145.840000
306.426025	146.060000
306.519287	145.480000
306.612488	145.860000
306.705719	146.360000
306.798920	146.120000
306.892181	145.440000
306.985352	145.240000
307.078613	144.520000
307.171844	144.720000
307.265045	144.520000
307.358276	144.220000
307.451508	144.820000
307.544739	145.280000
307.637970	144.860000
307.731201	144.900000
307.824402	145.840000
307.917633	145.800000
308.010864	146.100000
308.104095	146.640000
308.197327	146.920000
308.290558	146.860000
308.383789	146.440000
308.477020	145.940000
308.570251	145.380000
308.663483	145.020000
308.756714	144.660000
308.849976	144.880000
308.943176	145.540000
309.036438	145.700000
309.129639	145.560000
309.222900	145.400000
309.316101	145.160000
309.409393	144.680000
309.502625	144.240000
309.595856	144.580000
309.689087	144.940000
309.782318	144.820000
309.875580	144.720000
309.968811	145.260000
310.062042	145.080000
310.155273	144.760000
310.248535	145.420000
310.341766	145.600000
310.434998	145.320000
310.528259	145.240000
310.621490	145.720000
310.714722	145.140000
310.807983	145.440000
310.901215	145.440000
310.994476	145.640000
311.087708	145.160000
311.181000	145.460000
311.274200	144.460000
311.367462	144.640000
311.460693	144.320000
311.553986	145.000000
311.647186	145.200000
311.740479	146.240000
311.833710	145.700000
311.926971	145.940000
312.020203	144.980000
312.113464	144.620000
312.206726	143.820000
312.299957	144.420000
312.393219	145.040000
312.486481	145.760000
312.579712	145.740000
312.672974	145.920000
312.766235	146.000000
312.859497	145.360000
312.952759	144.900000
313.045990	145.860000
313.139252	145.660000
313.232513	145.860000
313.325775	145.980000
313.419037	145.960000
313.512299	144.680000
313.605530	145.360000
313.698822	145.300000
313.792053	145.500000
313.885345	145.320000
313.978577	145.840000
314.071869	145.300000
314.165131	145.100000
314.258392	145.380000
314.351654	145.560000
314.444916	144.920000
314.538177	145.560000
314.631439	145.640000
314.724701	145.280000
314.817993	145.260000
314.911255	145.720000
315.004517	145.060000
315.097778	144.900000
315.191040	145.300000
315.284302	145.600000
315.377594	145.600000
315.470856	145.760000
315.564117	145.540000
315.657379	144.960000
315.750671	144.640000
315.843933	145.060000
315.937195	144.640000
316.030518	144.540000
316.123749	144.780000
316.217041	145.360000
316.310303	145.040000
316.403595	145.500000
316.496857	146.140000
316.590149	146.340000
316.683411	145.960000
316.776703	145.720000
316.869965	145.540000
316.963257	145.260000
317.056519	144.200000
317.149811	144.000000
317.243073	144.080000
317.336365	144.060000
317.429626	144.260000
317.522919	145.140000
317.616180	145.280000
317.709473	144.980000
317.802765	145.220000
317.896027	145.220000
317.989319	145.520000
318.082611	145.440000
318.175873	145.560000
318.269165	145.680000
318.362488	145.760000
318.455750	145.320000
318.549042	145.760000
318.642303	146.340000
318.735626	145.980000
318.828888	145.740000
318.922211	145.720000
319.015472	146.220000
319.108765	145.580000
319.202057	145.480000
319.295349	145.800000
319.388641	145.860000
319.481934	145.360000
319.575226	145.300000
319.668518	145.700000
319.761810	145.680000
319.855103	145.700000
319.948395	145.700000
320.041687	146.280000
320.134979	146.260000
320.228271	146.040000
320.321564	145.840000
320.414856	145.460000
320.508148	144.940000
320.601440	144.780000
320.694763	144.720000
320.788025	145.580000
320.881348	145.900000
320.974640	146.040000
321.067963	145.680000
321.161224	146.080000
321.254547	144.860000
321.347839	145.320000
321.441162	145.220000
321.534454	145.620000
321.627747	145.060000
321.721069	146.340000
321.814362	146.200000
321.907654	146.340000
322.000946	146.340000
322.094269	146.920000
322.187561	146.180000
322.280884	146.140000
322.374176	146.000000
322.467468	146.440000
322.560791	146.140000
322.654083	146.640000
322.747406	146.640000
322.840698	147.100000
322.934021	147.000000
323.027344	147.280000
323.120636	147.000000
323.213959	146.660000
323.307251	146.040000
323.400574	146.040000
323.493866	145.660000
323.587219	145.380000
323.680511	145.720000
323.773834	146.240000
323.867157	146.040000
323.960449	146.240000
324.053772	146.280000
324.147095	146.080000
324.240387	146.240000
324.333710	146.200000
324.427032	146.140000
324.520355	146.200000
324.613647	145.740000
324.706970	145.340000
324.800293	145.400000
324.893616	145.600000
324.986938	145.860000
325.080231	145.800000
325.173553	146.060000
325.266876	146.420000
325.360199	146.060000
325.453522	145.540000
325.546875	145.640000
325.640167	145.560000
325.733521	145.300000
325.826813	145.720000
325.920166	145.800000
326.013489	146.000000
326.106812	145.320000
326.200134	145.140000
326.293457	144.340000
326.386780	144.460000
326.480103	144.300000
326.573425	144.840000
326.666748	144.940000
326.760071	145.840000
326.853424	145.860000
326.946747	146.160000
327.040070	146.740000
327.133392	146.380000
327.226715	145.380000
327.320068	144.940000
327.413391	145.140000
327.506714	144.340000
327.600037	144.500000
327.693390	144.740000
327.786713	145.080000
327.880066	144.940000
327.973358	145.600000
328.066742	145.840000
328.160034	146.420000
328.253418	146.920000
328.346710	146.500000
328.440063	145.780000
328.533417	145.780000
328.626740	145.860000
328.720093	145.440000
328.813416	145.860000
328.906769	146.180000
329.000092	146.280000
329.093445	146.120000
329.186768	145.840000
329.280121	146.040000
329.373444	146.080000
329.466797	145.820000
329.560120	145.660000
329.653473	145.960000
329.746796	145.400000
329.840149	145.340000
329.933502	145.580000
330.026825	145.640000
330.120178	145.340000
330.213562	145.340000
330.306854	145.380000
330.400238	145.240000
330.493561	144.740000
330.586945	145.460000
330.680237	145.800000
330.773621	145.880000
330.866974	145.920000
330.960327	146.440000
331.053680	145.880000
331.147003	145.960000
331.240356	146.300000
331.333710	146.540000
331.427063	146.140000
331.520416	146.360000
331.613770	146.140000
331.707123	145.560000
331.800476	145.680000
331.893829	146.620000
331.987152	147.000000
332.080505	147.040000
332.173859	146.960000
332.267212	146.420000
332.360565	146.000000
332.453918	145.340000
332.547333	145.020000
332.640656	145.280000
332.734039	145.380000
332.827362	145.120000
332.920746	145.740000
333.014069	146.380000
333.107452	146.900000
333.200806	147.280000
333.294159	147.660000
333.387543	146.900000
333.480896	146.420000
333.574249	145.900000
333.667603	145.400000
333.760956	145.380000
333.854340	145.620000
333.947693	145.960000
334.041046	146.120000
334.134430	146.200000
334.227783	145.780000
334.321136	145.700000
334.414520	145.200000
334.507874	145.060000
334.601227	145.080000
334.694611	144.940000
334.787964	144.920000
334.881348	145.480000
334.974701	145.600000
335.068085	145.380000
335.161438	146.060000
335.254822	146.160000
335.348175	145.740000
335.441559	145.140000
335.534943	146.100000
335.628296	145.460000
335.721680	145.480000
335.815033	145.780000
335.908417	146.480000
336.001770	146.140000
336.095154	146.220000
336.188538	146.000000
336.281891	145.520000
336.375275	144.940000
336.468658	144.540000
336.562012	144.740000
336.655396	145.020000
336.748779	145.520000
336.842133	146.000000
336.935516	146.380000
337.028900	146.140000
337.122284	146.300000
337.215637	146.340000
337.309021	145.860000
337.402435	145.500000
337.495789	145.300000
337.589203	145.260000
337.682526	144.900000
337.775940	145.480000
337.869324	145.480000
337.962708	145.280000
338.056091	145.500000
338.149475	145.380000
338.242859	145.300000
338.336243	145.440000
338.429626	145.940000
338.523010	145.800000
338.616394	145.500000
338.709778	145.720000
338.803162	145.640000
338.896545	145.600000
338.989929	145.240000
339.083313	145.900000
339.176697	145.360000
339.270081	144.980000
339.363464	145.300000
339.456848	145.740000
339.550232	145.260000
339.643616	145.380000
339.737030	145.720000
339.830383	145.640000
339.923828	145.640000
340.017181	145.900000
340.110596	145.860000
340.203949	145.760000
340.297363	145.280000
340.390778	145.280000
340.484161	145.220000
340.577545	145.440000
340.670959	145.560000
340.764343	145.920000
340.857727	145.900000
340.951111	145.420000
341.044525	145.520000
341.137909	145.020000
341.231293	144.960000
341.324707	144.440000
341.418091	145.540000
341.511505	145.220000
341.604889	145.720000
341.698303	145.880000
341.791687	146.000000
341.885071	145.320000
341.978485	145.260000
342.071899	145.280000
342.165283	145.400000
342.258698	145.480000
342.352081	145.940000
342.445496	146.480000
342.538879	146.180000
342.632324	145.800000
342.725708	145.980000
342.819122	145.520000
342.912506	145.220000
343.005920	145.300000
343.099335	146.000000
343.192719	146.000000
343.286133	146.100000
343.379547	146.400000
343.472931	146.660000
343.566345	145.820000
343.659760	146.180000
343.753143	145.840000
343.846558	145.220000
343.939972	144.980000
344.033386	145.780000
344.126770	145.340000
344.220184	145.700000
344.313599	146.100000
344.407043	146.320000
344.500427	145.620000
344.593872	146.020000
344.687225	145.500000
344.780670	145.200000
344.874054	144.920000
344.967499	145.340000
345.060913	145.060000
345.154327	145.440000
345.247742	145.120000
345.341156	145.260000
345.434570	144.700000
345.527985	144.760000
345.621399	144.820000
345.714813	145.000000
345.808228	145.300000
345.901642	145.320000
345.995056	144.900000
346.088470	145.220000
346.181885	145.620000
346.275299	145.060000
346.368713	145.300000
346.462128	145.120000
346.555573	144.900000
346.648987	144.980000
346.742401	145.260000
346.835815	145.560000
346.929260	145.760000
347.022644	145.680000
347.116119	145.620000
347.209503	145.860000
347.302948	146.400000
347.396362	147.000000
347.489807	147.200000
347.583221	147.620000
347.676636	147.120000
347.770050	145.960000
347.863495	145.480000
347.956909	145.440000
348.050323	144.840000
348.143768	145.040000
348.237183	145.160000
348.330597	145.800000
348.424042	146.100000
348.517456	146.440000
348.610901	146.720000
348.704315	146.640000
348.797760	145.860000
348.891174	145.200000
348.984619	144.680000
349.078033	145.000000
349.171448	145.720000
349.264923	145.740000
349.358337	145.620000
349.451782	146.020000
349.545197	145.020000
349.638641	144.260000
349.732086	143.740000
349.825500	144.580000
349.918945	143.900000
350.012390	144.740000
350.105804	145.400000
350.199249	146.140000
350.292664	146.060000
350.386108	146.280000
350.479553	146.520000
350.572968	146.180000
350.666412	145.960000
350.759857	145.560000
350.853302	146.120000
350.946716	145.640000
351.040161	145.860000
351.133606	145.980000
351.227081	145.700000
351.320465	146.260000
351.413940	146.240000
351.507355	146.340000
351.600830	146.640000
351.694244	146.760000
351.787720	146.520000
351.881104	146.400000
351.974579	146.020000
352.067993	146.280000
352.161469	146.280000
352.254883	145.240000
352.348358	145.220000
352.441803	145.540000
352.535248	145.260000
352.628693	145.840000
352.722137	146.160000
352.815582	146.400000
352.909027	146.420000
353.002472	146.240000
353.095917	146.080000
353.189362	146.340000
353.282806	146.220000
353.376251	146.040000
353.469696	145.660000
353.563141	146.120000
353.656586	145.920000
353.750061	145.380000
353.843475	145.540000
353.936981	146.260000
354.030396	145.460000
354.123871	145.520000
354.217285	146.840000
354.310760	146.860000
354.404175	146.620000
354.497681	146.500000
354.591095	146.340000
354.684570	145.180000
354.777985	144.780000
354.871490	144.660000
354.964935	145.420000
355.058380	145.840000
355.151855	145.920000
355.245300	146.440000
355.338745	146.760000
355.432220	146.440000
355.525665	145.840000
355.619110	146.220000
355.712585	145.880000
355.806030	145.340000
355.899475	144.940000
355.992950	145.500000
356.086426	145.620000
356.179871	145.860000
356.273346	146.020000
356.366791	146.300000
356.460266	146.580000
356.553711	146.120000
356.647186	145.980000
356.740631	146.140000
356.834106	146.040000
356.927551	145.700000
357.021027	145.800000
357.114471	145.560000
357.207947	145.560000
357.301422	145.440000
357.394867	145.660000
357.488342	145.900000
357.581818	146.180000
357.675262	146.080000
357.768738	146.240000
357.862213	145.680000
357.955658	145.760000
358.049133	145.320000
358.142609	145.480000
358.236053	145.020000
358.329529	144.960000
358.423035	145.100000
358.516449	145.060000
358.609955	145.480000
358.703400	146.160000
358.796906	146.460000
358.890350	145.840000
358.983826	146.440000
359.077271	145.520000
359.170776	145.100000
359.264221	144.820000
359.357727	145.320000
359.451172	145.480000
359.544647	145.920000
359.638123	145.840000
359.731598	146.280000
359.825073	146.340000
359.918549	146.000000
360.012024	145.820000
360.105499	145.560000
360.198975	145.120000
360.292450	145.000000
360.385925	145.080000
360.479401	144.920000
360.572876	145.320000
360.666351	146.060000
360.759857	145.800000
360.853302	145.480000
360.946808	145.280000
361.040253	145.220000
361.133759	144.480000
361.227203	144.820000
361.320709	144.440000
361.414154	144.920000
361.507660	145.280000
361.601105	146.000000
361.694641	146.340000
361.788086	146.940000
361.881592	147.300000
361.975067	147.040000
362.068542	147.220000
362.162018	146.720000
362.255524	146.260000
362.348999	146.120000
362.442474	146.360000
362.535950	145.620000
362.629456	145.600000
362.722931	145.880000
362.816406	146.000000
362.909882	146.200000
363.003387	145.900000
363.096863	146.280000
363.190338	146.140000
363.283875	145.840000
363.377319	145.340000
363.470825	146.200000
363.564301	145.300000
363.657806	145.600000
363.751282	145.480000
363.844788	146.400000
363.938232	145.780000
364.031769	146.920000
364.125214	146.780000
364.218750	147.260000
364.312225	145.980000
364.405731	146.160000
364.499207	145.320000
364.592712	145.220000
364.686188	144.820000
364.779694	145.160000
364.873169	145.020000
364.966675	145.120000
365.060150	145.160000
365.153656	145.760000
365.247131	146.040000
365.340637	146.380000
365.434143	147.160000
365.527618	147.500000
365.621155	146.480000
365.714600	146.240000
365.808136	146.280000
365.901611	144.960000
365.995117	144.480000
366.088593	144.600000
366.182129	144.600000
366.275604	144.660000
366.369110	145.220000
366.462585	145.380000
366.556122	146.240000
366.649567	146.440000
366.743103	146.460000
366.836609	146.160000
366.930115	146.280000
367.023590	146.320000
367.117096	146.020000
367.210602	145.800000
367.304108	146.540000
367.397614	147.220000
367.491119	146.960000
367.584595	147.360000
367.678101	147.600000
367.771606	147.220000
367.865112	146.740000
367.958649	145.960000
368.052124	145.920000
368.145660	145.520000
368.239136	146.040000
368.332672	146.000000
368.426147	146.800000
368.519684	146.400000
368.613159	146.820000
368.706696	146.320000
368.800171	146.360000
368.893707	145.780000
368.987183	145.820000
369.080719	145.700000
369.174225	145.400000
369.267731	145.340000
369.361237	145.320000
369.454742	145.540000
369.548248	145.680000
369.641754	145.720000
369.735260	145.580000
369.828766	145.140000
369.922272	145.560000
370.015808	145.120000
370.109314	145.000000
370.202820	144.760000
370.296356	146.420000
370.389832	145.760000
370.483368	145.620000
370.576874	145.660000
370.670410	145.880000
370.763885	144.280000
370.857422	144.440000
370.950928	144.540000
371.044464	145.400000
371.137939	145.600000
371.231476	146.420000
371.324982	146.960000
371.418518	147.120000
371.512024	146.620000
371.605560	146.180000
371.699066	146.240000
371.792572	145.940000
371.886108	146.280000
371.979614	146.040000
372.073120	146.660000
372.166656	146.380000
372.260162	146.400000
372.353668	146.100000
372.447205	146.140000
372.540710	145.980000
372.634277	145.900000
372.727753	146.180000
372.821320	146.020000
372.914795	146.000000
373.008362	145.680000
373.101837	145.800000
373.195404	145.320000
373.288879	145.140000
373.382446	145.840000
373.475922	146.180000
373.569489	146.580000
373.662964	146.920000
373.756531	147.280000
373.850037	146.880000
373.943573	146.360000
374.037109	145.580000
374.130615	145.540000
374.224152	145.780000
374.317657	145.620000
374.411194	146.660000
374.504730	146.660000
374.598236	146.460000
374.691772	146.180000
374.785309	146.120000
374.878815	145.040000
374.972351	145.520000
375.065887	145.480000
375.159454	145.980000
375.252930	146.160000
375.346497	146.580000
375.440002	146.800000
375.533569	146.840000
375.627045	146.040000
375.720612	145.760000
375.814117	145.880000
375.907684	145.520000
376.001160	145.220000
376.094727	144.800000
376.188232	145.600000
376.281799	145.780000
376.375336	145.660000
376.468872	146.580000
376.562408	147.340000
376.655914	146.780000
376.749451	146.680000
376.842987	146.960000
376.936523	146.520000
377.030060	146.460000
377.123596	146.800000
377.217133	146.240000
377.310669	146.160000
377.404205	146.300000
377.497772	146.860000
377.591278	146.400000
377.684845	147.320000
377.778351	147.240000
377.871918	146.840000
377.965424	145.840000
378.058990	145.960000
378.152496	145.340000
378.246063	145.880000
378.339569	146.080000
378.433136	146.340000
378.526642	146.280000
378.620209	146.480000
378.713745	145.800000
378.807312	146.220000
378.900848	146.300000
378.994385	146.340000
379.087921	145.460000
379.181458	146.120000
379.274994	145.220000
379.368530	145.160000
379.462097	145.380000
379.555634	146.220000
379.649170	145.360000
379.742706	145.600000
379.836273	145.700000
379.929810	145.320000
380.023376	144.700000
380.116882	145.000000
380.210449	144.840000
380.303986	144.500000
380.397552	144.280000
380.491058	144.820000
380.584656	144.640000
380.678162	145.180000
380.771729	145.420000
380.865265	146.220000
380.958832	146.060000
381.052368	146.400000
381.145935	146.700000
381.239471	146.880000
381.333008	146.600000
381.426575	146.440000
381.520111	146.340000
381.613647	146.000000
381.707214	145.720000
381.800751	144.920000
381.894318	145.360000
381.987854	144.760000
382.081421	144.300000
382.174988	144.400000
382.268524	144.720000
382.362091	144.520000
382.455627	145.480000
382.549194	145.400000
382.642731	144.740000
382.736298	144.720000
382.829834	144.380000
382.923401	144.880000
383.016937	145.160000
383.110504	145.960000
383.204041	146.140000
383.297607	146.680000
383.391174	145.700000
383.484741	146.260000
383.578278	145.840000
383.671844	145.580000
383.765411	144.960000
383.858948	145.280000
383.952515	144.940000
384.046051	145.240000
384.139618	145.660000
384.233185	146.080000
384.326721	146.000000
384.420288	146.420000
384.513855	146.540000
384.607422	146.840000
384.700989	147.100000
384.794525	146.680000
384.888123	146.460000
384.981659	146.380000
385.075226	145.680000
385.168762	145.400000
385.262360	145.520000
385.355896	144.740000
385.449463	144.520000
385.542999	144.940000
385.636597	145.420000
385.730164	145.660000
385.823730	145.720000
385.917267	145.600000
386.010834	145.660000
386.104401	145.500000
386.197968	145.700000
386.291534	146.000000
386.385101	146.040000
386.478668	146.240000
386.572235	145.960000
386.665802	145.580000
386.759338	145.580000
386.852905	145.360000
386.946472	144.460000
387.040070	144.680000
387.133606	144.660000
387.227203	144.220000
387.320740	144.700000
387.414337	145.000000
387.507874	144.640000
387.601471	144.940000
387.695007	144.880000
387.788605	144.520000
387.882141	144.880000
387.975739	145.040000
388.069275	144.540000
388.162872	145.260000
388.256439	145.400000
388.350037	145.060000
388.443604	145.080000
388.537170	145.080000
388.630737	145.580000
388.724304	145.720000
388.817871	145.580000
388.911438	145.440000
389.005005	146.080000
389.098602	145.940000
389.192169	145.680000
389.285736	146.240000
389.379333	146.360000
389.472870	145.660000
389.566467	145.460000
389.660034	145.820000
389.753632	145.420000
389.847168	145.620000
389.940765	145.940000
390.034332	145.900000
390.127930	145.520000
390.221466	145.620000
390.315063	145.240000
390.408630	144.720000
390.502228	143.740000
390.595795	144.000000
390.689362	144.240000
390.782959	144.720000
390.876526	145.480000
390.970093	145.840000
391.063690	146.340000
391.157257	146.200000
391.250824	146.240000
391.344421	145.820000
391.437988	146.200000
391.531555	146.120000
391.625153	146.080000
391.718750	146.200000
391.812317	146.340000
391.905914	146.120000
391.999481	145.840000
392.093079	146.060000
392.186615	146.160000
392.280243	146.200000
392.373779	146.100000
392.467407	146.300000
392.560944	146.200000
392.654572	145.640000
392.748108	145.560000
392.841736	145.840000
392.935303	145.640000
393.028900	145.560000
393.122467	145.680000
393.216064	145.440000
393.309631	144.800000
393.403229	144.440000
393.496796	144.220000
393.590393	143.580000
393.683990	144.240000
393.777557	145.220000
393.871155	145.640000
393.964722	146.180000
394.058350	146.680000
394.151917	146.100000
394.245514	145.420000
394.339081	145.780000
394.432678	145.900000
394.526245	145.780000
394.619873	145.380000
394.713409	145.580000
394.807037	145.160000
394.900604	145.240000
394.994202	145.600000
395.087769	146.100000
395.181396	145.820000
395.274994	146.480000
395.368561	145.580000
395.462158	145.480000
395.555756	145.420000
395.649353	146.220000
395.742920	145.480000
395.836517	146.440000
395.930115	145.760000
396.023712	145.920000
396.117279	145.760000
396.210876	145.280000
396.304474	145.040000
396.398071	145.840000
396.491669	146.400000
396.585266	146.300000
396.678833	146.660000
396.772461	146.620000
396.866028	146.100000
396.959656	145.720000
397.053223	145.740000
397.146851	145.820000
397.240417	145.960000
397.334015	147.040000
397.427582	147.260000
397.521210	147.840000
397.614807	148.820000
397.708405	149.640000
397.802002	150.300000
397.895599	152.100000
397.989197	153.640000
398.082794	155.660000
398.176392	158.360000
398.269989	161.520000
398.363586	165.220000
398.457184	170.360000
398.550781	175.880000
398.644379	180.880000
398.737976	186.920000
398.831573	193.300000
398.925201	198.960000
399.018768	205.080000
399.112396	212.860000
399.205963	220.520000
399.299591	229.120000
399.393158	239.080000
399.486786	251.020000
399.580353	262.960000
399.673981	275.640000
399.767578	289.500000
399.861206	303.480000
399.954773	316.460000
400.048401	328.320000
400.141998	338.460000
400.235596	345.840000
400.329193	350.200000
400.422791	352.460000
400.516418	352.520000
400.610016	352.100000
400.703613	350.300000
400.797211	346.580000
400.890808	341.220000
400.984436	334.560000
401.078033	324.580000
401.171631	312.600000
401.265259	299.260000
401.358826	284.740000
401.452484	268.800000
401.546051	254.060000
401.639679	238.080000
401.733246	223.960000
401.826904	209.940000
401.920471	197.760000
402.014099	186.900000
402.107697	178.500000
402.201324	171.440000
402.294891	166.020000
402.388550	162.120000
402.482147	158.480000
402.575745	155.300000
402.669373	152.480000
402.762970	150.720000
402.856567	149.120000
402.950195	148.400000
403.043793	147.740000
403.137390	148.100000
403.231018	147.140000
403.324615	147.660000
403.418243	146.760000
403.511841	147.240000
403.605469	146.780000
403.699066	147.120000
403.792694	146.740000
403.886292	146.960000
403.979919	146.540000
404.073517	146.000000
404.167145	146.340000
404.260712	146.200000
404.354370	146.300000
404.447937	146.500000
404.541595	146.860000
404.635162	146.900000
404.728821	147.400000
404.822418	146.920000
404.916046	146.400000
405.009644	146.480000
405.103271	146.540000
405.196899	145.720000
405.290497	145.920000
405.384125	146.640000
405.477722	146.320000
405.571350	145.680000
405.664948	146.100000
405.758575	145.700000
405.852203	145.040000
405.945801	145.340000
406.039429	145.660000
406.133057	145.180000
406.226654	145.380000
406.320312	145.180000
406.413879	144.980000
406.507538	145.300000
406.601135	144.980000
406.694763	145.360000
406.788361	145.620000
406.882019	145.560000
406.975586	145.640000
407.069244	146.580000
407.162872	146.380000
407.256470	146.080000
407.350098	145.940000
407.443726	145.380000
407.537323	144.720000
407.630951	144.740000
407.724579	144.560000
407.818207	144.960000
407.911804	144.720000
408.005432	144.840000
408.099060	145.600000
408.192688	146.320000
408.286285	146.360000
408.379913	146.500000
408.473572	146.480000
408.567169	145.200000
408.660828	145.100000
408.754395	144.680000
408.848053	144.660000
408.941650	144.980000
409.035309	144.740000
409.128906	144.640000
409.222565	144.760000
409.316132	144.780000
409.409790	144.320000
409.503387	145.060000
409.597046	145.140000
409.690674	145.360000
409.784302	145.420000
409.877930	145.400000
409.971558	145.380000
410.065186	145.320000
410.158783	144.920000
410.252411	144.920000
410.346039	145.480000
410.439667	145.480000
410.533295	145.680000
410.626923	146.100000
410.720551	145.840000
410.814209	145.860000
410.907806	146.020000
411.001465	145.440000
411.095062	145.600000
411.188721	146.180000
411.282318	145.940000
411.375977	145.580000
411.469574	146.320000
411.563232	145.820000
411.656830	145.340000
411.750488	144.960000
411.844086	144.760000
411.937744	144.640000
412.031372	144.500000
412.125000	144.480000
412.218628	144.620000
412.312256	145.660000
412.405884	145.840000
412.499512	145.900000
412.593170	146.460000
412.686798	146.800000
412.780426	145.940000
412.874054	146.060000
412.967682	146.420000
413.061310	146.700000
413.154968	146.860000
413.248566	147.120000
413.342224	146.320000
413.435852	146.360000
413.529510	145.860000
413.623108	145.160000
413.716766	145.280000
413.810364	145.980000
413.904022	145.700000
413.997650	145.340000
414.091309	146.300000
414.184906	145.720000
414.278564	145.360000
414.372192	145.540000
414.465851	145.820000
414.559479	145.260000
414.653107	146.040000
414.746735	145.740000
414.840393	145.700000
414.934021	145.920000
415.027649	145.720000
415.121277	145.660000
415.214935	146.140000
415.308563	146.140000
415.402191	145.600000
415.495850	145.760000
415.589478	145.600000
415.683136	145.280000
415.776733	145.360000
415.870422	146.040000
415.964020	145.320000
416.057678	145.260000
416.151306	145.400000
416.244965	145.500000
416.338562	145.020000
416.432251	146.000000
416.525848	146.620000
416.619507	146.780000
416.713165	147.160000
416.806793	147.360000
416.900421	147.120000
416.994080	146.320000
417.087708	146.600000
417.181366	145.700000
417.274994	145.500000
417.368622	145.800000
417.462280	146.340000
417.555908	146.060000
417.649567	146.380000
417.743195	146.540000
417.836853	146.280000
417.930481	146.340000
418.024170	146.280000
418.117767	146.820000
418.211426	147.060000
418.305054	147.220000
418.398712	146.360000
418.492340	146.340000
418.585999	146.460000
418.679626	146.600000
418.773285	146.840000
418.866913	147.600000
418.960571	147.780000
419.054230	147.480000
419.147858	147.080000
419.241516	146.980000
419.335144	146.480000
419.428802	146.240000
419.522461	145.980000
419.616089	146.000000
419.709747	146.040000
419.803375	146.340000
419.897034	146.120000
419.990662	146.140000
420.084320	146.380000
420.177979	146.240000
420.271606	146.440000
420.365295	146.780000
420.458893	147.060000
420.552582	147.100000
420.646210	147.280000
420.739868	146.800000
420.833496	146.780000
420.927155	146.260000
421.020782	145.980000
421.114471	145.000000
421.208069	145.040000
421.301758	145.260000
421.395386	145.400000
421.489044	145.000000
421.582703	145.640000
421.676361	146.280000
421.769989	145.760000
421.863647	146.120000
421.957306	146.740000
422.050934	146.700000
422.144592	146.180000
422.238251	145.780000
422.331909	145.560000
422.425537	145.300000
422.519196	145.120000
422.612854	144.720000
422.706543	145.060000
422.800140	145.320000
422.893829	145.100000
422.987457	145.020000
423.081146	145.360000
423.174744	146.040000
423.268433	145.420000
423.362061	145.300000
423.455750	145.460000
423.549347	145.380000
423.643036	144.460000
423.736664	145.360000
423.830353	145.700000
423.924011	146.160000
424.017639	145.780000
424.111298	145.980000
424.204956	145.420000
424.298615	145.200000
424.392273	144.920000
424.485931	145.620000
424.579559	145.860000
424.673218	145.720000
424.766876	145.900000
424.860535	145.360000
424.954193	144.980000
425.047882	145.340000
425.141510	145.440000
425.235199	145.600000
425.328796	145.700000
425.422485	145.880000
425.516113	145.340000
425.609802	145.440000
425.703430	145.440000
425.797119	145.520000
425.890747	145.400000
425.984436	145.660000
426.078064	146.020000
426.171753	145.980000
426.265411	145.960000
426.359070	146.100000
426.452728	145.820000
426.546356	145.320000
426.640015	145.120000
426.733673	144.780000
426.827332	144.460000
426.920990	145.460000
427.014648	145.200000
427.108307	145.400000
427.201965	146.380000
427.295624	146.900000
427.389282	145.620000
427.482941	146.040000
427.576630	145.960000
427.670258	145.140000
427.763947	144.800000
427.857574	145.420000
427.951263	145.320000
428.044922	145.080000
428.138611	145.560000
428.232239	146.320000
428.325928	146.680000
428.419556	146.940000
428.513245	146.820000
428.606903	146.800000
428.700562	145.700000
428.794220	144.900000
428.887878	144.260000
428.981537	144.740000
429.075195	144.700000
429.168854	145.520000
429.262512	145.400000
429.356201	145.600000
429.449860	145.380000
429.543518	145.300000
429.637177	145.380000
429.730835	145.780000
429.824493	145.640000
429.918182	146.140000
430.011810	146.020000
430.105530	145.160000
430.199158	145.340000
430.292847	145.500000
430.386475	145.100000
430.480164	144.920000
430.573792	145.140000
430.667511	144.720000
430.761139	144.600000
430.854828	145.220000
430.948456	145.140000
431.042145	145.340000
431.135834	145.360000
431.229492	145.700000
431.323151	145.220000
431.416809	145.540000
431.510468	145.580000
431.604156	145.480000
431.697815	145.460000
431.791473	144.980000
431.885132	144.580000
431.978821	144.900000
432.072479	145.240000
432.166138	145.640000
432.259827	145.900000
432.353485	146.480000
432.447174	146.440000
432.540802	146.280000
432.634491	146.040000
432.728149	146.200000
432.821838	146.840000
432.915466	146.380000
433.009186	146.520000
433.102814	145.800000
433.196503	145.560000
433.290131	145.020000
433.383850	145.200000
433.477509	145.460000
433.571167	146.560000
433.664856	146.820000
433.758514	147.000000
433.852173	146.960000
433.945862	146.540000
434.039520	146.200000
434.133179	145.720000
434.226868	145.420000
434.320526	145.060000
434.414185	145.660000
434.507874	145.380000
434.601562	146.100000
434.695221	145.800000
434.788910	146.200000
434.882538	146.140000
434.976257	145.640000
435.069885	145.580000
435.163574	145.660000
435.257233	145.100000
435.350922	144.980000
435.444580	145.220000
435.538269	144.800000
435.631897	145.220000
435.725616	146.060000
435.819275	146.240000
435.912964	146.760000
436.006622	147.220000
436.100311	146.940000
436.193970	146.020000
436.287628	145.840000
436.381317	145.500000
436.474976	145.080000
436.568665	144.700000
436.662323	145.140000
436.756012	144.860000
436.849670	144.580000
436.943390	144.500000
437.037018	144.660000
437.130737	144.660000
437.224365	144.600000
437.318085	145.020000
437.411713	145.100000
437.505432	145.640000
437.599060	146.280000
437.692780	146.860000
437.786407	146.660000
437.880127	146.600000
437.973755	146.240000
438.067474	145.460000
438.161133	145.240000
438.254822	145.520000
438.348480	145.480000
438.442169	146.320000
438.535828	146.760000
438.629517	146.620000
438.723175	146.300000
438.816864	146.940000
438.910553	145.960000
439.004211	145.780000
439.097900	145.380000
439.191559	145.380000
439.285248	144.780000
439.378906	145.000000
439.472626	144.760000
439.566284	144.920000
439.659973	145.320000
439.753632	145.180000
439.847321	145.640000
439.940979	145.940000
440.034698	145.920000
440.128326	145.460000
440.222046	145.360000
440.315674	144.720000
440.409393	144.740000
440.503082	144.500000
440.596741	144.800000
440.690430	145.220000
440.784088	145.140000
440.877777	144.660000
440.971466	145.020000
441.065125	144.600000
441.158813	144.320000
441.252502	144.360000
441.346161	144.700000
441.439850	144.960000
441.533539	145.080000
441.627197	145.460000
441.720886	145.440000
441.814606	146.100000
441.908234	146.320000
442.001953	146.340000
442.095612	146.280000
442.189301	146.580000
442.282959	146.160000
442.376678	145.380000
442.470306	145.640000
442.564026	145.320000
442.657684	145.400000
442.751404	145.300000
442.845032	146.200000
442.938751	146.220000
443.032440	146.560000
443.126099	146.200000
443.219788	146.780000
443.313477	146.280000
443.407166	146.300000
443.500824	146.020000
443.594513	146.520000
443.688202	145.900000
443.781891	145.320000
443.875549	144.920000
443.969238	145.220000
444.062927	145.060000
444.156647	144.940000
444.250275	145.720000
444.343994	146.080000
444.437653	146.160000
444.531372	145.860000
444.625031	145.900000
444.718719	145.460000
444.812378	145.400000
444.906097	144.920000
444.999756	144.780000
445.093445	144.840000
445.187103	145.200000
445.280823	145.620000
445.374512	145.500000
445.468201	145.920000
445.561859	145.740000
445.655548	145.640000
445.749237	145.160000
445.842926	145.440000
445.936615	145.800000
446.030304	145.740000
446.123962	145.620000
446.217651	145.420000
446.311340	145.640000
446.405029	145.020000
446.498749	144.820000
446.592407	144.740000
446.686096	144.900000
446.779755	144.920000
446.873474	145.220000
446.967133	145.620000
447.060852	145.460000
447.154510	145.360000
447.248230	145.420000
447.341858	144.960000
447.435577	144.760000
447.529236	144.660000
447.622955	144.660000
447.716644	144.620000
447.810333	144.980000
447.904022	145.620000
447.997711	145.720000
448.091400	146.220000
448.185059	145.860000
448.278748	146.060000
448.372437	145.480000
448.466125	145.800000
448.559814	145.540000
448.653503	146.080000
448.747192	146.140000
448.840912	146.660000
448.934570	146.880000
449.028290	147.140000
449.121948	146.820000
449.215637	146.220000
449.309296	145.860000
449.403015	145.700000
449.496674	145.480000
449.590393	145.560000
449.684052	145.600000
449.777771	146.340000
449.871429	145.720000
449.965149	145.620000
450.058838	145.800000
450.152527	146.540000
450.246216	145.940000
450.339905	146.320000
450.433594	146.140000
450.527283	146.560000
450.620972	146.160000
450.714661	146.160000
450.808350	146.140000
450.902039	146.540000
450.995728	146.040000
451.089417	145.620000
451.183105	145.700000
451.276794	146.240000
451.370514	145.600000
451.464172	145.100000
451.557892	145.080000
451.651550	145.240000
451.745270	144.620000
451.838928	144.300000
451.932648	144.520000
452.026306	145.040000
452.120026	144.400000
452.213684	144.780000
452.307404	145.180000
452.401062	145.380000
452.494781	145.640000
452.588470	145.700000
452.682159	144.960000
452.775848	145.320000
452.869537	144.760000
452.963226	144.180000
453.056915	144.320000
453.150604	144.740000
453.244293	144.840000
453.337982	145.660000
453.431671	146.220000
453.525360	146.520000
453.619049	146.480000
453.712769	146.040000
453.806427	145.540000
453.900146	144.960000
453.993805	144.520000
454.087555	145.040000
454.181213	145.420000
454.274933	145.300000
454.368591	145.360000
454.462311	145.380000
454.555969	144.940000
454.649689	145.640000
454.743347	145.620000
454.837067	146.340000
454.930756	147.000000
455.024445	147.360000
455.118134	146.700000
455.211853	146.900000
455.305542	146.200000
455.399231	145.700000
455.492920	145.280000
455.586609	145.420000
455.680298	145.700000
455.773987	145.420000
455.867676	145.640000
455.961365	146.240000
456.055084	146.020000
456.148773	145.880000
456.242493	146.000000
456.336151	145.880000
456.429871	145.940000
456.523529	146.480000
456.617249	146.260000
456.710907	147.040000
456.804626	146.960000
456.898315	145.860000
456.992035	145.320000
457.085693	145.100000
457.179413	144.200000
457.273102	145.060000
457.366791	145.520000
457.460480	145.800000
457.554199	146.560000
457.647888	146.820000
457.741577	146.100000
457.835266	146.160000
457.928955	146.220000
458.022644	146.240000
458.116364	146.480000
458.210052	146.400000
458.303741	146.800000
458.397461	146.320000
458.491119	145.640000
458.584839	145.660000
458.678528	145.500000
458.772247	145.100000
458.865906	145.320000
458.959625	146.240000
459.053284	146.180000
459.147003	146.220000
459.240692	147.280000
459.334412	147.460000
459.428070	146.880000
459.521790	146.720000
459.615479	146.760000
459.709198	146.300000
459.802887	145.640000
459.896576	145.320000
459.990265	145.420000
460.083954	145.900000
460.177673	145.460000
460.271362	145.780000
460.365051	146.160000
460.458740	146.400000
460.552429	145.780000
460.646149	145.680000
460.739838	145.500000
460.833527	145.460000
460.927246	144.820000
461.020905	144.700000
461.114655	144.760000
461.208313	145.280000
461.302032	144.660000
461.395691	145.220000
461.489441	145.420000
461.583099	145.140000
461.676819	144.840000
461.770477	145.520000
461.864197	144.980000
461.957916	145.040000
462.051605	144.740000
462.145294	145.400000
462.238983	144.900000
462.332703	145.400000
462.426392	145.860000
462.520081	146.280000
462.613770	145.420000
462.707489	145.680000
462.801178	145.500000
462.894867	145.260000
462.988556	145.380000
463.082275	145.560000
463.175964	145.380000
463.269684	145.360000
463.363342	145.280000
463.457092	144.760000
463.550751	145.000000
463.644470	145.120000
463.738129	145.180000
463.831879	145.080000
463.925537	145.740000
464.019257	145.800000
464.112946	146.080000
464.206665	145.680000
464.300323	145.680000
464.394043	145.460000
464.487762	145.260000
464.581451	145.460000
464.675140	145.800000
464.768829	146.100000
464.862549	146.120000
464.956238	146.000000
465.049927	146.020000
465.143646	146.100000
465.237335	145.880000
465.331024	146.500000
465.424713	146.760000
465.518433	146.500000
465.612152	146.280000
465.705811	146.280000
465.799561	145.700000
465.893219	145.220000
465.986938	145.320000
466.080597	145.060000
466.174347	145.120000
466.268005	145.420000
466.361725	145.440000
466.455414	145.200000
466.549133	145.520000
466.642792	145.500000
466.736542	144.780000
466.830231	145.160000
466.923920	145.180000
467.017609	145.100000
467.111328	144.820000
467.205017	145.240000
467.298706	145.320000
467.392426	145.320000
467.486115	145.540000
467.579803	145.520000
467.673523	145.820000
467.767212	145.780000
467.860901	145.720000
467.954651	145.780000
468.048309	146.040000
468.142029	145.780000
468.235718	145.960000
468.329437	145.800000
468.423096	145.820000
468.516846	145.580000
468.610504	145.600000
468.704224	145.040000
468.797913	145.240000
468.891632	145.400000
468.985291	145.480000
469.079010	145.380000
469.172729	145.340000
469.266418	145.640000
469.360107	145.660000
469.453827	145.320000
469.547516	145.500000
469.641205	146.140000
469.734924	146.320000
469.828613	146.500000
469.922302	147.180000
470.016022	146.960000
470.109711	146.760000
470.203430	145.940000
470.297150	145.080000
470.390808	145.040000
470.484558	145.020000
470.578217	145.140000
470.671936	145.740000
470.765625	146.660000
470.859344	146.340000
470.953003	146.560000
471.046753	146.240000
471.140411	145.600000
471.234131	145.260000
471.327820	145.980000
471.421539	145.780000
471.515228	145.520000
471.608948	145.720000
471.702637	145.480000
471.796326	144.760000
471.890045	145.120000
471.983734	145.360000
472.077423	145.180000
472.171143	145.460000
472.264832	145.440000
472.358521	144.880000
472.452240	144.700000
472.545929	145.540000
472.639648	145.560000
472.733337	146.220000
472.827057	146.660000
472.920746	146.660000
473.014465	146.680000
473.108124	146.500000
473.201874	145.980000
473.295532	145.840000
473.389252	146.560000
473.482941	146.480000
473.576660	146.160000
473.670319	146.100000
473.764069	146.220000
473.857727	145.920000
473.951477	145.800000
474.045166	146.240000
474.138855	146.100000
474.232574	146.220000
474.326263	146.220000
474.419952	146.520000
474.513672	146.240000
474.607361	146.380000
474.701050	146.140000
474.794769	146.500000
474.888458	146.220000
474.982178	146.460000
475.075867	146.500000
475.169586	146.640000
475.263275	146.060000
475.356995	146.060000
475.450653	145.640000
475.544403	145.240000
475.638062	145.780000
475.731812	145.560000
475.825470	145.380000
475.919189	145.560000
476.012878	146.000000
476.106598	145.220000
476.200256	145.480000
476.294006	145.380000
476.387695	145.480000
476.481384	145.160000
476.575104	145.220000
476.668793	145.240000
476.762512	144.840000
476.856201	145.200000
476.949890	145.220000
477.043610	144.680000
477.137299	144.480000
477.230988	144.960000
477.324707	144.580000
477.418396	145.280000
477.512146	145.580000
477.605804	145.760000
477.699524	145.900000
477.793213	145.720000
477.886932	145.220000
477.980591	145.180000
478.074341	144.900000
478.167999	144.480000
478.261749	144.920000
478.355408	144.800000
478.449127	145.160000
478.542816	145.780000
478.636536	146.700000
478.730225	146.720000
478.823944	147.220000
478.917633	147.360000
479.011322	147.620000
479.105042	147.180000
479.198730	147.060000
479.292450	146.500000
479.386139	146.460000
479.479828	146.140000
479.573547	146.320000
479.667267	146.160000
479.760925	146.560000
479.854675	146.680000
479.948334	146.780000
480.042084	146.120000
480.135742	146.560000
480.229462	146.060000
480.323151	145.900000
480.416870	145.040000
480.510529	145.140000
480.604279	144.540000
480.697937	144.960000
480.791656	144.480000
480.885345	144.560000
480.979065	144.760000
481.072754	145.220000
481.166473	145.640000
481.260132	145.660000
481.353882	145.880000
481.447540	145.820000
481.541260	145.660000
481.635010	144.840000
481.728668	145.200000
481.822388	145.140000
481.916077	145.120000
482.009796	145.040000
482.103485	145.360000
482.197205	145.180000
482.290863	145.500000
482.384613	145.040000
482.478271	144.660000
482.571991	144.780000
482.665680	144.600000
482.759399	145.060000
482.853058	145.760000
482.946808	146.040000
483.040466	145.580000
483.134216	145.680000
483.227875	145.000000
483.321594	145.300000
483.415283	145.280000
483.509003	145.220000
483.602661	144.940000
483.696411	145.420000
483.790070	144.980000
483.883789	144.840000
483.977478	145.260000
484.071198	145.680000
484.164917	144.840000
484.258606	144.580000
484.352325	145.040000
484.445984	145.380000
484.539734	145.400000
484.633392	145.420000
484.727142	145.860000
484.820801	145.500000
484.914520	145.020000
485.008209	145.080000
485.101929	145.600000
485.195587	145.100000
485.289337	144.900000
485.382996	144.900000
485.476715	144.660000
485.570404	144.880000
485.664124	144.980000
485.757782	145.600000
485.851532	145.480000
485.945190	145.620000
486.038910	145.700000
486.132599	146.260000
486.226318	145.380000
486.319977	145.420000
486.413727	145.840000
486.507446	145.440000
486.601105	144.620000
486.694855	145.220000
486.788513	145.180000
486.882233	144.860000
486.975922	144.900000
487.069641	145.180000
487.163300	144.780000
487.257050	145.980000
487.350708	146.100000
487.444427	145.780000
487.538116	145.940000
487.631836	146.160000
487.725494	145.400000
487.819214	145.260000
487.912903	145.340000
488.006622	145.400000
488.100281	145.500000
488.194031	145.180000
488.287689	145.440000
488.381409	146.060000
488.475098	145.780000
488.568817	145.840000
488.662476	145.780000
488.756226	145.260000
488.849945	144.320000
488.943604	144.480000
489.037354	144.860000
489.131012	144.880000
489.224731	144.860000
489.318390	144.960000
489.412140	145.140000
489.505798	144.840000
489.599518	144.780000
489.693207	145.200000
489.786926	145.240000
489.880585	144.960000
489.974335	145.220000
490.067993	146.080000
490.161713	146.080000
490.255371	146.940000
490.349121	147.020000
490.442780	146.680000
490.536499	145.920000
490.630188	145.880000
490.723907	145.020000
490.817566	145.020000
490.911285	144.880000
491.004974	144.560000
491.098694	144.220000
491.192413	145.300000
491.286102	145.100000
491.379822	145.420000
491.473480	145.760000
491.567200	145.740000
491.660889	144.640000
491.754608	144.800000
491.848267	144.380000
491.941986	144.360000
492.035675	144.540000
492.129395	144.940000
492.223053	144.820000
492.316772	145.180000
492.410461	145.360000
492.504181	145.360000
492.597839	145.280000
492.691559	145.380000
492.785248	145.400000
492.878967	145.440000
492.972626	145.320000
493.066345	145.240000
493.160034	144.900000
493.253754	144.980000
493.347412	144.460000
493.441132	144.940000
493.534882	145.700000
493.628540	146.160000
493.722260	146.040000
493.815918	146.600000
493.909668	146.680000
494.003326	146.580000
494.097046	146.700000
494.190704	146.420000
494.284454	146.280000
494.378113	146.100000
494.471832	145.500000
494.565491	145.100000
494.659210	145.320000
494.752899	145.260000
494.846619	145.000000
494.940277	145.460000
495.033997	145.480000
495.127686	145.280000
495.221405	145.120000
495.315063	145.100000
495.408783	145.200000
495.502441	145.320000
495.596191	145.340000
495.689850	145.160000
495.783569	145.740000
495.877228	145.540000
495.970947	145.640000
496.064697	145.560000
496.158356	146.500000
496.252075	146.120000
496.345734	146.100000
496.439453	146.420000
496.533142	146.720000
496.626862	146.480000
496.720520	146.480000
496.814240	146.360000
496.907898	146.120000
497.001617	146.220000
497.095306	145.500000
497.189026	145.300000
497.282684	145.680000
497.376404	145.980000
497.470062	145.880000
497.563782	146.180000
497.657471	146.020000
497.751190	145.320000
497.844849	144.820000
497.938568	145.000000
498.032227	145.200000
498.125946	145.520000
498.219635	145.680000
498.313354	146.060000
498.407074	145.660000
498.500732	145.640000
498.594452	145.940000
498.688110	145.900000
498.781830	145.720000
498.875519	146.000000
498.969238	145.760000
499.062897	145.200000
499.156616	145.900000
499.250275	146.140000
499.343994	145.480000
499.437653	145.600000
499.531372	145.840000
499.625061	146.080000
499.718781	145.860000
499.812439	146.700000
499.906158	146.760000
499.999817	146.640000
500.093536	145.820000
500.187195	145.740000
500.280914	145.820000
500.374573	146.000000
500.468323	145.800000
500.561981	146.160000
500.655701	145.880000
500.749420	145.460000
500.843079	145.500000
500.936798	145.880000
501.030457	145.940000
501.124176	146.320000
501.217834	146.180000
501.311554	145.740000
501.405212	145.480000
501.498962	144.560000
501.592621	144.280000
501.686340	144.600000
501.779999	144.940000
501.873718	145.100000
501.967377	145.640000
502.061096	146.060000
502.154755	145.540000
502.248474	145.680000
502.342133	145.780000
502.435852	145.940000
502.529510	146.600000
502.623230	147.460000
502.716888	146.740000
502.810608	146.800000
502.904266	147.520000
502.997986	146.640000
503.091705	145.840000
503.185364	146.220000
503.279083	146.140000
503.372772	145.340000
503.466492	145.160000
503.560150	145.280000
503.653870	145.740000
503.747528	145.620000
503.841248	145.360000
503.934906	145.500000
504.028625	145.500000
504.122284	145.360000
504.216003	145.960000
504.309662	145.760000
504.403381	145.840000
504.497040	145.840000
504.590759	145.540000
504.684418	145.440000
504.778137	146.200000
504.871796	146.680000
504.965515	146.600000
505.059174	146.680000
505.152893	146.340000
505.246521	145.560000
505.340240	145.140000
505.433899	145.140000
505.527618	145.140000
505.621338	145.280000
505.714996	145.360000
505.808716	145.360000
505.902374	146.120000
505.996094	146.340000
506.089752	146.000000
506.183472	146.340000
506.277130	145.960000
506.370850	145.420000
506.464508	144.980000
506.558228	145.320000
506.651886	144.900000
506.745605	145.360000
506.839264	145.300000
506.932983	145.440000
507.026611	145.140000
507.120331	145.840000
507.213989	144.980000
507.307709	145.320000
507.401367	145.600000
507.495087	146.200000
507.588745	145.840000
507.682465	146.980000
507.776123	146.680000
507.869843	146.500000
507.963531	146.120000
508.057190	146.560000
508.150909	145.880000
508.244568	146.440000
508.338287	146.220000
508.431946	146.160000
508.525665	145.840000
508.619324	145.820000
508.713013	145.560000
508.806671	145.740000
508.900391	146.380000
508.994049	146.600000
509.087769	146.440000
509.181427	146.440000
509.275146	146.340000
509.368774	145.480000
509.462494	145.160000
509.556152	145.320000
509.649872	145.580000
509.743530	145.480000
509.837250	146.040000
509.930878	146.060000
510.024597	146.180000
510.118256	146.060000
510.211975	146.160000
510.305695	145.840000
510.399353	146.320000
510.493042	146.700000
510.586700	146.600000
510.680420	147.000000
510.774078	146.780000
510.867798	146.540000
510.961426	145.920000
511.055145	145.660000
511.148804	145.380000
511.242523	145.900000
511.336151	145.880000
511.429871	146.280000
511.523529	146.280000
511.617249	146.180000
511.710876	145.720000
511.804596	145.240000
511.898254	144.860000
511.991974	145.380000
512.085632	145.400000
512.179321	145.780000
512.272949	146.120000
512.366699	146.480000
512.460327	145.860000
512.554077	146.760000
512.647766	146.440000
512.741394	146.380000
512.835144	146.880000
512.928772	146.780000
513.022461	146.420000
513.116150	146.120000
513.209839	146.680000
513.303467	146.200000
513.397217	145.840000
513.490845	145.360000
513.584595	145.140000
513.678223	144.560000
513.771912	144.060000
513.865601	144.760000
513.959290	144.540000
514.052917	144.960000
514.146667	145.580000
514.240295	146.060000
514.333984	146.140000
514.427673	146.280000
514.521362	146.640000
514.614990	145.640000
514.708740	145.880000
514.802368	145.820000
514.896057	145.960000
514.989746	146.460000
515.083435	146.820000
515.177124	147.080000
515.270752	146.600000
515.364502	146.360000
515.458130	146.140000
515.551819	145.980000
515.645508	145.500000
515.739197	145.860000
515.832825	146.120000
515.926575	145.540000
516.020203	145.960000
516.113892	146.420000
516.207520	146.400000
516.301270	146.460000
516.394897	146.800000
516.488586	146.900000
516.582275	146.540000
516.675964	145.960000
516.769592	145.580000
516.863281	145.600000
516.956970	145.640000
517.050659	144.940000
517.144287	145.560000
517.238037	145.800000
517.331665	145.140000
517.425354	144.780000
517.519043	145.400000
517.612732	145.500000
517.706421	145.300000
517.800049	145.460000
517.893738	145.260000
517.987427	145.220000
518.081116	144.860000
518.174744	144.980000
518.268433	145.680000
518.362122	146.380000
518.455811	146.240000
518.549438	147.160000
518.643127	147.740000
518.736816	147.280000
518.830505	146.440000
518.924133	146.300000
519.017822	145.520000
519.111511	145.260000
519.205200	145.560000
519.298828	145.800000
519.392517	146.040000
519.486206	146.520000
519.579895	146.380000
519.673523	146.120000
519.767212	146.180000
519.860901	146.420000
519.954590	146.240000
520.048279	145.780000
520.141907	145.500000
520.235596	146.500000
520.329224	146.740000
520.422974	146.680000
520.516602	146.800000
520.610291	146.820000
520.703918	146.220000
520.797607	145.660000
520.891296	145.500000
520.984985	145.660000
521.078613	146.260000
521.172302	145.720000
521.265930	146.740000
521.359680	147.400000
521.453308	147.360000
521.546997	146.980000
521.640625	147.380000
521.734314	146.420000
521.827942	145.960000
521.921692	146.280000
522.015320	146.280000
522.109009	146.060000
522.202698	146.140000
522.296326	145.980000
522.390015	146.100000
522.483704	146.280000
522.577393	146.220000
522.671021	145.940000
522.764709	145.620000
522.858337	145.780000
522.952026	145.520000
523.045654	146.160000
523.139404	146.800000
523.233032	147.060000
523.326721	146.760000
523.420349	146.860000
523.514038	146.120000
523.607666	146.160000
523.701355	145.740000
523.795044	145.480000
523.888733	145.500000
523.982361	145.540000
524.076050	144.880000
524.169678	145.720000
524.263367	145.580000
524.356995	145.340000
524.450684	145.500000
524.544373	145.440000
524.638062	145.160000
524.731750	145.420000
524.825378	145.600000
524.919067	145.040000
525.012695	145.360000
525.106384	145.220000
525.200012	145.140000
525.293701	145.000000
525.387329	145.540000
525.481018	145.620000
525.574646	145.840000
525.668396	145.820000
525.762024	146.280000
525.855713	146.440000
525.949341	145.860000
526.043030	145.660000
526.136658	145.440000
526.230347	144.980000
526.323975	144.520000
526.417664	144.840000
526.511292	144.660000
526.604980	145.380000
526.698608	145.480000
526.792297	145.540000
526.885925	146.040000
526.979614	146.600000
527.073303	146.140000
527.166931	145.860000
527.260620	146.400000
527.354309	146.600000
527.447998	145.960000
527.541626	145.780000
527.635315	146.140000
527.728943	146.400000
527.822632	146.180000
527.916260	146.620000
528.009949	146.860000
528.103577	146.680000
528.197266	145.900000
528.290894	145.920000
528.384583	145.560000
528.478210	145.400000
528.571899	145.720000
528.665527	146.080000
528.759216	145.940000
528.852844	146.520000
528.946533	146.600000
529.040161	146.480000
529.133850	146.160000
529.227478	146.480000
529.321167	146.480000
529.414856	146.800000
529.508484	147.380000
529.602173	147.340000
529.695801	146.820000
529.789490	146.460000
529.883057	146.280000
529.976746	146.060000
530.070374	146.640000
530.164062	146.760000
530.257690	147.060000
530.351379	147.080000
530.445007	146.840000
530.538696	146.060000
530.632324	146.260000
530.726013	146.140000
530.819641	146.060000
530.913330	145.920000
531.006958	146.020000
531.100647	146.120000
531.194275	146.100000
531.287964	145.920000
531.381592	146.000000
531.475220	146.380000
531.568848	146.020000
531.662537	145.580000
531.756226	146.200000
531.849854	146.120000
531.943542	146.100000
532.037170	145.800000
532.130859	146.480000
532.224487	145.740000
532.318176	145.380000
532.411804	145.940000
532.505432	146.240000
532.599060	145.940000
532.692749	146.020000
532.786377	146.520000
532.880066	145.660000
532.973694	145.080000
533.067383	144.740000
533.161011	144.820000
533.254639	144.600000
533.348267	144.620000
533.441956	145.340000
533.535583	145.480000
533.629272	145.780000
533.722900	145.540000
533.816589	145.800000
533.910156	145.860000
534.003845	145.680000
534.097534	145.800000
534.191162	146.580000
534.284851	146.740000
534.378479	146.300000
534.472107	146.260000
534.565735	145.640000
534.659424	145.620000
534.753052	145.420000
534.846741	145.300000
534.940369	145.980000
535.033997	146.300000
535.127625	145.940000
535.221313	146.420000
535.314941	146.400000
535.408630	145.960000
535.502197	146.380000
535.595886	146.100000
535.689514	145.580000
535.783203	146.080000
535.876831	146.220000
535.970459	145.880000
536.064087	145.720000
536.157776	145.920000
536.251404	145.900000
536.345093	145.760000
536.438721	145.640000
536.532349	146.240000
536.626038	146.120000
536.719666	146.180000
536.813293	146.140000
536.906921	146.220000
537.000610	145.880000
537.094238	145.800000
537.187866	145.500000
537.281494	145.820000
537.375183	145.680000
537.468811	145.720000
537.562439	145.840000
537.656067	145.880000
537.749756	145.520000
537.843384	146.400000
537.937012	146.780000
538.030640	146.360000
538.124329	146.500000
538.217896	146.900000
538.311584	146.440000
538.405212	146.020000
538.498901	146.520000
538.592468	147.000000
538.686157	146.340000
538.779785	145.720000
538.873413	145.740000
538.967102	145.160000
539.060730	144.360000
539.154358	144.900000
539.247986	145.340000
539.341675	145.420000
539.435242	145.620000
539.528931	146.120000
539.622559	145.640000
539.716187	145.940000
539.809814	145.880000
539.903503	146.200000
539.997070	146.020000
540.090759	146.580000
540.184387	146.260000
540.278015	146.840000
540.371643	146.760000
540.465332	146.900000
540.558899	146.320000
540.652588	146.120000
540.746216	145.640000
540.839844	145.740000
540.933472	145.620000
541.027100	145.740000
541.120728	146.160000
541.214417	146.180000
541.308044	146.460000
541.401672	146.280000
541.495300	146.100000
541.588928	146.120000
541.682617	145.880000
541.776184	145.440000
541.869873	145.660000
541.963440	145.980000
542.057129	145.620000
542.150757	145.720000
542.244385	145.580000
542.338013	145.320000
542.431641	145.280000
542.525269	145.200000
542.618958	145.840000
542.712524	146.080000
542.806213	145.860000
542.899780	146.060000
542.993469	145.980000
543.087036	145.500000
543.180725	145.140000
543.274292	145.520000
543.367981	145.640000
543.461548	146.140000
543.555237	145.900000
543.648926	146.500000
543.742493	147.180000
543.836182	147.140000
543.929749	146.820000
544.023437	147.120000
544.117004	146.720000
544.210693	146.580000
544.304260	146.600000
544.397949	146.380000
544.491516	146.460000
544.585205	146.600000
544.678772	145.800000
544.772461	146.000000
544.866028	146.240000
544.959717	146.320000
545.053284	145.940000
545.146973	146.280000
545.240540	145.960000
545.334229	146.760000
545.427795	146.620000
545.521423	146.920000
545.615051	147.000000
545.708679	147.420000
545.802307	146.600000
545.895935	146.860000
545.989624	147.220000
546.083191	147.180000
546.176880	146.640000
546.270447	146.340000
546.364136	146.420000
546.457703	146.140000
546.551331	145.900000
546.644958	146.340000
546.738586	146.880000
546.832214	146.460000
546.925842	146.420000
547.019409	147.040000
547.113098	146.440000
547.206665	145.940000
547.300354	146.040000
547.393921	146.320000
547.487549	146.340000
547.581177	146.260000
547.674805	146.680000
547.768433	146.100000
547.862061	145.900000
547.955627	145.020000
548.049316	145.840000
548.142883	145.820000
548.236572	146.740000
548.330139	147.140000
548.423767	147.140000
548.517456	146.700000
548.611023	146.980000
548.704651	146.020000
548.798279	145.860000
548.891907	146.620000
548.985474	146.600000
549.079163	146.580000
549.172729	146.520000
549.266357	146.100000
549.359985	145.480000
549.453613	145.040000
549.547180	144.700000
549.640869	145.360000
549.734436	145.100000
549.828064	145.760000
549.921631	145.880000
550.015320	145.480000
550.108887	145.820000
550.202515	145.840000
550.296143	145.260000
550.389771	145.640000
550.483337	146.160000
550.576965	145.740000
550.670593	146.400000
550.764221	146.560000
550.857849	146.240000
550.951477	145.600000
551.045105	145.260000
551.138672	145.040000
551.232300	144.740000
551.325928	145.180000
551.419556	145.720000
551.513123	146.020000
551.606750	145.880000
551.700378	145.920000
551.794006	145.380000
551.887573	145.300000
551.981201	145.800000
552.074768	145.580000
552.168457	145.600000
552.262024	146.760000
552.355652	146.400000
552.449219	146.540000
552.542847	146.840000
552.636475	146.840000
552.730103	145.880000
552.823669	146.100000
552.917297	145.140000
553.010864	144.900000
553.104553	145.180000
553.198181	144.880000
553.291748	145.320000
553.385376	145.840000
553.478943	145.840000
553.572571	145.820000
553.666199	146.100000
553.759827	145.600000
553.853394	144.980000
553.947021	145.240000
554.040588	144.980000
554.134216	144.960000
554.227783	145.760000
554.321411	146.720000
554.415039	146.180000
554.508667	146.440000
554.602234	146.840000
554.695862	145.780000
554.789429	145.360000
554.883057	145.740000
554.976624	145.700000
555.070251	145.520000
555.163818	145.680000
555.257507	145.600000
555.351074	145.820000
555.444702	146.480000
555.538330	146.280000
555.631897	146.820000
555.725525	146.920000
555.819092	146.440000
555.912720	145.620000
556.006287	145.980000
556.099915	145.600000
556.193481	145.520000
556.287109	146.000000
556.380676	145.520000
556.474304	145.580000
556.567871	145.860000
556.661499	145.340000
556.755066	145.160000
556.848694	145.720000
556.942261	145.340000
557.035889	145.520000
557.129517	145.900000
557.223145	146.220000
557.316711	146.440000
557.410339	146.540000
557.503906	145.940000
557.597473	146.300000
557.691040	145.760000
557.784668	145.400000
557.878296	145.440000
557.971863	145.940000
558.065491	146.120000
558.159058	146.220000
558.252686	147.160000
558.346252	147.440000
558.439880	146.780000
558.533447	146.220000
558.627075	146.000000
558.720642	145.540000
558.814270	145.280000
558.907837	145.520000
559.001465	145.360000
559.095032	146.160000
559.188660	145.860000
559.282227	145.280000
559.375854	146.040000
559.469360	146.200000
559.562988	146.300000
559.656555	146.360000
559.750183	147.120000
559.843750	147.020000
559.937378	147.000000
560.030945	146.580000
560.124573	0.000000
560.218140	0.000000
560.311707	0.000000
560.405334	0.000000
560.498901	0.000000
560.592529	0.000000
560.686096	0.000000
560.779724	0.000000
560.873291	0.000000
560.966858	0.000000
561.060425	0.000000
561.154053	0.000000
561.247620	0.000000
561.341248	0.000000
561.434814	0.000000
561.528381	0.000000
561.621948	0.000000
561.715576	0.000000
561.809143	0.000000
561.902771	0.000000
561.996277	0.000000
562.089905	0.000000
562.183472	0.000000
562.277100	0.000000
