Model Number: SPM-002-B   
Serial Number: 70087108
Firmware Version: 004.15.4
Exposure Time: 100000.000000us
Data Taken on: 11-12-2020 18:50:47.798
Wavelength	Amplitude
221.570786	0.000000
221.663406	0.000000
221.756027	0.000000
221.848648	0.000000
221.941269	0.000000
222.033905	0.000000
222.126526	0.000000
222.219162	0.000000
222.311798	0.000000
222.404419	0.000000
222.497055	0.000000
222.589676	0.000000
222.682312	0.000000
222.774933	0.000000
222.867569	0.000000
222.960205	0.000000
223.052841	0.000000
223.145462	0.000000
223.238098	0.000000
223.330734	0.000000
223.423386	0.000000
223.516022	0.000000
223.608658	0.000000
223.701309	0.000000
223.793945	0.000000
223.886581	0.000000
223.979218	0.000000
224.071869	0.000000
224.164505	0.000000
224.257156	0.000000
224.349792	0.000000
224.442444	0.000000
224.535095	0.000000
224.627747	0.000000
224.720398	0.000000
224.813034	0.000000
224.905685	0.000000
224.998337	145.240000
225.090988	144.980000
225.183640	145.000000
225.276291	145.020000
225.368942	145.580000
225.461594	146.380000
225.554245	146.400000
225.646912	146.180000
225.739578	146.800000
225.832230	147.380000
225.924896	146.400000
226.017548	146.860000
226.110199	147.560000
226.202866	146.560000
226.295532	146.160000
226.388184	146.340000
226.480850	145.900000
226.573517	145.280000
226.666168	145.800000
226.758835	145.960000
226.851501	146.500000
226.944183	146.660000
227.036850	146.180000
227.129517	145.920000
227.222183	145.900000
227.314850	145.700000
227.407516	145.760000
227.500198	146.760000
227.592865	146.560000
227.685532	146.160000
227.778214	145.820000
227.870880	145.780000
227.963562	145.980000
228.056229	146.760000
228.148926	146.600000
228.241592	147.440000
228.334274	147.300000
228.426956	146.680000
228.519638	146.440000
228.612305	146.480000
228.704987	146.240000
228.797668	146.460000
228.890350	146.560000
228.983032	145.800000
229.075714	146.460000
229.168396	146.080000
229.261108	145.620000
229.353790	145.720000
229.446472	146.360000
229.539169	145.800000
229.631851	145.640000
229.724533	146.160000
229.817230	146.220000
229.909912	147.040000
230.002609	147.380000
230.095306	147.500000
230.187988	147.140000
230.280685	147.080000
230.373383	145.940000
230.466095	145.780000
230.558792	146.200000
230.651474	146.500000
230.744171	146.560000
230.836868	146.660000
230.929581	147.020000
231.022278	146.980000
231.114975	147.100000
231.207672	146.780000
231.300369	146.900000
231.393082	146.600000
231.485779	146.280000
231.578506	145.820000
231.671204	146.220000
231.763916	146.400000
231.856613	146.420000
231.949326	146.600000
232.042023	146.620000
232.134735	146.160000
232.227448	146.020000
232.320160	146.560000
232.412872	146.500000
232.505585	147.380000
232.598297	147.960000
232.691010	147.620000
232.783722	146.880000
232.876450	147.140000
232.969162	146.580000
233.061874	146.160000
233.154587	146.100000
233.247314	146.420000
233.340027	146.080000
233.432739	146.280000
233.525467	146.120000
233.618179	146.520000
233.710907	146.000000
233.803635	146.480000
233.896347	146.280000
233.989090	147.120000
234.081818	146.740000
234.174545	147.080000
234.267258	146.440000
234.359985	146.340000
234.452713	145.860000
234.545441	146.000000
234.638168	145.800000
234.730896	146.540000
234.823639	146.560000
234.916367	147.140000
235.009094	147.220000
235.101822	147.660000
235.194580	147.120000
235.287308	147.220000
235.380051	146.320000
235.472778	146.620000
235.565521	146.840000
235.658249	146.380000
235.750992	146.340000
235.843719	146.620000
235.936462	146.780000
236.029205	146.020000
236.121948	146.200000
236.214691	146.440000
236.307449	147.020000
236.400192	146.520000
236.492935	146.300000
236.585678	146.420000
236.678421	146.260000
236.771164	145.840000
236.863907	146.380000
236.956665	147.200000
237.049408	148.640000
237.142151	148.340000
237.234909	148.860000
237.327652	148.580000
237.420410	147.800000
237.513153	146.940000
237.605927	146.960000
237.698669	146.580000
237.791428	146.300000
237.884186	146.900000
237.976944	146.420000
238.069702	146.440000
238.162445	145.680000
238.255203	145.800000
238.347961	145.980000
238.440720	145.920000
238.533478	145.960000
238.626266	146.260000
238.719025	146.340000
238.811783	146.340000
238.904541	146.440000
238.997314	146.460000
239.090073	146.080000
239.182831	146.380000
239.275604	146.600000
239.368362	146.460000
239.461136	146.660000
239.553909	146.820000
239.646667	146.340000
239.739441	146.320000
239.832214	146.560000
239.925003	146.480000
240.017761	147.180000
240.110535	147.900000
240.203308	147.220000
240.296082	147.340000
240.388855	147.400000
240.481628	147.480000
240.574417	147.340000
240.667191	147.720000
240.759964	147.480000
240.852737	147.280000
240.945526	146.660000
241.038315	146.720000
241.131088	146.540000
241.223877	146.760000
241.316650	146.560000
241.409439	147.040000
241.502228	146.080000
241.595001	146.500000
241.687790	146.400000
241.780579	146.420000
241.873367	146.360000
241.966141	147.200000
242.058929	146.680000
242.151718	146.680000
242.244507	147.240000
242.337311	146.660000
242.430099	146.840000
242.522903	146.900000
242.615692	146.580000
242.708481	146.560000
242.801270	147.260000
242.894073	147.000000
242.986862	147.160000
243.079651	147.620000
243.172455	147.100000
243.265244	146.900000
243.358063	146.400000
243.450867	146.500000
243.543655	146.180000
243.636459	146.460000
243.729263	146.300000
243.822067	146.480000
243.914856	146.760000
244.007660	147.200000
244.100464	147.380000
244.193268	147.380000
244.286072	147.280000
244.378876	146.840000
244.471680	146.560000
244.564499	146.760000
244.657318	147.420000
244.750122	147.880000
244.842926	147.520000
244.935745	147.880000
245.028549	147.520000
245.121368	146.860000
245.214172	146.820000
245.306992	147.620000
245.399796	147.020000
245.492615	146.800000
245.585434	147.100000
245.678253	146.480000
245.771072	145.880000
245.863892	146.260000
245.956711	146.440000
246.049530	145.980000
246.142349	146.260000
246.235168	146.480000
246.327988	146.880000
246.420807	146.660000
246.513626	147.100000
246.606445	147.060000
246.699280	147.060000
246.792099	146.240000
246.884918	146.040000
246.977753	145.480000
247.070587	145.500000
247.163422	145.660000
247.256241	146.240000
247.349075	146.460000
247.441895	146.500000
247.534729	146.680000
247.627563	146.480000
247.720383	147.000000
247.813217	147.020000
247.906052	147.240000
247.998886	147.200000
248.091736	147.020000
248.184570	146.340000
248.277405	146.500000
248.370239	147.060000
248.463074	147.960000
248.555908	148.200000
248.648743	148.120000
248.741592	148.220000
248.834427	147.800000
248.927261	146.660000
249.020111	146.940000
249.112946	147.420000
249.205795	147.040000
249.298630	146.760000
249.391495	146.580000
249.484344	146.060000
249.577179	145.660000
249.670029	146.100000
249.762878	146.960000
249.855728	147.240000
249.948563	147.460000
250.041412	147.100000
250.134262	147.260000
250.227112	147.040000
250.319962	147.280000
250.412827	147.320000
250.505692	147.080000
250.598541	146.700000
250.691391	146.040000
250.784241	145.840000
250.877106	145.860000
250.969955	145.740000
251.062805	146.260000
251.155670	146.880000
251.248520	146.760000
251.341385	147.080000
251.434235	147.560000
251.527100	146.920000
251.619965	146.420000
251.712814	147.220000
251.805695	146.780000
251.898560	146.800000
251.991425	147.640000
252.084290	148.060000
252.177155	147.380000
252.270020	147.420000
252.362885	147.300000
252.455750	146.800000
252.548615	146.260000
252.641479	146.440000
252.734360	146.340000
252.827240	146.240000
252.920105	146.120000
253.012970	145.940000
253.105850	145.680000
253.198715	145.360000
253.291595	145.700000
253.384460	145.560000
253.477341	145.700000
253.570221	145.640000
253.663086	145.280000
253.755966	145.680000
253.848846	145.880000
253.941727	146.140000
254.034592	146.280000
254.127472	146.540000
254.220367	146.160000
254.313248	146.420000
254.406128	146.120000
254.499008	146.340000
254.591904	147.200000
254.684784	147.660000
254.777664	147.100000
254.870544	146.820000
254.963440	146.620000
255.056335	146.240000
255.149216	145.700000
255.242111	146.380000
255.334991	146.720000
255.427887	146.780000
255.520767	146.720000
255.613663	146.980000
255.706558	146.380000
255.799438	146.380000
255.892334	146.120000
255.985229	146.280000
256.078125	146.340000
256.171021	146.540000
256.263916	146.840000
256.356812	147.140000
256.449707	147.040000
256.542603	146.720000
256.635498	147.240000
256.728394	146.840000
256.821289	146.760000
256.914215	146.940000
257.007080	147.100000
257.100006	146.780000
257.192932	147.540000
257.285828	147.460000
257.378723	147.160000
257.471619	147.260000
257.564545	146.940000
257.657440	146.620000
257.750336	147.160000
257.843262	147.080000
257.936157	147.920000
258.029053	148.200000
258.121979	148.440000
258.214874	147.920000
258.307800	147.900000
258.400696	146.880000
258.493622	146.960000
258.586517	146.320000
258.679443	146.500000
258.772339	146.100000
258.865265	146.080000
258.958160	145.760000
259.051086	146.560000
259.144012	146.260000
259.236938	147.220000
259.329834	147.080000
259.422791	147.060000
259.515717	146.280000
259.608612	146.060000
259.701538	145.800000
259.794464	146.000000
259.887390	146.160000
259.980316	146.140000
260.073212	146.340000
260.166138	145.620000
260.259064	145.780000
260.351990	146.200000
260.444916	146.380000
260.537842	146.840000
260.630768	147.880000
260.723694	147.620000
260.816620	147.080000
260.909546	146.940000
261.002472	146.320000
261.095398	145.640000
261.188354	145.500000
261.281281	145.060000
261.374207	145.340000
261.467133	146.360000
261.560089	146.620000
261.653015	146.700000
261.745972	147.640000
261.838867	147.760000
261.931824	147.600000
262.024780	147.020000
262.117706	147.180000
262.210663	147.220000
262.303589	147.120000
262.396515	146.940000
262.489471	148.200000
262.582397	148.020000
262.675354	147.100000
262.768280	147.160000
262.861237	147.360000
262.954163	146.820000
263.047119	147.040000
263.140045	147.140000
263.233002	147.000000
263.325958	146.660000
263.418884	146.060000
263.511841	146.160000
263.604797	146.600000
263.697723	146.620000
263.790680	146.460000
263.883636	147.020000
263.976593	146.720000
264.069550	146.440000
264.162476	146.160000
264.255463	146.440000
264.348419	146.120000
264.441376	146.280000
264.534332	146.040000
264.627289	146.120000
264.720245	146.600000
264.813202	146.360000
264.906158	146.520000
264.999115	147.220000
265.092072	147.420000
265.185028	147.620000
265.277985	148.100000
265.370941	148.060000
265.463898	147.640000
265.556854	147.400000
265.649811	146.160000
265.742798	145.980000
265.835754	145.880000
265.928711	146.400000
266.021667	146.340000
266.114655	146.660000
266.207611	147.180000
266.300568	146.560000
266.393585	145.700000
266.486511	146.320000
266.579498	145.760000
266.672485	145.180000
266.765442	145.480000
266.858429	146.500000
266.951385	145.960000
267.044342	146.440000
267.137329	146.420000
267.230316	146.800000
267.323273	146.260000
267.416260	146.880000
267.509216	146.520000
267.602203	146.660000
267.695160	146.860000
267.788147	146.860000
267.881134	146.180000
267.974091	146.600000
268.067078	146.100000
268.160065	145.760000
268.253052	145.320000
268.346008	145.500000
268.438995	145.460000
268.531982	146.060000
268.624969	146.180000
268.717987	146.640000
268.810944	146.540000
268.903961	146.580000
268.996948	145.860000
269.089905	146.080000
269.182892	146.200000
269.275879	146.420000
269.368866	146.100000
269.461853	146.780000
269.554871	146.340000
269.647858	146.040000
269.740845	146.660000
269.833832	147.100000
269.926819	146.920000
270.019806	147.280000
270.112793	147.060000
270.205811	146.800000
270.298798	146.560000
270.391785	147.220000
270.484772	146.800000
270.577789	147.280000
270.670776	146.700000
270.763763	146.580000
270.856750	146.340000
270.949768	146.180000
271.042786	145.900000
271.135773	146.120000
271.228790	146.360000
271.321808	145.640000
271.414795	145.580000
271.507782	145.440000
271.600800	145.060000
271.693817	145.180000
271.786804	145.780000
271.879822	146.220000
271.972809	146.400000
272.065826	147.020000
272.158844	146.520000
272.251831	146.760000
272.344849	146.600000
272.437866	146.120000
272.530853	146.120000
272.623871	146.240000
272.716888	145.280000
272.809906	145.400000
272.902893	145.960000
272.995911	145.200000
273.088928	145.380000
273.181946	145.700000
273.274963	145.500000
273.367981	145.400000
273.460999	145.940000
273.554047	146.400000
273.647003	147.080000
273.740051	147.320000
273.833069	147.420000
273.926086	147.800000
274.019135	147.360000
274.112152	146.840000
274.205170	146.560000
274.298187	146.740000
274.391205	145.880000
274.484222	146.020000
274.577240	146.240000
274.670258	146.180000
274.763306	145.900000
274.856323	146.280000
274.949341	146.280000
275.042358	146.580000
275.135406	146.980000
275.228424	146.980000
275.321442	147.100000
275.414490	146.880000
275.507507	146.780000
275.600525	147.000000
275.693573	146.880000
275.786591	146.560000
275.879669	147.060000
275.972656	146.860000
276.065735	146.400000
276.158752	146.960000
276.251801	147.880000
276.344818	147.620000
276.437866	147.600000
276.530884	147.480000
276.623932	146.660000
276.716980	146.460000
276.809998	146.460000
276.903046	146.580000
276.996094	147.640000
277.089111	148.420000
277.182159	148.640000
277.275208	148.440000
277.368256	148.400000
277.461304	147.780000
277.554321	146.860000
277.647369	146.580000
277.740417	146.520000
277.833466	146.480000
277.926514	146.380000
278.019562	147.100000
278.112610	146.400000
278.205688	146.720000
278.298706	146.740000
278.391785	146.480000
278.484833	146.260000
278.577881	146.480000
278.670929	146.340000
278.763977	146.300000
278.857025	146.680000
278.950073	146.640000
279.043121	146.420000
279.136169	146.220000
279.229248	146.280000
279.322296	145.960000
279.415344	145.580000
279.508392	145.560000
279.601440	145.620000
279.694519	145.140000
279.787567	145.160000
279.880615	145.520000
279.973694	145.640000
280.066742	145.640000
280.159790	145.900000
280.252869	145.480000
280.345917	145.660000
280.438995	145.780000
280.532074	145.780000
280.625122	146.200000
280.718201	147.580000
280.811279	147.280000
280.904327	147.240000
280.997406	147.680000
281.090454	147.280000
281.183533	146.300000
281.276581	146.460000
281.369659	146.140000
281.462738	146.040000
281.555786	146.480000
281.648865	146.540000
281.741943	146.380000
281.835022	147.280000
281.928070	146.840000
282.021149	146.320000
282.114227	146.500000
282.207306	146.520000
282.300385	146.500000
282.393433	147.060000
282.486511	147.140000
282.579590	147.360000
282.672668	147.840000
282.765747	147.200000
282.858856	146.480000
282.951904	147.060000
283.045013	147.320000
283.138062	147.360000
283.231171	147.700000
283.324249	148.340000
283.417328	148.120000
283.510406	147.660000
283.603485	147.360000
283.696564	147.240000
283.789642	147.160000
283.882751	146.700000
283.975830	147.120000
284.068909	146.860000
284.161987	147.380000
284.255066	146.980000
284.348175	147.380000
284.441254	146.780000
284.534332	147.220000
284.627441	146.720000
284.720520	146.560000
284.813599	146.400000
284.906708	146.660000
284.999786	146.040000
285.092896	145.600000
285.185974	146.700000
285.279053	146.380000
285.372192	146.460000
285.465240	147.440000
285.558380	147.480000
285.651459	146.760000
285.744568	147.880000
285.837677	147.440000
285.930756	147.260000
286.023865	147.440000
286.116943	147.120000
286.210052	146.580000
286.303162	146.820000
286.396240	146.520000
286.489349	146.340000
286.582458	146.880000
286.675568	146.480000
286.768646	146.260000
286.861755	146.680000
286.954865	147.480000
287.047974	146.640000
287.141083	146.740000
287.234161	146.840000
287.327271	146.240000
287.420380	146.280000
287.513519	146.320000
287.606598	146.380000
287.699738	146.340000
287.792816	146.380000
287.885956	146.340000
287.979034	146.940000
288.072174	146.680000
288.165283	146.600000
288.258392	146.780000
288.351501	145.700000
288.444611	145.700000
288.537720	146.320000
288.630859	146.280000
288.723969	146.300000
288.817078	147.120000
288.910187	147.160000
289.003296	146.600000
289.096436	146.500000
289.189545	146.340000
289.282654	145.880000
289.375763	146.000000
289.468903	146.420000
289.562012	146.600000
289.655121	146.780000
289.748260	147.200000
289.841400	147.480000
289.934509	147.260000
290.027649	147.540000
290.120728	147.280000
290.213898	147.100000
290.306976	146.740000
290.400146	146.920000
290.493256	146.440000
290.586395	146.700000
290.679535	147.060000
290.772644	146.600000
290.865784	145.740000
290.958893	145.900000
291.052032	145.920000
291.145172	145.540000
291.238281	145.740000
291.331421	146.360000
291.424561	146.700000
291.517670	146.160000
291.610809	146.720000
291.703949	146.400000
291.797089	146.440000
291.890228	146.000000
291.983337	146.260000
292.076477	145.660000
292.169617	146.420000
292.262756	146.640000
292.355927	146.840000
292.449036	146.640000
292.542206	146.920000
292.635315	146.880000
292.728485	146.840000
292.821625	146.520000
292.914764	148.000000
293.007904	147.900000
293.101044	147.540000
293.194183	147.620000
293.287323	147.740000
293.380463	146.600000
293.473602	146.300000
293.566742	146.680000
293.659882	146.720000
293.753021	147.100000
293.846191	147.060000
293.939331	146.900000
294.032471	146.460000
294.125610	146.280000
294.218781	146.600000
294.311920	147.100000
294.405060	147.600000
294.498230	147.600000
294.591370	147.600000
294.684540	146.820000
294.777679	146.320000
294.870850	146.800000
294.963959	146.880000
295.057159	146.520000
295.150299	146.820000
295.243469	146.840000
295.336609	145.740000
295.429779	146.120000
295.522919	146.600000
295.616089	146.440000
295.709229	146.920000
295.802399	147.620000
295.895569	147.040000
295.988708	146.420000
296.081879	146.680000
296.175018	145.980000
296.268188	145.640000
296.361359	146.160000
296.454529	146.540000
296.547668	146.240000
296.640839	146.780000
296.734009	146.580000
296.827179	146.600000
296.920319	146.800000
297.013519	146.780000
297.106659	146.780000
297.199860	146.920000
297.292999	146.520000
297.386200	146.340000
297.479309	146.240000
297.572510	146.020000
297.665680	145.720000
297.758850	145.820000
297.852020	145.540000
297.945190	145.460000
298.038361	145.180000
298.131531	146.340000
298.224701	146.360000
298.317871	146.340000
298.411072	146.120000
298.504242	145.980000
298.597412	145.060000
298.690582	145.180000
298.783752	145.160000
298.876923	145.840000
298.970093	146.240000
299.063293	146.660000
299.156464	147.140000
299.249634	147.620000
299.342834	147.680000
299.436005	147.880000
299.529205	147.760000
299.622345	147.420000
299.715576	146.660000
299.808716	146.240000
299.901917	145.940000
299.995117	145.900000
300.088287	145.980000
300.181488	146.100000
300.274658	146.120000
300.367828	146.340000
300.461029	146.260000
300.554199	146.220000
300.647400	146.440000
300.740601	146.920000
300.833771	146.720000
300.926971	147.040000
301.020142	146.680000
301.113342	146.740000
301.206512	146.120000
301.299713	146.320000
301.392914	146.200000
301.486084	146.680000
301.579285	146.840000
301.672516	147.720000
301.765686	147.840000
301.858887	147.780000
301.952057	147.580000
302.045288	147.320000
302.138458	146.800000
302.231659	146.480000
302.324860	146.200000
302.418060	145.560000
302.511261	145.600000
302.604462	146.040000
302.697662	145.660000
302.790863	145.740000
302.884064	145.880000
302.977264	145.940000
303.070465	146.020000
303.163666	146.860000
303.256866	146.940000
303.350067	147.220000
303.443268	147.120000
303.536469	146.920000
303.629669	146.340000
303.722870	146.420000
303.816071	146.260000
303.909271	146.460000
304.002472	145.760000
304.095673	145.600000
304.188934	145.040000
304.282104	146.000000
304.375336	145.900000
304.468506	146.000000
304.561768	145.720000
304.654968	146.520000
304.748169	145.660000
304.841370	145.460000
304.934601	146.040000
305.027802	146.160000
305.121002	145.740000
305.214233	146.040000
305.307434	146.100000
305.400665	146.460000
305.493866	146.560000
305.587097	146.820000
305.680298	146.520000
305.773499	147.220000
305.866730	146.680000
305.959930	147.100000
306.053162	147.220000
306.146393	146.880000
306.239594	145.940000
306.332825	145.600000
306.426025	145.900000
306.519287	145.240000
306.612488	145.820000
306.705719	146.260000
306.798920	146.360000
306.892181	145.860000
306.985352	145.900000
307.078613	145.080000
307.171844	145.300000
307.265045	145.240000
307.358276	144.740000
307.451508	145.200000
307.544739	146.120000
307.637970	145.800000
307.731201	145.700000
307.824402	146.800000
307.917633	147.000000
308.010864	147.220000
308.104095	147.620000
308.197327	147.860000
308.290558	147.220000
308.383789	146.820000
308.477020	146.060000
308.570251	145.280000
308.663483	145.060000
308.756714	145.120000
308.849976	145.140000
308.943176	145.940000
309.036438	146.020000
309.129639	145.800000
309.222900	145.940000
309.316101	145.760000
309.409393	145.020000
309.502625	144.900000
309.595856	145.180000
309.689087	145.220000
309.782318	145.440000
309.875580	145.520000
309.968811	145.840000
310.062042	145.680000
310.155273	145.600000
310.248535	145.940000
310.341766	146.060000
310.434998	145.800000
310.528259	145.740000
310.621490	145.880000
310.714722	144.980000
310.807983	145.300000
310.901215	145.460000
310.994476	145.840000
311.087708	145.420000
311.181000	146.320000
311.274200	145.440000
311.367462	145.880000
311.460693	145.680000
311.553986	146.320000
311.647186	146.120000
311.740479	147.000000
311.833710	146.140000
311.926971	146.340000
312.020203	145.740000
312.113464	145.700000
312.206726	145.440000
312.299957	145.860000
312.393219	145.920000
312.486481	146.160000
312.579712	145.860000
312.672974	145.700000
312.766235	145.820000
312.859497	145.620000
312.952759	145.480000
313.045990	146.320000
313.139252	145.580000
313.232513	145.700000
313.325775	145.820000
313.419037	145.680000
313.512299	144.920000
313.605530	145.880000
313.698822	145.800000
313.792053	145.940000
313.885345	145.780000
313.978577	145.960000
314.071869	145.700000
314.165131	145.760000
314.258392	145.560000
314.351654	145.800000
314.444916	145.260000
314.538177	145.980000
314.631439	146.320000
314.724701	146.540000
314.817993	146.640000
314.911255	146.940000
315.004517	146.240000
315.097778	145.860000
315.191040	146.020000
315.284302	146.540000
315.377594	146.540000
315.470856	146.460000
315.564117	146.280000
315.657379	145.720000
315.750671	144.720000
315.843933	144.900000
315.937195	144.820000
316.030518	144.580000
316.123749	144.900000
316.217041	146.400000
316.310303	146.440000
316.403595	146.680000
316.496857	147.040000
316.590149	147.120000
316.683411	146.180000
316.776703	146.180000
316.869965	146.240000
316.963257	146.260000
317.056519	145.700000
317.149811	145.540000
317.243073	145.340000
317.336365	145.380000
317.429626	145.500000
317.522919	146.300000
317.616180	146.040000
317.709473	145.980000
317.802765	145.720000
317.896027	145.820000
317.989319	145.800000
318.082611	145.840000
318.175873	145.680000
318.269165	145.760000
318.362488	145.540000
318.455750	145.060000
318.549042	145.540000
318.642303	145.900000
318.735626	145.840000
318.828888	146.000000
318.922211	145.820000
319.015472	146.280000
319.108765	145.940000
319.202057	145.640000
319.295349	145.760000
319.388641	146.020000
319.481934	145.400000
319.575226	145.400000
319.668518	145.920000
319.761810	146.180000
319.855103	146.120000
319.948395	146.240000
320.041687	146.560000
320.134979	146.380000
320.228271	145.840000
320.321564	146.000000
320.414856	146.100000
320.508148	145.740000
320.601440	145.780000
320.694763	145.580000
320.788025	146.200000
320.881348	146.240000
320.974640	146.300000
321.067963	145.800000
321.161224	146.000000
321.254547	145.100000
321.347839	145.540000
321.441162	145.420000
321.534454	146.060000
321.627747	145.840000
321.721069	146.640000
321.814362	146.420000
321.907654	146.780000
322.000946	146.540000
322.094269	147.240000
322.187561	146.420000
322.280884	146.660000
322.374176	146.540000
322.467468	147.000000
322.560791	146.900000
322.654083	147.440000
322.747406	147.000000
322.840698	147.420000
322.934021	147.580000
323.027344	147.720000
323.120636	147.520000
323.213959	147.600000
323.307251	146.900000
323.400574	146.560000
323.493866	145.840000
323.587219	146.040000
323.680511	146.260000
323.773834	146.580000
323.867157	146.460000
323.960449	146.980000
324.053772	146.860000
324.147095	146.520000
324.240387	147.140000
324.333710	147.180000
324.427032	147.160000
324.520355	147.140000
324.613647	146.940000
324.706970	146.600000
324.800293	146.520000
324.893616	146.760000
324.986938	147.000000
325.080231	147.000000
325.173553	147.040000
325.266876	147.440000
325.360199	147.200000
325.453522	146.820000
325.546875	146.660000
325.640167	146.740000
325.733521	146.700000
325.826813	147.060000
325.920166	146.760000
326.013489	146.500000
326.106812	145.640000
326.200134	145.300000
326.293457	144.480000
326.386780	144.740000
326.480103	145.180000
326.573425	145.460000
326.666748	145.480000
326.760071	146.200000
326.853424	146.320000
326.946747	146.180000
327.040070	147.220000
327.133392	146.820000
327.226715	146.200000
327.320068	145.840000
327.413391	146.440000
327.506714	145.200000
327.600037	145.600000
327.693390	145.880000
327.786713	146.140000
327.880066	145.760000
327.973358	146.500000
328.066742	146.860000
328.160034	147.080000
328.253418	147.260000
328.346710	147.060000
328.440063	146.740000
328.533417	146.200000
328.626740	146.220000
328.720093	145.820000
328.813416	146.020000
328.906769	145.920000
329.000092	146.380000
329.093445	146.240000
329.186768	146.300000
329.280121	146.700000
329.373444	147.100000
329.466797	146.820000
329.560120	146.920000
329.653473	147.280000
329.746796	146.620000
329.840149	146.400000
329.933502	146.520000
330.026825	146.380000
330.120178	146.160000
330.213562	146.560000
330.306854	146.540000
330.400238	146.260000
330.493561	146.000000
330.586945	146.860000
330.680237	146.900000
330.773621	147.060000
330.866974	147.280000
330.960327	147.540000
331.053680	146.860000
331.147003	146.780000
331.240356	146.860000
331.333710	147.060000
331.427063	146.500000
331.520416	146.300000
331.613770	146.380000
331.707123	146.360000
331.800476	146.180000
331.893829	147.240000
331.987152	147.420000
332.080505	147.160000
332.173859	146.780000
332.267212	146.480000
332.360565	145.720000
332.453918	145.260000
332.547333	145.300000
332.640656	145.820000
332.734039	146.120000
332.827362	146.180000
332.920746	146.900000
333.014069	147.100000
333.107452	147.360000
333.200806	147.620000
333.294159	148.120000
333.387543	147.360000
333.480896	147.020000
333.574249	146.320000
333.667603	145.580000
333.760956	145.520000
333.854340	145.840000
333.947693	145.920000
334.041046	146.140000
334.134430	146.860000
334.227783	146.180000
334.321136	146.220000
334.414520	145.900000
334.507874	146.000000
334.601227	145.640000
334.694611	145.940000
334.787964	145.880000
334.881348	146.600000
334.974701	146.680000
335.068085	146.240000
335.161438	146.480000
335.254822	146.320000
335.348175	146.060000
335.441559	145.420000
335.534943	146.360000
335.628296	145.940000
335.721680	146.020000
335.815033	145.840000
335.908417	146.460000
336.001770	146.140000
336.095154	146.100000
336.188538	145.940000
336.281891	146.040000
336.375275	145.380000
336.468658	144.960000
336.562012	145.080000
336.655396	145.480000
336.748779	145.800000
336.842133	146.040000
336.935516	146.560000
337.028900	146.560000
337.122284	146.300000
337.215637	146.240000
337.309021	146.220000
337.402435	145.540000
337.495789	145.520000
337.589203	145.280000
337.682526	144.960000
337.775940	145.220000
337.869324	145.700000
337.962708	145.420000
338.056091	146.280000
338.149475	145.940000
338.242859	146.140000
338.336243	145.900000
338.429626	146.020000
338.523010	145.640000
338.616394	145.700000
338.709778	145.720000
338.803162	145.980000
338.896545	146.200000
338.989929	145.680000
339.083313	146.040000
339.176697	145.740000
339.270081	145.580000
339.363464	145.920000
339.456848	146.480000
339.550232	145.700000
339.643616	145.740000
339.737030	145.700000
339.830383	145.140000
339.923828	145.200000
340.017181	145.760000
340.110596	145.740000
340.203949	145.860000
340.297363	146.100000
340.390778	145.860000
340.484161	145.540000
340.577545	145.440000
340.670959	145.560000
340.764343	145.600000
340.857727	145.840000
340.951111	145.900000
341.044525	146.440000
341.137909	146.100000
341.231293	145.700000
341.324707	145.340000
341.418091	146.460000
341.511505	145.860000
341.604889	146.280000
341.698303	146.840000
341.791687	146.840000
341.885071	146.180000
341.978485	146.380000
342.071899	146.340000
342.165283	146.440000
342.258698	146.940000
342.352081	147.220000
342.445496	147.640000
342.538879	147.300000
342.632324	146.900000
342.725708	146.720000
342.819122	146.220000
342.912506	145.840000
343.005920	146.220000
343.099335	147.180000
343.192719	146.900000
343.286133	147.040000
343.379547	147.100000
343.472931	146.700000
343.566345	145.500000
343.659760	145.800000
343.753143	145.380000
343.846558	144.920000
343.939972	145.020000
344.033386	145.640000
344.126770	145.580000
344.220184	146.280000
344.313599	146.940000
344.407043	147.300000
344.500427	146.700000
344.593872	146.980000
344.687225	146.620000
344.780670	146.100000
344.874054	145.680000
344.967499	146.280000
345.060913	146.240000
345.154327	146.100000
345.247742	145.820000
345.341156	145.680000
345.434570	145.320000
345.527985	145.060000
345.621399	145.200000
345.714813	145.480000
345.808228	145.720000
345.901642	145.340000
345.995056	144.960000
346.088470	145.220000
346.181885	145.380000
346.275299	145.120000
346.368713	145.520000
346.462128	145.720000
346.555573	145.460000
346.648987	145.760000
346.742401	146.160000
346.835815	146.480000
346.929260	146.360000
347.022644	146.660000
347.116119	146.520000
347.209503	146.620000
347.302948	147.280000
347.396362	147.880000
347.489807	147.760000
347.583221	148.040000
347.676636	147.660000
347.770050	146.620000
347.863495	146.020000
347.956909	146.160000
348.050323	145.680000
348.143768	145.780000
348.237183	145.840000
348.330597	146.120000
348.424042	146.100000
348.517456	146.420000
348.610901	146.860000
348.704315	146.620000
348.797760	146.260000
348.891174	145.820000
348.984619	145.400000
349.078033	145.420000
349.171448	146.160000
349.264923	146.100000
349.358337	146.100000
349.451782	146.240000
349.545197	145.580000
349.638641	144.880000
349.732086	144.600000
349.825500	145.240000
349.918945	144.900000
350.012390	145.540000
350.105804	146.280000
350.199249	146.780000
350.292664	146.940000
350.386108	147.360000
350.479553	147.420000
350.572968	146.780000
350.666412	146.780000
350.759857	146.180000
350.853302	146.520000
350.946716	146.020000
351.040161	146.320000
351.133606	146.560000
351.227081	146.400000
351.320465	146.860000
351.413940	147.360000
351.507355	147.640000
351.600830	147.480000
351.694244	147.540000
351.787720	147.060000
351.881104	146.700000
351.974579	146.220000
352.067993	147.040000
352.161469	147.100000
352.254883	146.380000
352.348358	146.260000
352.441803	146.580000
352.535248	145.940000
352.628693	146.280000
352.722137	146.320000
352.815582	146.400000
352.909027	146.440000
353.002472	146.000000
353.095917	145.780000
353.189362	146.260000
353.282806	146.180000
353.376251	145.760000
353.469696	145.800000
353.563141	146.120000
353.656586	146.060000
353.750061	145.980000
353.843475	146.040000
353.936981	146.700000
354.030396	146.100000
354.123871	145.840000
354.217285	146.740000
354.310760	147.160000
354.404175	146.700000
354.497681	146.700000
354.591095	146.780000
354.684570	145.620000
354.777985	144.960000
354.871490	144.760000
354.964935	145.480000
355.058380	145.760000
355.151855	146.080000
355.245300	146.700000
355.338745	147.220000
355.432220	146.980000
355.525665	146.240000
355.619110	146.500000
355.712585	146.340000
355.806030	146.040000
355.899475	145.540000
355.992950	146.240000
356.086426	146.480000
356.179871	146.340000
356.273346	146.640000
356.366791	147.120000
356.460266	147.060000
356.553711	146.540000
356.647186	146.380000
356.740631	146.080000
356.834106	145.580000
356.927551	145.700000
357.021027	145.860000
357.114471	146.460000
357.207947	146.360000
357.301422	146.820000
357.394867	146.800000
357.488342	147.140000
357.581818	146.800000
357.675262	146.940000
357.768738	146.640000
357.862213	146.160000
357.955658	146.100000
358.049133	146.000000
358.142609	146.400000
358.236053	146.600000
358.329529	146.700000
358.423035	146.940000
358.516449	146.460000
358.609955	146.660000
358.703400	147.080000
358.796906	147.120000
358.890350	146.260000
358.983826	147.000000
359.077271	146.360000
359.170776	145.760000
359.264221	145.760000
359.357727	146.220000
359.451172	146.220000
359.544647	146.440000
359.638123	146.560000
359.731598	146.720000
359.825073	146.820000
359.918549	146.880000
360.012024	146.780000
360.105499	146.540000
360.198975	146.420000
360.292450	146.280000
360.385925	146.080000
360.479401	145.660000
360.572876	146.060000
360.666351	146.600000
360.759857	146.600000
360.853302	146.440000
360.946808	146.320000
361.040253	146.360000
361.133759	145.560000
361.227203	145.680000
361.320709	145.340000
361.414154	145.880000
361.507660	145.880000
361.601105	146.700000
361.694641	147.120000
361.788086	147.440000
361.881592	147.740000
361.975067	147.340000
362.068542	147.560000
362.162018	146.820000
362.255524	146.340000
362.348999	146.300000
362.442474	146.680000
362.535950	145.660000
362.629456	145.860000
362.722931	146.260000
362.816406	146.380000
362.909882	146.380000
363.003387	146.300000
363.096863	146.780000
363.190338	146.660000
363.283875	146.220000
363.377319	146.120000
363.470825	146.940000
363.564301	146.040000
363.657806	146.460000
363.751282	146.220000
363.844788	147.160000
363.938232	146.720000
364.031769	147.480000
364.125214	147.600000
364.218750	148.260000
364.312225	146.780000
364.405731	147.080000
364.499207	146.760000
364.592712	146.500000
364.686188	146.080000
364.779694	146.520000
364.873169	146.280000
364.966675	146.440000
365.060150	146.040000
365.153656	146.360000
365.247131	146.220000
365.340637	146.340000
365.434143	146.540000
365.527618	146.860000
365.621155	146.060000
365.714600	146.280000
365.808136	146.640000
365.901611	145.700000
365.995117	145.800000
366.088593	146.140000
366.182129	145.700000
366.275604	145.460000
366.369110	145.780000
366.462585	145.140000
366.556122	146.000000
366.649567	146.180000
366.743103	146.020000
366.836609	146.160000
366.930115	146.820000
367.023590	146.500000
367.117096	146.460000
367.210602	146.560000
367.304108	146.900000
367.397614	147.180000
367.491119	147.360000
367.584595	147.540000
367.678101	147.620000
367.771606	147.120000
367.865112	146.760000
367.958649	145.700000
368.052124	145.640000
368.145660	145.320000
368.239136	145.880000
368.332672	145.820000
368.426147	146.440000
368.519684	146.620000
368.613159	147.200000
368.706696	146.580000
368.800171	146.520000
368.893707	146.280000
368.987183	146.040000
369.080719	145.820000
369.174225	145.900000
369.267731	146.160000
369.361237	146.300000
369.454742	146.280000
369.548248	146.340000
369.641754	146.180000
369.735260	146.040000
369.828766	145.280000
369.922272	145.800000
370.015808	145.640000
370.109314	145.560000
370.202820	145.200000
370.296356	146.540000
370.389832	145.800000
370.483368	145.320000
370.576874	145.360000
370.670410	145.840000
370.763885	144.560000
370.857422	144.800000
370.950928	144.880000
371.044464	146.000000
371.137939	145.940000
371.231476	146.560000
371.324982	147.180000
371.418518	147.340000
371.512024	146.600000
371.605560	146.060000
371.699066	146.240000
371.792572	145.520000
371.886108	145.960000
371.979614	145.940000
372.073120	146.880000
372.166656	146.800000
372.260162	147.320000
372.353668	146.840000
372.447205	146.500000
372.540710	146.100000
372.634277	145.820000
372.727753	145.880000
372.821320	146.000000
372.914795	146.160000
373.008362	146.040000
373.101837	146.160000
373.195404	145.840000
373.288879	145.600000
373.382446	146.200000
373.475922	146.340000
373.569489	147.000000
373.662964	147.520000
373.756531	147.760000
373.850037	147.780000
373.943573	147.700000
374.037109	146.500000
374.130615	146.380000
374.224152	146.680000
374.317657	146.540000
374.411194	147.160000
374.504730	147.520000
374.598236	147.300000
374.691772	146.880000
374.785309	146.580000
374.878815	145.680000
374.972351	146.460000
375.065887	146.260000
375.159454	147.240000
375.252930	147.080000
375.346497	147.420000
375.440002	147.520000
375.533569	147.920000
375.627045	146.800000
375.720612	146.860000
375.814117	147.220000
375.907684	146.420000
376.001160	145.860000
376.094727	145.740000
376.188232	146.480000
376.281799	146.500000
376.375336	146.720000
376.468872	147.640000
376.562408	147.780000
376.655914	147.160000
376.749451	146.540000
376.842987	146.520000
376.936523	145.640000
377.030060	146.020000
377.123596	146.440000
377.217133	146.400000
377.310669	146.320000
377.404205	146.800000
377.497772	147.020000
377.591278	146.340000
377.684845	146.920000
377.778351	147.360000
377.871918	146.980000
377.965424	146.140000
378.058990	146.320000
378.152496	146.100000
378.246063	146.040000
378.339569	146.660000
378.433136	146.880000
378.526642	146.860000
378.620209	146.760000
378.713745	146.140000
378.807312	146.180000
378.900848	146.220000
378.994385	146.740000
379.087921	146.020000
379.181458	146.640000
379.274994	145.940000
379.368530	145.920000
379.462097	145.760000
379.555634	146.420000
379.649170	145.540000
379.742706	145.460000
379.836273	145.880000
379.929810	145.400000
380.023376	145.400000
380.116882	145.580000
380.210449	145.420000
380.303986	144.900000
380.397552	144.840000
380.491058	144.880000
380.584656	144.920000
380.678162	145.440000
380.771729	145.780000
380.865265	146.480000
380.958832	146.520000
381.052368	146.800000
381.145935	146.640000
381.239471	146.760000
381.333008	146.340000
381.426575	146.140000
381.520111	146.340000
381.613647	146.720000
381.707214	146.380000
381.800751	145.860000
381.894318	146.180000
381.987854	145.600000
382.081421	145.100000
382.174988	145.120000
382.268524	145.220000
382.362091	145.380000
382.455627	146.220000
382.549194	146.140000
382.642731	145.940000
382.736298	145.820000
382.829834	145.440000
382.923401	145.920000
383.016937	146.160000
383.110504	146.700000
383.204041	147.220000
383.297607	147.680000
383.391174	146.800000
383.484741	147.780000
383.578278	147.140000
383.671844	146.740000
383.765411	146.080000
383.858948	146.540000
383.952515	145.720000
384.046051	146.360000
384.139618	146.860000
384.233185	147.100000
384.326721	146.880000
384.420288	147.400000
384.513855	147.300000
384.607422	147.720000
384.700989	147.940000
384.794525	147.380000
384.888123	147.080000
384.981659	147.240000
385.075226	146.400000
385.168762	146.220000
385.262360	146.500000
385.355896	145.620000
385.449463	145.500000
385.542999	145.920000
385.636597	146.320000
385.730164	146.520000
385.823730	146.580000
385.917267	146.240000
386.010834	146.160000
386.104401	146.120000
386.197968	146.160000
386.291534	146.700000
386.385101	146.900000
386.478668	147.240000
386.572235	146.840000
386.665802	146.320000
386.759338	146.000000
386.852905	145.840000
386.946472	145.020000
387.040070	145.280000
387.133606	145.440000
387.227203	145.180000
387.320740	145.400000
387.414337	145.600000
387.507874	145.200000
387.601471	145.400000
387.695007	145.620000
387.788605	145.240000
387.882141	145.640000
387.975739	145.940000
388.069275	145.660000
388.162872	145.960000
388.256439	146.180000
388.350037	145.880000
388.443604	145.780000
388.537170	145.900000
388.630737	146.160000
388.724304	146.500000
388.817871	146.320000
388.911438	146.320000
389.005005	146.500000
389.098602	146.440000
389.192169	145.580000
389.285736	146.400000
389.379333	146.580000
389.472870	146.420000
389.566467	146.060000
389.660034	146.660000
389.753632	145.800000
389.847168	145.980000
389.940765	146.380000
390.034332	146.360000
390.127930	145.980000
390.221466	145.900000
390.315063	145.020000
390.408630	144.180000
390.502228	143.860000
390.595795	144.080000
390.689362	144.680000
390.782959	145.540000
390.876526	146.080000
390.970093	146.460000
391.063690	146.860000
391.157257	146.780000
391.250824	147.000000
391.344421	146.700000
391.437988	147.080000
391.531555	146.820000
391.625153	146.680000
391.718750	146.640000
391.812317	146.960000
391.905914	146.600000
391.999481	146.620000
392.093079	146.720000
392.186615	146.660000
392.280243	146.660000
392.373779	146.580000
392.467407	147.040000
392.560944	146.840000
392.654572	146.360000
392.748108	146.120000
392.841736	146.320000
392.935303	145.840000
393.028900	145.740000
393.122467	145.740000
393.216064	145.620000
393.309631	145.200000
393.403229	144.880000
393.496796	145.040000
393.590393	145.160000
393.683990	145.420000
393.777557	145.840000
393.871155	146.240000
393.964722	146.520000
394.058350	146.700000
394.151917	147.020000
394.245514	146.940000
394.339081	147.280000
394.432678	147.400000
394.526245	146.800000
394.619873	146.280000
394.713409	146.320000
394.807037	145.680000
394.900604	145.440000
394.994202	145.780000
395.087769	145.960000
395.181396	145.420000
395.274994	146.460000
395.368561	145.840000
395.462158	145.820000
395.555756	145.560000
395.649353	146.340000
395.742920	145.540000
395.836517	146.560000
395.930115	146.140000
396.023712	146.480000
396.117279	146.240000
396.210876	145.940000
396.304474	145.700000
396.398071	146.160000
396.491669	146.520000
396.585266	146.260000
396.678833	146.280000
396.772461	146.500000
396.866028	146.500000
396.959656	146.580000
397.053223	147.060000
397.146851	147.240000
397.240417	147.340000
397.334015	147.800000
397.427582	147.520000
397.521210	148.060000
397.614807	148.800000
397.708405	149.520000
397.802002	150.300000
397.895599	151.980000
397.989197	153.280000
398.082794	155.400000
398.176392	158.000000
398.269989	161.320000
398.363586	165.440000
398.457184	170.600000
398.550781	176.040000
398.644379	181.180000
398.737976	187.360000
398.831573	193.680000
398.925201	200.140000
399.018768	206.880000
399.112396	215.040000
399.205963	223.060000
399.299591	232.160000
399.393158	241.760000
399.486786	253.700000
399.580353	265.020000
399.673981	277.640000
399.767578	291.240000
399.861206	305.940000
399.954773	319.080000
400.048401	332.560000
400.141998	342.620000
400.235596	350.160000
400.329193	353.740000
400.422791	355.140000
400.516418	353.700000
400.610016	353.280000
400.703613	351.400000
400.797211	348.040000
400.890808	343.120000
400.984436	336.840000
401.078033	327.140000
401.171631	314.580000
401.265259	300.880000
401.358826	285.760000
401.452484	269.240000
401.546051	252.720000
401.639679	236.480000
401.733246	221.800000
401.826904	207.980000
401.920471	196.360000
402.014099	186.480000
402.107697	178.280000
402.201324	171.320000
402.294891	166.060000
402.388550	161.640000
402.482147	158.380000
402.575745	155.700000
402.669373	153.100000
402.762970	151.200000
402.856567	150.000000
402.950195	148.820000
403.043793	148.140000
403.137390	148.400000
403.231018	147.540000
403.324615	147.700000
403.418243	147.080000
403.511841	147.440000
403.605469	147.000000
403.699066	147.740000
403.792694	147.480000
403.886292	147.740000
403.979919	147.560000
404.073517	147.340000
404.167145	147.600000
404.260712	147.340000
404.354370	147.180000
404.447937	147.320000
404.541595	147.340000
404.635162	147.040000
404.728821	147.420000
404.822418	147.140000
404.916046	146.400000
405.009644	146.800000
405.103271	147.160000
405.196899	146.980000
405.290497	147.080000
405.384125	147.400000
405.477722	146.880000
405.571350	145.960000
405.664948	145.960000
405.758575	145.940000
405.852203	145.480000
405.945801	145.520000
406.039429	145.800000
406.133057	145.420000
406.226654	145.400000
406.320312	145.760000
406.413879	146.160000
406.507538	146.700000
406.601135	146.740000
406.694763	146.960000
406.788361	146.740000
406.882019	146.380000
406.975586	146.320000
407.069244	146.960000
407.162872	147.000000
407.256470	146.840000
407.350098	146.840000
407.443726	146.380000
407.537323	145.800000
407.630951	145.960000
407.724579	146.000000
407.818207	146.260000
407.911804	146.100000
408.005432	146.000000
408.099060	146.340000
408.192688	146.900000
408.286285	146.680000
408.379913	146.640000
408.473572	146.940000
408.567169	145.620000
408.660828	145.360000
408.754395	145.360000
408.848053	145.540000
408.941650	145.320000
409.035309	145.640000
409.128906	145.540000
409.222565	145.640000
409.316132	145.880000
409.409790	145.620000
409.503387	145.860000
409.597046	146.180000
409.690674	146.360000
409.784302	146.340000
409.877930	146.620000
409.971558	146.860000
410.065186	146.800000
410.158783	146.480000
410.252411	145.960000
410.346039	145.940000
410.439667	145.760000
410.533295	145.600000
410.626923	145.900000
410.720551	145.880000
410.814209	146.220000
410.907806	146.460000
411.001465	145.700000
411.095062	145.700000
411.188721	146.360000
411.282318	146.200000
411.375977	145.700000
411.469574	146.520000
411.563232	146.220000
411.656830	145.660000
411.750488	145.440000
411.844086	145.500000
411.937744	145.300000
412.031372	145.200000
412.125000	145.400000
412.218628	145.280000
412.312256	146.000000
412.405884	146.500000
412.499512	146.340000
412.593170	146.620000
412.686798	147.080000
412.780426	146.300000
412.874054	146.160000
412.967682	146.460000
413.061310	146.660000
413.154968	146.620000
413.248566	146.900000
413.342224	146.460000
413.435852	146.620000
413.529510	146.140000
413.623108	145.440000
413.716766	145.320000
413.810364	145.940000
413.904022	145.520000
413.997650	145.400000
414.091309	146.700000
414.184906	146.640000
414.278564	145.920000
414.372192	146.360000
414.465851	146.560000
414.559479	145.920000
414.653107	146.600000
414.746735	147.020000
414.840393	146.980000
414.934021	147.280000
415.027649	146.780000
415.121277	146.420000
415.214935	146.560000
415.308563	146.640000
415.402191	146.180000
415.495850	146.420000
415.589478	146.240000
415.683136	146.180000
415.776733	146.400000
415.870422	147.000000
415.964020	146.660000
416.057678	146.860000
416.151306	146.600000
416.244965	146.200000
416.338562	145.940000
416.432251	146.540000
416.525848	147.320000
416.619507	147.660000
416.713165	147.980000
416.806793	147.980000
416.900421	147.660000
416.994080	146.720000
417.087708	146.500000
417.181366	145.940000
417.274994	146.020000
417.368622	146.420000
417.462280	146.980000
417.555908	147.000000
417.649567	147.020000
417.743195	146.880000
417.836853	146.820000
417.930481	146.920000
418.024170	146.780000
418.117767	147.260000
418.211426	147.600000
418.305054	147.940000
418.398712	147.080000
418.492340	147.260000
418.585999	147.380000
418.679626	147.060000
418.773285	146.800000
418.866913	147.520000
418.960571	147.680000
419.054230	147.560000
419.147858	147.740000
419.241516	147.720000
419.335144	147.280000
419.428802	147.120000
419.522461	146.780000
419.616089	146.520000
419.709747	146.520000
419.803375	146.640000
419.897034	146.420000
419.990662	146.320000
420.084320	146.520000
420.177979	146.580000
420.271606	146.740000
420.365295	147.080000
420.458893	147.520000
420.552582	147.660000
420.646210	147.240000
420.739868	146.880000
420.833496	146.900000
420.927155	146.440000
421.020782	146.100000
421.114471	145.960000
421.208069	146.300000
421.301758	146.400000
421.395386	146.740000
421.489044	146.400000
421.582703	146.500000
421.676361	146.680000
421.769989	145.940000
421.863647	146.160000
421.957306	146.660000
422.050934	146.860000
422.144592	146.520000
422.238251	146.560000
422.331909	145.860000
422.425537	145.640000
422.519196	145.720000
422.612854	145.560000
422.706543	145.580000
422.800140	146.320000
422.893829	145.940000
422.987457	145.620000
423.081146	145.900000
423.174744	146.680000
423.268433	146.100000
423.362061	146.200000
423.455750	146.080000
423.549347	145.680000
423.643036	144.900000
423.736664	145.680000
423.830353	146.080000
423.924011	146.920000
424.017639	146.880000
424.111298	146.860000
424.204956	146.620000
424.298615	146.580000
424.392273	146.120000
424.485931	146.480000
424.579559	146.800000
424.673218	146.600000
424.766876	146.660000
424.860535	146.280000
424.954193	146.000000
425.047882	146.600000
425.141510	146.460000
425.235199	146.180000
425.328796	146.320000
425.422485	146.120000
425.516113	145.000000
425.609802	144.900000
425.703430	145.040000
425.797119	145.180000
425.890747	145.680000
425.984436	145.860000
426.078064	146.200000
426.171753	146.420000
426.265411	146.100000
426.359070	146.100000
426.452728	146.420000
426.546356	146.200000
426.640015	145.880000
426.733673	145.900000
426.827332	145.400000
426.920990	146.120000
427.014648	145.600000
427.108307	145.520000
427.201965	146.100000
427.295624	146.480000
427.389282	145.480000
427.482941	145.920000
427.576630	146.160000
427.670258	145.520000
427.763947	145.440000
427.857574	145.760000
427.951263	145.580000
428.044922	145.340000
428.138611	145.380000
428.232239	145.820000
428.325928	146.160000
428.419556	146.540000
428.513245	146.240000
428.606903	146.300000
428.700562	145.700000
428.794220	145.060000
428.887878	144.760000
428.981537	145.240000
429.075195	145.460000
429.168854	145.780000
429.262512	146.100000
429.356201	146.420000
429.449860	146.240000
429.543518	146.040000
429.637177	146.160000
429.730835	145.960000
429.824493	146.140000
429.918182	146.500000
430.011810	146.540000
430.105530	146.040000
430.199158	146.420000
430.292847	145.760000
430.386475	145.480000
430.480164	145.280000
430.573792	145.140000
430.667511	144.800000
430.761139	145.160000
430.854828	145.700000
430.948456	145.820000
431.042145	146.400000
431.135834	146.360000
431.229492	146.680000
431.323151	146.280000
431.416809	146.420000
431.510468	146.520000
431.604156	146.260000
431.697815	145.980000
431.791473	145.680000
431.885132	145.180000
431.978821	145.300000
432.072479	145.660000
432.166138	145.920000
432.259827	146.080000
432.353485	146.740000
432.447174	146.500000
432.540802	146.560000
432.634491	146.580000
432.728149	146.760000
432.821838	147.280000
432.915466	146.920000
433.009186	147.060000
433.102814	146.360000
433.196503	146.300000
433.290131	145.640000
433.383850	145.940000
433.477509	145.820000
433.571167	146.660000
433.664856	146.960000
433.758514	147.700000
433.852173	147.580000
433.945862	147.440000
434.039520	147.220000
434.133179	146.620000
434.226868	145.920000
434.320526	145.740000
434.414185	146.320000
434.507874	145.980000
434.601562	146.480000
434.695221	146.360000
434.788910	146.600000
434.882538	146.440000
434.976257	146.240000
435.069885	146.040000
435.163574	146.420000
435.257233	145.740000
435.350922	145.740000
435.444580	145.440000
435.538269	145.100000
435.631897	145.360000
435.725616	146.320000
435.819275	146.420000
435.912964	147.220000
436.006622	147.520000
436.100311	146.840000
436.193970	146.120000
436.287628	145.820000
436.381317	145.260000
436.474976	145.020000
436.568665	144.760000
436.662323	145.220000
436.756012	145.100000
436.849670	145.300000
436.943390	145.460000
437.037018	145.700000
437.130737	145.580000
437.224365	145.360000
437.318085	145.560000
437.411713	145.780000
437.505432	146.240000
437.599060	146.500000
437.692780	147.300000
437.786407	147.100000
437.880127	146.960000
437.973755	146.480000
438.067474	146.000000
438.161133	145.620000
438.254822	145.840000
438.348480	145.420000
438.442169	146.200000
438.535828	146.420000
438.629517	145.900000
438.723175	145.480000
438.816864	146.340000
438.910553	145.720000
439.004211	145.580000
439.097900	145.600000
439.191559	145.800000
439.285248	145.100000
439.378906	145.280000
439.472626	145.220000
439.566284	145.360000
439.659973	145.680000
439.753632	145.740000
439.847321	146.060000
439.940979	146.580000
440.034698	146.780000
440.128326	146.240000
440.222046	146.040000
440.315674	145.140000
440.409393	145.180000
440.503082	144.860000
440.596741	145.440000
440.690430	145.920000
440.784088	146.120000
440.877777	145.540000
440.971466	145.860000
441.065125	145.420000
441.158813	144.880000
441.252502	145.340000
441.346161	145.680000
441.439850	145.700000
441.533539	145.580000
441.627197	146.020000
441.720886	145.500000
441.814606	145.840000
441.908234	146.480000
442.001953	146.820000
442.095612	147.220000
442.189301	147.720000
442.282959	147.340000
442.376678	146.420000
442.470306	146.820000
442.564026	146.240000
442.657684	146.300000
442.751404	146.440000
442.845032	147.580000
442.938751	146.520000
443.032440	146.780000
443.126099	146.140000
443.219788	146.460000
443.313477	145.720000
443.407166	146.400000
443.500824	146.320000
443.594513	146.940000
443.688202	146.500000
443.781891	146.080000
443.875549	145.700000
443.969238	145.500000
444.062927	145.380000
444.156647	145.340000
444.250275	145.860000
444.343994	146.220000
444.437653	146.580000
444.531372	146.420000
444.625031	146.180000
444.718719	146.040000
444.812378	146.060000
444.906097	145.800000
444.999756	145.540000
445.093445	145.900000
445.187103	145.660000
445.280823	145.880000
445.374512	145.480000
445.468201	145.980000
445.561859	145.700000
445.655548	145.880000
445.749237	145.480000
445.842926	146.100000
445.936615	146.420000
446.030304	146.520000
446.123962	146.340000
446.217651	146.320000
446.311340	146.300000
446.405029	145.460000
446.498749	145.140000
446.592407	145.200000
446.686096	145.480000
446.779755	145.520000
446.873474	146.080000
446.967133	146.540000
447.060852	146.360000
447.154510	146.140000
447.248230	145.760000
447.341858	145.460000
447.435577	144.960000
447.529236	144.860000
447.622955	144.620000
447.716644	144.780000
447.810333	145.220000
447.904022	145.860000
447.997711	146.080000
448.091400	146.560000
448.185059	146.480000
448.278748	146.360000
448.372437	145.780000
448.466125	146.220000
448.559814	146.020000
448.653503	146.500000
448.747192	146.660000
448.840912	147.720000
448.934570	147.320000
449.028290	147.620000
449.121948	147.220000
449.215637	146.760000
449.309296	145.860000
449.403015	146.040000
449.496674	145.800000
449.590393	145.900000
449.684052	145.760000
449.777771	146.780000
449.871429	146.080000
449.965149	146.300000
450.058838	146.600000
450.152527	147.060000
450.246216	146.300000
450.339905	146.900000
450.433594	146.400000
450.527283	146.680000
450.620972	146.460000
450.714661	146.400000
450.808350	146.400000
450.902039	146.840000
450.995728	146.380000
451.089417	145.980000
451.183105	146.180000
451.276794	146.460000
451.370514	145.620000
451.464172	145.100000
451.557892	145.340000
451.651550	145.260000
451.745270	144.920000
451.838928	145.080000
451.932648	145.560000
452.026306	146.020000
452.120026	145.980000
452.213684	146.260000
452.307404	146.560000
452.401062	146.640000
452.494781	146.700000
452.588470	146.800000
452.682159	146.220000
452.775848	146.180000
452.869537	145.720000
452.963226	144.960000
453.056915	144.560000
453.150604	144.820000
453.244293	144.880000
453.337982	145.840000
453.431671	146.500000
453.525360	147.120000
453.619049	147.220000
453.712769	147.360000
453.806427	146.300000
453.900146	145.780000
453.993805	145.340000
454.087555	145.720000
454.181213	145.780000
454.274933	145.720000
454.368591	145.660000
454.462311	145.900000
454.555969	145.340000
454.649689	146.000000
454.743347	146.260000
454.837067	147.200000
454.930756	147.220000
455.024445	147.540000
455.118134	147.120000
455.211853	147.300000
455.305542	146.660000
455.399231	146.660000
455.492920	146.420000
455.586609	146.360000
455.680298	146.380000
455.773987	146.040000
455.867676	145.880000
455.961365	146.320000
456.055084	146.120000
456.148773	146.180000
456.242493	146.320000
456.336151	146.640000
456.429871	146.680000
456.523529	146.940000
456.617249	146.260000
456.710907	147.060000
456.804626	146.740000
456.898315	145.960000
456.992035	145.640000
457.085693	145.820000
457.179413	144.680000
457.273102	145.380000
457.366791	145.800000
457.460480	146.180000
457.554199	146.920000
457.647888	147.320000
457.741577	146.640000
457.835266	146.680000
457.928955	146.580000
458.022644	146.540000
458.116364	147.060000
458.210052	147.200000
458.303741	147.240000
458.397461	146.800000
458.491119	146.200000
458.584839	145.700000
458.678528	145.180000
458.772247	144.880000
458.865906	145.340000
458.959625	146.340000
459.053284	146.380000
459.147003	146.420000
459.240692	147.000000
459.334412	146.880000
459.428070	146.080000
459.521790	146.080000
459.615479	146.080000
459.709198	146.320000
459.802887	145.980000
459.896576	146.000000
459.990265	146.160000
460.083954	146.600000
460.177673	146.040000
460.271362	146.000000
460.365051	146.180000
460.458740	145.720000
460.552429	145.340000
460.646149	145.160000
460.739838	145.100000
460.833527	144.960000
460.927246	144.960000
461.020905	144.660000
461.114655	144.580000
461.208313	145.140000
461.302032	145.020000
461.395691	145.320000
461.489441	145.860000
461.583099	145.780000
461.676819	145.140000
461.770477	145.580000
461.864197	145.620000
461.957916	145.540000
462.051605	145.420000
462.145294	146.520000
462.238983	146.160000
462.332703	146.680000
462.426392	147.400000
462.520081	147.560000
462.613770	146.520000
462.707489	146.640000
462.801178	146.180000
462.894867	145.420000
462.988556	145.480000
463.082275	145.840000
463.175964	145.320000
463.269684	145.580000
463.363342	145.780000
463.457092	145.300000
463.550751	145.440000
463.644470	145.920000
463.738129	145.820000
463.831879	145.940000
463.925537	146.960000
464.019257	147.140000
464.112946	147.020000
464.206665	146.900000
464.300323	146.820000
464.394043	146.180000
464.487762	145.880000
464.581451	146.160000
464.675140	146.180000
464.768829	146.100000
464.862549	146.380000
464.956238	146.340000
465.049927	146.120000
465.143646	146.260000
465.237335	146.040000
465.331024	146.360000
465.424713	146.540000
465.518433	146.680000
465.612152	146.120000
465.705811	146.340000
465.799561	145.960000
465.893219	145.740000
465.986938	145.540000
466.080597	145.860000
466.174347	146.100000
466.268005	146.400000
466.361725	146.480000
466.455414	146.580000
466.549133	146.160000
466.642792	146.280000
466.736542	145.860000
466.830231	146.100000
466.923920	146.000000
467.017609	146.180000
467.111328	145.580000
467.205017	145.640000
467.298706	145.400000
467.392426	145.640000
467.486115	146.080000
467.579803	146.120000
467.673523	146.560000
467.767212	146.720000
467.860901	146.560000
467.954651	146.340000
468.048309	146.780000
468.142029	146.260000
468.235718	146.340000
468.329437	146.260000
468.423096	146.180000
468.516846	145.800000
468.610504	145.860000
468.704224	145.460000
468.797913	145.280000
468.891632	145.300000
468.985291	145.240000
469.079010	145.380000
469.172729	145.060000
469.266418	145.700000
469.360107	145.680000
469.453827	145.400000
469.547516	145.160000
469.641205	145.700000
469.734924	145.680000
469.828613	146.260000
469.922302	146.800000
470.016022	146.900000
470.109711	146.580000
470.203430	145.900000
470.297150	144.980000
470.390808	145.080000
470.484558	145.200000
470.578217	146.020000
470.671936	146.640000
470.765625	147.520000
470.859344	146.920000
470.953003	146.940000
471.046753	146.360000
471.140411	145.840000
471.234131	145.560000
471.327820	146.520000
471.421539	146.540000
471.515228	146.160000
471.608948	146.360000
471.702637	145.940000
471.796326	145.380000
471.890045	145.700000
471.983734	146.180000
472.077423	145.820000
472.171143	146.120000
472.264832	146.020000
472.358521	145.620000
472.452240	145.260000
472.545929	146.120000
472.639648	146.120000
472.733337	146.500000
472.827057	146.660000
472.920746	146.860000
473.014465	146.860000
473.108124	147.160000
473.201874	146.860000
473.295532	146.820000
473.389252	147.240000
473.482941	147.120000
473.576660	146.400000
473.670319	146.420000
473.764069	146.500000
473.857727	146.420000
473.951477	146.580000
474.045166	147.420000
474.138855	147.320000
474.232574	147.300000
474.326263	147.120000
474.419952	147.140000
474.513672	146.920000
474.607361	146.940000
474.701050	147.240000
474.794769	147.720000
474.888458	147.520000
474.982178	147.600000
475.075867	147.700000
475.169586	147.360000
475.263275	146.860000
475.356995	146.620000
475.450653	146.040000
475.544403	145.620000
475.638062	146.480000
475.731812	146.200000
475.825470	146.240000
475.919189	146.320000
476.012878	146.700000
476.106598	145.640000
476.200256	146.240000
476.294006	146.120000
476.387695	146.360000
476.481384	146.260000
476.575104	146.500000
476.668793	145.820000
476.762512	145.560000
476.856201	145.940000
476.949890	145.740000
477.043610	145.200000
477.137299	145.160000
477.230988	145.700000
477.324707	145.280000
477.418396	145.980000
477.512146	146.160000
477.605804	145.980000
477.699524	145.780000
477.793213	145.660000
477.886932	145.100000
477.980591	144.980000
478.074341	145.060000
478.167999	144.800000
478.261749	145.020000
478.355408	145.100000
478.449127	145.620000
478.542816	146.760000
478.636536	147.520000
478.730225	147.620000
478.823944	147.700000
478.917633	147.340000
479.011322	146.740000
479.105042	146.460000
479.198730	146.460000
479.292450	146.360000
479.386139	146.880000
479.479828	147.120000
479.573547	147.240000
479.667267	147.080000
479.760925	147.440000
479.854675	147.280000
479.948334	147.280000
480.042084	146.760000
480.135742	147.020000
480.229462	146.240000
480.323151	146.200000
480.416870	145.360000
480.510529	145.380000
480.604279	144.900000
480.697937	145.420000
480.791656	144.960000
480.885345	145.020000
480.979065	145.240000
481.072754	145.340000
481.166473	145.740000
481.260132	146.080000
481.353882	146.340000
481.447540	146.120000
481.541260	146.400000
481.635010	145.600000
481.728668	145.600000
481.822388	145.680000
481.916077	145.800000
482.009796	145.380000
482.103485	146.000000
482.197205	145.960000
482.290863	146.180000
482.384613	145.980000
482.478271	145.780000
482.571991	145.720000
482.665680	145.400000
482.759399	145.820000
482.853058	146.300000
482.946808	146.680000
483.040466	146.360000
483.134216	146.420000
483.227875	145.800000
483.321594	145.860000
483.415283	146.100000
483.509003	145.920000
483.602661	145.720000
483.696411	146.040000
483.790070	145.800000
483.883789	145.500000
483.977478	146.000000
484.071198	146.460000
484.164917	146.040000
484.258606	145.540000
484.352325	145.760000
484.445984	145.860000
484.539734	145.780000
484.633392	145.540000
484.727142	146.260000
484.820801	146.120000
484.914520	145.720000
485.008209	145.720000
485.101929	146.500000
485.195587	146.360000
485.289337	146.440000
485.382996	146.580000
485.476715	146.740000
485.570404	146.880000
485.664124	146.740000
485.757782	147.000000
485.851532	146.820000
485.945190	146.660000
486.038910	146.440000
486.132599	146.720000
486.226318	146.080000
486.319977	146.240000
486.413727	146.840000
486.507446	146.260000
486.601105	145.560000
486.694855	145.520000
486.788513	145.080000
486.882233	144.600000
486.975922	144.900000
487.069641	144.860000
487.163300	144.620000
487.257050	145.900000
487.350708	145.560000
487.444427	145.220000
487.538116	145.460000
487.631836	145.880000
487.725494	145.240000
487.819214	145.760000
487.912903	145.860000
488.006622	146.360000
488.100281	146.840000
488.194031	146.920000
488.287689	147.200000
488.381409	147.720000
488.475098	147.240000
488.568817	147.200000
488.662476	146.740000
488.756226	145.760000
488.849945	144.840000
488.943604	145.080000
489.037354	145.120000
489.131012	145.300000
489.224731	145.220000
489.318390	145.700000
489.412140	145.440000
489.505798	144.860000
489.599518	144.720000
489.693207	145.300000
489.786926	144.740000
489.880585	144.780000
489.974335	145.580000
490.067993	146.500000
490.161713	146.840000
490.255371	148.100000
490.349121	148.260000
490.442780	147.560000
490.536499	146.700000
490.630188	146.740000
490.723907	145.840000
490.817566	145.960000
490.911285	145.900000
491.004974	145.800000
491.098694	145.160000
491.192413	146.080000
491.286102	145.860000
491.379822	146.380000
491.473480	146.580000
491.567200	146.780000
491.660889	146.180000
491.754608	146.160000
491.848267	145.940000
491.941986	145.820000
492.035675	145.440000
492.129395	145.800000
492.223053	145.760000
492.316772	145.780000
492.410461	145.760000
492.504181	146.100000
492.597839	145.420000
492.691559	145.580000
492.785248	145.700000
492.878967	145.920000
492.972626	145.700000
493.066345	145.840000
493.160034	145.120000
493.253754	145.080000
493.347412	144.420000
493.441132	144.680000
493.534882	145.200000
493.628540	145.760000
493.722260	145.820000
493.815918	146.480000
493.909668	147.180000
494.003326	147.240000
494.097046	147.480000
494.190704	147.440000
494.284454	147.380000
494.378113	147.100000
494.471832	146.820000
494.565491	146.420000
494.659210	146.240000
494.752899	146.220000
494.846619	145.960000
494.940277	146.280000
495.033997	146.560000
495.127686	146.220000
495.221405	146.080000
495.315063	146.080000
495.408783	145.640000
495.502441	145.620000
495.596191	145.880000
495.689850	145.560000
495.783569	145.580000
495.877228	145.900000
495.970947	145.660000
496.064697	145.640000
496.158356	146.760000
496.252075	146.900000
496.345734	146.520000
496.439453	147.040000
496.533142	147.340000
496.626862	147.340000
496.720520	147.380000
496.814240	147.840000
496.907898	147.780000
497.001617	147.600000
497.095306	146.260000
497.189026	146.080000
497.282684	145.860000
497.376404	146.300000
497.470062	146.000000
497.563782	146.680000
497.657471	146.280000
497.751190	146.020000
497.844849	145.280000
497.938568	145.780000
498.032227	146.020000
498.125946	146.300000
498.219635	146.040000
498.313354	146.440000
498.407074	146.220000
498.500732	146.160000
498.594452	146.360000
498.688110	146.400000
498.781830	145.740000
498.875519	145.440000
498.969238	144.980000
499.062897	144.480000
499.156616	145.000000
499.250275	145.620000
499.343994	145.480000
499.437653	145.620000
499.531372	146.060000
499.625061	146.320000
499.718781	146.140000
499.812439	146.600000
499.906158	146.540000
499.999817	146.300000
500.093536	145.840000
500.187195	145.760000
500.280914	145.720000
500.374573	146.100000
500.468323	145.880000
500.561981	146.180000
500.655701	146.000000
500.749420	146.000000
500.843079	146.280000
500.936798	146.880000
501.030457	146.960000
501.124176	147.300000
501.217834	147.040000
501.311554	146.460000
501.405212	145.980000
501.498962	145.540000
501.592621	145.440000
501.686340	146.060000
501.779999	146.460000
501.873718	146.740000
501.967377	147.080000
502.061096	147.240000
502.154755	146.660000
502.248474	146.260000
502.342133	146.280000
502.435852	145.860000
502.529510	146.440000
502.623230	147.060000
502.716888	146.820000
502.810608	146.880000
502.904266	147.480000
502.997986	146.600000
503.091705	146.060000
503.185364	146.240000
503.279083	145.960000
503.372772	145.620000
503.466492	145.180000
503.560150	145.140000
503.653870	145.520000
503.747528	145.640000
503.841248	145.660000
503.934906	146.340000
504.028625	146.300000
504.122284	146.100000
504.216003	146.800000
504.309662	146.400000
504.403381	146.420000
504.497040	146.640000
504.590759	146.560000
504.684418	146.300000
504.778137	147.080000
504.871796	147.360000
504.965515	147.300000
505.059174	147.420000
505.152893	146.960000
505.246521	146.140000
505.340240	145.900000
505.433899	146.040000
505.527618	146.180000
505.621338	146.580000
505.714996	146.780000
505.808716	146.740000
505.902374	147.240000
505.996094	147.320000
506.089752	146.860000
506.183472	146.860000
506.277130	146.920000
506.370850	146.540000
506.464508	146.200000
506.558228	146.300000
506.651886	146.120000
506.745605	146.160000
506.839264	146.120000
506.932983	146.120000
507.026611	146.040000
507.120331	146.720000
507.213989	145.900000
507.307709	145.800000
507.401367	146.140000
507.495087	147.040000
507.588745	146.400000
507.682465	147.600000
507.776123	147.540000
507.869843	147.580000
507.963531	147.240000
508.057190	147.640000
508.150909	146.720000
508.244568	146.940000
508.338287	146.480000
508.431946	145.780000
508.525665	145.420000
508.619324	145.500000
508.713013	145.900000
508.806671	146.280000
508.900391	147.100000
508.994049	147.440000
509.087769	147.320000
509.181427	146.660000
509.275146	146.080000
509.368774	145.400000
509.462494	145.440000
509.556152	145.720000
509.649872	146.020000
509.743530	146.500000
509.837250	146.760000
509.930878	146.660000
510.024597	146.400000
510.118256	146.100000
510.211975	145.920000
510.305695	145.500000
510.399353	145.600000
510.493042	146.260000
510.586700	146.480000
510.680420	147.000000
510.774078	146.960000
510.867798	147.080000
510.961426	146.640000
511.055145	146.840000
511.148804	146.280000
511.242523	147.120000
511.336151	147.360000
511.429871	147.760000
511.523529	147.600000
511.617249	147.480000
511.710876	146.880000
511.804596	146.300000
511.898254	145.940000
511.991974	145.920000
512.085632	145.780000
512.179321	146.220000
512.272949	146.540000
512.366699	146.900000
512.460327	146.660000
512.554077	147.740000
512.647766	147.160000
512.741394	147.020000
512.835144	146.980000
512.928772	147.200000
513.022461	146.560000
513.116150	146.580000
513.209839	147.080000
513.303467	146.820000
513.397217	146.440000
513.490845	146.600000
513.584595	146.560000
513.678223	145.880000
513.771912	145.480000
513.865601	145.940000
513.959290	145.540000
514.052917	145.600000
514.146667	146.260000
514.240295	146.560000
514.333984	146.520000
514.427673	146.500000
514.521362	146.840000
514.614990	146.100000
514.708740	146.400000
514.802368	146.280000
514.896057	146.400000
514.989746	147.060000
515.083435	146.960000
515.177124	146.860000
515.270752	146.640000
515.364502	146.680000
515.458130	146.320000
515.551819	146.440000
515.645508	146.040000
515.739197	146.360000
515.832825	146.520000
515.926575	145.720000
516.020203	146.080000
516.113892	146.700000
516.207520	146.160000
516.301270	146.100000
516.394897	146.560000
516.488586	146.600000
516.582275	146.440000
516.675964	146.400000
516.769592	146.040000
516.863281	146.820000
516.956970	147.040000
517.050659	146.900000
517.144287	147.260000
517.238037	147.820000
517.331665	146.580000
517.425354	146.100000
517.519043	146.120000
517.612732	146.300000
517.706421	146.000000
517.800049	146.180000
517.893738	145.800000
517.987427	145.700000
518.081116	145.480000
518.174744	145.100000
518.268433	145.960000
518.362122	146.820000
518.455811	146.860000
518.549438	147.260000
518.643127	148.640000
518.736816	147.700000
518.830505	147.140000
518.924133	146.780000
519.017822	146.620000
519.111511	145.640000
519.205200	146.360000
519.298828	146.440000
519.392517	146.660000
519.486206	146.900000
519.579895	146.940000
519.673523	146.280000
519.767212	146.360000
519.860901	146.540000
519.954590	146.180000
520.048279	145.840000
520.141907	145.860000
520.235596	146.740000
520.329224	147.120000
520.422974	147.080000
520.516602	147.180000
520.610291	147.120000
520.703918	146.700000
520.797607	146.060000
520.891296	146.160000
520.984985	146.120000
521.078613	146.900000
521.172302	146.260000
521.265930	147.260000
521.359680	147.860000
521.453308	147.880000
521.546997	147.120000
521.640625	147.300000
521.734314	146.400000
521.827942	145.780000
521.921692	146.380000
522.015320	146.760000
522.109009	146.580000
522.202698	146.760000
522.296326	147.100000
522.390015	146.800000
522.483704	146.700000
522.577393	146.600000
522.671021	146.280000
522.764709	145.620000
522.858337	145.960000
522.952026	145.860000
523.045654	146.560000
523.139404	147.360000
523.233032	147.900000
523.326721	147.400000
523.420349	147.580000
523.514038	146.860000
523.607666	146.920000
523.701355	146.060000
523.795044	146.260000
523.888733	146.500000
523.982361	146.860000
524.076050	146.160000
524.169678	147.040000
524.263367	146.920000
524.356995	146.300000
524.450684	146.300000
524.544373	146.320000
524.638062	146.280000
524.731750	146.340000
524.825378	146.620000
524.919067	145.900000
525.012695	146.140000
525.106384	145.680000
525.200012	145.740000
525.293701	145.220000
525.387329	146.080000
525.481018	146.140000
525.574646	146.360000
525.668396	146.300000
525.762024	146.880000
525.855713	146.680000
525.949341	146.180000
526.043030	146.180000
526.136658	145.920000
526.230347	145.960000
526.323975	145.560000
526.417664	145.740000
526.511292	146.000000
526.604980	146.360000
526.698608	146.180000
526.792297	146.640000
526.885925	146.940000
526.979614	147.020000
527.073303	146.760000
527.166931	146.700000
527.260620	146.780000
527.354309	147.480000
527.447998	146.940000
527.541626	146.900000
527.635315	147.200000
527.728943	147.680000
527.822632	147.160000
527.916260	147.220000
528.009949	147.340000
528.103577	146.960000
528.197266	146.300000
528.290894	145.840000
528.384583	146.000000
528.478210	146.120000
528.571899	146.540000
528.665527	146.700000
528.759216	147.040000
528.852844	147.280000
528.946533	147.340000
529.040161	147.060000
529.133850	146.720000
529.227478	146.960000
529.321167	147.140000
529.414856	147.280000
529.508484	147.340000
529.602173	147.060000
529.695801	146.800000
529.789490	146.500000
529.883057	146.160000
529.976746	146.420000
530.070374	147.200000
530.164062	146.960000
530.257690	147.000000
530.351379	147.300000
530.445007	146.880000
530.538696	146.060000
530.632324	146.560000
530.726013	146.420000
530.819641	146.420000
530.913330	146.880000
531.006958	146.940000
531.100647	146.600000
531.194275	146.580000
531.287964	146.060000
531.381592	145.440000
531.475220	146.040000
531.568848	146.160000
531.662537	146.040000
531.756226	146.780000
531.849854	146.940000
531.943542	146.580000
532.037170	146.240000
532.130859	146.600000
532.224487	146.000000
532.318176	145.700000
532.411804	146.460000
532.505432	146.480000
532.599060	146.320000
532.692749	146.260000
532.786377	146.940000
532.880066	146.140000
532.973694	145.860000
533.067383	145.700000
533.161011	145.740000
533.254639	145.640000
533.348267	145.480000
533.441956	145.940000
533.535583	145.740000
533.629272	145.920000
533.722900	145.360000
533.816589	145.620000
533.910156	146.000000
534.003845	146.020000
534.097534	146.180000
534.191162	146.880000
534.284851	147.100000
534.378479	146.660000
534.472107	146.740000
534.565735	146.520000
534.659424	146.740000
534.753052	146.780000
534.846741	146.460000
534.940369	147.160000
535.033997	147.240000
535.127625	146.900000
535.221313	147.240000
535.314941	147.440000
535.408630	146.620000
535.502197	146.940000
535.595886	146.740000
535.689514	146.080000
535.783203	146.640000
535.876831	147.140000
535.970459	147.020000
536.064087	146.800000
536.157776	147.180000
536.251404	146.880000
536.345093	146.900000
536.438721	146.620000
536.532349	146.980000
536.626038	146.300000
536.719666	146.300000
536.813293	145.840000
536.906921	145.640000
537.000610	145.960000
537.094238	146.540000
537.187866	146.480000
537.281494	146.520000
537.375183	147.060000
537.468811	146.560000
537.562439	146.320000
537.656067	146.280000
537.749756	146.260000
537.843384	146.580000
537.937012	146.920000
538.030640	146.820000
538.124329	146.880000
538.217896	147.260000
538.311584	146.980000
538.405212	146.620000
538.498901	147.140000
538.592468	147.600000
538.686157	147.140000
538.779785	146.540000
538.873413	146.420000
538.967102	145.680000
539.060730	144.980000
539.154358	145.560000
539.247986	145.980000
539.341675	146.260000
539.435242	146.600000
539.528931	146.920000
539.622559	146.360000
539.716187	146.920000
539.809814	146.760000
539.903503	146.660000
539.997070	146.380000
540.090759	146.440000
540.184387	145.820000
540.278015	146.320000
540.371643	146.540000
540.465332	146.520000
540.558899	146.360000
540.652588	146.380000
540.746216	146.120000
540.839844	146.160000
540.933472	146.320000
541.027100	146.340000
541.120728	146.380000
541.214417	146.200000
541.308044	146.260000
541.401672	146.080000
541.495300	145.980000
541.588928	145.920000
541.682617	145.840000
541.776184	145.440000
541.869873	145.680000
541.963440	145.980000
542.057129	145.920000
542.150757	146.340000
542.244385	146.440000
542.338013	146.220000
542.431641	146.160000
542.525269	146.140000
542.618958	146.060000
542.712524	146.400000
542.806213	146.160000
542.899780	146.460000
542.993469	146.160000
543.087036	146.280000
543.180725	145.740000
543.274292	146.440000
543.367981	146.580000
543.461548	147.060000
543.555237	146.640000
543.648926	147.440000
543.742493	147.660000
543.836182	147.660000
543.929749	147.560000
544.023437	147.400000
544.117004	147.140000
544.210693	147.000000
544.304260	146.560000
544.397949	146.300000
544.491516	146.680000
544.585205	146.520000
544.678772	146.100000
544.772461	146.540000
544.866028	146.420000
544.959717	146.400000
545.053284	146.100000
545.146973	146.320000
545.240540	146.660000
545.334229	147.420000
545.427795	147.400000
545.521423	147.720000
545.615051	147.480000
545.708679	147.020000
545.802307	146.540000
545.895935	146.740000
545.989624	147.280000
546.083191	147.220000
546.176880	147.440000
546.270447	146.860000
546.364136	147.220000
546.457703	146.860000
546.551331	146.860000
546.644958	146.720000
546.738586	147.360000
546.832214	146.700000
546.925842	146.380000
547.019409	146.700000
547.113098	146.160000
547.206665	146.240000
547.300354	146.460000
547.393921	146.660000
547.487549	146.940000
547.581177	147.120000
547.674805	147.140000
547.768433	146.420000
547.862061	146.520000
547.955627	145.640000
548.049316	146.520000
548.142883	146.560000
548.236572	147.300000
548.330139	147.440000
548.423767	147.500000
548.517456	146.960000
548.611023	146.900000
548.704651	146.260000
548.798279	146.120000
548.891907	146.840000
548.985474	146.640000
549.079163	146.860000
549.172729	146.800000
549.266357	146.440000
549.359985	146.020000
549.453613	145.580000
549.547180	145.300000
549.640869	145.740000
549.734436	145.840000
549.828064	146.260000
549.921631	146.640000
550.015320	146.440000
550.108887	147.020000
550.202515	146.840000
550.296143	146.340000
550.389771	146.260000
550.483337	146.280000
550.576965	145.920000
550.670593	146.560000
550.764221	146.680000
550.857849	146.820000
550.951477	146.480000
551.045105	146.020000
551.138672	145.820000
551.232300	145.480000
551.325928	145.760000
551.419556	146.440000
551.513123	146.420000
551.606750	145.860000
551.700378	146.140000
551.794006	145.980000
551.887573	145.500000
551.981201	146.200000
552.074768	146.380000
552.168457	146.140000
552.262024	146.860000
552.355652	146.740000
552.449219	146.860000
552.542847	147.180000
552.636475	147.120000
552.730103	146.060000
552.823669	146.280000
552.917297	145.640000
553.010864	145.360000
553.104553	145.800000
553.198181	145.740000
553.291748	145.920000
553.385376	146.360000
553.478943	146.480000
553.572571	146.460000
553.666199	146.860000
553.759827	146.620000
553.853394	146.040000
553.947021	145.820000
554.040588	145.800000
554.134216	145.440000
554.227783	146.200000
554.321411	146.880000
554.415039	146.620000
554.508667	146.260000
554.602234	146.860000
554.695862	146.100000
554.789429	146.000000
554.883057	146.580000
554.976624	146.360000
555.070251	145.980000
555.163818	145.920000
555.257507	145.700000
555.351074	145.480000
555.444702	146.900000
555.538330	146.540000
555.631897	147.220000
555.725525	147.380000
555.819092	147.440000
555.912720	146.640000
556.006287	147.240000
556.099915	146.980000
556.193481	146.840000
556.287109	147.040000
556.380676	146.560000
556.474304	146.440000
556.567871	146.420000
556.661499	145.920000
556.755066	145.980000
556.848694	146.320000
556.942261	146.080000
557.035889	146.000000
557.129517	146.520000
557.223145	146.580000
557.316711	146.560000
557.410339	146.860000
557.503906	146.680000
557.597473	147.100000
557.691040	146.880000
557.784668	147.120000
557.878296	147.360000
557.971863	147.740000
558.065491	147.520000
558.159058	147.260000
558.252686	147.480000
558.346252	147.580000
558.439880	146.920000
558.533447	146.340000
558.627075	146.240000
558.720642	145.760000
558.814270	145.520000
558.907837	145.840000
559.001465	145.860000
559.095032	146.780000
559.188660	146.920000
559.282227	146.120000
559.375854	146.740000
559.469360	146.220000
559.562988	146.200000
559.656555	146.140000
559.750183	146.840000
559.843750	146.320000
559.937378	147.080000
560.030945	146.460000
560.124573	0.000000
560.218140	0.000000
560.311707	0.000000
560.405334	0.000000
560.498901	0.000000
560.592529	0.000000
560.686096	0.000000
560.779724	0.000000
560.873291	0.000000
560.966858	0.000000
561.060425	0.000000
561.154053	0.000000
561.247620	0.000000
561.341248	0.000000
561.434814	0.000000
561.528381	0.000000
561.621948	0.000000
561.715576	0.000000
561.809143	0.000000
561.902771	0.000000
561.996277	0.000000
562.089905	0.000000
562.183472	0.000000
562.277100	0.000000
