Model Number: SPM-002-B   
Serial Number: 70087108
Firmware Version: 004.15.4
Exposure Time: 100000.000000us
Data Taken on: 11-12-2020 18:50:53.299
Wavelength	Amplitude
221.570786	0.000000
221.663406	0.000000
221.756027	0.000000
221.848648	0.000000
221.941269	0.000000
222.033905	0.000000
222.126526	0.000000
222.219162	0.000000
222.311798	0.000000
222.404419	0.000000
222.497055	0.000000
222.589676	0.000000
222.682312	0.000000
222.774933	0.000000
222.867569	0.000000
222.960205	0.000000
223.052841	0.000000
223.145462	0.000000
223.238098	0.000000
223.330734	0.000000
223.423386	0.000000
223.516022	0.000000
223.608658	0.000000
223.701309	0.000000
223.793945	0.000000
223.886581	0.000000
223.979218	0.000000
224.071869	0.000000
224.164505	0.000000
224.257156	0.000000
224.349792	0.000000
224.442444	0.000000
224.535095	0.000000
224.627747	0.000000
224.720398	0.000000
224.813034	0.000000
224.905685	0.000000
224.998337	145.000000
225.090988	144.700000
225.183640	144.680000
225.276291	144.420000
225.368942	144.620000
225.461594	145.300000
225.554245	145.620000
225.646912	145.720000
225.739578	146.120000
225.832230	146.380000
225.924896	145.400000
226.017548	145.720000
226.110199	146.100000
226.202866	145.280000
226.295532	145.060000
226.388184	145.180000
226.480850	144.460000
226.573517	144.120000
226.666168	144.720000
226.758835	144.900000
226.851501	145.660000
226.944183	146.260000
227.036850	145.820000
227.129517	145.560000
227.222183	145.620000
227.314850	145.220000
227.407516	145.300000
227.500198	146.220000
227.592865	146.040000
227.685532	145.680000
227.778214	145.760000
227.870880	145.880000
227.963562	146.460000
228.056229	146.720000
228.148926	146.740000
228.241592	147.180000
228.334274	146.720000
228.426956	145.960000
228.519638	146.220000
228.612305	145.740000
228.704987	145.500000
228.797668	145.680000
228.890350	145.500000
228.983032	144.600000
229.075714	145.600000
229.168396	145.240000
229.261108	144.680000
229.353790	144.500000
229.446472	145.220000
229.539169	144.720000
229.631851	144.280000
229.724533	144.780000
229.817230	145.160000
229.909912	145.860000
230.002609	145.920000
230.095306	146.140000
230.187988	146.100000
230.280685	145.860000
230.373383	144.800000
230.466095	144.800000
230.558792	145.160000
230.651474	145.200000
230.744171	144.980000
230.836868	145.040000
230.929581	145.400000
231.022278	145.480000
231.114975	145.560000
231.207672	145.460000
231.300369	146.000000
231.393082	145.940000
231.485779	145.740000
231.578506	145.640000
231.671204	146.060000
231.763916	145.900000
231.856613	145.800000
231.949326	146.000000
232.042023	146.040000
232.134735	145.920000
232.227448	145.560000
232.320160	145.500000
232.412872	145.420000
232.505585	146.340000
232.598297	146.640000
232.691010	146.620000
232.783722	146.300000
232.876450	146.500000
232.969162	145.600000
233.061874	144.940000
233.154587	144.800000
233.247314	145.400000
233.340027	144.880000
233.432739	145.320000
233.525467	145.260000
233.618179	145.860000
233.710907	145.240000
233.803635	145.840000
233.896347	145.460000
233.989090	146.540000
234.081818	146.360000
234.174545	146.660000
234.267258	145.920000
234.359985	146.080000
234.452713	145.740000
234.545441	145.300000
234.638168	145.200000
234.730896	145.720000
234.823639	145.620000
234.916367	145.560000
235.009094	145.960000
235.101822	146.160000
235.194580	145.920000
235.287308	145.820000
235.380051	145.320000
235.472778	145.460000
235.565521	145.360000
235.658249	145.260000
235.750992	145.320000
235.843719	145.300000
235.936462	145.240000
236.029205	144.980000
236.121948	145.000000
236.214691	145.200000
236.307449	145.920000
236.400192	145.620000
236.492935	145.820000
236.585678	146.020000
236.678421	145.880000
236.771164	145.700000
236.863907	146.440000
236.956665	146.500000
237.049408	147.920000
237.142151	147.580000
237.234909	147.960000
237.327652	147.480000
237.420410	147.420000
237.513153	146.180000
237.605927	146.340000
237.698669	145.820000
237.791428	145.380000
237.884186	145.520000
237.976944	145.120000
238.069702	145.300000
238.162445	145.060000
238.255203	145.440000
238.347961	145.760000
238.440720	145.860000
238.533478	145.840000
238.626266	145.500000
238.719025	145.640000
238.811783	145.140000
238.904541	145.140000
238.997314	145.080000
239.090073	145.300000
239.182831	145.580000
239.275604	146.360000
239.368362	146.280000
239.461136	145.880000
239.553909	145.980000
239.646667	145.540000
239.739441	145.080000
239.832214	145.460000
239.925003	145.920000
240.017761	146.460000
240.110535	147.000000
240.203308	146.620000
240.296082	146.460000
240.388855	146.440000
240.481628	146.260000
240.574417	145.900000
240.667191	146.160000
240.759964	145.860000
240.852737	145.540000
240.945526	145.220000
241.038315	145.040000
241.131088	145.200000
241.223877	145.500000
241.316650	145.320000
241.409439	145.700000
241.502228	145.620000
241.595001	145.860000
241.687790	145.760000
241.780579	146.120000
241.873367	145.960000
241.966141	146.420000
242.058929	145.960000
242.151718	146.300000
242.244507	146.300000
242.337311	145.600000
242.430099	146.000000
242.522903	146.040000
242.615692	145.380000
242.708481	145.740000
242.801270	146.760000
242.894073	146.220000
242.986862	146.480000
243.079651	147.160000
243.172455	146.700000
243.265244	146.920000
243.358063	146.460000
243.450867	146.640000
243.543655	146.680000
243.636459	146.900000
243.729263	146.360000
243.822067	146.740000
243.914856	146.700000
244.007660	146.640000
244.100464	146.460000
244.193268	146.060000
244.286072	145.840000
244.378876	145.220000
244.471680	144.780000
244.564499	144.980000
244.657318	145.900000
244.750122	146.280000
244.842926	145.820000
244.935745	146.420000
245.028549	146.080000
245.121368	145.320000
245.214172	145.160000
245.306992	146.100000
245.399796	145.640000
245.492615	145.900000
245.585434	146.120000
245.678253	146.140000
245.771072	145.740000
245.863892	146.060000
245.956711	146.240000
246.049530	145.980000
246.142349	145.480000
246.235168	145.580000
246.327988	146.040000
246.420807	145.820000
246.513626	145.960000
246.606445	146.260000
246.699280	146.280000
246.792099	145.700000
246.884918	145.480000
246.977753	145.200000
247.070587	145.260000
247.163422	145.560000
247.256241	145.320000
247.349075	145.580000
247.441895	145.580000
247.534729	145.540000
247.627563	144.820000
247.720383	145.500000
247.813217	145.540000
247.906052	145.680000
247.998886	145.540000
248.091736	145.680000
248.184570	145.140000
248.277405	145.220000
248.370239	145.900000
248.463074	146.800000
248.555908	147.160000
248.648743	146.940000
248.741592	146.940000
248.834427	146.360000
248.927261	145.260000
249.020111	145.500000
249.112946	146.280000
249.205795	145.740000
249.298630	145.780000
249.391495	146.080000
249.484344	145.820000
249.577179	145.420000
249.670029	145.960000
249.762878	146.600000
249.855728	146.740000
249.948563	146.780000
250.041412	146.280000
250.134262	146.320000
250.227112	146.320000
250.319962	146.380000
250.412827	146.340000
250.505692	146.220000
250.598541	146.120000
250.691391	145.240000
250.784241	145.080000
250.877106	145.060000
250.969955	145.080000
251.062805	145.520000
251.155670	146.220000
251.248520	146.180000
251.341385	146.480000
251.434235	146.580000
251.527100	146.080000
251.619965	145.600000
251.712814	146.360000
251.805695	146.180000
251.898560	146.640000
251.991425	146.800000
252.084290	147.020000
252.177155	146.240000
252.270020	146.100000
252.362885	145.680000
252.455750	145.620000
252.548615	145.260000
252.641479	145.220000
252.734360	144.980000
252.827240	145.040000
252.920105	145.360000
253.012970	145.400000
253.105850	145.380000
253.198715	145.180000
253.291595	145.340000
253.384460	144.660000
253.477341	144.800000
253.570221	144.980000
253.663086	144.880000
253.755966	145.360000
253.848846	145.540000
253.941727	145.600000
254.034592	145.380000
254.127472	145.060000
254.220367	144.780000
254.313248	144.980000
254.406128	144.700000
254.499008	145.020000
254.591904	146.340000
254.684784	146.860000
254.777664	146.660000
254.870544	146.180000
254.963440	146.200000
255.056335	146.020000
255.149216	145.460000
255.242111	146.080000
255.334991	147.040000
255.427887	146.840000
255.520767	146.740000
255.613663	146.940000
255.706558	146.300000
255.799438	146.100000
255.892334	145.880000
255.985229	145.480000
256.078125	145.460000
256.171021	145.820000
256.263916	146.120000
256.356812	146.460000
256.449707	146.580000
256.542603	146.300000
256.635498	146.720000
256.728394	146.420000
256.821289	146.280000
256.914215	146.460000
257.007080	146.840000
257.100006	146.460000
257.192932	146.720000
257.285828	147.000000
257.378723	146.760000
257.471619	146.280000
257.564545	146.000000
257.657440	146.180000
257.750336	146.620000
257.843262	146.560000
257.936157	147.760000
258.029053	148.180000
258.121979	147.860000
258.214874	147.140000
258.307800	146.860000
258.400696	145.480000
258.493622	145.100000
258.586517	144.620000
258.679443	144.900000
258.772339	145.020000
258.865265	145.360000
258.958160	145.140000
259.051086	145.780000
259.144012	145.640000
259.236938	146.560000
259.329834	146.520000
259.422791	146.500000
259.515717	145.820000
259.608612	145.400000
259.701538	145.140000
259.794464	145.100000
259.887390	144.860000
259.980316	145.140000
260.073212	145.280000
260.166138	144.400000
260.259064	144.860000
260.351990	145.440000
260.444916	145.340000
260.537842	145.620000
260.630768	146.300000
260.723694	145.840000
260.816620	145.840000
260.909546	146.240000
261.002472	146.020000
261.095398	145.640000
261.188354	145.620000
261.281281	145.260000
261.374207	144.900000
261.467133	145.700000
261.560089	146.240000
261.653015	146.100000
261.745972	147.060000
261.838867	147.680000
261.931824	147.580000
262.024780	147.000000
262.117706	147.460000
262.210663	146.920000
262.303589	146.420000
262.396515	146.140000
262.489471	146.740000
262.582397	146.540000
262.675354	146.460000
262.768280	146.680000
262.861237	146.420000
262.954163	146.480000
263.047119	146.480000
263.140045	146.040000
263.233002	145.860000
263.325958	146.040000
263.418884	145.240000
263.511841	145.120000
263.604797	145.280000
263.697723	145.120000
263.790680	145.060000
263.883636	145.960000
263.976593	145.920000
264.069550	146.320000
264.162476	146.280000
264.255463	146.560000
264.348419	145.780000
264.441376	146.140000
264.534332	145.300000
264.627289	145.380000
264.720245	145.700000
264.813202	145.820000
264.906158	145.760000
264.999115	146.420000
265.092072	146.380000
265.185028	146.600000
265.277985	146.780000
265.370941	146.640000
265.463898	146.680000
265.556854	146.580000
265.649811	145.600000
265.742798	145.240000
265.835754	145.280000
265.928711	145.400000
266.021667	145.520000
266.114655	145.760000
266.207611	146.360000
266.300568	145.960000
266.393585	145.520000
266.486511	146.020000
266.579498	145.160000
266.672485	144.720000
266.765442	144.680000
266.858429	145.180000
266.951385	144.260000
267.044342	144.740000
267.137329	145.080000
267.230316	145.420000
267.323273	144.980000
267.416260	146.160000
267.509216	145.980000
267.602203	145.580000
267.695160	146.160000
267.788147	146.240000
267.881134	145.400000
267.974091	145.900000
268.067078	145.940000
268.160065	145.520000
268.253052	145.300000
268.346008	145.420000
268.438995	144.900000
268.531982	145.040000
268.624969	144.780000
268.717987	145.600000
268.810944	145.600000
268.903961	145.800000
268.996948	145.740000
269.089905	146.100000
269.182892	145.760000
269.275879	146.200000
269.368866	145.960000
269.461853	145.900000
269.554871	145.580000
269.647858	145.320000
269.740845	145.420000
269.833832	145.820000
269.926819	145.760000
270.019806	145.960000
270.112793	145.760000
270.205811	145.560000
270.298798	145.440000
270.391785	146.080000
270.484772	145.720000
270.577789	145.960000
270.670776	145.480000
270.763763	145.520000
270.856750	144.980000
270.949768	145.040000
271.042786	145.020000
271.135773	145.320000
271.228790	145.740000
271.321808	145.600000
271.414795	145.400000
271.507782	145.060000
271.600800	144.660000
271.693817	144.360000
271.786804	144.900000
271.879822	145.400000
271.972809	145.440000
272.065826	146.180000
272.158844	145.840000
272.251831	146.200000
272.344849	146.040000
272.437866	145.920000
272.530853	145.760000
272.623871	146.120000
272.716888	145.180000
272.809906	145.420000
272.902893	145.380000
272.995911	144.620000
273.088928	144.580000
273.181946	144.840000
273.274963	144.380000
273.367981	144.640000
273.460999	145.180000
273.554047	145.500000
273.647003	146.080000
273.740051	146.080000
273.833069	146.560000
273.926086	146.720000
274.019135	146.220000
274.112152	145.800000
274.205170	146.020000
274.298187	146.020000
274.391205	145.580000
274.484222	145.660000
274.577240	145.660000
274.670258	145.440000
274.763306	145.340000
274.856323	145.820000
274.949341	146.200000
275.042358	146.520000
275.135406	146.620000
275.228424	146.320000
275.321442	146.160000
275.414490	145.440000
275.507507	145.600000
275.600525	146.160000
275.693573	146.140000
275.786591	145.800000
275.879669	146.460000
275.972656	146.020000
276.065735	145.960000
276.158752	146.420000
276.251801	147.500000
276.344818	147.580000
276.437866	147.520000
276.530884	147.240000
276.623932	146.420000
276.716980	145.800000
276.809998	145.640000
276.903046	145.700000
276.996094	146.280000
277.089111	147.300000
277.182159	147.540000
277.275208	147.320000
277.368256	147.320000
277.461304	146.820000
277.554321	145.920000
277.647369	145.920000
277.740417	146.060000
277.833466	145.880000
277.926514	145.820000
278.019562	146.440000
278.112610	145.980000
278.205688	146.180000
278.298706	146.440000
278.391785	146.500000
278.484833	145.940000
278.577881	145.720000
278.670929	145.620000
278.763977	145.360000
278.857025	145.820000
278.950073	145.900000
279.043121	145.700000
279.136169	145.520000
279.229248	145.220000
279.322296	144.720000
279.415344	144.440000
279.508392	144.600000
279.601440	144.460000
279.694519	144.900000
279.787567	144.880000
279.880615	145.240000
279.973694	145.300000
280.066742	145.600000
280.159790	145.880000
280.252869	145.440000
280.345917	145.500000
280.438995	145.360000
280.532074	145.000000
280.625122	144.980000
280.718201	146.020000
280.811279	146.080000
280.904327	146.020000
280.997406	146.420000
281.090454	146.220000
281.183533	145.240000
281.276581	145.080000
281.369659	145.420000
281.462738	145.640000
281.555786	145.720000
281.648865	146.160000
281.741943	146.080000
281.835022	146.560000
281.928070	146.160000
282.021149	145.940000
282.114227	145.400000
282.207306	145.600000
282.300385	145.440000
282.393433	145.640000
282.486511	145.700000
282.579590	146.480000
282.672668	146.580000
282.765747	146.120000
282.858856	145.540000
282.951904	145.620000
283.045013	145.420000
283.138062	145.520000
283.231171	145.940000
283.324249	146.440000
283.417328	146.100000
283.510406	145.820000
283.603485	145.640000
283.696564	145.520000
283.789642	145.640000
283.882751	145.620000
283.975830	146.260000
284.068909	145.860000
284.161987	146.320000
284.255066	145.900000
284.348175	146.220000
284.441254	145.880000
284.534332	146.860000
284.627441	146.340000
284.720520	146.040000
284.813599	146.000000
284.906708	146.040000
284.999786	145.060000
285.092896	144.800000
285.185974	146.020000
285.279053	145.460000
285.372192	145.380000
285.465240	145.960000
285.558380	146.200000
285.651459	145.560000
285.744568	146.600000
285.837677	146.300000
285.930756	146.120000
286.023865	145.980000
286.116943	145.620000
286.210052	145.540000
286.303162	145.520000
286.396240	145.540000
286.489349	145.480000
286.582458	145.880000
286.675568	145.640000
286.768646	145.660000
286.861755	145.820000
286.954865	146.280000
287.047974	145.640000
287.141083	145.320000
287.234161	145.080000
287.327271	145.280000
287.420380	145.500000
287.513519	145.760000
287.606598	146.120000
287.699738	146.560000
287.792816	146.400000
287.885956	146.040000
287.979034	146.160000
288.072174	145.920000
288.165283	145.660000
288.258392	145.620000
288.351501	145.080000
288.444611	145.020000
288.537720	145.400000
288.630859	145.520000
288.723969	145.500000
288.817078	146.120000
288.910187	146.340000
289.003296	145.860000
289.096436	145.520000
289.189545	145.580000
289.282654	145.280000
289.375763	145.500000
289.468903	145.900000
289.562012	146.520000
289.655121	146.240000
289.748260	146.420000
289.841400	146.560000
289.934509	146.400000
290.027649	146.340000
290.120728	146.360000
290.213898	146.460000
290.306976	146.000000
290.400146	146.100000
290.493256	145.720000
290.586395	145.900000
290.679535	146.060000
290.772644	145.960000
290.865784	145.280000
290.958893	145.520000
291.052032	145.300000
291.145172	144.960000
291.238281	144.940000
291.331421	145.180000
291.424561	145.420000
291.517670	145.340000
291.610809	145.560000
291.703949	145.460000
291.797089	145.980000
291.890228	145.700000
291.983337	146.040000
292.076477	145.800000
292.169617	146.320000
292.262756	145.980000
292.355927	145.980000
292.449036	145.660000
292.542206	145.840000
292.635315	145.840000
292.728485	146.240000
292.821625	145.580000
292.914764	146.360000
293.007904	146.380000
293.101044	146.300000
293.194183	145.860000
293.287323	146.520000
293.380463	145.760000
293.473602	145.200000
293.566742	145.620000
293.659882	146.120000
293.753021	146.280000
293.846191	146.440000
293.939331	146.520000
294.032471	145.720000
294.125610	145.200000
294.218781	145.420000
294.311920	145.920000
294.405060	146.100000
294.498230	146.240000
294.591370	146.440000
294.684540	145.740000
294.777679	145.100000
294.870850	145.500000
294.963959	145.500000
295.057159	145.080000
295.150299	145.580000
295.243469	145.540000
295.336609	145.160000
295.429779	145.280000
295.522919	145.660000
295.616089	145.360000
295.709229	145.860000
295.802399	145.740000
295.895569	145.220000
295.988708	145.040000
296.081879	145.280000
296.175018	144.600000
296.268188	144.660000
296.361359	145.320000
296.454529	145.500000
296.547668	145.260000
296.640839	145.740000
296.734009	145.540000
296.827179	145.620000
296.920319	145.840000
297.013519	145.780000
297.106659	146.000000
297.199860	146.260000
297.292999	146.080000
297.386200	145.660000
297.479309	145.680000
297.572510	145.480000
297.665680	145.400000
297.758850	145.160000
297.852020	145.180000
297.945190	145.120000
298.038361	144.920000
298.131531	145.800000
298.224701	145.700000
298.317871	145.560000
298.411072	145.220000
298.504242	144.980000
298.597412	144.220000
298.690582	144.660000
298.783752	144.600000
298.876923	145.160000
298.970093	145.260000
299.063293	145.720000
299.156464	145.940000
299.249634	146.460000
299.342834	146.420000
299.436005	147.020000
299.529205	146.620000
299.622345	146.620000
299.715576	145.960000
299.808716	145.940000
299.901917	145.760000
299.995117	146.020000
300.088287	145.900000
300.181488	145.900000
300.274658	145.800000
300.367828	145.860000
300.461029	145.640000
300.554199	145.900000
300.647400	146.220000
300.740601	146.760000
300.833771	146.540000
300.926971	146.940000
301.020142	146.240000
301.113342	146.220000
301.206512	146.020000
301.299713	145.960000
301.392914	145.760000
301.486084	146.180000
301.579285	146.120000
301.672516	146.360000
301.765686	146.340000
301.858887	146.100000
301.952057	145.900000
302.045288	146.000000
302.138458	145.680000
302.231659	145.380000
302.324860	145.460000
302.418060	145.440000
302.511261	145.220000
302.604462	145.620000
302.697662	145.880000
302.790863	145.840000
302.884064	145.320000
302.977264	145.220000
303.070465	145.200000
303.163666	145.800000
303.256866	146.040000
303.350067	146.380000
303.443268	146.800000
303.536469	146.840000
303.629669	146.340000
303.722870	146.440000
303.816071	146.180000
303.909271	146.160000
304.002472	145.040000
304.095673	144.900000
304.188934	144.200000
304.282104	145.500000
304.375336	145.300000
304.468506	145.620000
304.561768	145.280000
304.654968	145.860000
304.748169	145.140000
304.841370	145.180000
304.934601	145.640000
305.027802	145.920000
305.121002	145.500000
305.214233	145.320000
305.307434	145.360000
305.400665	146.080000
305.493866	146.000000
305.587097	146.360000
305.680298	146.520000
305.773499	147.020000
305.866730	146.180000
305.959930	146.460000
306.053162	146.640000
306.146393	146.180000
306.239594	145.120000
306.332825	145.220000
306.426025	145.460000
306.519287	144.840000
306.612488	145.180000
306.705719	145.680000
306.798920	145.780000
306.892181	145.260000
306.985352	145.120000
307.078613	144.440000
307.171844	144.820000
307.265045	143.980000
307.358276	143.980000
307.451508	144.540000
307.544739	145.060000
307.637970	144.420000
307.731201	144.900000
307.824402	145.460000
307.917633	145.480000
308.010864	146.280000
308.104095	146.940000
308.197327	146.860000
308.290558	146.480000
308.383789	146.280000
308.477020	145.560000
308.570251	144.800000
308.663483	144.860000
308.756714	144.680000
308.849976	144.720000
308.943176	145.160000
309.036438	145.380000
309.129639	145.380000
309.222900	145.160000
309.316101	144.980000
309.409393	144.380000
309.502625	144.440000
309.595856	144.620000
309.689087	145.140000
309.782318	145.400000
309.875580	145.920000
309.968811	145.980000
310.062042	145.720000
310.155273	145.640000
310.248535	145.720000
310.341766	145.380000
310.434998	145.300000
310.528259	145.460000
310.621490	145.860000
310.714722	145.360000
310.807983	145.640000
310.901215	145.700000
310.994476	145.780000
311.087708	145.180000
311.181000	145.320000
311.274200	144.660000
311.367462	144.620000
311.460693	144.440000
311.553986	145.260000
311.647186	145.600000
311.740479	146.380000
311.833710	146.200000
311.926971	146.060000
312.020203	145.060000
312.113464	145.080000
312.206726	144.400000
312.299957	144.600000
312.393219	145.300000
312.486481	145.660000
312.579712	145.460000
312.672974	145.560000
312.766235	145.260000
312.859497	144.380000
312.952759	144.200000
313.045990	144.980000
313.139252	144.500000
313.232513	145.060000
313.325775	145.580000
313.419037	145.540000
313.512299	144.720000
313.605530	145.820000
313.698822	145.940000
313.792053	145.820000
313.885345	145.500000
313.978577	145.420000
314.071869	144.720000
314.165131	144.780000
314.258392	144.920000
314.351654	145.300000
314.444916	144.940000
314.538177	145.640000
314.631439	145.520000
314.724701	145.400000
314.817993	145.240000
314.911255	145.740000
315.004517	145.120000
315.097778	144.860000
315.191040	145.300000
315.284302	145.760000
315.377594	145.900000
315.470856	145.980000
315.564117	145.580000
315.657379	144.880000
315.750671	144.500000
315.843933	144.760000
315.937195	144.400000
316.030518	144.460000
316.123749	144.780000
316.217041	145.600000
316.310303	145.280000
316.403595	146.180000
316.496857	146.620000
316.590149	146.640000
316.683411	145.640000
316.776703	145.600000
316.869965	145.120000
316.963257	145.020000
317.056519	144.760000
317.149811	144.980000
317.243073	144.960000
317.336365	145.380000
317.429626	145.600000
317.522919	146.040000
317.616180	146.160000
317.709473	145.760000
317.802765	145.440000
317.896027	145.420000
317.989319	145.680000
318.082611	145.600000
318.175873	145.820000
318.269165	145.620000
318.362488	145.700000
318.455750	145.140000
318.549042	145.680000
318.642303	146.020000
318.735626	145.820000
318.828888	145.620000
318.922211	145.360000
319.015472	145.620000
319.108765	145.060000
319.202057	145.120000
319.295349	145.380000
319.388641	145.640000
319.481934	145.040000
319.575226	145.000000
319.668518	145.200000
319.761810	145.040000
319.855103	145.160000
319.948395	145.320000
320.041687	146.020000
320.134979	145.960000
320.228271	145.860000
320.321564	145.580000
320.414856	145.460000
320.508148	144.900000
320.601440	144.820000
320.694763	144.720000
320.788025	145.740000
320.881348	145.720000
320.974640	145.920000
321.067963	145.580000
321.161224	145.820000
321.254547	144.740000
321.347839	145.360000
321.441162	144.980000
321.534454	145.520000
321.627747	145.140000
321.721069	145.940000
321.814362	145.620000
321.907654	145.720000
322.000946	145.580000
322.094269	146.320000
322.187561	145.760000
322.280884	145.920000
322.374176	146.000000
322.467468	146.340000
322.560791	146.360000
322.654083	146.860000
322.747406	146.960000
322.840698	147.360000
322.934021	147.740000
323.027344	147.620000
323.120636	147.140000
323.213959	146.800000
323.307251	146.400000
323.400574	145.920000
323.493866	145.260000
323.587219	145.260000
323.680511	145.320000
323.773834	145.600000
323.867157	145.580000
323.960449	145.880000
324.053772	145.940000
324.147095	145.660000
324.240387	146.060000
324.333710	146.220000
324.427032	146.500000
324.520355	146.420000
324.613647	146.280000
324.706970	145.540000
324.800293	145.540000
324.893616	145.460000
324.986938	146.100000
325.080231	146.280000
325.173553	146.780000
325.266876	147.260000
325.360199	147.440000
325.453522	146.540000
325.546875	146.180000
325.640167	146.100000
325.733521	145.660000
325.826813	145.500000
325.920166	145.900000
326.013489	146.240000
326.106812	145.460000
326.200134	145.060000
326.293457	144.780000
326.386780	144.720000
326.480103	144.500000
326.573425	145.260000
326.666748	145.420000
326.760071	145.780000
326.853424	145.840000
326.946747	146.140000
327.040070	146.160000
327.133392	146.020000
327.226715	145.280000
327.320068	144.740000
327.413391	144.900000
327.506714	144.460000
327.600037	144.600000
327.693390	145.200000
327.786713	145.360000
327.880066	145.200000
327.973358	145.600000
328.066742	145.920000
328.160034	145.880000
328.253418	146.480000
328.346710	146.440000
328.440063	146.240000
328.533417	146.100000
328.626740	146.240000
328.720093	145.600000
328.813416	145.380000
328.906769	145.100000
329.000092	145.220000
329.093445	144.980000
329.186768	144.940000
329.280121	145.300000
329.373444	145.800000
329.466797	145.520000
329.560120	145.640000
329.653473	146.440000
329.746796	146.220000
329.840149	146.240000
329.933502	146.080000
330.026825	145.860000
330.120178	145.200000
330.213562	145.140000
330.306854	144.920000
330.400238	144.980000
330.493561	144.900000
330.586945	145.620000
330.680237	145.860000
330.773621	146.040000
330.866974	146.180000
330.960327	146.520000
331.053680	146.040000
331.147003	146.100000
331.240356	146.340000
331.333710	146.500000
331.427063	146.140000
331.520416	146.000000
331.613770	145.780000
331.707123	145.480000
331.800476	145.160000
331.893829	146.040000
331.987152	146.320000
332.080505	146.540000
332.173859	146.460000
332.267212	146.440000
332.360565	145.700000
332.453918	145.260000
332.547333	144.720000
332.640656	144.960000
332.734039	144.940000
332.827362	144.960000
332.920746	145.420000
333.014069	145.940000
333.107452	146.000000
333.200806	146.300000
333.294159	146.620000
333.387543	146.160000
333.480896	145.940000
333.574249	145.740000
333.667603	145.540000
333.760956	145.720000
333.854340	145.680000
333.947693	145.740000
334.041046	145.740000
334.134430	145.800000
334.227783	145.000000
334.321136	145.160000
334.414520	144.860000
334.507874	145.180000
334.601227	145.000000
334.694611	145.100000
334.787964	145.120000
334.881348	145.320000
334.974701	144.880000
335.068085	144.700000
335.161438	144.920000
335.254822	144.720000
335.348175	144.680000
335.441559	144.500000
335.534943	145.240000
335.628296	145.320000
335.721680	145.480000
335.815033	145.540000
335.908417	145.980000
336.001770	145.620000
336.095154	145.580000
336.188538	145.600000
336.281891	145.360000
336.375275	144.860000
336.468658	144.620000
336.562012	144.720000
336.655396	144.980000
336.748779	145.400000
336.842133	145.440000
336.935516	145.860000
337.028900	145.140000
337.122284	145.040000
337.215637	144.960000
337.309021	144.960000
337.402435	144.200000
337.495789	144.260000
337.589203	144.180000
337.682526	144.180000
337.775940	144.680000
337.869324	145.360000
337.962708	145.700000
338.056091	146.120000
338.149475	146.000000
338.242859	145.840000
338.336243	145.400000
338.429626	145.780000
338.523010	145.460000
338.616394	145.480000
338.709778	145.520000
338.803162	146.000000
338.896545	145.740000
338.989929	145.360000
339.083313	145.760000
339.176697	145.660000
339.270081	145.480000
339.363464	145.780000
339.456848	146.560000
339.550232	145.540000
339.643616	145.340000
339.737030	145.480000
339.830383	145.260000
339.923828	144.900000
340.017181	145.620000
340.110596	145.960000
340.203949	145.800000
340.297363	145.240000
340.390778	145.400000
340.484161	145.240000
340.577545	144.760000
340.670959	144.880000
340.764343	145.160000
340.857727	145.160000
340.951111	144.600000
341.044525	144.880000
341.137909	144.500000
341.231293	144.500000
341.324707	143.980000
341.418091	145.300000
341.511505	145.280000
341.604889	145.800000
341.698303	146.120000
341.791687	146.540000
341.885071	145.820000
341.978485	145.640000
342.071899	145.600000
342.165283	145.660000
342.258698	145.740000
342.352081	145.880000
342.445496	146.580000
342.538879	146.080000
342.632324	145.620000
342.725708	145.460000
342.819122	144.840000
342.912506	144.200000
343.005920	144.540000
343.099335	145.440000
343.192719	145.400000
343.286133	145.820000
343.379547	146.220000
343.472931	146.440000
343.566345	145.700000
343.659760	145.880000
343.753143	145.420000
343.846558	145.060000
343.939972	144.720000
344.033386	145.140000
344.126770	144.980000
344.220184	145.400000
344.313599	145.740000
344.407043	145.840000
344.500427	145.600000
344.593872	146.060000
344.687225	145.720000
344.780670	145.360000
344.874054	145.360000
344.967499	145.660000
345.060913	145.260000
345.154327	145.320000
345.247742	145.340000
345.341156	144.980000
345.434570	144.640000
345.527985	144.600000
345.621399	144.860000
345.714813	144.680000
345.808228	145.280000
345.901642	145.260000
345.995056	144.860000
346.088470	145.180000
346.181885	145.680000
346.275299	145.420000
346.368713	145.320000
346.462128	145.240000
346.555573	145.040000
346.648987	145.220000
346.742401	145.120000
346.835815	145.620000
346.929260	145.840000
347.022644	145.740000
347.116119	145.580000
347.209503	145.920000
347.302948	146.520000
347.396362	146.940000
347.489807	147.220000
347.583221	147.500000
347.676636	146.880000
347.770050	145.540000
347.863495	144.920000
347.956909	144.840000
348.050323	144.280000
348.143768	144.500000
348.237183	144.600000
348.330597	145.380000
348.424042	145.500000
348.517456	145.680000
348.610901	145.960000
348.704315	146.180000
348.797760	145.480000
348.891174	144.840000
348.984619	144.560000
349.078033	144.580000
349.171448	145.100000
349.264923	145.160000
349.358337	145.280000
349.451782	145.480000
349.545197	144.800000
349.638641	144.020000
349.732086	143.740000
349.825500	144.120000
349.918945	143.660000
350.012390	144.200000
350.105804	144.800000
350.199249	145.240000
350.292664	145.620000
350.386108	146.000000
350.479553	146.640000
350.572968	146.500000
350.666412	146.560000
350.759857	146.260000
350.853302	146.720000
350.946716	146.320000
351.040161	146.360000
351.133606	146.200000
351.227081	145.800000
351.320465	146.340000
351.413940	146.140000
351.507355	146.400000
351.600830	146.560000
351.694244	146.660000
351.787720	146.040000
351.881104	145.900000
351.974579	145.520000
352.067993	146.220000
352.161469	146.140000
352.254883	145.400000
352.348358	145.200000
352.441803	145.080000
352.535248	144.620000
352.628693	144.900000
352.722137	145.320000
352.815582	145.600000
352.909027	145.920000
353.002472	145.700000
353.095917	145.460000
353.189362	145.740000
353.282806	145.640000
353.376251	145.320000
353.469696	145.060000
353.563141	145.640000
353.656586	145.220000
353.750061	144.820000
353.843475	144.860000
353.936981	145.520000
354.030396	144.720000
354.123871	144.560000
354.217285	145.580000
354.310760	145.840000
354.404175	145.460000
354.497681	145.500000
354.591095	145.780000
354.684570	144.840000
354.777985	144.460000
354.871490	144.300000
354.964935	144.860000
355.058380	144.860000
355.151855	144.780000
355.245300	145.040000
355.338745	145.320000
355.432220	145.140000
355.525665	144.840000
355.619110	145.460000
355.712585	145.480000
355.806030	145.120000
355.899475	144.580000
355.992950	145.260000
356.086426	145.480000
356.179871	145.340000
356.273346	145.580000
356.366791	146.020000
356.460266	146.140000
356.553711	145.560000
356.647186	145.720000
356.740631	145.380000
356.834106	144.980000
356.927551	144.720000
357.021027	144.860000
357.114471	145.000000
357.207947	145.220000
357.301422	145.760000
357.394867	145.780000
357.488342	146.040000
357.581818	145.880000
357.675262	146.160000
357.768738	145.760000
357.862213	145.140000
357.955658	145.220000
358.049133	144.780000
358.142609	145.120000
358.236053	145.080000
358.329529	145.500000
358.423035	145.400000
358.516449	145.600000
358.609955	145.600000
358.703400	146.600000
358.796906	146.560000
358.890350	146.200000
358.983826	146.620000
359.077271	145.680000
359.170776	145.100000
359.264221	145.140000
359.357727	145.060000
359.451172	145.180000
359.544647	145.580000
359.638123	145.360000
359.731598	145.760000
359.825073	146.440000
359.918549	146.240000
360.012024	146.460000
360.105499	146.220000
360.198975	145.940000
360.292450	145.720000
360.385925	145.460000
360.479401	145.100000
360.572876	145.440000
360.666351	145.540000
360.759857	145.580000
360.853302	145.660000
360.946808	145.220000
361.040253	145.340000
361.133759	145.100000
361.227203	145.120000
361.320709	144.780000
361.414154	145.540000
361.507660	145.560000
361.601105	145.800000
361.694641	146.340000
361.788086	146.460000
361.881592	146.860000
361.975067	146.420000
362.068542	146.540000
362.162018	145.960000
362.255524	145.640000
362.348999	145.240000
362.442474	145.780000
362.535950	145.380000
362.629456	145.320000
362.722931	145.420000
362.816406	145.600000
362.909882	145.820000
363.003387	145.440000
363.096863	145.860000
363.190338	146.220000
363.283875	145.640000
363.377319	145.340000
363.470825	145.900000
363.564301	145.140000
363.657806	145.480000
363.751282	145.580000
363.844788	146.460000
363.938232	146.020000
364.031769	147.060000
364.125214	147.020000
364.218750	147.560000
364.312225	146.240000
364.405731	146.620000
364.499207	145.640000
364.592712	145.380000
364.686188	145.000000
364.779694	145.200000
364.873169	145.040000
364.966675	145.340000
365.060150	145.120000
365.153656	145.500000
365.247131	145.520000
365.340637	145.540000
365.434143	145.840000
365.527618	145.940000
365.621155	144.920000
365.714600	145.200000
365.808136	145.540000
365.901611	144.600000
365.995117	144.480000
366.088593	145.020000
366.182129	144.800000
366.275604	144.540000
366.369110	144.760000
366.462585	144.600000
366.556122	145.120000
366.649567	145.100000
366.743103	145.540000
366.836609	145.460000
366.930115	146.040000
367.023590	146.040000
367.117096	145.960000
367.210602	145.420000
367.304108	146.180000
367.397614	146.540000
367.491119	146.580000
367.584595	146.780000
367.678101	147.020000
367.771606	146.420000
367.865112	145.980000
367.958649	145.360000
368.052124	145.320000
368.145660	145.300000
368.239136	145.980000
368.332672	145.920000
368.426147	146.020000
368.519684	145.840000
368.613159	146.040000
368.706696	145.680000
368.800171	145.740000
368.893707	145.600000
368.987183	145.780000
369.080719	145.860000
369.174225	145.580000
369.267731	145.740000
369.361237	145.840000
369.454742	145.900000
369.548248	145.920000
369.641754	145.840000
369.735260	145.260000
369.828766	144.540000
369.922272	145.020000
370.015808	144.480000
370.109314	144.420000
370.202820	144.260000
370.296356	145.660000
370.389832	145.140000
370.483368	145.080000
370.576874	145.080000
370.670410	145.640000
370.763885	144.560000
370.857422	144.560000
370.950928	144.980000
371.044464	145.980000
371.137939	145.860000
371.231476	146.040000
371.324982	146.200000
371.418518	146.040000
371.512024	145.440000
371.605560	145.000000
371.699066	145.360000
371.792572	144.980000
371.886108	145.500000
371.979614	145.400000
372.073120	146.220000
372.166656	146.180000
372.260162	146.420000
372.353668	145.880000
372.447205	145.640000
372.540710	145.440000
372.634277	145.080000
372.727753	145.500000
372.821320	145.560000
372.914795	145.720000
373.008362	145.580000
373.101837	145.900000
373.195404	145.440000
373.288879	145.160000
373.382446	145.800000
373.475922	145.820000
373.569489	146.480000
373.662964	147.100000
373.756531	147.220000
373.850037	147.260000
373.943573	147.180000
374.037109	146.280000
374.130615	146.200000
374.224152	146.460000
374.317657	146.060000
374.411194	146.980000
374.504730	147.100000
374.598236	146.580000
374.691772	145.940000
374.785309	145.760000
374.878815	144.380000
374.972351	144.840000
375.065887	144.680000
375.159454	145.660000
375.252930	145.740000
375.346497	146.320000
375.440002	146.640000
375.533569	146.740000
375.627045	145.960000
375.720612	146.140000
375.814117	146.080000
375.907684	145.340000
376.001160	145.120000
376.094727	144.840000
376.188232	145.140000
376.281799	145.100000
376.375336	145.140000
376.468872	145.800000
376.562408	146.200000
376.655914	145.600000
376.749451	145.800000
376.842987	145.960000
376.936523	145.600000
377.030060	145.460000
377.123596	145.760000
377.217133	145.380000
377.310669	145.360000
377.404205	145.800000
377.497772	146.440000
377.591278	145.940000
377.684845	146.560000
377.778351	146.640000
377.871918	146.260000
377.965424	145.400000
378.058990	145.440000
378.152496	145.060000
378.246063	145.120000
378.339569	145.380000
378.433136	145.520000
378.526642	145.640000
378.620209	145.760000
378.713745	145.340000
378.807312	145.300000
378.900848	145.300000
378.994385	145.760000
379.087921	144.820000
379.181458	145.240000
379.274994	144.460000
379.368530	144.540000
379.462097	144.640000
379.555634	145.380000
379.649170	144.860000
379.742706	145.220000
379.836273	145.480000
379.929810	145.040000
380.023376	144.780000
380.116882	144.780000
380.210449	145.060000
380.303986	144.580000
380.397552	144.260000
380.491058	144.340000
380.584656	144.560000
380.678162	144.380000
380.771729	144.740000
380.865265	145.600000
380.958832	145.880000
381.052368	146.340000
381.145935	146.700000
381.239471	147.040000
381.333008	146.720000
381.426575	146.680000
381.520111	146.640000
381.613647	146.600000
381.707214	146.000000
381.800751	145.360000
381.894318	145.300000
381.987854	144.680000
382.081421	144.540000
382.174988	144.740000
382.268524	144.700000
382.362091	144.760000
382.455627	145.420000
382.549194	145.180000
382.642731	144.840000
382.736298	144.660000
382.829834	144.600000
382.923401	145.180000
383.016937	145.460000
383.110504	145.960000
383.204041	146.320000
383.297607	146.700000
383.391174	145.680000
383.484741	146.080000
383.578278	145.700000
383.671844	145.500000
383.765411	144.920000
383.858948	145.260000
383.952515	144.960000
384.046051	145.360000
384.139618	145.880000
384.233185	146.180000
384.326721	146.300000
384.420288	146.580000
384.513855	146.620000
384.607422	146.660000
384.700989	146.760000
384.794525	146.120000
384.888123	146.120000
384.981659	146.340000
385.075226	145.960000
385.168762	145.660000
385.262360	145.940000
385.355896	144.980000
385.449463	144.720000
385.542999	144.540000
385.636597	145.040000
385.730164	145.080000
385.823730	145.280000
385.917267	144.720000
386.010834	145.180000
386.104401	145.080000
386.197968	145.260000
386.291534	145.700000
386.385101	146.060000
386.478668	146.260000
386.572235	145.940000
386.665802	145.180000
386.759338	144.800000
386.852905	144.460000
386.946472	143.920000
387.040070	144.440000
387.133606	145.120000
387.227203	144.860000
387.320740	145.300000
387.414337	145.320000
387.507874	144.820000
387.601471	144.840000
387.695007	144.880000
387.788605	144.360000
387.882141	144.880000
387.975739	145.060000
388.069275	144.720000
388.162872	145.300000
388.256439	145.180000
388.350037	144.960000
388.443604	144.740000
388.537170	144.800000
388.630737	145.080000
388.724304	145.760000
388.817871	145.520000
388.911438	145.580000
389.005005	146.240000
389.098602	146.340000
389.192169	145.980000
389.285736	146.520000
389.379333	146.420000
389.472870	145.380000
389.566467	145.080000
389.660034	145.340000
389.753632	144.660000
389.847168	145.460000
389.940765	146.180000
390.034332	146.460000
390.127930	146.140000
390.221466	146.380000
390.315063	145.680000
390.408630	144.720000
390.502228	143.760000
390.595795	144.420000
390.689362	144.760000
390.782959	145.160000
390.876526	145.920000
390.970093	146.200000
391.063690	146.260000
391.157257	146.240000
391.250824	146.300000
391.344421	146.100000
391.437988	146.140000
391.531555	146.300000
391.625153	146.160000
391.718750	146.360000
391.812317	146.320000
391.905914	145.980000
391.999481	145.540000
392.093079	145.520000
392.186615	145.620000
392.280243	145.640000
392.373779	146.220000
392.467407	146.620000
392.560944	146.340000
392.654572	145.520000
392.748108	145.520000
392.841736	145.660000
392.935303	144.920000
393.028900	144.820000
393.122467	144.940000
393.216064	144.700000
393.309631	144.100000
393.403229	144.240000
393.496796	144.260000
393.590393	143.600000
393.683990	144.140000
393.777557	144.660000
393.871155	144.860000
393.964722	145.180000
394.058350	145.760000
394.151917	145.880000
394.245514	145.480000
394.339081	145.580000
394.432678	145.780000
394.526245	145.760000
394.619873	145.080000
394.713409	145.200000
394.807037	145.000000
394.900604	145.140000
394.994202	145.320000
395.087769	145.640000
395.181396	145.440000
395.274994	146.140000
395.368561	145.500000
395.462158	145.680000
395.555756	145.560000
395.649353	146.020000
395.742920	145.380000
395.836517	146.320000
395.930115	145.520000
396.023712	145.800000
396.117279	145.980000
396.210876	145.800000
396.304474	145.220000
396.398071	145.820000
396.491669	145.900000
396.585266	145.420000
396.678833	145.280000
396.772461	145.480000
396.866028	145.440000
396.959656	145.420000
397.053223	145.660000
397.146851	145.620000
397.240417	145.880000
397.334015	146.880000
397.427582	147.160000
397.521210	147.520000
397.614807	148.520000
397.708405	149.160000
397.802002	149.380000
397.895599	150.840000
397.989197	152.100000
398.082794	153.820000
398.176392	156.340000
398.269989	159.640000
398.363586	163.200000
398.457184	168.640000
398.550781	173.820000
398.644379	178.480000
398.737976	183.580000
398.831573	189.500000
398.925201	194.480000
399.018768	200.580000
399.112396	207.820000
399.205963	215.380000
399.299591	223.620000
399.393158	232.700000
399.486786	243.880000
399.580353	255.040000
399.673981	267.940000
399.767578	281.160000
399.861206	295.800000
399.954773	309.080000
400.048401	321.880000
400.141998	331.500000
400.235596	340.300000
400.329193	345.300000
400.422791	348.680000
400.516418	349.520000
400.610016	350.860000
400.703613	350.220000
400.797211	347.560000
400.890808	343.300000
400.984436	338.200000
401.078033	329.480000
401.171631	318.400000
401.265259	306.560000
401.358826	292.500000
401.452484	276.440000
401.546051	261.440000
401.639679	244.820000
401.733246	229.460000
401.826904	215.200000
401.920471	202.580000
402.014099	191.040000
402.107697	182.180000
402.201324	174.600000
402.294891	168.520000
402.388550	163.880000
402.482147	159.780000
402.575745	156.160000
402.669373	153.280000
402.762970	151.120000
402.856567	149.680000
402.950195	148.460000
403.043793	147.660000
403.137390	147.680000
403.231018	146.560000
403.324615	146.580000
403.418243	146.120000
403.511841	146.680000
403.605469	146.080000
403.699066	146.800000
403.792694	146.640000
403.886292	146.860000
403.979919	146.480000
404.073517	146.120000
404.167145	146.280000
404.260712	146.420000
404.354370	146.000000
404.447937	146.220000
404.541595	146.580000
404.635162	146.500000
404.728821	146.600000
404.822418	146.500000
404.916046	146.120000
405.009644	146.220000
405.103271	146.420000
405.196899	145.840000
405.290497	146.080000
405.384125	146.420000
405.477722	145.800000
405.571350	145.160000
405.664948	145.340000
405.758575	145.300000
405.852203	144.960000
405.945801	145.480000
406.039429	145.740000
406.133057	145.280000
406.226654	145.080000
406.320312	145.040000
406.413879	145.060000
406.507538	145.320000
406.601135	145.300000
406.694763	145.700000
406.788361	145.660000
406.882019	145.240000
406.975586	145.320000
407.069244	146.040000
407.162872	145.900000
407.256470	145.880000
407.350098	146.120000
407.443726	145.620000
407.537323	144.900000
407.630951	145.040000
407.724579	144.920000
407.818207	145.280000
407.911804	145.400000
408.005432	145.380000
408.099060	145.500000
408.192688	145.980000
408.286285	145.840000
408.379913	145.420000
408.473572	145.720000
408.567169	144.960000
408.660828	144.760000
408.754395	144.700000
408.848053	144.620000
408.941650	144.740000
409.035309	144.700000
409.128906	144.520000
409.222565	144.440000
409.316132	144.820000
409.409790	144.440000
409.503387	144.660000
409.597046	144.940000
409.690674	144.800000
409.784302	144.980000
409.877930	145.060000
409.971558	145.260000
410.065186	145.020000
410.158783	145.020000
410.252411	144.840000
410.346039	145.360000
410.439667	145.380000
410.533295	145.420000
410.626923	145.780000
410.720551	145.600000
410.814209	145.900000
410.907806	145.880000
411.001465	145.500000
411.095062	145.340000
411.188721	145.580000
411.282318	145.220000
411.375977	145.200000
411.469574	145.680000
411.563232	145.560000
411.656830	145.520000
411.750488	145.420000
411.844086	145.120000
411.937744	145.100000
412.031372	144.980000
412.125000	144.780000
412.218628	144.720000
412.312256	145.620000
412.405884	146.020000
412.499512	146.040000
412.593170	146.580000
412.686798	146.620000
412.780426	145.900000
412.874054	145.820000
412.967682	146.000000
413.061310	146.200000
413.154968	146.340000
413.248566	146.640000
413.342224	146.220000
413.435852	146.320000
413.529510	145.800000
413.623108	145.240000
413.716766	145.080000
413.810364	145.420000
413.904022	144.980000
413.997650	144.800000
414.091309	145.620000
414.184906	145.500000
414.278564	144.980000
414.372192	145.400000
414.465851	145.660000
414.559479	145.100000
414.653107	145.940000
414.746735	146.080000
414.840393	146.160000
414.934021	146.000000
415.027649	145.940000
415.121277	145.440000
415.214935	145.980000
415.308563	145.700000
415.402191	145.400000
415.495850	145.380000
415.589478	145.180000
415.683136	144.720000
415.776733	145.080000
415.870422	145.800000
415.964020	145.320000
416.057678	145.380000
416.151306	145.320000
416.244965	145.180000
416.338562	144.860000
416.432251	145.640000
416.525848	146.300000
416.619507	146.540000
416.713165	146.880000
416.806793	146.760000
416.900421	146.800000
416.994080	146.180000
417.087708	145.920000
417.181366	145.240000
417.274994	145.400000
417.368622	145.400000
417.462280	145.640000
417.555908	145.720000
417.649567	145.880000
417.743195	145.860000
417.836853	145.740000
417.930481	146.000000
418.024170	146.100000
418.117767	146.580000
418.211426	146.700000
418.305054	146.840000
418.398712	146.100000
418.492340	146.140000
418.585999	146.400000
418.679626	146.460000
418.773285	146.560000
418.866913	147.160000
418.960571	147.220000
419.054230	147.120000
419.147858	146.940000
419.241516	146.840000
419.335144	146.660000
419.428802	146.540000
419.522461	146.000000
419.616089	145.840000
419.709747	145.880000
419.803375	145.580000
419.897034	145.180000
419.990662	144.980000
420.084320	145.400000
420.177979	145.460000
420.271606	145.760000
420.365295	146.360000
420.458893	147.040000
420.552582	147.080000
420.646210	147.120000
420.739868	146.700000
420.833496	146.460000
420.927155	145.740000
421.020782	145.380000
421.114471	144.780000
421.208069	145.040000
421.301758	145.060000
421.395386	145.280000
421.489044	145.060000
421.582703	145.360000
421.676361	145.900000
421.769989	146.000000
421.863647	146.300000
421.957306	146.860000
422.050934	146.800000
422.144592	146.300000
422.238251	145.860000
422.331909	145.440000
422.425537	145.140000
422.519196	145.260000
422.612854	144.740000
422.706543	144.740000
422.800140	145.200000
422.893829	144.960000
422.987457	144.940000
423.081146	145.400000
423.174744	146.000000
423.268433	145.640000
423.362061	145.480000
423.455750	145.220000
423.549347	145.260000
423.643036	144.320000
423.736664	145.100000
423.830353	145.560000
423.924011	146.100000
424.017639	145.820000
424.111298	145.940000
424.204956	145.320000
424.298615	145.200000
424.392273	144.680000
424.485931	144.800000
424.579559	145.280000
424.673218	144.980000
424.766876	145.280000
424.860535	145.020000
424.954193	144.840000
425.047882	145.060000
425.141510	145.320000
425.235199	144.980000
425.328796	145.020000
425.422485	144.900000
425.516113	144.300000
425.609802	144.080000
425.703430	144.080000
425.797119	144.260000
425.890747	144.560000
425.984436	144.900000
426.078064	145.220000
426.171753	145.480000
426.265411	145.560000
426.359070	145.680000
426.452728	145.460000
426.546356	145.340000
426.640015	145.100000
426.733673	145.140000
426.827332	145.020000
426.920990	145.840000
427.014648	145.420000
427.108307	145.280000
427.201965	145.720000
427.295624	146.000000
427.389282	145.100000
427.482941	145.540000
427.576630	145.620000
427.670258	144.740000
427.763947	144.340000
427.857574	144.820000
427.951263	144.720000
428.044922	144.360000
428.138611	144.400000
428.232239	144.940000
428.325928	145.100000
428.419556	145.420000
428.513245	145.360000
428.606903	145.660000
428.700562	145.060000
428.794220	144.400000
428.887878	143.760000
428.981537	144.080000
429.075195	143.960000
429.168854	144.340000
429.262512	144.640000
429.356201	145.020000
429.449860	145.180000
429.543518	145.240000
429.637177	145.340000
429.730835	145.180000
429.824493	145.180000
429.918182	145.060000
430.011810	144.640000
430.105530	144.080000
430.199158	144.520000
430.292847	144.120000
430.386475	144.140000
430.480164	144.220000
430.573792	144.080000
430.667511	143.900000
430.761139	144.120000
430.854828	144.360000
430.948456	144.580000
431.042145	145.320000
431.135834	144.980000
431.229492	145.100000
431.323151	145.340000
431.416809	145.300000
431.510468	144.800000
431.604156	144.960000
431.697815	144.980000
431.791473	144.180000
431.885132	143.780000
431.978821	144.380000
432.072479	144.540000
432.166138	144.940000
432.259827	145.240000
432.353485	146.080000
432.447174	145.920000
432.540802	145.760000
432.634491	145.620000
432.728149	145.880000
432.821838	145.940000
432.915466	145.460000
433.009186	145.700000
433.102814	145.180000
433.196503	144.840000
433.290131	144.680000
433.383850	145.040000
433.477509	144.960000
433.571167	145.660000
433.664856	146.200000
433.758514	146.460000
433.852173	146.340000
433.945862	146.000000
434.039520	145.700000
434.133179	145.000000
434.226868	144.680000
434.320526	144.320000
434.414185	144.880000
434.507874	144.800000
434.601562	145.300000
434.695221	145.060000
434.788910	145.400000
434.882538	145.360000
434.976257	144.760000
435.069885	144.620000
435.163574	144.880000
435.257233	144.440000
435.350922	144.480000
435.444580	144.680000
435.538269	144.460000
435.631897	144.560000
435.725616	145.380000
435.819275	145.640000
435.912964	146.200000
436.006622	146.780000
436.100311	146.880000
436.193970	146.040000
436.287628	145.540000
436.381317	145.440000
436.474976	144.940000
436.568665	144.500000
436.662323	144.820000
436.756012	145.060000
436.849670	144.880000
436.943390	144.860000
437.037018	144.760000
437.130737	144.900000
437.224365	144.600000
437.318085	144.600000
437.411713	144.740000
437.505432	145.440000
437.599060	145.840000
437.692780	146.400000
437.786407	146.320000
437.880127	146.380000
437.973755	146.000000
438.067474	145.740000
438.161133	145.420000
438.254822	146.220000
438.348480	146.120000
438.442169	146.620000
438.535828	147.060000
438.629517	146.660000
438.723175	145.640000
438.816864	146.040000
438.910553	145.640000
439.004211	144.980000
439.097900	145.140000
439.191559	145.660000
439.285248	144.940000
439.378906	145.120000
439.472626	145.120000
439.566284	145.000000
439.659973	145.200000
439.753632	145.360000
439.847321	145.620000
439.940979	145.480000
440.034698	145.620000
440.128326	144.900000
440.222046	144.720000
440.315674	143.820000
440.409393	144.080000
440.503082	144.100000
440.596741	144.380000
440.690430	144.900000
440.784088	145.160000
440.877777	144.760000
440.971466	144.800000
441.065125	144.640000
441.158813	144.080000
441.252502	144.360000
441.346161	144.580000
441.439850	144.860000
441.533539	144.740000
441.627197	145.140000
441.720886	144.680000
441.814606	145.080000
441.908234	145.120000
442.001953	145.420000
442.095612	145.520000
442.189301	145.700000
442.282959	145.720000
442.376678	144.800000
442.470306	145.500000
442.564026	145.220000
442.657684	145.580000
442.751404	145.520000
442.845032	146.760000
442.938751	145.700000
443.032440	146.220000
443.126099	145.820000
443.219788	146.180000
443.313477	145.820000
443.407166	146.340000
443.500824	146.280000
443.594513	146.480000
443.688202	145.960000
443.781891	145.320000
443.875549	145.200000
443.969238	145.060000
444.062927	145.020000
444.156647	145.080000
444.250275	145.720000
444.343994	145.560000
444.437653	145.940000
444.531372	145.780000
444.625031	145.580000
444.718719	145.000000
444.812378	145.280000
444.906097	144.680000
444.999756	144.420000
445.093445	144.620000
445.187103	144.800000
445.280823	144.920000
445.374512	144.500000
445.468201	144.980000
445.561859	144.780000
445.655548	144.900000
445.749237	144.500000
445.842926	144.960000
445.936615	145.000000
446.030304	145.140000
446.123962	145.360000
446.217651	145.300000
446.311340	145.500000
446.405029	144.860000
446.498749	144.600000
446.592407	144.180000
446.686096	144.260000
446.779755	144.020000
446.873474	144.320000
446.967133	144.780000
447.060852	144.760000
447.154510	144.800000
447.248230	144.980000
447.341858	145.200000
447.435577	144.480000
447.529236	144.340000
447.622955	144.160000
447.716644	144.160000
447.810333	144.300000
447.904022	145.060000
447.997711	145.000000
448.091400	145.320000
448.185059	145.200000
448.278748	145.320000
448.372437	144.720000
448.466125	145.080000
448.559814	144.880000
448.653503	145.360000
448.747192	145.600000
448.840912	146.140000
448.934570	146.340000
449.028290	147.080000
449.121948	146.420000
449.215637	145.800000
449.309296	145.300000
449.403015	145.520000
449.496674	145.220000
449.590393	145.480000
449.684052	145.280000
449.777771	146.400000
449.871429	145.480000
449.965149	145.300000
450.058838	145.540000
450.152527	146.080000
450.246216	145.500000
450.339905	145.800000
450.433594	145.360000
450.527283	145.740000
450.620972	145.400000
450.714661	145.180000
450.808350	145.480000
450.902039	145.960000
450.995728	145.360000
451.089417	145.200000
451.183105	145.220000
451.276794	145.640000
451.370514	145.000000
451.464172	144.280000
451.557892	144.520000
451.651550	144.680000
451.745270	143.980000
451.838928	143.740000
451.932648	144.520000
452.026306	144.960000
452.120026	144.620000
452.213684	145.020000
452.307404	145.600000
452.401062	145.340000
452.494781	145.280000
452.588470	145.580000
452.682159	145.200000
452.775848	145.380000
452.869537	145.060000
452.963226	144.440000
453.056915	144.360000
453.150604	144.480000
453.244293	144.440000
453.337982	145.480000
453.431671	145.900000
453.525360	146.540000
453.619049	146.580000
453.712769	146.620000
453.806427	145.800000
453.900146	145.380000
453.993805	144.900000
454.087555	145.180000
454.181213	145.100000
454.274933	145.220000
454.368591	145.160000
454.462311	144.700000
454.555969	144.140000
454.649689	144.860000
454.743347	144.720000
454.837067	145.700000
454.930756	146.540000
455.024445	147.240000
455.118134	146.600000
455.211853	146.820000
455.305542	146.300000
455.399231	146.040000
455.492920	146.020000
455.586609	146.220000
455.680298	146.360000
455.773987	145.880000
455.867676	145.700000
455.961365	145.600000
456.055084	145.560000
456.148773	145.320000
456.242493	145.560000
456.336151	145.300000
456.429871	145.340000
456.523529	145.200000
456.617249	144.960000
456.710907	145.860000
456.804626	146.000000
456.898315	145.320000
456.992035	145.260000
457.085693	145.100000
457.179413	144.140000
457.273102	144.940000
457.366791	145.180000
457.460480	145.360000
457.554199	146.380000
457.647888	146.540000
457.741577	146.020000
457.835266	146.220000
457.928955	146.140000
458.022644	146.180000
458.116364	146.660000
458.210052	146.360000
458.303741	146.200000
458.397461	146.100000
458.491119	145.220000
458.584839	144.720000
458.678528	144.520000
458.772247	144.500000
458.865906	144.560000
458.959625	145.560000
459.053284	145.440000
459.147003	145.220000
459.240692	146.040000
459.334412	146.100000
459.428070	145.400000
459.521790	145.740000
459.615479	146.060000
459.709198	146.140000
459.802887	145.680000
459.896576	145.720000
459.990265	145.540000
460.083954	145.860000
460.177673	144.660000
460.271362	145.220000
460.365051	145.060000
460.458740	144.700000
460.552429	144.180000
460.646149	144.520000
460.739838	143.960000
460.833527	144.240000
460.927246	144.120000
461.020905	144.200000
461.114655	143.920000
461.208313	144.260000
461.302032	143.880000
461.395691	144.480000
461.489441	144.780000
461.583099	144.760000
461.676819	144.640000
461.770477	145.300000
461.864197	145.000000
461.957916	144.740000
462.051605	144.520000
462.145294	145.120000
462.238983	144.380000
462.332703	144.820000
462.426392	145.220000
462.520081	145.520000
462.613770	145.060000
462.707489	145.220000
462.801178	144.660000
462.894867	144.440000
462.988556	144.620000
463.082275	144.620000
463.175964	144.440000
463.269684	144.880000
463.363342	144.620000
463.457092	144.020000
463.550751	144.400000
463.644470	144.900000
463.738129	144.900000
463.831879	144.900000
463.925537	145.760000
464.019257	145.540000
464.112946	145.140000
464.206665	144.700000
464.300323	144.980000
464.394043	144.700000
464.487762	144.220000
464.581451	144.840000
464.675140	145.200000
464.768829	145.220000
464.862549	145.520000
464.956238	146.120000
465.049927	145.940000
465.143646	145.820000
465.237335	145.640000
465.331024	145.940000
465.424713	145.680000
465.518433	145.480000
465.612152	145.340000
465.705811	145.620000
465.799561	145.140000
465.893219	144.960000
465.986938	144.820000
466.080597	144.720000
466.174347	144.780000
466.268005	145.000000
466.361725	145.080000
466.455414	145.120000
466.549133	144.920000
466.642792	144.820000
466.736542	144.620000
466.830231	144.960000
466.923920	145.000000
467.017609	145.480000
467.111328	145.260000
467.205017	145.200000
467.298706	145.000000
467.392426	144.900000
467.486115	144.980000
467.579803	144.520000
467.673523	144.860000
467.767212	144.800000
467.860901	145.040000
467.954651	145.220000
468.048309	145.800000
468.142029	145.260000
468.235718	145.440000
468.329437	145.080000
468.423096	144.820000
468.516846	144.820000
468.610504	144.820000
468.704224	144.400000
468.797913	144.360000
468.891632	144.400000
468.985291	144.220000
469.079010	144.560000
469.172729	144.240000
469.266418	144.880000
469.360107	144.620000
469.453827	144.340000
469.547516	144.140000
469.641205	144.980000
469.734924	145.060000
469.828613	145.780000
469.922302	146.400000
470.016022	146.400000
470.109711	146.120000
470.203430	145.400000
470.297150	144.680000
470.390808	144.620000
470.484558	144.820000
470.578217	145.160000
470.671936	146.040000
470.765625	146.700000
470.859344	146.300000
470.953003	146.720000
471.046753	146.320000
471.140411	145.380000
471.234131	145.300000
471.327820	146.120000
471.421539	145.660000
471.515228	145.540000
471.608948	146.000000
471.702637	145.340000
471.796326	144.440000
471.890045	144.680000
471.983734	144.940000
472.077423	144.620000
472.171143	144.900000
472.264832	145.120000
472.358521	144.700000
472.452240	144.100000
472.545929	144.860000
472.639648	145.220000
472.733337	145.680000
472.827057	145.960000
472.920746	146.500000
473.014465	146.640000
473.108124	146.220000
473.201874	146.020000
473.295532	145.960000
473.389252	146.340000
473.482941	146.360000
473.576660	146.340000
473.670319	146.240000
473.764069	146.200000
473.857727	145.780000
473.951477	145.440000
474.045166	146.080000
474.138855	145.580000
474.232574	145.420000
474.326263	145.520000
474.419952	145.560000
474.513672	145.160000
474.607361	145.580000
474.701050	146.300000
474.794769	146.660000
474.888458	146.880000
474.982178	146.980000
475.075867	147.120000
475.169586	146.520000
475.263275	146.080000
475.356995	145.820000
475.450653	145.520000
475.544403	145.140000
475.638062	146.080000
475.731812	146.020000
475.825470	145.600000
475.919189	145.680000
476.012878	146.020000
476.106598	144.780000
476.200256	144.880000
476.294006	144.860000
476.387695	145.060000
476.481384	145.120000
476.575104	145.460000
476.668793	145.240000
476.762512	145.100000
476.856201	145.240000
476.949890	145.000000
477.043610	144.520000
477.137299	144.720000
477.230988	145.220000
477.324707	145.040000
477.418396	145.540000
477.512146	145.640000
477.605804	145.560000
477.699524	145.640000
477.793213	145.460000
477.886932	145.120000
477.980591	144.980000
478.074341	144.780000
478.167999	144.080000
478.261749	144.100000
478.355408	143.720000
478.449127	144.300000
478.542816	145.200000
478.636536	146.340000
478.730225	146.560000
478.823944	147.060000
478.917633	146.880000
479.011322	146.580000
479.105042	145.960000
479.198730	146.000000
479.292450	145.600000
479.386139	145.920000
479.479828	145.720000
479.573547	146.180000
479.667267	145.840000
479.760925	146.140000
479.854675	146.220000
479.948334	146.340000
480.042084	145.860000
480.135742	146.360000
480.229462	145.960000
480.323151	145.880000
480.416870	145.180000
480.510529	145.040000
480.604279	144.060000
480.697937	144.620000
480.791656	143.820000
480.885345	143.740000
480.979065	143.580000
481.072754	144.540000
481.166473	144.840000
481.260132	145.300000
481.353882	145.580000
481.447540	145.820000
481.541260	145.620000
481.635010	144.960000
481.728668	144.840000
481.822388	145.020000
481.916077	145.100000
482.009796	144.880000
482.103485	145.120000
482.197205	145.440000
482.290863	145.700000
482.384613	145.480000
482.478271	145.300000
482.571991	145.260000
482.665680	145.160000
482.759399	145.440000
482.853058	145.940000
482.946808	146.040000
483.040466	145.940000
483.134216	145.480000
483.227875	145.000000
483.321594	145.100000
483.415283	145.180000
483.509003	145.140000
483.602661	145.060000
483.696411	145.320000
483.790070	145.080000
483.883789	145.040000
483.977478	145.300000
484.071198	145.980000
484.164917	145.380000
484.258606	145.160000
484.352325	145.300000
484.445984	145.400000
484.539734	144.920000
484.633392	144.720000
484.727142	145.040000
484.820801	145.140000
484.914520	144.940000
485.008209	145.340000
485.101929	146.180000
485.195587	145.640000
485.289337	145.440000
485.382996	145.200000
485.476715	145.160000
485.570404	145.300000
485.664124	145.660000
485.757782	146.040000
485.851532	145.960000
485.945190	145.640000
486.038910	145.500000
486.132599	145.540000
486.226318	145.020000
486.319977	145.100000
486.413727	145.740000
486.507446	145.340000
486.601105	144.920000
486.694855	144.920000
486.788513	144.840000
486.882233	144.480000
486.975922	144.480000
487.069641	144.500000
487.163300	144.660000
487.257050	145.660000
487.350708	145.360000
487.444427	145.340000
487.538116	145.520000
487.631836	145.360000
487.725494	144.660000
487.819214	144.800000
487.912903	144.860000
488.006622	145.020000
488.100281	145.240000
488.194031	145.380000
488.287689	145.820000
488.381409	146.480000
488.475098	146.340000
488.568817	146.660000
488.662476	146.520000
488.756226	145.860000
488.849945	144.680000
488.943604	144.740000
489.037354	144.540000
489.131012	144.600000
489.224731	144.820000
489.318390	145.120000
489.412140	145.240000
489.505798	145.060000
489.599518	144.520000
489.693207	144.920000
489.786926	144.800000
489.880585	144.580000
489.974335	144.860000
490.067993	146.000000
490.161713	146.100000
490.255371	146.680000
490.349121	146.860000
490.442780	146.580000
490.536499	145.880000
490.630188	145.460000
490.723907	145.200000
490.817566	145.200000
490.911285	145.280000
491.004974	145.160000
491.098694	145.100000
491.192413	145.680000
491.286102	145.700000
491.379822	145.860000
491.473480	146.140000
491.567200	146.240000
491.660889	145.500000
491.754608	145.340000
491.848267	145.140000
491.941986	144.840000
492.035675	144.840000
492.129395	145.100000
492.223053	145.200000
492.316772	145.560000
492.410461	145.720000
492.504181	145.600000
492.597839	145.480000
492.691559	145.200000
492.785248	145.040000
492.878967	145.180000
492.972626	145.300000
493.066345	145.160000
493.160034	144.820000
493.253754	144.400000
493.347412	144.000000
493.441132	144.000000
493.534882	144.720000
493.628540	145.300000
493.722260	145.780000
493.815918	145.740000
493.909668	146.120000
494.003326	145.820000
494.097046	145.840000
494.190704	145.620000
494.284454	146.140000
494.378113	145.980000
494.471832	145.760000
494.565491	145.440000
494.659210	145.640000
494.752899	145.380000
494.846619	144.900000
494.940277	145.240000
495.033997	145.180000
495.127686	144.500000
495.221405	144.260000
495.315063	144.740000
495.408783	144.520000
495.502441	144.860000
495.596191	145.560000
495.689850	145.520000
495.783569	145.660000
495.877228	145.780000
495.970947	145.480000
496.064697	144.960000
496.158356	145.560000
496.252075	145.460000
496.345734	145.300000
496.439453	146.540000
496.533142	146.720000
496.626862	147.040000
496.720520	146.720000
496.814240	146.760000
496.907898	145.680000
497.001617	145.800000
497.095306	144.880000
497.189026	145.180000
497.282684	145.420000
497.376404	146.100000
497.470062	145.860000
497.563782	146.380000
497.657471	146.180000
497.751190	145.780000
497.844849	145.260000
497.938568	145.760000
498.032227	145.720000
498.125946	145.620000
498.219635	145.720000
498.313354	146.260000
498.407074	145.660000
498.500732	145.480000
498.594452	145.960000
498.688110	145.540000
498.781830	144.720000
498.875519	144.940000
498.969238	144.680000
499.062897	144.260000
499.156616	145.040000
499.250275	145.300000
499.343994	144.760000
499.437653	145.180000
499.531372	145.380000
499.625061	145.780000
499.718781	145.940000
499.812439	146.920000
499.906158	146.620000
499.999817	146.400000
500.093536	145.480000
500.187195	145.220000
500.280914	145.000000
500.374573	145.060000
500.468323	144.700000
500.561981	145.280000
500.655701	145.220000
500.749420	145.060000
500.843079	145.240000
500.936798	145.660000
501.030457	145.680000
501.124176	145.820000
501.217834	145.800000
501.311554	145.500000
501.405212	145.060000
501.498962	144.220000
501.592621	144.400000
501.686340	144.720000
501.779999	145.020000
501.873718	145.560000
501.967377	146.340000
502.061096	146.360000
502.154755	145.940000
502.248474	145.940000
502.342133	145.900000
502.435852	145.540000
502.529510	145.960000
502.623230	146.560000
502.716888	146.120000
502.810608	145.880000
502.904266	146.240000
502.997986	145.740000
503.091705	145.060000
503.185364	145.360000
503.279083	145.780000
503.372772	145.500000
503.466492	144.840000
503.560150	145.200000
503.653870	145.000000
503.747528	144.700000
503.841248	144.740000
503.934906	145.540000
504.028625	145.200000
504.122284	145.640000
504.216003	146.120000
504.309662	145.920000
504.403381	145.920000
504.497040	145.920000
504.590759	145.300000
504.684418	145.200000
504.778137	145.680000
504.871796	145.700000
504.965515	145.720000
505.059174	146.100000
505.152893	145.340000
505.246521	144.560000
505.340240	144.280000
505.433899	144.520000
505.527618	144.840000
505.621338	145.460000
505.714996	145.600000
505.808716	145.560000
505.902374	145.960000
505.996094	145.900000
506.089752	145.880000
506.183472	146.280000
506.277130	146.220000
506.370850	145.780000
506.464508	145.520000
506.558228	145.560000
506.651886	145.100000
506.745605	145.420000
506.839264	145.740000
506.932983	145.840000
507.026611	145.580000
507.120331	146.340000
507.213989	145.740000
507.307709	145.340000
507.401367	145.500000
507.495087	146.520000
507.588745	145.600000
507.682465	146.820000
507.776123	146.840000
507.869843	146.600000
507.963531	145.920000
508.057190	146.700000
508.150909	145.400000
508.244568	145.720000
508.338287	145.460000
508.431946	145.320000
508.525665	144.920000
508.619324	145.140000
508.713013	145.100000
508.806671	145.820000
508.900391	146.600000
508.994049	146.680000
509.087769	146.620000
509.181427	146.700000
509.275146	146.000000
509.368774	145.080000
509.462494	145.000000
509.556152	145.280000
509.649872	145.340000
509.743530	145.900000
509.837250	146.280000
509.930878	146.300000
510.024597	145.980000
510.118256	145.560000
510.211975	145.400000
510.305695	145.100000
510.399353	145.800000
510.493042	146.540000
510.586700	146.460000
510.680420	147.060000
510.774078	146.920000
510.867798	146.420000
510.961426	145.620000
511.055145	145.820000
511.148804	145.180000
511.242523	145.420000
511.336151	145.420000
511.429871	145.880000
511.523529	145.860000
511.617249	145.580000
511.710876	145.320000
511.804596	144.740000
511.898254	144.560000
511.991974	144.540000
512.085632	144.440000
512.179321	144.660000
512.272949	145.460000
512.366699	145.780000
512.460327	145.840000
512.554077	146.700000
512.647766	146.860000
512.741394	146.520000
512.835144	146.880000
512.928772	146.760000
513.022461	146.440000
513.116150	146.080000
513.209839	146.460000
513.303467	145.760000
513.397217	145.500000
513.490845	145.200000
513.584595	144.980000
513.678223	144.460000
513.771912	144.160000
513.865601	144.520000
513.959290	144.580000
514.052917	144.720000
514.146667	145.580000
514.240295	146.040000
514.333984	146.320000
514.427673	145.960000
514.521362	146.540000
514.614990	145.840000
514.708740	145.980000
514.802368	146.020000
514.896057	146.420000
514.989746	146.860000
515.083435	146.740000
515.177124	146.680000
515.270752	146.260000
515.364502	146.080000
515.458130	145.600000
515.551819	145.700000
515.645508	145.400000
515.739197	145.380000
515.832825	145.600000
515.926575	145.420000
516.020203	145.700000
516.113892	146.380000
516.207520	146.060000
516.301270	146.280000
516.394897	146.380000
516.488586	146.260000
516.582275	145.700000
516.675964	145.460000
516.769592	144.980000
516.863281	145.400000
516.956970	145.860000
517.050659	145.740000
517.144287	146.420000
517.238037	146.620000
517.331665	145.920000
517.425354	145.380000
517.519043	145.600000
517.612732	145.600000
517.706421	145.500000
517.800049	145.380000
517.893738	144.960000
517.987427	144.820000
518.081116	144.660000
518.174744	144.220000
518.268433	144.600000
518.362122	145.620000
518.455811	145.580000
518.549438	146.160000
518.643127	147.380000
518.736816	147.040000
518.830505	146.140000
518.924133	146.200000
519.017822	146.220000
519.111511	145.700000
519.205200	146.580000
519.298828	147.180000
519.392517	147.180000
519.486206	146.780000
519.579895	146.800000
519.673523	146.000000
519.767212	145.360000
519.860901	145.880000
519.954590	145.460000
520.048279	144.980000
520.141907	145.040000
520.235596	146.160000
520.329224	146.080000
520.422974	146.360000
520.516602	146.380000
520.610291	146.160000
520.703918	145.780000
520.797607	145.220000
520.891296	145.220000
520.984985	145.520000
521.078613	146.140000
521.172302	145.340000
521.265930	146.420000
521.359680	147.000000
521.453308	146.540000
521.546997	146.200000
521.640625	146.900000
521.734314	145.980000
521.827942	145.480000
521.921692	146.260000
522.015320	146.340000
522.109009	145.720000
522.202698	145.600000
522.296326	145.540000
522.390015	145.240000
522.483704	145.240000
522.577393	145.340000
522.671021	145.560000
522.764709	145.260000
522.858337	145.720000
522.952026	145.440000
523.045654	145.880000
523.139404	146.400000
523.233032	146.660000
523.326721	146.060000
523.420349	146.140000
523.514038	145.680000
523.607666	145.680000
523.701355	145.420000
523.795044	145.420000
523.888733	145.840000
523.982361	145.960000
524.076050	144.940000
524.169678	145.660000
524.263367	145.460000
524.356995	144.900000
524.450684	144.800000
524.544373	145.200000
524.638062	144.980000
524.731750	145.360000
524.825378	145.300000
524.919067	145.040000
525.012695	145.100000
525.106384	144.460000
525.200012	144.480000
525.293701	144.360000
525.387329	144.920000
525.481018	145.000000
525.574646	145.620000
525.668396	145.540000
525.762024	146.260000
525.855713	146.320000
525.949341	145.900000
526.043030	145.700000
526.136658	145.340000
526.230347	144.920000
526.323975	144.400000
526.417664	144.280000
526.511292	144.220000
526.604980	144.520000
526.698608	144.540000
526.792297	144.800000
526.885925	145.240000
526.979614	145.660000
527.073303	145.620000
527.166931	145.520000
527.260620	145.640000
527.354309	145.900000
527.447998	145.580000
527.541626	145.220000
527.635315	145.260000
527.728943	145.960000
527.822632	146.060000
527.916260	145.960000
528.009949	146.560000
528.103577	146.580000
528.197266	145.740000
528.290894	145.540000
528.384583	145.680000
528.478210	145.480000
528.571899	145.760000
528.665527	145.980000
528.759216	146.280000
528.852844	146.360000
528.946533	146.260000
529.040161	145.960000
529.133850	145.740000
529.227478	145.540000
529.321167	145.900000
529.414856	146.500000
529.508484	146.900000
529.602173	146.460000
529.695801	146.360000
529.789490	145.800000
529.883057	145.340000
529.976746	145.500000
530.070374	146.020000
530.164062	145.840000
530.257690	146.400000
530.351379	146.420000
530.445007	145.800000
530.538696	145.340000
530.632324	145.820000
530.726013	145.580000
530.819641	145.600000
530.913330	145.880000
531.006958	146.320000
531.100647	146.460000
531.194275	146.200000
531.287964	146.040000
531.381592	145.820000
531.475220	145.680000
531.568848	145.240000
531.662537	145.060000
531.756226	145.560000
531.849854	145.480000
531.943542	145.660000
532.037170	145.060000
532.130859	145.500000
532.224487	144.800000
532.318176	144.700000
532.411804	144.980000
532.505432	145.540000
532.599060	145.340000
532.692749	145.320000
532.786377	145.900000
532.880066	145.200000
532.973694	144.700000
533.067383	144.640000
533.161011	144.960000
533.254639	144.580000
533.348267	144.580000
533.441956	144.980000
533.535583	144.880000
533.629272	144.820000
533.722900	144.200000
533.816589	144.460000
533.910156	144.800000
534.003845	144.560000
534.097534	144.860000
534.191162	145.920000
534.284851	145.900000
534.378479	145.340000
534.472107	145.360000
534.565735	145.180000
534.659424	145.020000
534.753052	145.360000
534.846741	145.360000
534.940369	145.980000
535.033997	145.660000
535.127625	145.540000
535.221313	145.760000
535.314941	145.980000
535.408630	145.240000
535.502197	145.820000
535.595886	145.540000
535.689514	144.820000
535.783203	145.120000
535.876831	145.780000
535.970459	145.340000
536.064087	145.280000
536.157776	145.520000
536.251404	145.500000
536.345093	145.080000
536.438721	145.260000
536.532349	145.440000
536.626038	145.160000
536.719666	145.060000
536.813293	144.720000
536.906921	144.480000
537.000610	144.780000
537.094238	145.160000
537.187866	145.040000
537.281494	145.280000
537.375183	145.600000
537.468811	145.300000
537.562439	145.320000
537.656067	145.280000
537.749756	145.540000
537.843384	145.760000
537.937012	145.860000
538.030640	145.500000
538.124329	145.720000
538.217896	146.140000
538.311584	146.120000
538.405212	146.100000
538.498901	146.300000
538.592468	146.660000
538.686157	145.760000
538.779785	145.080000
538.873413	145.080000
538.967102	145.000000
539.060730	144.260000
539.154358	145.080000
539.247986	145.480000
539.341675	145.580000
539.435242	145.520000
539.528931	145.600000
539.622559	144.980000
539.716187	145.320000
539.809814	145.240000
539.903503	144.980000
539.997070	144.680000
540.090759	144.780000
540.184387	144.460000
540.278015	144.720000
540.371643	145.420000
540.465332	145.880000
540.558899	145.960000
540.652588	145.860000
540.746216	145.500000
540.839844	145.640000
540.933472	145.640000
541.027100	145.580000
541.120728	145.800000
541.214417	145.840000
541.308044	145.800000
541.401672	145.480000
541.495300	145.280000
541.588928	145.160000
541.682617	144.880000
541.776184	144.680000
541.869873	145.040000
541.963440	145.420000
542.057129	145.420000
542.150757	145.640000
542.244385	145.000000
542.338013	144.740000
542.431641	144.280000
542.525269	144.060000
542.618958	144.480000
542.712524	145.200000
542.806213	144.980000
542.899780	145.400000
542.993469	145.140000
543.087036	144.560000
543.180725	143.900000
543.274292	144.080000
543.367981	144.140000
543.461548	144.740000
543.555237	144.780000
543.648926	145.320000
543.742493	145.820000
543.836182	145.820000
543.929749	145.340000
544.023437	145.500000
544.117004	145.360000
544.210693	145.720000
544.304260	145.660000
544.397949	145.540000
544.491516	145.700000
544.585205	145.500000
544.678772	144.780000
544.772461	145.060000
544.866028	145.300000
544.959717	145.260000
545.053284	145.340000
545.146973	145.520000
545.240540	145.460000
545.334229	145.840000
545.427795	145.880000
545.521423	145.860000
545.615051	145.960000
545.708679	146.000000
545.802307	145.720000
545.895935	145.980000
545.989624	146.720000
546.083191	146.520000
546.176880	146.540000
546.270447	146.120000
546.364136	146.280000
546.457703	145.680000
546.551331	145.440000
546.644958	145.600000
546.738586	146.280000
546.832214	145.580000
546.925842	145.180000
547.019409	145.520000
547.113098	145.000000
547.206665	144.620000
547.300354	144.860000
547.393921	145.600000
547.487549	145.800000
547.581177	145.620000
547.674805	145.560000
547.768433	144.880000
547.862061	144.560000
547.955627	143.900000
548.049316	144.520000
548.142883	144.740000
548.236572	145.560000
548.330139	145.980000
548.423767	146.180000
548.517456	146.020000
548.611023	146.220000
548.704651	145.580000
548.798279	145.120000
548.891907	145.680000
548.985474	145.440000
549.079163	145.660000
549.172729	145.760000
549.266357	145.680000
549.359985	145.540000
549.453613	145.280000
549.547180	144.940000
549.640869	145.360000
549.734436	145.340000
549.828064	145.380000
549.921631	145.680000
550.015320	145.240000
550.108887	145.620000
550.202515	145.540000
550.296143	145.000000
550.389771	145.000000
550.483337	145.420000
550.576965	144.780000
550.670593	145.400000
550.764221	145.580000
550.857849	145.420000
550.951477	144.800000
551.045105	144.620000
551.138672	144.400000
551.232300	143.960000
551.325928	144.360000
551.419556	144.820000
551.513123	145.080000
551.606750	144.780000
551.700378	145.060000
551.794006	144.820000
551.887573	144.760000
551.981201	145.160000
552.074768	144.960000
552.168457	144.740000
552.262024	145.480000
552.355652	145.640000
552.449219	146.160000
552.542847	146.560000
552.636475	146.540000
552.730103	145.620000
552.823669	145.360000
552.917297	144.300000
553.010864	144.260000
553.104553	144.660000
553.198181	144.340000
553.291748	144.720000
553.385376	144.980000
553.478943	144.720000
553.572571	144.540000
553.666199	145.120000
553.759827	144.780000
553.853394	144.300000
553.947021	144.520000
554.040588	144.980000
554.134216	145.120000
554.227783	146.020000
554.321411	147.140000
554.415039	146.820000
554.508667	146.440000
554.602234	146.520000
554.695862	145.720000
554.789429	145.300000
554.883057	145.540000
554.976624	145.680000
555.070251	145.600000
555.163818	145.480000
555.257507	145.360000
555.351074	145.480000
555.444702	146.280000
555.538330	145.980000
555.631897	146.680000
555.725525	146.560000
555.819092	146.360000
555.912720	145.440000
556.006287	145.820000
556.099915	145.160000
556.193481	145.300000
556.287109	145.580000
556.380676	145.540000
556.474304	145.560000
556.567871	145.920000
556.661499	145.460000
556.755066	145.100000
556.848694	145.360000
556.942261	144.920000
557.035889	144.980000
557.129517	145.220000
557.223145	145.720000
557.316711	145.760000
557.410339	146.100000
557.503906	145.620000
557.597473	146.120000
557.691040	145.900000
557.784668	145.700000
557.878296	145.760000
557.971863	146.240000
558.065491	145.940000
558.159058	145.720000
558.252686	146.500000
558.346252	147.060000
558.439880	146.400000
558.533447	146.100000
558.627075	145.820000
558.720642	145.220000
558.814270	144.480000
558.907837	144.780000
559.001465	144.480000
559.095032	145.380000
559.188660	145.360000
559.282227	144.980000
559.375854	145.560000
559.469360	145.840000
559.562988	145.880000
559.656555	145.780000
559.750183	146.320000
559.843750	146.100000
559.937378	146.160000
560.030945	145.780000
560.124573	0.000000
560.218140	0.000000
560.311707	0.000000
560.405334	0.000000
560.498901	0.000000
560.592529	0.000000
560.686096	0.000000
560.779724	0.000000
560.873291	0.000000
560.966858	0.000000
561.060425	0.000000
561.154053	0.000000
561.247620	0.000000
561.341248	0.000000
561.434814	0.000000
561.528381	0.000000
561.621948	0.000000
561.715576	0.000000
561.809143	0.000000
561.902771	0.000000
561.996277	0.000000
562.089905	0.000000
562.183472	0.000000
562.277100	0.000000
