Model Number: SPM-002-B   
Serial Number: 70087108
Firmware Version: 004.15.4
Exposure Time: 100000.000000us
Data Taken on: 11-12-2020 18:50:58.482
Wavelength	Amplitude
221.570786	0.000000
221.663406	0.000000
221.756027	0.000000
221.848648	0.000000
221.941269	0.000000
222.033905	0.000000
222.126526	0.000000
222.219162	0.000000
222.311798	0.000000
222.404419	0.000000
222.497055	0.000000
222.589676	0.000000
222.682312	0.000000
222.774933	0.000000
222.867569	0.000000
222.960205	0.000000
223.052841	0.000000
223.145462	0.000000
223.238098	0.000000
223.330734	0.000000
223.423386	0.000000
223.516022	0.000000
223.608658	0.000000
223.701309	0.000000
223.793945	0.000000
223.886581	0.000000
223.979218	0.000000
224.071869	0.000000
224.164505	0.000000
224.257156	0.000000
224.349792	0.000000
224.442444	0.000000
224.535095	0.000000
224.627747	0.000000
224.720398	0.000000
224.813034	0.000000
224.905685	0.000000
224.998337	145.000000
225.090988	144.640000
225.183640	144.440000
225.276291	144.460000
225.368942	144.560000
225.461594	145.140000
225.554245	145.620000
225.646912	145.720000
225.739578	145.980000
225.832230	146.400000
225.924896	145.760000
226.017548	145.880000
226.110199	146.140000
226.202866	145.620000
226.295532	145.460000
226.388184	145.480000
226.480850	144.900000
226.573517	144.420000
226.666168	144.780000
226.758835	145.120000
226.851501	145.380000
226.944183	145.660000
227.036850	145.740000
227.129517	145.680000
227.222183	145.680000
227.314850	145.700000
227.407516	145.720000
227.500198	146.300000
227.592865	145.820000
227.685532	145.320000
227.778214	145.300000
227.870880	145.760000
227.963562	146.180000
228.056229	146.820000
228.148926	146.800000
228.241592	147.580000
228.334274	147.000000
228.426956	146.200000
228.519638	146.020000
228.612305	145.760000
228.704987	145.140000
228.797668	145.400000
228.890350	145.300000
228.983032	144.740000
229.075714	145.600000
229.168396	145.420000
229.261108	145.000000
229.353790	145.240000
229.446472	145.760000
229.539169	145.220000
229.631851	144.940000
229.724533	145.240000
229.817230	145.400000
229.909912	146.500000
230.002609	146.400000
230.095306	146.340000
230.187988	146.100000
230.280685	145.800000
230.373383	144.380000
230.466095	144.580000
230.558792	144.920000
230.651474	145.060000
230.744171	145.100000
230.836868	145.260000
230.929581	145.320000
231.022278	145.320000
231.114975	145.440000
231.207672	145.020000
231.300369	145.480000
231.393082	145.460000
231.485779	145.220000
231.578506	145.280000
231.671204	146.040000
231.763916	145.740000
231.856613	145.860000
231.949326	146.340000
232.042023	146.040000
232.134735	145.360000
232.227448	145.140000
232.320160	145.500000
232.412872	145.280000
232.505585	145.920000
232.598297	146.520000
232.691010	146.460000
232.783722	145.780000
232.876450	146.220000
232.969162	145.640000
233.061874	145.200000
233.154587	144.780000
233.247314	144.920000
233.340027	144.140000
233.432739	144.520000
233.525467	144.380000
233.618179	145.020000
233.710907	144.660000
233.803635	145.560000
233.896347	145.440000
233.989090	146.140000
234.081818	146.200000
234.174545	146.580000
234.267258	145.800000
234.359985	145.940000
234.452713	145.740000
234.545441	145.680000
234.638168	145.640000
234.730896	146.220000
234.823639	145.940000
234.916367	146.160000
235.009094	146.020000
235.101822	145.940000
235.194580	145.680000
235.287308	145.660000
235.380051	144.880000
235.472778	145.060000
235.565521	145.280000
235.658249	144.980000
235.750992	145.060000
235.843719	145.400000
235.936462	145.600000
236.029205	145.340000
236.121948	145.120000
236.214691	145.340000
236.307449	146.040000
236.400192	145.740000
236.492935	145.820000
236.585678	146.100000
236.678421	145.840000
236.771164	145.260000
236.863907	145.780000
236.956665	145.860000
237.049408	147.440000
237.142151	147.340000
237.234909	148.100000
237.327652	147.680000
237.420410	147.460000
237.513153	146.380000
237.605927	146.600000
237.698669	145.860000
237.791428	145.540000
237.884186	145.840000
237.976944	145.280000
238.069702	145.440000
238.162445	144.980000
238.255203	145.060000
238.347961	145.420000
238.440720	145.400000
238.533478	145.280000
238.626266	145.400000
238.719025	145.720000
238.811783	145.380000
238.904541	145.420000
238.997314	145.060000
239.090073	145.080000
239.182831	145.500000
239.275604	146.200000
239.368362	146.140000
239.461136	146.420000
239.553909	146.240000
239.646667	145.500000
239.739441	144.740000
239.832214	145.020000
239.925003	144.900000
240.017761	145.700000
240.110535	146.320000
240.203308	146.020000
240.296082	146.060000
240.388855	145.960000
240.481628	145.780000
240.574417	145.600000
240.667191	145.760000
240.759964	145.380000
240.852737	145.640000
240.945526	145.320000
241.038315	145.140000
241.131088	145.380000
241.223877	145.900000
241.316650	145.260000
241.409439	145.560000
241.502228	145.100000
241.595001	145.600000
241.687790	145.260000
241.780579	145.740000
241.873367	145.840000
241.966141	146.340000
242.058929	145.420000
242.151718	145.360000
242.244507	145.640000
242.337311	144.880000
242.430099	145.360000
242.522903	146.080000
242.615692	145.760000
242.708481	145.860000
242.801270	146.800000
242.894073	146.140000
242.986862	145.860000
243.079651	146.760000
243.172455	146.140000
243.265244	146.040000
243.358063	145.800000
243.450867	146.100000
243.543655	145.600000
243.636459	145.940000
243.729263	146.060000
243.822067	146.520000
243.914856	146.620000
244.007660	147.100000
244.100464	147.020000
244.193268	146.440000
244.286072	146.320000
244.378876	145.720000
244.471680	145.180000
244.564499	145.440000
244.657318	146.240000
244.750122	146.520000
244.842926	146.160000
244.935745	146.760000
245.028549	146.240000
245.121368	145.620000
245.214172	145.360000
245.306992	146.020000
245.399796	145.360000
245.492615	145.460000
245.585434	145.220000
245.678253	145.000000
245.771072	144.700000
245.863892	145.200000
245.956711	145.620000
246.049530	145.780000
246.142349	145.940000
246.235168	145.980000
246.327988	146.220000
246.420807	145.900000
246.513626	145.800000
246.606445	145.620000
246.699280	145.780000
246.792099	145.220000
246.884918	144.640000
246.977753	144.600000
247.070587	144.720000
247.163422	144.800000
247.256241	144.860000
247.349075	145.740000
247.441895	145.660000
247.534729	145.740000
247.627563	145.280000
247.720383	145.860000
247.813217	145.420000
247.906052	145.300000
247.998886	145.440000
248.091736	145.660000
248.184570	144.980000
248.277405	145.040000
248.370239	146.320000
248.463074	146.900000
248.555908	147.020000
248.648743	147.120000
248.741592	147.100000
248.834427	146.000000
248.927261	144.800000
249.020111	144.980000
249.112946	145.580000
249.205795	145.440000
249.298630	145.600000
249.391495	146.040000
249.484344	145.680000
249.577179	145.300000
249.670029	145.620000
249.762878	146.120000
249.855728	146.040000
249.948563	146.040000
250.041412	145.440000
250.134262	145.600000
250.227112	145.400000
250.319962	145.520000
250.412827	145.580000
250.505692	145.520000
250.598541	145.300000
250.691391	144.940000
250.784241	144.980000
250.877106	145.260000
250.969955	145.360000
251.062805	146.100000
251.155670	146.660000
251.248520	146.400000
251.341385	146.640000
251.434235	146.480000
251.527100	145.560000
251.619965	145.040000
251.712814	145.880000
251.805695	145.620000
251.898560	145.880000
251.991425	146.200000
252.084290	146.380000
252.177155	145.420000
252.270020	145.180000
252.362885	145.120000
252.455750	145.220000
252.548615	144.980000
252.641479	144.880000
252.734360	144.740000
252.827240	144.820000
252.920105	144.940000
253.012970	144.880000
253.105850	145.320000
253.198715	145.280000
253.291595	145.380000
253.384460	145.020000
253.477341	144.800000
253.570221	145.040000
253.663086	144.740000
253.755966	145.380000
253.848846	145.300000
253.941727	145.620000
254.034592	145.300000
254.127472	144.960000
254.220367	144.600000
254.313248	144.720000
254.406128	144.340000
254.499008	144.460000
254.591904	145.620000
254.684784	145.880000
254.777664	146.040000
254.870544	146.080000
254.963440	145.980000
255.056335	146.000000
255.149216	145.280000
255.242111	145.480000
255.334991	145.860000
255.427887	146.000000
255.520767	145.960000
255.613663	146.320000
255.706558	145.460000
255.799438	145.260000
255.892334	144.800000
255.985229	144.500000
256.078125	144.440000
256.171021	144.980000
256.263916	145.360000
256.356812	145.880000
256.449707	146.120000
256.542603	146.080000
256.635498	146.440000
256.728394	146.320000
256.821289	146.260000
256.914215	146.260000
257.007080	146.520000
257.100006	146.460000
257.192932	146.900000
257.285828	146.980000
257.378723	146.600000
257.471619	146.320000
257.564545	145.560000
257.657440	145.320000
257.750336	145.520000
257.843262	145.260000
257.936157	146.180000
258.029053	146.840000
258.121979	146.600000
258.214874	145.940000
258.307800	146.020000
258.400696	145.300000
258.493622	144.740000
258.586517	144.240000
258.679443	145.000000
258.772339	144.760000
258.865265	144.400000
258.958160	144.280000
259.051086	145.200000
259.144012	144.700000
259.236938	145.760000
259.329834	146.000000
259.422791	146.180000
259.515717	145.560000
259.608612	145.220000
259.701538	145.140000
259.794464	144.720000
259.887390	144.740000
259.980316	145.020000
260.073212	145.120000
260.166138	144.140000
260.259064	144.580000
260.351990	145.200000
260.444916	145.040000
260.537842	145.520000
260.630768	146.280000
260.723694	146.140000
260.816620	145.680000
260.909546	145.760000
261.002472	145.140000
261.095398	144.620000
261.188354	144.700000
261.281281	144.460000
261.374207	144.340000
261.467133	145.640000
261.560089	146.000000
261.653015	145.900000
261.745972	146.680000
261.838867	147.060000
261.931824	146.740000
262.024780	146.100000
262.117706	146.340000
262.210663	146.280000
262.303589	146.140000
262.396515	145.940000
262.489471	146.800000
262.582397	146.700000
262.675354	146.260000
262.768280	146.360000
262.861237	146.200000
262.954163	146.100000
263.047119	146.280000
263.140045	146.260000
263.233002	146.000000
263.325958	145.900000
263.418884	145.360000
263.511841	145.160000
263.604797	145.300000
263.697723	145.280000
263.790680	145.100000
263.883636	145.720000
263.976593	145.500000
264.069550	145.360000
264.162476	145.060000
264.255463	145.280000
264.348419	144.820000
264.441376	145.260000
264.534332	144.840000
264.627289	145.160000
264.720245	145.560000
264.813202	145.140000
264.906158	144.960000
264.999115	145.660000
265.092072	145.640000
265.185028	145.660000
265.277985	146.200000
265.370941	146.040000
265.463898	145.720000
265.556854	145.460000
265.649811	144.560000
265.742798	144.820000
265.835754	145.000000
265.928711	145.180000
266.021667	145.420000
266.114655	145.840000
266.207611	145.960000
266.300568	145.380000
266.393585	145.300000
266.486511	145.720000
266.579498	145.220000
266.672485	144.660000
266.765442	145.080000
266.858429	145.420000
266.951385	144.740000
267.044342	145.320000
267.137329	145.480000
267.230316	145.820000
267.323273	145.340000
267.416260	146.140000
267.509216	145.800000
267.602203	145.780000
267.695160	146.020000
267.788147	146.160000
267.881134	145.240000
267.974091	145.520000
268.067078	145.480000
268.160065	144.980000
268.253052	144.860000
268.346008	145.100000
268.438995	144.740000
268.531982	144.560000
268.624969	144.340000
268.717987	144.560000
268.810944	144.600000
268.903961	144.720000
268.996948	144.700000
269.089905	145.200000
269.182892	145.200000
269.275879	145.620000
269.368866	145.440000
269.461853	145.540000
269.554871	145.180000
269.647858	145.180000
269.740845	145.140000
269.833832	145.500000
269.926819	145.520000
270.019806	145.700000
270.112793	145.360000
270.205811	145.260000
270.298798	145.200000
270.391785	145.900000
270.484772	145.280000
270.577789	145.500000
270.670776	145.040000
270.763763	144.960000
270.856750	144.680000
270.949768	144.780000
271.042786	144.760000
271.135773	144.980000
271.228790	145.160000
271.321808	144.600000
271.414795	144.780000
271.507782	144.580000
271.600800	144.220000
271.693817	144.220000
271.786804	144.380000
271.879822	144.360000
271.972809	144.300000
272.065826	144.900000
272.158844	144.420000
272.251831	144.820000
272.344849	145.060000
272.437866	144.900000
272.530853	145.000000
272.623871	145.360000
272.716888	144.580000
272.809906	144.780000
272.902893	144.640000
272.995911	144.140000
273.088928	144.260000
273.181946	144.700000
273.274963	144.000000
273.367981	144.340000
273.460999	144.560000
273.554047	144.800000
273.647003	145.240000
273.740051	145.680000
273.833069	145.780000
273.926086	146.100000
274.019135	145.860000
274.112152	145.640000
274.205170	145.360000
274.298187	145.620000
274.391205	145.060000
274.484222	144.980000
274.577240	144.840000
274.670258	145.140000
274.763306	144.800000
274.856323	145.320000
274.949341	145.480000
275.042358	146.000000
275.135406	145.740000
275.228424	146.080000
275.321442	145.820000
275.414490	145.540000
275.507507	145.660000
275.600525	146.160000
275.693573	145.960000
275.786591	145.820000
275.879669	146.080000
275.972656	145.560000
276.065735	145.340000
276.158752	146.020000
276.251801	147.040000
276.344818	146.960000
276.437866	147.000000
276.530884	146.700000
276.623932	145.500000
276.716980	144.960000
276.809998	144.840000
276.903046	144.860000
276.996094	146.060000
277.089111	146.780000
277.182159	146.940000
277.275208	146.700000
277.368256	146.580000
277.461304	145.720000
277.554321	145.100000
277.647369	145.060000
277.740417	145.220000
277.833466	145.240000
277.926514	145.000000
278.019562	145.740000
278.112610	144.980000
278.205688	145.120000
278.298706	145.020000
278.391785	145.000000
278.484833	144.540000
278.577881	144.580000
278.670929	144.660000
278.763977	144.720000
278.857025	145.260000
278.950073	145.200000
279.043121	145.100000
279.136169	144.920000
279.229248	144.360000
279.322296	143.960000
279.415344	143.720000
279.508392	143.900000
279.601440	143.900000
279.694519	144.160000
279.787567	144.180000
279.880615	144.280000
279.973694	144.320000
280.066742	144.320000
280.159790	144.520000
280.252869	144.040000
280.345917	144.540000
280.438995	144.580000
280.532074	144.620000
280.625122	144.980000
280.718201	146.420000
280.811279	146.300000
280.904327	146.020000
280.997406	146.380000
281.090454	146.360000
281.183533	145.440000
281.276581	145.280000
281.369659	145.440000
281.462738	145.240000
281.555786	145.240000
281.648865	145.140000
281.741943	145.400000
281.835022	146.120000
281.928070	146.180000
282.021149	145.820000
282.114227	145.800000
282.207306	145.560000
282.300385	145.340000
282.393433	145.400000
282.486511	145.420000
282.579590	145.740000
282.672668	145.880000
282.765747	145.140000
282.858856	145.000000
282.951904	145.260000
283.045013	145.540000
283.138062	146.080000
283.231171	146.780000
283.324249	146.920000
283.417328	147.100000
283.510406	146.540000
283.603485	145.960000
283.696564	145.400000
283.789642	145.200000
283.882751	144.820000
283.975830	145.560000
284.068909	145.400000
284.161987	146.360000
284.255066	146.040000
284.348175	146.540000
284.441254	146.080000
284.534332	146.700000
284.627441	146.080000
284.720520	145.840000
284.813599	145.720000
284.906708	145.920000
284.999786	144.820000
285.092896	144.300000
285.185974	145.640000
285.279053	145.180000
285.372192	145.080000
285.465240	146.000000
285.558380	146.340000
285.651459	145.380000
285.744568	145.960000
285.837677	145.460000
285.930756	145.180000
286.023865	145.340000
286.116943	145.400000
286.210052	145.520000
286.303162	145.500000
286.396240	145.480000
286.489349	145.140000
286.582458	145.440000
286.675568	144.840000
286.768646	145.020000
286.861755	145.280000
286.954865	146.040000
287.047974	145.380000
287.141083	145.340000
287.234161	145.200000
287.327271	145.000000
287.420380	145.360000
287.513519	145.660000
287.606598	145.700000
287.699738	145.840000
287.792816	145.720000
287.885956	144.840000
287.979034	144.880000
288.072174	145.000000
288.165283	145.100000
288.258392	145.460000
288.351501	145.200000
288.444611	145.420000
288.537720	145.740000
288.630859	145.360000
288.723969	145.400000
288.817078	146.100000
288.910187	145.760000
289.003296	145.240000
289.096436	145.300000
289.189545	145.040000
289.282654	144.380000
289.375763	145.000000
289.468903	145.620000
289.562012	146.000000
289.655121	145.880000
289.748260	146.200000
289.841400	146.160000
289.934509	145.860000
290.027649	146.040000
290.120728	146.180000
290.213898	146.220000
290.306976	146.040000
290.400146	146.140000
290.493256	145.620000
290.586395	145.580000
290.679535	145.800000
290.772644	145.440000
290.865784	144.500000
290.958893	144.820000
291.052032	144.520000
291.145172	144.360000
291.238281	144.280000
291.331421	144.860000
291.424561	145.160000
291.517670	145.340000
291.610809	145.540000
291.703949	145.520000
291.797089	145.620000
291.890228	145.080000
291.983337	144.880000
292.076477	144.500000
292.169617	144.720000
292.262756	144.580000
292.355927	144.540000
292.449036	144.400000
292.542206	144.560000
292.635315	144.820000
292.728485	145.320000
292.821625	145.000000
292.914764	146.200000
293.007904	146.260000
293.101044	146.280000
293.194183	145.840000
293.287323	146.360000
293.380463	145.500000
293.473602	145.100000
293.566742	145.180000
293.659882	145.520000
293.753021	145.640000
293.846191	145.680000
293.939331	145.460000
294.032471	145.180000
294.125610	144.720000
294.218781	144.920000
294.311920	145.480000
294.405060	146.120000
294.498230	146.040000
294.591370	146.400000
294.684540	145.800000
294.777679	145.180000
294.870850	145.060000
294.963959	145.080000
295.057159	144.780000
295.150299	145.220000
295.243469	145.140000
295.336609	144.560000
295.429779	144.660000
295.522919	145.220000
295.616089	144.980000
295.709229	145.940000
295.802399	146.660000
295.895569	146.260000
295.988708	145.720000
296.081879	146.080000
296.175018	145.100000
296.268188	144.720000
296.361359	145.540000
296.454529	145.720000
296.547668	145.380000
296.640839	145.760000
296.734009	145.600000
296.827179	145.580000
296.920319	145.900000
297.013519	145.700000
297.106659	145.620000
297.199860	145.940000
297.292999	145.760000
297.386200	145.360000
297.479309	145.420000
297.572510	145.320000
297.665680	144.960000
297.758850	144.900000
297.852020	144.940000
297.945190	144.960000
298.038361	144.700000
298.131531	145.620000
298.224701	145.160000
298.317871	144.900000
298.411072	144.580000
298.504242	144.560000
298.597412	143.940000
298.690582	144.320000
298.783752	144.300000
298.876923	144.720000
298.970093	144.880000
299.063293	145.160000
299.156464	145.560000
299.249634	146.040000
299.342834	146.220000
299.436005	146.660000
299.529205	146.600000
299.622345	146.400000
299.715576	145.740000
299.808716	145.680000
299.901917	145.400000
299.995117	145.700000
300.088287	145.740000
300.181488	145.600000
300.274658	145.440000
300.367828	145.420000
300.461029	145.260000
300.554199	145.500000
300.647400	145.820000
300.740601	146.280000
300.833771	146.420000
300.926971	146.600000
301.020142	145.920000
301.113342	145.820000
301.206512	145.580000
301.299713	145.720000
301.392914	145.460000
301.486084	145.700000
301.579285	145.720000
301.672516	146.040000
301.765686	145.740000
301.858887	145.580000
301.952057	145.760000
302.045288	145.720000
302.138458	145.120000
302.231659	144.980000
302.324860	145.040000
302.418060	144.660000
302.511261	144.820000
302.604462	145.360000
302.697662	145.460000
302.790863	145.460000
302.884064	145.200000
302.977264	145.240000
303.070465	145.460000
303.163666	145.980000
303.256866	146.240000
303.350067	146.440000
303.443268	146.680000
303.536469	146.300000
303.629669	145.820000
303.722870	145.980000
303.816071	146.040000
303.909271	146.100000
304.002472	145.580000
304.095673	145.200000
304.188934	144.340000
304.282104	145.380000
304.375336	145.020000
304.468506	145.260000
304.561768	145.380000
304.654968	146.160000
304.748169	145.100000
304.841370	145.240000
304.934601	145.560000
305.027802	145.420000
305.121002	144.760000
305.214233	144.980000
305.307434	144.860000
305.400665	145.040000
305.493866	145.100000
305.587097	145.500000
305.680298	145.280000
305.773499	146.100000
305.866730	145.800000
305.959930	146.140000
306.053162	146.280000
306.146393	146.000000
306.239594	144.680000
306.332825	144.860000
306.426025	145.160000
306.519287	144.700000
306.612488	145.120000
306.705719	145.700000
306.798920	145.680000
306.892181	145.220000
306.985352	145.160000
307.078613	144.380000
307.171844	144.860000
307.265045	144.460000
307.358276	144.020000
307.451508	144.800000
307.544739	145.740000
307.637970	145.480000
307.731201	145.580000
307.824402	146.720000
307.917633	146.320000
308.010864	146.620000
308.104095	146.820000
308.197327	147.060000
308.290558	146.560000
308.383789	146.300000
308.477020	145.780000
308.570251	145.080000
308.663483	144.840000
308.756714	144.640000
308.849976	144.580000
308.943176	145.180000
309.036438	145.220000
309.129639	144.740000
309.222900	144.900000
309.316101	145.060000
309.409393	144.120000
309.502625	143.820000
309.595856	144.180000
309.689087	144.120000
309.782318	144.160000
309.875580	144.380000
309.968811	144.780000
310.062042	144.560000
310.155273	144.440000
310.248535	144.780000
310.341766	144.840000
310.434998	144.900000
310.528259	144.880000
310.621490	145.340000
310.714722	144.560000
310.807983	144.300000
310.901215	144.120000
310.994476	144.280000
311.087708	143.880000
311.181000	144.480000
311.274200	144.400000
311.367462	144.660000
311.460693	144.520000
311.553986	145.220000
311.647186	145.440000
311.740479	146.120000
311.833710	145.940000
311.926971	145.920000
312.020203	145.060000
312.113464	144.580000
312.206726	143.900000
312.299957	144.220000
312.393219	144.900000
312.486481	145.320000
312.579712	145.340000
312.672974	145.640000
312.766235	145.220000
312.859497	145.020000
312.952759	144.720000
313.045990	145.640000
313.139252	145.180000
313.232513	145.400000
313.325775	145.320000
313.419037	145.240000
313.512299	144.160000
313.605530	144.760000
313.698822	144.780000
313.792053	144.700000
313.885345	144.340000
313.978577	144.340000
314.071869	143.920000
314.165131	144.280000
314.258392	144.680000
314.351654	145.060000
314.444916	144.680000
314.538177	145.420000
314.631439	145.440000
314.724701	145.360000
314.817993	145.560000
314.911255	145.940000
315.004517	145.460000
315.097778	145.220000
315.191040	145.460000
315.284302	145.640000
315.377594	145.580000
315.470856	145.560000
315.564117	145.080000
315.657379	144.180000
315.750671	143.580000
315.843933	144.200000
315.937195	143.760000
316.030518	143.680000
316.123749	144.140000
316.217041	144.980000
316.310303	144.720000
316.403595	145.140000
316.496857	145.560000
316.590149	145.580000
316.683411	144.700000
316.776703	144.320000
316.869965	144.320000
316.963257	144.120000
317.056519	143.660000
317.149811	144.060000
317.243073	144.300000
317.336365	144.260000
317.429626	144.460000
317.522919	145.140000
317.616180	145.080000
317.709473	144.580000
317.802765	144.720000
317.896027	144.760000
317.989319	144.440000
318.082611	144.140000
318.175873	144.580000
318.269165	144.660000
318.362488	144.740000
318.455750	144.680000
318.549042	145.280000
318.642303	145.420000
318.735626	145.060000
318.828888	145.040000
318.922211	144.600000
319.015472	145.100000
319.108765	144.860000
319.202057	144.640000
319.295349	144.620000
319.388641	144.820000
319.481934	144.120000
319.575226	143.940000
319.668518	144.620000
319.761810	144.840000
319.855103	145.120000
319.948395	145.520000
320.041687	145.960000
320.134979	145.920000
320.228271	145.540000
320.321564	145.280000
320.414856	145.020000
320.508148	144.680000
320.601440	144.160000
320.694763	144.000000
320.788025	144.900000
320.881348	144.780000
320.974640	144.800000
321.067963	144.820000
321.161224	145.120000
321.254547	144.220000
321.347839	144.720000
321.441162	144.580000
321.534454	144.860000
321.627747	144.700000
321.721069	145.380000
321.814362	145.080000
321.907654	145.240000
322.000946	145.080000
322.094269	145.640000
322.187561	145.260000
322.280884	145.600000
322.374176	145.940000
322.467468	146.500000
322.560791	146.400000
322.654083	146.940000
322.747406	146.700000
322.840698	146.600000
322.934021	146.680000
323.027344	146.480000
323.120636	145.840000
323.213959	145.980000
323.307251	145.600000
323.400574	145.100000
323.493866	144.700000
323.587219	144.980000
323.680511	145.140000
323.773834	145.660000
323.867157	145.800000
323.960449	145.980000
324.053772	145.820000
324.147095	145.600000
324.240387	145.960000
324.333710	146.160000
324.427032	146.320000
324.520355	146.300000
324.613647	145.940000
324.706970	145.500000
324.800293	145.460000
324.893616	145.740000
324.986938	146.080000
325.080231	145.980000
325.173553	146.260000
325.266876	146.560000
325.360199	146.860000
325.453522	146.560000
325.546875	146.600000
325.640167	146.460000
325.733521	146.380000
325.826813	146.260000
325.920166	145.840000
326.013489	145.660000
326.106812	144.880000
326.200134	144.400000
326.293457	143.740000
326.386780	144.180000
326.480103	144.280000
326.573425	144.540000
326.666748	144.660000
326.760071	144.980000
326.853424	144.960000
326.946747	145.040000
327.040070	145.560000
327.133392	145.280000
327.226715	144.840000
327.320068	144.520000
327.413391	144.940000
327.506714	144.180000
327.600037	144.400000
327.693390	144.780000
327.786713	144.920000
327.880066	144.720000
327.973358	145.700000
328.066742	145.700000
328.160034	145.800000
328.253418	146.180000
328.346710	146.000000
328.440063	145.300000
328.533417	145.240000
328.626740	145.500000
328.720093	145.020000
328.813416	144.920000
328.906769	144.840000
329.000092	144.940000
329.093445	144.360000
329.186768	144.260000
329.280121	144.940000
329.373444	145.400000
329.466797	145.260000
329.560120	145.540000
329.653473	146.020000
329.746796	145.340000
329.840149	145.260000
329.933502	145.360000
330.026825	145.140000
330.120178	144.980000
330.213562	144.960000
330.306854	144.960000
330.400238	144.920000
330.493561	144.700000
330.586945	145.280000
330.680237	145.720000
330.773621	145.760000
330.866974	145.720000
330.960327	146.220000
331.053680	145.520000
331.147003	145.540000
331.240356	145.760000
331.333710	145.920000
331.427063	145.520000
331.520416	145.500000
331.613770	145.340000
331.707123	145.140000
331.800476	145.200000
331.893829	146.320000
331.987152	146.640000
332.080505	146.420000
332.173859	146.440000
332.267212	146.100000
332.360565	145.180000
332.453918	144.720000
332.547333	144.860000
332.640656	144.880000
332.734039	145.040000
332.827362	145.080000
332.920746	145.420000
333.014069	145.380000
333.107452	145.580000
333.200806	145.840000
333.294159	145.820000
333.387543	145.560000
333.480896	145.480000
333.574249	145.160000
333.667603	144.920000
333.760956	145.020000
333.854340	145.080000
333.947693	145.080000
334.041046	145.220000
334.134430	145.380000
334.227783	145.260000
334.321136	145.200000
334.414520	144.940000
334.507874	144.880000
334.601227	144.540000
334.694611	144.520000
334.787964	144.440000
334.881348	145.080000
334.974701	145.100000
335.068085	145.080000
335.161438	145.380000
335.254822	145.460000
335.348175	145.480000
335.441559	145.160000
335.534943	145.760000
335.628296	145.460000
335.721680	145.900000
335.815033	145.580000
335.908417	145.880000
336.001770	145.860000
336.095154	145.960000
336.188538	145.300000
336.281891	144.920000
336.375275	144.480000
336.468658	144.360000
336.562012	144.560000
336.655396	145.160000
336.748779	145.480000
336.842133	145.840000
336.935516	145.620000
337.028900	144.920000
337.122284	144.460000
337.215637	144.780000
337.309021	144.620000
337.402435	144.460000
337.495789	144.640000
337.589203	144.640000
337.682526	144.260000
337.775940	144.780000
337.869324	145.280000
337.962708	145.340000
338.056091	146.380000
338.149475	146.300000
338.242859	146.000000
338.336243	145.160000
338.429626	145.340000
338.523010	144.580000
338.616394	144.760000
338.709778	144.980000
338.803162	145.460000
338.896545	145.600000
338.989929	145.220000
339.083313	144.960000
339.176697	144.520000
339.270081	144.320000
339.363464	144.360000
339.456848	144.920000
339.550232	144.760000
339.643616	144.620000
339.737030	144.940000
339.830383	144.740000
339.923828	144.500000
340.017181	144.800000
340.110596	145.080000
340.203949	144.840000
340.297363	144.260000
340.390778	144.400000
340.484161	144.420000
340.577545	144.560000
340.670959	144.780000
340.764343	145.380000
340.857727	145.340000
340.951111	144.720000
341.044525	144.840000
341.137909	144.700000
341.231293	144.280000
341.324707	143.720000
341.418091	144.860000
341.511505	144.540000
341.604889	144.540000
341.698303	145.180000
341.791687	145.800000
341.885071	145.140000
341.978485	144.920000
342.071899	145.180000
342.165283	145.320000
342.258698	145.460000
342.352081	145.860000
342.445496	146.520000
342.538879	146.320000
342.632324	145.640000
342.725708	145.420000
342.819122	144.860000
342.912506	144.420000
343.005920	144.660000
343.099335	145.700000
343.192719	145.580000
343.286133	145.980000
343.379547	146.360000
343.472931	145.980000
343.566345	145.260000
343.659760	145.440000
343.753143	145.180000
343.846558	144.700000
343.939972	144.980000
344.033386	145.300000
344.126770	145.040000
344.220184	145.320000
344.313599	145.900000
344.407043	145.840000
344.500427	145.480000
344.593872	145.820000
344.687225	145.220000
344.780670	144.320000
344.874054	144.120000
344.967499	144.540000
345.060913	144.820000
345.154327	145.020000
345.247742	145.360000
345.341156	145.440000
345.434570	145.080000
345.527985	144.800000
345.621399	144.980000
345.714813	144.980000
345.808228	145.420000
345.901642	145.100000
345.995056	144.980000
346.088470	145.080000
346.181885	145.280000
346.275299	144.620000
346.368713	144.520000
346.462128	144.360000
346.555573	144.180000
346.648987	144.280000
346.742401	144.300000
346.835815	144.980000
346.929260	144.700000
347.022644	145.160000
347.116119	145.080000
347.209503	145.440000
347.302948	145.980000
347.396362	146.460000
347.489807	146.160000
347.583221	146.760000
347.676636	146.360000
347.770050	145.520000
347.863495	144.940000
347.956909	144.940000
348.050323	144.100000
348.143768	144.080000
348.237183	143.920000
348.330597	144.340000
348.424042	144.600000
348.517456	144.880000
348.610901	145.280000
348.704315	145.440000
348.797760	145.100000
348.891174	144.440000
348.984619	144.060000
349.078033	144.220000
349.171448	144.620000
349.264923	144.620000
349.358337	144.940000
349.451782	145.000000
349.545197	144.160000
349.638641	143.320000
349.732086	143.060000
349.825500	143.320000
349.918945	142.820000
350.012390	143.640000
350.105804	144.320000
350.199249	144.400000
350.292664	144.600000
350.386108	145.140000
350.479553	145.400000
350.572968	145.080000
350.666412	145.720000
350.759857	145.320000
350.853302	145.700000
350.946716	145.000000
351.040161	145.060000
351.133606	145.120000
351.227081	145.240000
351.320465	145.800000
351.413940	146.180000
351.507355	146.300000
351.600830	146.140000
351.694244	145.760000
351.787720	145.020000
351.881104	144.840000
351.974579	144.900000
352.067993	145.600000
352.161469	146.000000
352.254883	145.720000
352.348358	145.500000
352.441803	145.220000
352.535248	144.680000
352.628693	145.020000
352.722137	145.120000
352.815582	145.540000
352.909027	146.000000
353.002472	145.740000
353.095917	145.480000
353.189362	145.800000
353.282806	145.440000
353.376251	145.260000
353.469696	145.140000
353.563141	145.300000
353.656586	145.140000
353.750061	144.900000
353.843475	144.580000
353.936981	145.120000
354.030396	144.440000
354.123871	144.300000
354.217285	145.420000
354.310760	145.780000
354.404175	145.460000
354.497681	145.520000
354.591095	145.740000
354.684570	144.420000
354.777985	144.060000
354.871490	143.960000
354.964935	144.700000
355.058380	144.840000
355.151855	145.160000
355.245300	145.740000
355.338745	146.040000
355.432220	145.900000
355.525665	145.160000
355.619110	145.640000
355.712585	145.420000
355.806030	145.240000
355.899475	144.620000
355.992950	145.400000
356.086426	145.600000
356.179871	145.480000
356.273346	145.480000
356.366791	145.840000
356.460266	145.820000
356.553711	145.280000
356.647186	145.100000
356.740631	144.940000
356.834106	144.620000
356.927551	144.540000
357.021027	144.440000
357.114471	144.620000
357.207947	144.820000
357.301422	145.400000
357.394867	145.420000
357.488342	145.960000
357.581818	146.100000
357.675262	146.080000
357.768738	145.640000
357.862213	145.040000
357.955658	144.820000
358.049133	144.520000
358.142609	144.580000
358.236053	144.620000
358.329529	144.860000
358.423035	145.100000
358.516449	144.700000
358.609955	145.100000
358.703400	145.700000
358.796906	145.860000
358.890350	145.180000
358.983826	145.900000
359.077271	145.160000
359.170776	144.880000
359.264221	144.780000
359.357727	145.360000
359.451172	145.540000
359.544647	146.020000
359.638123	145.960000
359.731598	146.140000
359.825073	146.100000
359.918549	145.940000
360.012024	145.840000
360.105499	145.600000
360.198975	145.660000
360.292450	145.580000
360.385925	145.620000
360.479401	145.100000
360.572876	145.160000
360.666351	145.120000
360.759857	145.020000
360.853302	144.760000
360.946808	144.740000
361.040253	144.660000
361.133759	144.260000
361.227203	144.420000
361.320709	144.260000
361.414154	144.860000
361.507660	145.160000
361.601105	145.800000
361.694641	146.360000
361.788086	146.500000
361.881592	146.760000
361.975067	146.540000
362.068542	146.800000
362.162018	146.400000
362.255524	145.860000
362.348999	145.600000
362.442474	145.960000
362.535950	145.100000
362.629456	144.920000
362.722931	145.220000
362.816406	145.420000
362.909882	145.480000
363.003387	145.520000
363.096863	145.860000
363.190338	146.120000
363.283875	145.720000
363.377319	145.320000
363.470825	146.160000
363.564301	145.240000
363.657806	145.100000
363.751282	144.940000
363.844788	145.960000
363.938232	145.100000
364.031769	146.140000
364.125214	146.280000
364.218750	146.800000
364.312225	145.440000
364.405731	145.660000
364.499207	144.840000
364.592712	144.640000
364.686188	144.480000
364.779694	145.040000
364.873169	145.100000
364.966675	145.260000
365.060150	145.100000
365.153656	145.580000
365.247131	145.300000
365.340637	145.460000
365.434143	145.920000
365.527618	146.280000
365.621155	145.100000
365.714600	145.320000
365.808136	145.420000
365.901611	144.480000
365.995117	144.440000
366.088593	145.000000
366.182129	144.580000
366.275604	144.500000
366.369110	144.960000
366.462585	144.900000
366.556122	145.300000
366.649567	145.560000
366.743103	145.380000
366.836609	145.260000
366.930115	145.620000
367.023590	145.500000
367.117096	145.420000
367.210602	145.340000
367.304108	145.660000
367.397614	145.980000
367.491119	146.080000
367.584595	146.360000
367.678101	146.760000
367.771606	146.460000
367.865112	145.860000
367.958649	145.180000
368.052124	144.820000
368.145660	144.600000
368.239136	145.240000
368.332672	145.520000
368.426147	145.640000
368.519684	145.700000
368.613159	145.840000
368.706696	145.260000
368.800171	144.940000
368.893707	145.040000
368.987183	145.240000
369.080719	145.140000
369.174225	144.820000
369.267731	145.060000
369.361237	145.040000
369.454742	144.780000
369.548248	144.860000
369.641754	145.160000
369.735260	144.880000
369.828766	144.180000
369.922272	144.800000
370.015808	144.760000
370.109314	144.540000
370.202820	144.160000
370.296356	145.500000
370.389832	144.980000
370.483368	144.540000
370.576874	144.500000
370.670410	145.000000
370.763885	144.020000
370.857422	143.940000
370.950928	144.100000
371.044464	144.820000
371.137939	144.680000
371.231476	145.160000
371.324982	145.660000
371.418518	145.820000
371.512024	145.720000
371.605560	145.760000
371.699066	145.900000
371.792572	145.400000
371.886108	145.440000
371.979614	145.060000
372.073120	145.380000
372.166656	145.040000
372.260162	145.440000
372.353668	145.480000
372.447205	145.680000
372.540710	145.640000
372.634277	145.380000
372.727753	145.260000
372.821320	145.100000
372.914795	144.660000
373.008362	144.640000
373.101837	145.120000
373.195404	144.860000
373.288879	144.560000
373.382446	145.360000
373.475922	145.120000
373.569489	145.700000
373.662964	146.360000
373.756531	146.480000
373.850037	146.660000
373.943573	146.440000
374.037109	145.080000
374.130615	144.840000
374.224152	145.340000
374.317657	144.720000
374.411194	145.720000
374.504730	146.020000
374.598236	145.480000
374.691772	144.800000
374.785309	144.940000
374.878815	143.840000
374.972351	144.440000
375.065887	144.800000
375.159454	145.820000
375.252930	145.880000
375.346497	146.560000
375.440002	146.700000
375.533569	146.660000
375.627045	145.860000
375.720612	145.640000
375.814117	145.320000
375.907684	144.820000
376.001160	144.300000
376.094727	143.860000
376.188232	144.360000
376.281799	144.780000
376.375336	144.840000
376.468872	145.780000
376.562408	146.160000
376.655914	145.700000
376.749451	145.520000
376.842987	145.860000
376.936523	145.300000
377.030060	145.500000
377.123596	145.900000
377.217133	145.240000
377.310669	145.060000
377.404205	145.240000
377.497772	145.540000
377.591278	145.180000
377.684845	146.260000
377.778351	146.120000
377.871918	146.060000
377.965424	145.300000
378.058990	145.280000
378.152496	144.720000
378.246063	145.300000
378.339569	145.540000
378.433136	145.840000
378.526642	145.900000
378.620209	145.580000
378.713745	144.920000
378.807312	145.260000
378.900848	145.320000
378.994385	145.560000
379.087921	145.260000
379.181458	145.540000
379.274994	144.780000
379.368530	144.560000
379.462097	144.640000
379.555634	145.380000
379.649170	144.440000
379.742706	144.480000
379.836273	144.860000
379.929810	144.300000
380.023376	143.880000
380.116882	144.440000
380.210449	144.740000
380.303986	144.340000
380.397552	144.000000
380.491058	144.320000
380.584656	144.040000
380.678162	143.900000
380.771729	143.920000
380.865265	144.860000
380.958832	144.740000
381.052368	145.440000
381.145935	145.640000
381.239471	146.340000
381.333008	145.960000
381.426575	145.860000
381.520111	146.100000
381.613647	146.340000
381.707214	145.940000
381.800751	145.600000
381.894318	145.860000
381.987854	145.160000
382.081421	144.800000
382.174988	144.780000
382.268524	144.740000
382.362091	144.900000
382.455627	145.540000
382.549194	145.300000
382.642731	144.860000
382.736298	144.660000
382.829834	144.240000
382.923401	144.740000
383.016937	145.060000
383.110504	145.340000
383.204041	145.920000
383.297607	146.300000
383.391174	145.400000
383.484741	145.980000
383.578278	145.840000
383.671844	145.340000
383.765411	144.620000
383.858948	144.960000
383.952515	144.200000
384.046051	144.720000
384.139618	145.300000
384.233185	145.800000
384.326721	145.680000
384.420288	146.160000
384.513855	146.000000
384.607422	146.320000
384.700989	146.500000
384.794525	145.980000
384.888123	145.640000
384.981659	145.580000
385.075226	144.760000
385.168762	144.460000
385.262360	144.620000
385.355896	143.820000
385.449463	144.000000
385.542999	144.120000
385.636597	144.600000
385.730164	145.040000
385.823730	145.440000
385.917267	145.040000
386.010834	145.080000
386.104401	145.000000
386.197968	145.080000
386.291534	145.420000
386.385101	145.420000
386.478668	145.960000
386.572235	145.620000
386.665802	145.000000
386.759338	144.920000
386.852905	145.000000
386.946472	144.440000
387.040070	144.740000
387.133606	145.120000
387.227203	145.100000
387.320740	145.400000
387.414337	145.380000
387.507874	145.000000
387.601471	144.820000
387.695007	144.820000
387.788605	144.340000
387.882141	144.640000
387.975739	145.060000
388.069275	145.000000
388.162872	144.940000
388.256439	145.140000
388.350037	144.860000
388.443604	144.560000
388.537170	144.460000
388.630737	144.880000
388.724304	145.120000
388.817871	145.180000
388.911438	145.140000
389.005005	145.640000
389.098602	145.840000
389.192169	145.300000
389.285736	145.860000
389.379333	145.900000
389.472870	145.440000
389.566467	145.060000
389.660034	145.340000
389.753632	144.580000
389.847168	145.160000
389.940765	145.600000
390.034332	145.640000
390.127930	145.380000
390.221466	145.500000
390.315063	144.840000
390.408630	144.080000
390.502228	143.580000
390.595795	144.040000
390.689362	144.300000
390.782959	144.360000
390.876526	144.960000
390.970093	144.820000
391.063690	144.980000
391.157257	144.760000
391.250824	145.180000
391.344421	144.880000
391.437988	145.360000
391.531555	145.400000
391.625153	145.800000
391.718750	145.640000
391.812317	145.680000
391.905914	145.500000
391.999481	145.220000
392.093079	145.240000
392.186615	145.560000
392.280243	145.580000
392.373779	145.660000
392.467407	146.180000
392.560944	145.680000
392.654572	145.020000
392.748108	145.000000
392.841736	145.400000
392.935303	144.920000
393.028900	145.120000
393.122467	145.140000
393.216064	144.780000
393.309631	144.240000
393.403229	143.980000
393.496796	143.820000
393.590393	143.580000
393.683990	144.340000
393.777557	144.620000
393.871155	145.100000
393.964722	145.700000
394.058350	146.080000
394.151917	146.040000
394.245514	146.120000
394.339081	146.220000
394.432678	146.300000
394.526245	146.300000
394.619873	145.660000
394.713409	145.700000
394.807037	145.240000
394.900604	145.220000
394.994202	145.240000
395.087769	145.740000
395.181396	145.460000
395.274994	146.360000
395.368561	145.420000
395.462158	145.520000
395.555756	145.120000
395.649353	145.740000
395.742920	145.060000
395.836517	146.080000
395.930115	145.440000
396.023712	146.040000
396.117279	145.760000
396.210876	145.440000
396.304474	145.100000
396.398071	145.720000
396.491669	145.400000
396.585266	145.140000
396.678833	145.220000
396.772461	145.420000
396.866028	145.260000
396.959656	145.480000
397.053223	145.740000
397.146851	145.540000
397.240417	145.460000
397.334015	146.120000
397.427582	146.160000
397.521210	146.460000
397.614807	147.280000
397.708405	148.040000
397.802002	148.540000
397.895599	150.240000
397.989197	151.320000
398.082794	152.800000
398.176392	155.120000
398.269989	157.560000
398.363586	160.200000
398.457184	164.320000
398.550781	168.740000
398.644379	172.320000
398.737976	177.320000
398.831573	182.180000
398.925201	186.980000
399.018768	192.060000
399.112396	197.980000
399.205963	203.640000
399.299591	210.580000
399.393158	217.860000
399.486786	227.060000
399.580353	236.520000
399.673981	247.200000
399.767578	257.920000
399.861206	270.320000
399.954773	281.700000
400.048401	292.980000
400.141998	301.460000
400.235596	309.620000
400.329193	314.200000
400.422791	318.200000
400.516418	318.940000
400.610016	321.000000
400.703613	320.920000
400.797211	319.440000
400.890808	315.840000
400.984436	312.200000
401.078033	304.240000
401.171631	294.300000
401.265259	282.840000
401.358826	270.040000
401.452484	255.180000
401.546051	241.320000
401.639679	226.620000
401.733246	213.440000
401.826904	201.060000
401.920471	190.660000
402.014099	181.500000
402.107697	174.600000
402.201324	169.060000
402.294891	164.160000
402.388550	160.400000
402.482147	157.260000
402.575745	154.580000
402.669373	151.740000
402.762970	150.100000
402.856567	148.680000
402.950195	148.000000
403.043793	147.300000
403.137390	147.620000
403.231018	146.460000
403.324615	147.000000
403.418243	146.460000
403.511841	146.820000
403.605469	146.340000
403.699066	146.960000
403.792694	146.500000
403.886292	146.600000
403.979919	146.220000
404.073517	145.780000
404.167145	145.940000
404.260712	145.980000
404.354370	145.760000
404.447937	145.720000
404.541595	145.900000
404.635162	145.740000
404.728821	145.920000
404.822418	145.420000
404.916046	145.300000
405.009644	145.680000
405.103271	146.080000
405.196899	145.700000
405.290497	146.200000
405.384125	146.320000
405.477722	145.480000
405.571350	144.700000
405.664948	144.780000
405.758575	144.360000
405.852203	143.880000
405.945801	144.540000
406.039429	144.700000
406.133057	144.540000
406.226654	144.720000
406.320312	145.080000
406.413879	145.080000
406.507538	145.320000
406.601135	144.820000
406.694763	145.280000
406.788361	144.960000
406.882019	144.800000
406.975586	145.040000
407.069244	145.960000
407.162872	145.880000
407.256470	146.040000
407.350098	145.900000
407.443726	145.520000
407.537323	145.100000
407.630951	145.120000
407.724579	144.860000
407.818207	145.360000
407.911804	145.400000
408.005432	145.180000
408.099060	145.220000
408.192688	145.820000
408.286285	145.340000
408.379913	145.040000
408.473572	145.080000
408.567169	144.520000
408.660828	144.440000
408.754395	144.340000
408.848053	144.200000
408.941650	144.400000
409.035309	143.980000
409.128906	143.600000
409.222565	143.760000
409.316132	144.260000
409.409790	143.960000
409.503387	144.240000
409.597046	144.720000
409.690674	144.660000
409.784302	144.740000
409.877930	144.720000
409.971558	144.860000
410.065186	144.520000
410.158783	144.640000
410.252411	144.240000
410.346039	144.860000
410.439667	145.100000
410.533295	145.220000
410.626923	145.420000
410.720551	145.640000
410.814209	145.820000
410.907806	146.020000
411.001465	145.600000
411.095062	145.700000
411.188721	145.760000
411.282318	145.360000
411.375977	145.280000
411.469574	145.740000
411.563232	145.140000
411.656830	144.940000
411.750488	144.440000
411.844086	143.960000
411.937744	144.020000
412.031372	144.120000
412.125000	144.160000
412.218628	144.200000
412.312256	145.040000
412.405884	145.380000
412.499512	145.340000
412.593170	145.220000
412.686798	145.840000
412.780426	145.100000
412.874054	145.060000
412.967682	145.240000
413.061310	145.940000
413.154968	145.800000
413.248566	146.080000
413.342224	146.120000
413.435852	146.420000
413.529510	145.900000
413.623108	145.400000
413.716766	145.240000
413.810364	145.060000
413.904022	144.240000
413.997650	143.780000
414.091309	144.820000
414.184906	144.600000
414.278564	144.160000
414.372192	144.860000
414.465851	145.380000
414.559479	144.720000
414.653107	145.800000
414.746735	145.740000
414.840393	145.760000
414.934021	145.960000
415.027649	145.600000
415.121277	145.200000
415.214935	145.620000
415.308563	145.340000
415.402191	144.740000
415.495850	144.800000
415.589478	144.360000
415.683136	144.200000
415.776733	144.580000
415.870422	145.200000
415.964020	144.780000
416.057678	145.180000
416.151306	145.080000
416.244965	144.860000
416.338562	144.680000
416.432251	145.580000
416.525848	145.980000
416.619507	146.380000
416.713165	146.760000
416.806793	146.600000
416.900421	146.800000
416.994080	146.120000
417.087708	146.040000
417.181366	145.580000
417.274994	145.420000
417.368622	144.860000
417.462280	145.260000
417.555908	144.940000
417.649567	145.040000
417.743195	145.380000
417.836853	145.480000
417.930481	145.660000
418.024170	146.100000
418.117767	146.580000
418.211426	146.720000
418.305054	147.200000
418.398712	146.340000
418.492340	145.940000
418.585999	145.780000
418.679626	145.640000
418.773285	145.460000
418.866913	146.100000
418.960571	146.480000
419.054230	146.500000
419.147858	146.460000
419.241516	146.380000
419.335144	145.900000
419.428802	145.460000
419.522461	145.060000
419.616089	144.640000
419.709747	144.740000
419.803375	144.960000
419.897034	145.160000
419.990662	145.280000
420.084320	145.920000
420.177979	146.320000
420.271606	146.760000
420.365295	147.160000
420.458893	147.340000
420.552582	147.440000
420.646210	147.000000
420.739868	146.540000
420.833496	146.080000
420.927155	145.460000
421.020782	145.120000
421.114471	144.660000
421.208069	144.780000
421.301758	145.200000
421.395386	145.620000
421.489044	145.540000
421.582703	145.900000
421.676361	146.260000
421.769989	145.780000
421.863647	146.320000
421.957306	146.340000
422.050934	146.320000
422.144592	145.780000
422.238251	145.580000
422.331909	144.920000
422.425537	144.820000
422.519196	144.820000
422.612854	144.280000
422.706543	144.140000
422.800140	144.660000
422.893829	144.220000
422.987457	143.880000
423.081146	144.400000
423.174744	145.260000
423.268433	144.660000
423.362061	144.580000
423.455750	144.580000
423.549347	144.560000
423.643036	143.740000
423.736664	144.160000
423.830353	144.800000
423.924011	145.420000
424.017639	145.180000
424.111298	145.020000
424.204956	145.040000
424.298615	144.700000
424.392273	143.880000
424.485931	144.020000
424.579559	144.500000
424.673218	144.280000
424.766876	144.820000
424.860535	144.920000
424.954193	145.020000
425.047882	145.380000
425.141510	145.200000
425.235199	144.940000
425.328796	144.860000
425.422485	144.360000
425.516113	143.660000
425.609802	143.880000
425.703430	143.720000
425.797119	143.920000
425.890747	144.260000
425.984436	144.500000
426.078064	144.360000
426.171753	144.680000
426.265411	144.440000
426.359070	144.640000
426.452728	144.540000
426.546356	144.800000
426.640015	144.480000
426.733673	144.820000
426.827332	144.740000
426.920990	145.420000
427.014648	144.760000
427.108307	144.980000
427.201965	145.620000
427.295624	145.560000
427.389282	144.620000
427.482941	145.000000
427.576630	145.160000
427.670258	143.960000
427.763947	143.940000
427.857574	144.540000
427.951263	144.500000
428.044922	144.340000
428.138611	144.940000
428.232239	145.520000
428.325928	145.640000
428.419556	146.200000
428.513245	145.740000
428.606903	145.780000
428.700562	145.180000
428.794220	144.480000
428.887878	143.900000
428.981537	144.340000
429.075195	144.280000
429.168854	144.760000
429.262512	144.740000
429.356201	144.920000
429.449860	144.740000
429.543518	144.800000
429.637177	144.940000
429.730835	145.380000
429.824493	145.240000
429.918182	145.620000
430.011810	145.260000
430.105530	144.740000
430.199158	145.100000
430.292847	145.380000
430.386475	144.960000
430.480164	144.780000
430.573792	144.400000
430.667511	143.780000
430.761139	143.340000
430.854828	143.720000
430.948456	143.920000
431.042145	144.400000
431.135834	144.320000
431.229492	144.700000
431.323151	144.780000
431.416809	144.900000
431.510468	144.920000
431.604156	144.860000
431.697815	144.820000
431.791473	144.020000
431.885132	143.340000
431.978821	143.980000
432.072479	144.480000
432.166138	144.920000
432.259827	145.160000
432.353485	146.080000
432.447174	145.660000
432.540802	145.260000
432.634491	144.980000
432.728149	145.580000
432.821838	145.680000
432.915466	145.340000
433.009186	145.440000
433.102814	144.860000
433.196503	144.480000
433.290131	144.420000
433.383850	144.840000
433.477509	145.020000
433.571167	145.820000
433.664856	146.120000
433.758514	146.440000
433.852173	146.280000
433.945862	145.980000
434.039520	145.760000
434.133179	145.200000
434.226868	144.640000
434.320526	144.100000
434.414185	144.660000
434.507874	144.220000
434.601562	144.660000
434.695221	144.580000
434.788910	144.780000
434.882538	144.980000
434.976257	144.920000
435.069885	145.080000
435.163574	145.280000
435.257233	144.980000
435.350922	144.480000
435.444580	144.240000
435.538269	144.060000
435.631897	144.280000
435.725616	145.100000
435.819275	145.640000
435.912964	146.480000
436.006622	146.600000
436.100311	146.520000
436.193970	145.880000
436.287628	145.260000
436.381317	144.840000
436.474976	144.320000
436.568665	143.760000
436.662323	143.980000
436.756012	144.320000
436.849670	144.100000
436.943390	144.300000
437.037018	144.260000
437.130737	144.100000
437.224365	143.860000
437.318085	144.440000
437.411713	144.580000
437.505432	145.280000
437.599060	145.700000
437.692780	146.360000
437.786407	145.980000
437.880127	145.880000
437.973755	145.500000
438.067474	145.000000
438.161133	144.640000
438.254822	145.160000
438.348480	145.080000
438.442169	145.760000
438.535828	146.420000
438.629517	145.980000
438.723175	145.320000
438.816864	145.840000
438.910553	145.180000
439.004211	144.980000
439.097900	145.020000
439.191559	145.140000
439.285248	144.320000
439.378906	144.680000
439.472626	144.360000
439.566284	144.460000
439.659973	144.780000
439.753632	144.840000
439.847321	145.120000
439.940979	145.300000
440.034698	145.260000
440.128326	144.700000
440.222046	144.600000
440.315674	143.800000
440.409393	143.920000
440.503082	143.780000
440.596741	144.300000
440.690430	144.740000
440.784088	144.860000
440.877777	144.180000
440.971466	144.460000
441.065125	144.200000
441.158813	143.940000
441.252502	143.780000
441.346161	144.240000
441.439850	144.220000
441.533539	144.000000
441.627197	144.320000
441.720886	144.580000
441.814606	145.140000
441.908234	145.160000
442.001953	145.380000
442.095612	145.400000
442.189301	145.400000
442.282959	145.180000
442.376678	144.600000
442.470306	145.180000
442.564026	144.980000
442.657684	144.940000
442.751404	144.680000
442.845032	145.740000
442.938751	145.020000
443.032440	145.460000
443.126099	145.240000
443.219788	145.680000
443.313477	145.340000
443.407166	145.620000
443.500824	145.300000
443.594513	145.660000
443.688202	145.300000
443.781891	144.560000
443.875549	144.100000
443.969238	143.980000
444.062927	144.240000
444.156647	144.120000
444.250275	144.940000
444.343994	145.300000
444.437653	145.620000
444.531372	145.280000
444.625031	144.980000
444.718719	144.460000
444.812378	144.280000
444.906097	143.940000
444.999756	143.740000
445.093445	144.020000
445.187103	144.240000
445.280823	144.840000
445.374512	144.560000
445.468201	144.840000
445.561859	144.720000
445.655548	144.680000
445.749237	144.000000
445.842926	144.240000
445.936615	144.480000
446.030304	144.320000
446.123962	144.540000
446.217651	144.500000
446.311340	144.860000
446.405029	144.080000
446.498749	143.960000
446.592407	143.660000
446.686096	144.280000
446.779755	144.300000
446.873474	144.640000
446.967133	145.260000
447.060852	145.100000
447.154510	144.560000
447.248230	144.480000
447.341858	144.360000
447.435577	143.940000
447.529236	144.000000
447.622955	144.360000
447.716644	144.340000
447.810333	144.800000
447.904022	145.460000
447.997711	145.500000
448.091400	145.760000
448.185059	145.680000
448.278748	145.980000
448.372437	145.360000
448.466125	145.800000
448.559814	145.160000
448.653503	145.520000
448.747192	145.180000
448.840912	145.640000
448.934570	145.500000
449.028290	146.140000
449.121948	145.780000
449.215637	145.520000
449.309296	145.000000
449.403015	145.140000
449.496674	144.860000
449.590393	144.740000
449.684052	144.520000
449.777771	145.440000
449.871429	144.820000
449.965149	144.780000
450.058838	145.100000
450.152527	145.760000
450.246216	145.160000
450.339905	145.440000
450.433594	145.200000
450.527283	146.080000
450.620972	145.960000
450.714661	146.160000
450.808350	146.140000
450.902039	146.500000
450.995728	145.860000
451.089417	145.540000
451.183105	145.440000
451.276794	145.820000
451.370514	145.240000
451.464172	144.180000
451.557892	144.240000
451.651550	144.320000
451.745270	143.800000
451.838928	143.700000
451.932648	144.560000
452.026306	145.020000
452.120026	144.580000
452.213684	145.180000
452.307404	145.520000
452.401062	145.520000
452.494781	145.140000
452.588470	145.420000
452.682159	144.980000
452.775848	145.260000
452.869537	144.780000
452.963226	144.720000
453.056915	144.360000
453.150604	144.240000
453.244293	144.260000
453.337982	145.120000
453.431671	145.360000
453.525360	146.240000
453.619049	146.660000
453.712769	146.420000
453.806427	145.640000
453.900146	145.200000
453.993805	144.700000
454.087555	145.020000
454.181213	145.020000
454.274933	145.200000
454.368591	145.220000
454.462311	145.300000
454.555969	144.780000
454.649689	145.380000
454.743347	145.020000
454.837067	146.020000
454.930756	146.300000
455.024445	146.520000
455.118134	146.420000
455.211853	147.000000
455.305542	146.280000
455.399231	145.760000
455.492920	145.600000
455.586609	145.380000
455.680298	145.100000
455.773987	144.920000
455.867676	144.780000
455.961365	144.820000
456.055084	144.900000
456.148773	144.780000
456.242493	144.800000
456.336151	145.160000
456.429871	145.440000
456.523529	145.280000
456.617249	145.100000
456.710907	145.700000
456.804626	145.520000
456.898315	145.160000
456.992035	145.320000
457.085693	145.200000
457.179413	144.500000
457.273102	145.300000
457.366791	145.420000
457.460480	145.500000
457.554199	146.380000
457.647888	146.520000
457.741577	145.900000
457.835266	145.820000
457.928955	145.500000
458.022644	145.500000
458.116364	145.620000
458.210052	145.680000
458.303741	145.660000
458.397461	145.460000
458.491119	144.640000
458.584839	144.340000
458.678528	144.100000
458.772247	144.100000
458.865906	144.500000
458.959625	145.640000
459.053284	145.920000
459.147003	145.760000
459.240692	146.380000
459.334412	146.200000
459.428070	145.460000
459.521790	145.280000
459.615479	145.220000
459.709198	145.000000
459.802887	144.800000
459.896576	144.680000
459.990265	145.000000
460.083954	145.320000
460.177673	144.680000
460.271362	144.940000
460.365051	144.860000
460.458740	144.460000
460.552429	144.080000
460.646149	144.160000
460.739838	143.780000
460.833527	144.100000
460.927246	144.020000
461.020905	144.120000
461.114655	144.320000
461.208313	144.580000
461.302032	144.040000
461.395691	144.620000
461.489441	144.800000
461.583099	144.460000
461.676819	144.340000
461.770477	145.040000
461.864197	144.420000
461.957916	144.320000
462.051605	144.160000
462.145294	145.240000
462.238983	144.700000
462.332703	145.380000
462.426392	146.140000
462.520081	146.340000
462.613770	145.300000
462.707489	145.580000
462.801178	145.160000
462.894867	144.740000
462.988556	144.680000
463.082275	144.900000
463.175964	144.880000
463.269684	145.200000
463.363342	144.980000
463.457092	144.680000
463.550751	144.980000
463.644470	144.980000
463.738129	144.520000
463.831879	144.360000
463.925537	145.300000
464.019257	145.200000
464.112946	145.020000
464.206665	144.940000
464.300323	145.300000
464.394043	145.000000
464.487762	144.520000
464.581451	144.980000
464.675140	145.220000
464.768829	145.180000
464.862549	145.380000
464.956238	145.860000
465.049927	145.760000
465.143646	145.860000
465.237335	145.620000
465.331024	145.860000
465.424713	146.080000
465.518433	146.140000
465.612152	146.020000
465.705811	146.260000
465.799561	145.540000
465.893219	144.900000
465.986938	144.760000
466.080597	144.620000
466.174347	144.720000
466.268005	145.020000
466.361725	145.000000
466.455414	144.880000
466.549133	144.720000
466.642792	144.780000
466.736542	144.300000
466.830231	144.440000
466.923920	144.540000
467.017609	144.900000
467.111328	144.560000
467.205017	145.100000
467.298706	144.980000
467.392426	145.040000
467.486115	145.140000
467.579803	144.760000
467.673523	144.860000
467.767212	145.220000
467.860901	145.120000
467.954651	145.200000
468.048309	146.000000
468.142029	145.700000
468.235718	145.340000
468.329437	145.100000
468.423096	145.160000
468.516846	144.560000
468.610504	144.520000
468.704224	144.620000
468.797913	144.920000
468.891632	144.700000
468.985291	145.060000
469.079010	145.300000
469.172729	144.920000
469.266418	145.240000
469.360107	145.500000
469.453827	145.320000
469.547516	145.220000
469.641205	145.980000
469.734924	145.820000
469.828613	145.820000
469.922302	146.200000
470.016022	146.200000
470.109711	145.940000
470.203430	145.860000
470.297150	145.440000
470.390808	145.140000
470.484558	145.000000
470.578217	145.260000
470.671936	145.440000
470.765625	145.980000
470.859344	146.060000
470.953003	146.300000
471.046753	146.080000
471.140411	145.380000
471.234131	145.220000
471.327820	145.660000
471.421539	145.660000
471.515228	145.120000
471.608948	145.420000
471.702637	144.900000
471.796326	144.560000
471.890045	144.640000
471.983734	144.980000
472.077423	144.600000
472.171143	144.980000
472.264832	144.960000
472.358521	144.660000
472.452240	144.460000
472.545929	145.520000
472.639648	145.500000
472.733337	145.560000
472.827057	145.840000
472.920746	146.060000
473.014465	146.060000
473.108124	146.120000
473.201874	146.220000
473.295532	146.000000
473.389252	146.180000
473.482941	145.800000
473.576660	145.560000
473.670319	145.160000
473.764069	145.380000
473.857727	145.460000
473.951477	145.440000
474.045166	145.880000
474.138855	145.900000
474.232574	145.780000
474.326263	145.800000
474.419952	145.880000
474.513672	145.860000
474.607361	145.820000
474.701050	145.700000
474.794769	145.800000
474.888458	146.040000
474.982178	145.780000
475.075867	145.740000
475.169586	145.780000
475.263275	145.620000
475.356995	145.260000
475.450653	145.100000
475.544403	145.160000
475.638062	145.960000
475.731812	145.440000
475.825470	145.380000
475.919189	145.740000
476.012878	145.860000
476.106598	144.900000
476.200256	145.500000
476.294006	145.440000
476.387695	145.260000
476.481384	145.260000
476.575104	145.320000
476.668793	144.780000
476.762512	144.440000
476.856201	144.660000
476.949890	144.600000
477.043610	144.240000
477.137299	144.320000
477.230988	144.860000
477.324707	144.760000
477.418396	145.120000
477.512146	145.720000
477.605804	145.960000
477.699524	145.940000
477.793213	145.740000
477.886932	145.480000
477.980591	145.080000
478.074341	144.780000
478.167999	144.300000
478.261749	144.460000
478.355408	144.120000
478.449127	144.580000
478.542816	145.540000
478.636536	146.540000
478.730225	146.420000
478.823944	146.920000
478.917633	146.740000
479.011322	146.400000
479.105042	145.980000
479.198730	146.400000
479.292450	145.900000
479.386139	145.900000
479.479828	146.000000
479.573547	146.380000
479.667267	146.040000
479.760925	146.360000
479.854675	146.920000
479.948334	146.640000
480.042084	145.840000
480.135742	146.280000
480.229462	145.760000
480.323151	145.560000
480.416870	145.080000
480.510529	145.140000
480.604279	144.360000
480.697937	145.060000
480.791656	144.300000
480.885345	144.320000
480.979065	144.340000
481.072754	144.900000
481.166473	145.160000
481.260132	145.380000
481.353882	145.580000
481.447540	145.440000
481.541260	145.440000
481.635010	144.680000
481.728668	144.560000
481.822388	144.360000
481.916077	144.620000
482.009796	144.400000
482.103485	144.720000
482.197205	144.880000
482.290863	145.340000
482.384613	145.120000
482.478271	144.800000
482.571991	144.660000
482.665680	144.880000
482.759399	145.260000
482.853058	145.820000
482.946808	145.900000
483.040466	145.660000
483.134216	145.220000
483.227875	144.360000
483.321594	144.660000
483.415283	144.800000
483.509003	145.120000
483.602661	145.080000
483.696411	145.540000
483.790070	144.900000
483.883789	144.940000
483.977478	144.960000
484.071198	145.020000
484.164917	144.540000
484.258606	144.200000
484.352325	144.260000
484.445984	144.180000
484.539734	144.360000
484.633392	144.300000
484.727142	144.780000
484.820801	144.540000
484.914520	144.540000
485.008209	144.720000
485.101929	145.200000
485.195587	144.900000
485.289337	144.940000
485.382996	145.060000
485.476715	144.860000
485.570404	145.000000
485.664124	144.780000
485.757782	145.300000
485.851532	145.020000
485.945190	145.140000
486.038910	145.080000
486.132599	145.860000
486.226318	144.920000
486.319977	145.120000
486.413727	145.440000
486.507446	144.880000
486.601105	144.100000
486.694855	144.440000
486.788513	144.180000
486.882233	143.940000
486.975922	144.340000
487.069641	144.480000
487.163300	144.560000
487.257050	145.840000
487.350708	145.480000
487.444427	144.980000
487.538116	144.820000
487.631836	144.740000
487.725494	144.020000
487.819214	144.280000
487.912903	144.720000
488.006622	145.320000
488.100281	145.660000
488.194031	145.240000
488.287689	145.760000
488.381409	146.540000
488.475098	146.280000
488.568817	146.460000
488.662476	146.320000
488.756226	145.560000
488.849945	144.380000
488.943604	144.460000
489.037354	144.280000
489.131012	144.360000
489.224731	144.240000
489.318390	144.580000
489.412140	144.580000
489.505798	144.380000
489.599518	144.360000
489.693207	144.960000
489.786926	144.620000
489.880585	144.080000
489.974335	144.600000
490.067993	145.540000
490.161713	145.260000
490.255371	146.140000
490.349121	146.520000
490.442780	146.100000
490.536499	145.420000
490.630188	145.700000
490.723907	145.060000
490.817566	144.900000
490.911285	144.800000
491.004974	144.560000
491.098694	144.020000
491.192413	144.540000
491.286102	144.520000
491.379822	144.720000
491.473480	144.920000
491.567200	144.980000
491.660889	144.420000
491.754608	144.700000
491.848267	144.520000
491.941986	144.640000
492.035675	144.820000
492.129395	145.280000
492.223053	145.220000
492.316772	145.180000
492.410461	144.840000
492.504181	145.020000
492.597839	144.480000
492.691559	144.540000
492.785248	144.660000
492.878967	145.040000
492.972626	144.620000
493.066345	144.800000
493.160034	144.300000
493.253754	144.360000
493.347412	143.880000
493.441132	144.140000
493.534882	144.540000
493.628540	145.100000
493.722260	145.240000
493.815918	145.600000
493.909668	145.880000
494.003326	146.140000
494.097046	145.940000
494.190704	145.800000
494.284454	145.780000
494.378113	145.780000
494.471832	145.180000
494.565491	144.840000
494.659210	144.800000
494.752899	144.940000
494.846619	144.460000
494.940277	144.820000
495.033997	144.860000
495.127686	144.760000
495.221405	144.500000
495.315063	144.760000
495.408783	144.500000
495.502441	145.040000
495.596191	145.200000
495.689850	145.220000
495.783569	145.420000
495.877228	145.600000
495.970947	145.000000
496.064697	144.700000
496.158356	145.640000
496.252075	145.480000
496.345734	145.400000
496.439453	146.680000
496.533142	147.040000
496.626862	146.760000
496.720520	146.820000
496.814240	146.860000
496.907898	146.300000
497.001617	146.400000
497.095306	145.620000
497.189026	145.660000
497.282684	145.720000
497.376404	145.760000
497.470062	145.320000
497.563782	145.660000
497.657471	145.540000
497.751190	145.100000
497.844849	144.980000
497.938568	145.380000
498.032227	145.000000
498.125946	145.220000
498.219635	145.160000
498.313354	145.180000
498.407074	144.840000
498.500732	144.940000
498.594452	144.680000
498.688110	144.480000
498.781830	144.020000
498.875519	143.860000
498.969238	143.740000
499.062897	143.660000
499.156616	144.320000
499.250275	144.400000
499.343994	144.240000
499.437653	144.300000
499.531372	144.360000
499.625061	144.780000
499.718781	145.220000
499.812439	146.000000
499.906158	146.000000
499.999817	145.880000
500.093536	145.220000
500.187195	145.180000
500.280914	145.080000
500.374573	145.400000
500.468323	145.200000
500.561981	145.580000
500.655701	145.060000
500.749420	144.960000
500.843079	145.140000
500.936798	145.580000
501.030457	145.780000
501.124176	146.260000
501.217834	145.980000
501.311554	145.680000
501.405212	145.480000
501.498962	144.620000
501.592621	144.480000
501.686340	144.760000
501.779999	144.840000
501.873718	144.940000
501.967377	145.540000
502.061096	145.820000
502.154755	145.300000
502.248474	145.320000
502.342133	145.460000
502.435852	145.100000
502.529510	145.140000
502.623230	146.120000
502.716888	145.600000
502.810608	145.620000
502.904266	146.160000
502.997986	145.720000
503.091705	144.860000
503.185364	145.060000
503.279083	144.720000
503.372772	144.600000
503.466492	144.180000
503.560150	144.500000
503.653870	144.560000
503.747528	144.840000
503.841248	144.360000
503.934906	144.980000
504.028625	144.680000
504.122284	145.160000
504.216003	145.740000
504.309662	145.760000
504.403381	145.940000
504.497040	146.180000
504.590759	145.700000
504.684418	145.680000
504.778137	146.240000
504.871796	146.420000
504.965515	146.260000
505.059174	146.220000
505.152893	145.460000
505.246521	144.720000
505.340240	144.160000
505.433899	144.420000
505.527618	144.780000
505.621338	145.400000
505.714996	145.460000
505.808716	145.720000
505.902374	146.120000
505.996094	146.180000
506.089752	145.380000
506.183472	145.480000
506.277130	145.560000
506.370850	144.960000
506.464508	144.580000
506.558228	144.860000
506.651886	144.900000
506.745605	145.100000
506.839264	145.120000
506.932983	145.560000
507.026611	145.660000
507.120331	146.160000
507.213989	145.460000
507.307709	145.720000
507.401367	145.620000
507.495087	146.460000
507.588745	145.800000
507.682465	146.820000
507.776123	146.640000
507.869843	146.740000
507.963531	145.940000
508.057190	146.580000
508.150909	145.600000
508.244568	145.720000
508.338287	145.300000
508.431946	145.080000
508.525665	144.620000
508.619324	144.520000
508.713013	144.680000
508.806671	145.240000
508.900391	146.200000
508.994049	146.380000
509.087769	146.400000
509.181427	145.940000
509.275146	145.660000
509.368774	144.680000
509.462494	144.560000
509.556152	144.840000
509.649872	145.420000
509.743530	145.480000
509.837250	145.800000
509.930878	145.780000
510.024597	145.560000
510.118256	145.080000
510.211975	144.620000
510.305695	144.360000
510.399353	144.800000
510.493042	145.540000
510.586700	145.520000
510.680420	146.160000
510.774078	146.260000
510.867798	146.420000
510.961426	145.720000
511.055145	145.720000
511.148804	145.520000
511.242523	145.720000
511.336151	145.360000
511.429871	145.640000
511.523529	145.540000
511.617249	145.240000
511.710876	144.960000
511.804596	144.680000
511.898254	144.420000
511.991974	144.920000
512.085632	144.920000
512.179321	145.180000
512.272949	145.520000
512.366699	146.080000
512.460327	145.900000
512.554077	146.740000
512.647766	146.540000
512.741394	146.480000
512.835144	146.520000
512.928772	146.460000
513.022461	146.080000
513.116150	145.920000
513.209839	146.360000
513.303467	145.640000
513.397217	145.240000
513.490845	144.860000
513.584595	144.760000
513.678223	143.940000
513.771912	143.740000
513.865601	144.200000
513.959290	144.060000
514.052917	144.300000
514.146667	145.040000
514.240295	145.880000
514.333984	146.180000
514.427673	145.980000
514.521362	146.240000
514.614990	145.720000
514.708740	145.580000
514.802368	145.360000
514.896057	145.940000
514.989746	146.500000
515.083435	146.460000
515.177124	146.640000
515.270752	146.260000
515.364502	146.260000
515.458130	145.760000
515.551819	145.760000
515.645508	145.360000
515.739197	145.460000
515.832825	145.460000
515.926575	145.200000
516.020203	145.480000
516.113892	146.120000
516.207520	146.120000
516.301270	146.080000
516.394897	146.400000
516.488586	146.740000
516.582275	146.300000
516.675964	146.000000
516.769592	145.720000
516.863281	145.880000
516.956970	145.880000
517.050659	145.720000
517.144287	146.040000
517.238037	146.220000
517.331665	145.800000
517.425354	145.320000
517.519043	145.180000
517.612732	145.520000
517.706421	145.240000
517.800049	144.940000
517.893738	144.820000
517.987427	144.700000
518.081116	144.400000
518.174744	144.300000
518.268433	144.920000
518.362122	145.480000
518.455811	145.420000
518.549438	146.060000
518.643127	147.260000
518.736816	146.840000
518.830505	146.420000
518.924133	146.580000
519.017822	146.300000
519.111511	145.480000
519.205200	145.900000
519.298828	145.660000
519.392517	145.500000
519.486206	145.760000
519.579895	145.980000
519.673523	145.660000
519.767212	146.020000
519.860901	146.920000
519.954590	146.660000
520.048279	146.180000
520.141907	146.000000
520.235596	146.840000
520.329224	146.380000
520.422974	145.980000
520.516602	146.120000
520.610291	145.900000
520.703918	145.100000
520.797607	144.960000
520.891296	145.220000
520.984985	145.260000
521.078613	145.900000
521.172302	145.540000
521.265930	146.220000
521.359680	146.480000
521.453308	146.440000
521.546997	146.200000
521.640625	146.520000
521.734314	145.720000
521.827942	145.360000
521.921692	145.680000
522.015320	145.800000
522.109009	145.220000
522.202698	145.260000
522.296326	145.200000
522.390015	145.060000
522.483704	144.900000
522.577393	145.140000
522.671021	144.960000
522.764709	144.480000
522.858337	144.700000
522.952026	144.960000
523.045654	145.300000
523.139404	146.140000
523.233032	146.580000
523.326721	146.160000
523.420349	146.140000
523.514038	145.520000
523.607666	145.340000
523.701355	145.100000
523.795044	145.420000
523.888733	145.360000
523.982361	145.900000
524.076050	145.460000
524.169678	145.860000
524.263367	145.380000
524.356995	144.900000
524.450684	144.700000
524.544373	144.620000
524.638062	144.440000
524.731750	144.700000
524.825378	145.000000
524.919067	144.540000
525.012695	144.680000
525.106384	144.680000
525.200012	144.700000
525.293701	144.600000
525.387329	145.080000
525.481018	145.200000
525.574646	145.360000
525.668396	145.320000
525.762024	145.800000
525.855713	146.160000
525.949341	145.600000
526.043030	145.380000
526.136658	145.380000
526.230347	144.940000
526.323975	144.400000
526.417664	144.740000
526.511292	145.000000
526.604980	145.100000
526.698608	145.280000
526.792297	145.500000
526.885925	145.520000
526.979614	145.840000
527.073303	145.840000
527.166931	145.580000
527.260620	145.780000
527.354309	146.500000
527.447998	146.020000
527.541626	145.740000
527.635315	146.060000
527.728943	146.460000
527.822632	146.300000
527.916260	146.460000
528.009949	146.900000
528.103577	146.400000
528.197266	145.840000
528.290894	145.660000
528.384583	145.440000
528.478210	145.120000
528.571899	145.440000
528.665527	145.880000
528.759216	145.860000
528.852844	146.520000
528.946533	146.720000
529.040161	146.600000
529.133850	146.000000
529.227478	145.980000
529.321167	145.920000
529.414856	146.140000
529.508484	146.740000
529.602173	146.740000
529.695801	146.500000
529.789490	146.180000
529.883057	145.960000
529.976746	145.700000
530.070374	146.420000
530.164062	146.540000
530.257690	146.740000
530.351379	146.980000
530.445007	147.020000
530.538696	146.120000
530.632324	146.440000
530.726013	146.280000
530.819641	145.980000
530.913330	145.980000
531.006958	146.140000
531.100647	146.020000
531.194275	145.440000
531.287964	145.320000
531.381592	144.920000
531.475220	145.140000
531.568848	144.880000
531.662537	145.040000
531.756226	145.560000
531.849854	145.820000
531.943542	145.760000
532.037170	145.420000
532.130859	145.960000
532.224487	145.360000
532.318176	144.860000
532.411804	145.320000
532.505432	145.960000
532.599060	145.540000
532.692749	145.600000
532.786377	146.520000
532.880066	145.680000
532.973694	144.980000
533.067383	145.100000
533.161011	145.220000
533.254639	144.700000
533.348267	144.600000
533.441956	145.100000
533.535583	144.960000
533.629272	144.920000
533.722900	144.720000
533.816589	145.040000
533.910156	145.120000
534.003845	144.800000
534.097534	145.020000
534.191162	145.540000
534.284851	145.880000
534.378479	145.520000
534.472107	145.880000
534.565735	145.600000
534.659424	145.800000
534.753052	145.680000
534.846741	145.640000
534.940369	146.060000
535.033997	145.940000
535.127625	145.420000
535.221313	145.840000
535.314941	145.620000
535.408630	144.760000
535.502197	145.020000
535.595886	144.900000
535.689514	144.540000
535.783203	145.340000
535.876831	145.900000
535.970459	146.180000
536.064087	146.220000
536.157776	146.140000
536.251404	146.000000
536.345093	145.960000
536.438721	145.620000
536.532349	145.660000
536.626038	145.420000
536.719666	145.480000
536.813293	145.280000
536.906921	145.440000
537.000610	145.840000
537.094238	146.200000
537.187866	145.800000
537.281494	145.720000
537.375183	145.860000
537.468811	145.440000
537.562439	145.000000
537.656067	145.200000
537.749756	145.520000
537.843384	145.700000
537.937012	146.020000
538.030640	145.780000
538.124329	145.560000
538.217896	145.880000
538.311584	145.760000
538.405212	145.540000
538.498901	146.140000
538.592468	146.760000
538.686157	146.040000
538.779785	145.340000
538.873413	145.380000
538.967102	144.920000
539.060730	144.420000
539.154358	145.120000
539.247986	145.480000
539.341675	145.640000
539.435242	146.060000
539.528931	146.160000
539.622559	145.620000
539.716187	146.360000
539.809814	146.180000
539.903503	145.880000
539.997070	145.720000
540.090759	145.700000
540.184387	144.840000
540.278015	145.260000
540.371643	145.720000
540.465332	145.840000
540.558899	145.840000
540.652588	145.760000
540.746216	145.240000
540.839844	145.260000
540.933472	145.360000
541.027100	145.060000
541.120728	145.260000
541.214417	145.380000
541.308044	145.460000
541.401672	145.280000
541.495300	145.320000
541.588928	145.240000
541.682617	145.020000
541.776184	144.560000
541.869873	144.780000
541.963440	145.320000
542.057129	145.520000
542.150757	145.420000
542.244385	145.520000
542.338013	144.860000
542.431641	144.640000
542.525269	144.660000
542.618958	145.540000
542.712524	145.580000
542.806213	145.740000
542.899780	146.080000
542.993469	145.520000
543.087036	144.680000
543.180725	144.300000
543.274292	144.560000
543.367981	144.500000
543.461548	145.080000
543.555237	145.380000
543.648926	145.760000
543.742493	146.160000
543.836182	145.980000
543.929749	145.960000
544.023437	145.620000
544.117004	145.560000
544.210693	145.540000
544.304260	145.360000
544.397949	145.220000
544.491516	145.660000
544.585205	145.780000
544.678772	145.020000
544.772461	145.700000
544.866028	145.620000
544.959717	145.700000
545.053284	145.360000
545.146973	145.860000
545.240540	145.580000
545.334229	146.320000
545.427795	146.200000
545.521423	146.340000
545.615051	146.360000
545.708679	146.500000
545.802307	145.740000
545.895935	145.780000
545.989624	146.480000
546.083191	146.320000
546.176880	146.080000
546.270447	145.880000
546.364136	146.260000
546.457703	145.780000
546.551331	145.480000
546.644958	145.680000
546.738586	146.080000
546.832214	145.540000
546.925842	145.520000
547.019409	145.840000
547.113098	145.280000
547.206665	145.060000
547.300354	144.980000
547.393921	145.080000
547.487549	145.580000
547.581177	145.640000
547.674805	145.440000
547.768433	144.860000
547.862061	144.640000
547.955627	144.020000
548.049316	144.660000
548.142883	145.160000
548.236572	145.960000
548.330139	146.400000
548.423767	146.360000
548.517456	146.080000
548.611023	146.100000
548.704651	145.640000
548.798279	145.360000
548.891907	145.740000
548.985474	145.400000
549.079163	145.620000
549.172729	145.420000
549.266357	145.100000
549.359985	144.960000
549.453613	144.680000
549.547180	144.060000
549.640869	144.580000
549.734436	144.660000
549.828064	145.160000
549.921631	145.020000
550.015320	144.820000
550.108887	145.060000
550.202515	145.180000
550.296143	144.420000
550.389771	144.760000
550.483337	144.840000
550.576965	144.840000
550.670593	144.980000
550.764221	145.180000
550.857849	145.400000
550.951477	145.220000
551.045105	144.680000
551.138672	144.680000
551.232300	144.500000
551.325928	144.580000
551.419556	145.000000
551.513123	145.200000
551.606750	144.780000
551.700378	144.880000
551.794006	144.920000
551.887573	144.960000
551.981201	145.320000
552.074768	145.160000
552.168457	144.940000
552.262024	145.460000
552.355652	145.240000
552.449219	145.480000
552.542847	145.920000
552.636475	145.900000
552.730103	145.240000
552.823669	145.320000
552.917297	144.680000
553.010864	144.720000
553.104553	145.060000
553.198181	144.680000
553.291748	145.060000
553.385376	145.200000
553.478943	144.940000
553.572571	144.860000
553.666199	145.560000
553.759827	145.220000
553.853394	144.780000
553.947021	145.100000
554.040588	145.320000
554.134216	145.040000
554.227783	145.800000
554.321411	146.560000
554.415039	146.160000
554.508667	145.880000
554.602234	146.100000
554.695862	145.160000
554.789429	144.980000
554.883057	145.400000
554.976624	145.600000
555.070251	145.620000
555.163818	145.920000
555.257507	146.160000
555.351074	146.220000
555.444702	147.000000
555.538330	146.580000
555.631897	146.820000
555.725525	146.420000
555.819092	145.980000
555.912720	144.900000
556.006287	145.600000
556.099915	145.160000
556.193481	145.380000
556.287109	145.840000
556.380676	145.740000
556.474304	145.460000
556.567871	145.840000
556.661499	145.400000
556.755066	145.260000
556.848694	145.560000
556.942261	145.120000
557.035889	145.140000
557.129517	145.420000
557.223145	145.780000
557.316711	145.820000
557.410339	146.340000
557.503906	146.080000
557.597473	146.420000
557.691040	146.060000
557.784668	145.840000
557.878296	145.580000
557.971863	146.080000
558.065491	146.000000
558.159058	145.800000
558.252686	146.960000
558.346252	147.780000
558.439880	146.880000
558.533447	146.320000
558.627075	146.040000
558.720642	145.020000
558.814270	144.040000
558.907837	144.140000
559.001465	144.040000
559.095032	144.700000
559.188660	144.940000
559.282227	144.820000
559.375854	145.800000
559.469360	145.900000
559.562988	146.060000
559.656555	145.860000
559.750183	146.460000
559.843750	146.000000
559.937378	146.280000
560.030945	145.740000
560.124573	0.000000
560.218140	0.000000
560.311707	0.000000
560.405334	0.000000
560.498901	0.000000
560.592529	0.000000
560.686096	0.000000
560.779724	0.000000
560.873291	0.000000
560.966858	0.000000
561.060425	0.000000
561.154053	0.000000
561.247620	0.000000
561.341248	0.000000
561.434814	0.000000
561.528381	0.000000
561.621948	0.000000
561.715576	0.000000
561.809143	0.000000
561.902771	0.000000
561.996277	0.000000
562.089905	0.000000
562.183472	0.000000
562.277100	0.000000
