Model Number: SPM-002-B   
Serial Number: 70087108
Firmware Version: 004.15.4
Exposure Time: 100000.000000us
Data Taken on: 11-12-2020 18:51:14.808
Wavelength	Amplitude
221.570786	0.000000
221.663406	0.000000
221.756027	0.000000
221.848648	0.000000
221.941269	0.000000
222.033905	0.000000
222.126526	0.000000
222.219162	0.000000
222.311798	0.000000
222.404419	0.000000
222.497055	0.000000
222.589676	0.000000
222.682312	0.000000
222.774933	0.000000
222.867569	0.000000
222.960205	0.000000
223.052841	0.000000
223.145462	0.000000
223.238098	0.000000
223.330734	0.000000
223.423386	0.000000
223.516022	0.000000
223.608658	0.000000
223.701309	0.000000
223.793945	0.000000
223.886581	0.000000
223.979218	0.000000
224.071869	0.000000
224.164505	0.000000
224.257156	0.000000
224.349792	0.000000
224.442444	0.000000
224.535095	0.000000
224.627747	0.000000
224.720398	0.000000
224.813034	0.000000
224.905685	0.000000
224.998337	145.680000
225.090988	145.440000
225.183640	145.500000
225.276291	145.120000
225.368942	145.280000
225.461594	145.640000
225.554245	145.940000
225.646912	145.860000
225.739578	146.360000
225.832230	146.660000
225.924896	145.720000
226.017548	145.800000
226.110199	146.240000
226.202866	145.680000
226.295532	145.520000
226.388184	145.480000
226.480850	145.000000
226.573517	144.380000
226.666168	144.840000
226.758835	145.180000
226.851501	145.720000
226.944183	145.960000
227.036850	145.740000
227.129517	145.820000
227.222183	145.460000
227.314850	145.540000
227.407516	145.700000
227.500198	146.680000
227.592865	146.220000
227.685532	146.100000
227.778214	145.560000
227.870880	145.860000
227.963562	145.840000
228.056229	146.400000
228.148926	146.420000
228.241592	147.420000
228.334274	146.960000
228.426956	146.680000
228.519638	146.420000
228.612305	146.280000
228.704987	146.000000
228.797668	146.180000
228.890350	146.060000
228.983032	145.340000
229.075714	145.860000
229.168396	145.280000
229.261108	144.800000
229.353790	144.980000
229.446472	145.420000
229.539169	145.300000
229.631851	145.340000
229.724533	145.620000
229.817230	145.760000
229.909912	147.100000
230.002609	146.920000
230.095306	147.100000
230.187988	147.120000
230.280685	146.740000
230.373383	145.160000
230.466095	145.320000
230.558792	145.380000
230.651474	145.520000
230.744171	145.620000
230.836868	145.780000
230.929581	145.800000
231.022278	145.760000
231.114975	145.500000
231.207672	145.340000
231.300369	145.940000
231.393082	145.900000
231.485779	145.640000
231.578506	145.840000
231.671204	145.960000
231.763916	145.560000
231.856613	145.560000
231.949326	145.860000
232.042023	145.860000
232.134735	145.740000
232.227448	145.500000
232.320160	145.720000
232.412872	145.640000
232.505585	146.160000
232.598297	146.660000
232.691010	146.460000
232.783722	145.880000
232.876450	146.460000
232.969162	145.480000
233.061874	144.620000
233.154587	144.660000
233.247314	145.020000
233.340027	144.260000
233.432739	144.900000
233.525467	145.180000
233.618179	145.640000
233.710907	145.280000
233.803635	145.700000
233.896347	145.560000
233.989090	146.000000
234.081818	145.940000
234.174545	146.080000
234.267258	145.740000
234.359985	146.120000
234.452713	146.020000
234.545441	145.700000
234.638168	145.860000
234.730896	146.280000
234.823639	145.740000
234.916367	146.240000
235.009094	146.760000
235.101822	146.720000
235.194580	146.520000
235.287308	146.780000
235.380051	145.840000
235.472778	145.820000
235.565521	145.840000
235.658249	145.520000
235.750992	145.460000
235.843719	145.700000
235.936462	145.900000
236.029205	145.460000
236.121948	145.180000
236.214691	145.640000
236.307449	146.420000
236.400192	146.000000
236.492935	146.280000
236.585678	147.020000
236.678421	146.820000
236.771164	146.380000
236.863907	146.580000
236.956665	146.860000
237.049408	148.060000
237.142151	147.300000
237.234909	147.780000
237.327652	147.640000
237.420410	147.380000
237.513153	146.300000
237.605927	146.320000
237.698669	145.600000
237.791428	145.080000
237.884186	145.520000
237.976944	145.160000
238.069702	145.800000
238.162445	145.480000
238.255203	145.660000
238.347961	145.620000
238.440720	145.540000
238.533478	145.200000
238.626266	145.160000
238.719025	145.740000
238.811783	145.300000
238.904541	145.340000
238.997314	145.440000
239.090073	145.420000
239.182831	145.600000
239.275604	146.420000
239.368362	146.100000
239.461136	146.300000
239.553909	146.440000
239.646667	146.080000
239.739441	145.520000
239.832214	146.100000
239.925003	146.420000
240.017761	147.100000
240.110535	147.440000
240.203308	147.420000
240.296082	147.220000
240.388855	146.680000
240.481628	146.260000
240.574417	146.240000
240.667191	146.300000
240.759964	146.320000
240.852737	146.320000
240.945526	146.340000
241.038315	146.100000
241.131088	146.280000
241.223877	146.520000
241.316650	146.060000
241.409439	146.160000
241.502228	145.660000
241.595001	145.840000
241.687790	145.480000
241.780579	145.740000
241.873367	145.960000
241.966141	146.460000
242.058929	145.860000
242.151718	146.040000
242.244507	146.540000
242.337311	145.800000
242.430099	146.040000
242.522903	146.120000
242.615692	145.700000
242.708481	145.400000
242.801270	145.860000
242.894073	145.720000
242.986862	146.080000
243.079651	146.680000
243.172455	146.480000
243.265244	146.300000
243.358063	145.840000
243.450867	145.960000
243.543655	145.740000
243.636459	145.860000
243.729263	146.220000
243.822067	146.720000
243.914856	146.920000
244.007660	147.020000
244.100464	147.000000
244.193268	146.600000
244.286072	146.380000
244.378876	145.440000
244.471680	145.120000
244.564499	145.620000
244.657318	146.400000
244.750122	146.460000
244.842926	146.420000
244.935745	146.920000
245.028549	146.080000
245.121368	145.640000
245.214172	145.720000
245.306992	146.400000
245.399796	146.100000
245.492615	146.740000
245.585434	146.160000
245.678253	146.200000
245.771072	145.640000
245.863892	145.860000
245.956711	145.760000
246.049530	146.180000
246.142349	145.780000
246.235168	146.040000
246.327988	145.840000
246.420807	145.820000
246.513626	145.600000
246.606445	145.600000
246.699280	145.620000
246.792099	145.860000
246.884918	145.360000
246.977753	144.920000
247.070587	144.740000
247.163422	144.640000
247.256241	144.380000
247.349075	144.860000
247.441895	145.240000
247.534729	145.620000
247.627563	145.620000
247.720383	146.260000
247.813217	146.000000
247.906052	145.900000
247.998886	145.820000
248.091736	145.880000
248.184570	145.460000
248.277405	145.700000
248.370239	146.500000
248.463074	147.260000
248.555908	147.340000
248.648743	146.840000
248.741592	146.940000
248.834427	146.140000
248.927261	144.900000
249.020111	145.260000
249.112946	145.920000
249.205795	145.500000
249.298630	145.680000
249.391495	145.920000
249.484344	145.480000
249.577179	145.380000
249.670029	145.780000
249.762878	146.400000
249.855728	146.820000
249.948563	146.800000
250.041412	146.080000
250.134262	146.120000
250.227112	145.880000
250.319962	145.740000
250.412827	145.620000
250.505692	145.660000
250.598541	145.500000
250.691391	145.160000
250.784241	145.100000
250.877106	145.440000
250.969955	145.480000
251.062805	145.900000
251.155670	146.360000
251.248520	146.080000
251.341385	146.060000
251.434235	145.780000
251.527100	145.200000
251.619965	144.940000
251.712814	145.940000
251.805695	145.980000
251.898560	146.660000
251.991425	147.120000
252.084290	147.280000
252.177155	146.240000
252.270020	145.740000
252.362885	145.480000
252.455750	145.200000
252.548615	144.940000
252.641479	145.200000
252.734360	145.420000
252.827240	145.340000
252.920105	145.220000
253.012970	144.880000
253.105850	144.840000
253.198715	144.380000
253.291595	144.580000
253.384460	144.340000
253.477341	144.400000
253.570221	144.700000
253.663086	144.880000
253.755966	145.360000
253.848846	145.540000
253.941727	145.980000
254.034592	145.720000
254.127472	145.520000
254.220367	145.140000
254.313248	145.420000
254.406128	144.700000
254.499008	145.060000
254.591904	145.980000
254.684784	146.700000
254.777664	146.680000
254.870544	146.720000
254.963440	146.360000
255.056335	146.080000
255.149216	145.380000
255.242111	145.800000
255.334991	146.400000
255.427887	146.540000
255.520767	146.380000
255.613663	146.480000
255.706558	145.560000
255.799438	145.240000
255.892334	144.980000
255.985229	144.940000
256.078125	144.660000
256.171021	144.980000
256.263916	145.740000
256.356812	146.320000
256.449707	146.500000
256.542603	146.200000
256.635498	146.760000
256.728394	146.240000
256.821289	145.640000
256.914215	145.820000
257.007080	146.400000
257.100006	146.280000
257.192932	146.660000
257.285828	146.900000
257.378723	146.720000
257.471619	146.580000
257.564545	146.040000
257.657440	145.900000
257.750336	146.540000
257.843262	146.400000
257.936157	147.440000
258.029053	147.860000
258.121979	147.640000
258.214874	146.940000
258.307800	146.660000
258.400696	145.220000
258.493622	144.920000
258.586517	144.240000
258.679443	144.420000
258.772339	144.280000
258.865265	144.720000
258.958160	144.300000
259.051086	145.280000
259.144012	145.160000
259.236938	146.040000
259.329834	146.080000
259.422791	146.280000
259.515717	145.540000
259.608612	145.340000
259.701538	144.760000
259.794464	144.560000
259.887390	144.560000
259.980316	144.540000
260.073212	144.300000
260.166138	143.520000
260.259064	143.740000
260.351990	144.340000
260.444916	144.980000
260.537842	145.760000
260.630768	147.040000
260.723694	146.980000
260.816620	146.700000
260.909546	146.420000
261.002472	145.920000
261.095398	145.260000
261.188354	145.280000
261.281281	145.160000
261.374207	145.540000
261.467133	146.220000
261.560089	146.400000
261.653015	146.240000
261.745972	146.800000
261.838867	146.580000
261.931824	146.520000
262.024780	146.060000
262.117706	146.320000
262.210663	146.260000
262.303589	146.280000
262.396515	146.300000
262.489471	147.440000
262.582397	147.120000
262.675354	146.380000
262.768280	146.320000
262.861237	146.140000
262.954163	145.640000
263.047119	145.920000
263.140045	146.060000
263.233002	146.040000
263.325958	145.760000
263.418884	145.300000
263.511841	145.360000
263.604797	145.060000
263.697723	144.940000
263.790680	144.920000
263.883636	145.540000
263.976593	145.320000
264.069550	146.020000
264.162476	146.080000
264.255463	146.340000
264.348419	146.060000
264.441376	146.360000
264.534332	145.820000
264.627289	145.920000
264.720245	146.240000
264.813202	145.840000
264.906158	145.860000
264.999115	146.340000
265.092072	146.140000
265.185028	146.400000
265.277985	146.940000
265.370941	146.640000
265.463898	146.580000
265.556854	146.660000
265.649811	145.440000
265.742798	145.500000
265.835754	145.600000
265.928711	145.880000
266.021667	145.920000
266.114655	146.500000
266.207611	146.700000
266.300568	145.980000
266.393585	145.240000
266.486511	145.540000
266.579498	144.920000
266.672485	144.600000
266.765442	145.080000
266.858429	145.920000
266.951385	145.680000
267.044342	146.100000
267.137329	145.860000
267.230316	146.060000
267.323273	145.300000
267.416260	145.920000
267.509216	145.900000
267.602203	146.380000
267.695160	146.940000
267.788147	147.320000
267.881134	146.360000
267.974091	146.500000
268.067078	146.340000
268.160065	145.940000
268.253052	145.700000
268.346008	145.580000
268.438995	145.220000
268.531982	145.160000
268.624969	145.080000
268.717987	145.500000
268.810944	146.020000
268.903961	146.460000
268.996948	146.060000
269.089905	146.500000
269.182892	146.460000
269.275879	146.560000
269.368866	146.000000
269.461853	146.780000
269.554871	146.120000
269.647858	146.180000
269.740845	146.360000
269.833832	146.840000
269.926819	146.160000
270.019806	146.660000
270.112793	146.120000
270.205811	146.060000
270.298798	145.960000
270.391785	146.460000
270.484772	145.900000
270.577789	146.100000
270.670776	145.780000
270.763763	145.700000
270.856750	145.460000
270.949768	145.500000
271.042786	145.480000
271.135773	145.640000
271.228790	146.180000
271.321808	145.860000
271.414795	145.800000
271.507782	145.440000
271.600800	145.000000
271.693817	144.780000
271.786804	145.240000
271.879822	145.540000
271.972809	146.000000
272.065826	146.420000
272.158844	145.800000
272.251831	146.180000
272.344849	145.760000
272.437866	145.480000
272.530853	145.360000
272.623871	145.580000
272.716888	144.660000
272.809906	145.040000
272.902893	145.020000
272.995911	144.600000
273.088928	144.880000
273.181946	145.280000
273.274963	144.860000
273.367981	144.980000
273.460999	145.460000
273.554047	145.540000
273.647003	145.760000
273.740051	146.020000
273.833069	146.360000
273.926086	146.380000
274.019135	146.320000
274.112152	146.180000
274.205170	146.220000
274.298187	146.400000
274.391205	145.820000
274.484222	145.800000
274.577240	145.640000
274.670258	145.340000
274.763306	144.860000
274.856323	145.440000
274.949341	145.420000
275.042358	145.900000
275.135406	145.960000
275.228424	145.900000
275.321442	145.840000
275.414490	145.700000
275.507507	145.820000
275.600525	146.600000
275.693573	146.660000
275.786591	146.340000
275.879669	146.560000
275.972656	146.360000
276.065735	146.000000
276.158752	146.560000
276.251801	147.160000
276.344818	147.260000
276.437866	147.160000
276.530884	147.320000
276.623932	146.600000
276.716980	146.520000
276.809998	146.700000
276.903046	146.900000
276.996094	147.160000
277.089111	147.720000
277.182159	148.060000
277.275208	147.520000
277.368256	147.220000
277.461304	146.940000
277.554321	146.300000
277.647369	146.080000
277.740417	146.000000
277.833466	145.700000
277.926514	145.460000
278.019562	146.280000
278.112610	145.900000
278.205688	146.360000
278.298706	146.620000
278.391785	146.780000
278.484833	145.920000
278.577881	145.560000
278.670929	145.620000
278.763977	145.740000
278.857025	145.900000
278.950073	146.160000
279.043121	146.300000
279.136169	146.040000
279.229248	145.580000
279.322296	145.320000
279.415344	144.940000
279.508392	144.900000
279.601440	144.780000
279.694519	145.040000
279.787567	144.840000
279.880615	144.960000
279.973694	144.920000
280.066742	145.220000
280.159790	145.240000
280.252869	145.060000
280.345917	145.260000
280.438995	145.200000
280.532074	144.820000
280.625122	145.320000
280.718201	146.280000
280.811279	146.360000
280.904327	146.660000
280.997406	146.860000
281.090454	146.920000
281.183533	146.140000
281.276581	146.100000
281.369659	145.720000
281.462738	145.960000
281.555786	145.640000
281.648865	145.720000
281.741943	145.560000
281.835022	146.480000
281.928070	146.100000
282.021149	145.840000
282.114227	145.680000
282.207306	145.940000
282.300385	145.920000
282.393433	146.240000
282.486511	146.240000
282.579590	146.820000
282.672668	147.200000
282.765747	146.540000
282.858856	146.280000
282.951904	146.240000
283.045013	146.520000
283.138062	146.480000
283.231171	146.840000
283.324249	146.960000
283.417328	147.120000
283.510406	146.300000
283.603485	145.840000
283.696564	145.680000
283.789642	145.800000
283.882751	145.780000
283.975830	146.060000
284.068909	145.820000
284.161987	146.500000
284.255066	145.960000
284.348175	145.940000
284.441254	146.000000
284.534332	146.360000
284.627441	145.780000
284.720520	145.820000
284.813599	145.880000
284.906708	146.040000
284.999786	145.580000
285.092896	145.260000
285.185974	146.220000
285.279053	145.820000
285.372192	145.480000
285.465240	146.360000
285.558380	146.560000
285.651459	146.280000
285.744568	146.980000
285.837677	147.120000
285.930756	146.680000
286.023865	146.320000
286.116943	145.540000
286.210052	145.520000
286.303162	145.440000
286.396240	145.660000
286.489349	145.960000
286.582458	146.400000
286.675568	146.080000
286.768646	146.080000
286.861755	146.220000
286.954865	146.640000
287.047974	146.300000
287.141083	146.120000
287.234161	146.000000
287.327271	145.700000
287.420380	146.080000
287.513519	146.000000
287.606598	146.200000
287.699738	146.480000
287.792816	146.400000
287.885956	145.760000
287.979034	146.080000
288.072174	146.340000
288.165283	146.060000
288.258392	146.160000
288.351501	145.800000
288.444611	146.080000
288.537720	146.360000
288.630859	146.340000
288.723969	146.400000
288.817078	146.860000
288.910187	146.520000
289.003296	145.860000
289.096436	145.460000
289.189545	145.340000
289.282654	144.660000
289.375763	144.940000
289.468903	145.480000
289.562012	146.080000
289.655121	146.020000
289.748260	146.620000
289.841400	146.840000
289.934509	146.100000
290.027649	146.240000
290.120728	146.040000
290.213898	145.800000
290.306976	145.300000
290.400146	145.940000
290.493256	145.500000
290.586395	145.680000
290.679535	145.940000
290.772644	145.720000
290.865784	144.720000
290.958893	144.620000
291.052032	144.420000
291.145172	144.480000
291.238281	144.300000
291.331421	144.760000
291.424561	145.500000
291.517670	145.380000
291.610809	145.300000
291.703949	145.480000
291.797089	145.700000
291.890228	145.100000
291.983337	145.160000
292.076477	144.980000
292.169617	145.340000
292.262756	145.280000
292.355927	145.140000
292.449036	145.000000
292.542206	145.260000
292.635315	145.540000
292.728485	145.920000
292.821625	145.900000
292.914764	147.320000
293.007904	147.220000
293.101044	146.960000
293.194183	146.440000
293.287323	146.820000
293.380463	145.900000
293.473602	145.820000
293.566742	145.980000
293.659882	146.760000
293.753021	147.000000
293.846191	147.020000
293.939331	147.020000
294.032471	146.800000
294.125610	145.920000
294.218781	146.040000
294.311920	146.300000
294.405060	146.460000
294.498230	146.300000
294.591370	146.540000
294.684540	145.460000
294.777679	144.860000
294.870850	144.920000
294.963959	144.900000
295.057159	144.820000
295.150299	145.680000
295.243469	145.720000
295.336609	145.140000
295.429779	145.340000
295.522919	145.460000
295.616089	145.080000
295.709229	145.880000
295.802399	146.120000
295.895569	145.660000
295.988708	145.660000
296.081879	145.740000
296.175018	144.960000
296.268188	144.860000
296.361359	145.860000
296.454529	146.020000
296.547668	146.060000
296.640839	146.400000
296.734009	146.420000
296.827179	146.080000
296.920319	146.120000
297.013519	146.140000
297.106659	146.280000
297.199860	146.360000
297.292999	146.280000
297.386200	145.940000
297.479309	145.640000
297.572510	145.260000
297.665680	144.980000
297.758850	144.960000
297.852020	145.140000
297.945190	145.220000
298.038361	145.220000
298.131531	146.280000
298.224701	146.020000
298.317871	145.840000
298.411072	145.740000
298.504242	145.960000
298.597412	145.080000
298.690582	145.340000
298.783752	145.480000
298.876923	145.940000
298.970093	145.440000
299.063293	146.060000
299.156464	146.480000
299.249634	146.380000
299.342834	146.280000
299.436005	146.740000
299.529205	146.400000
299.622345	146.160000
299.715576	145.760000
299.808716	145.680000
299.901917	145.660000
299.995117	146.040000
300.088287	146.060000
300.181488	146.220000
300.274658	146.000000
300.367828	146.020000
300.461029	145.720000
300.554199	145.800000
300.647400	146.160000
300.740601	147.060000
300.833771	146.940000
300.926971	146.960000
301.020142	146.060000
301.113342	145.620000
301.206512	145.040000
301.299713	145.140000
301.392914	145.480000
301.486084	146.320000
301.579285	146.560000
301.672516	146.800000
301.765686	146.700000
301.858887	146.460000
301.952057	146.420000
302.045288	146.500000
302.138458	146.240000
302.231659	146.180000
302.324860	145.900000
302.418060	145.720000
302.511261	145.680000
302.604462	145.920000
302.697662	145.680000
302.790863	145.500000
302.884064	145.220000
302.977264	145.160000
303.070465	145.140000
303.163666	145.960000
303.256866	146.220000
303.350067	146.380000
303.443268	146.560000
303.536469	146.600000
303.629669	146.040000
303.722870	146.400000
303.816071	146.080000
303.909271	145.880000
304.002472	145.200000
304.095673	145.000000
304.188934	144.120000
304.282104	144.860000
304.375336	145.000000
304.468506	145.300000
304.561768	145.140000
304.654968	145.900000
304.748169	145.540000
304.841370	145.440000
304.934601	145.860000
305.027802	145.900000
305.121002	145.300000
305.214233	145.320000
305.307434	145.560000
305.400665	146.020000
305.493866	146.220000
305.587097	146.700000
305.680298	146.580000
305.773499	147.140000
305.866730	146.640000
305.959930	147.140000
306.053162	147.360000
306.146393	146.960000
306.239594	145.880000
306.332825	145.540000
306.426025	145.700000
306.519287	145.060000
306.612488	145.600000
306.705719	145.800000
306.798920	146.100000
306.892181	145.600000
306.985352	145.600000
307.078613	145.120000
307.171844	145.420000
307.265045	145.000000
307.358276	144.480000
307.451508	144.940000
307.544739	145.220000
307.637970	144.720000
307.731201	144.800000
307.824402	145.580000
307.917633	145.680000
308.010864	146.220000
308.104095	146.820000
308.197327	147.040000
308.290558	146.700000
308.383789	146.080000
308.477020	145.700000
308.570251	145.060000
308.663483	144.620000
308.756714	144.880000
308.849976	145.220000
308.943176	145.680000
309.036438	145.620000
309.129639	145.320000
309.222900	145.220000
309.316101	145.060000
309.409393	144.440000
309.502625	144.540000
309.595856	144.780000
309.689087	144.900000
309.782318	144.760000
309.875580	144.840000
309.968811	145.080000
310.062042	145.280000
310.155273	144.980000
310.248535	145.680000
310.341766	145.800000
310.434998	145.620000
310.528259	145.240000
310.621490	145.700000
310.714722	144.920000
310.807983	144.840000
310.901215	144.820000
310.994476	145.040000
311.087708	144.320000
311.181000	144.660000
311.274200	144.580000
311.367462	144.780000
311.460693	144.460000
311.553986	145.360000
311.647186	145.740000
311.740479	146.060000
311.833710	145.880000
311.926971	146.200000
312.020203	145.160000
312.113464	144.680000
312.206726	143.980000
312.299957	144.100000
312.393219	144.740000
312.486481	145.240000
312.579712	145.120000
312.672974	145.600000
312.766235	145.620000
312.859497	144.960000
312.952759	144.860000
313.045990	145.680000
313.139252	145.180000
313.232513	145.340000
313.325775	145.780000
313.419037	145.720000
313.512299	145.160000
313.605530	145.760000
313.698822	145.620000
313.792053	145.660000
313.885345	145.380000
313.978577	145.200000
314.071869	144.840000
314.165131	145.080000
314.258392	145.100000
314.351654	145.260000
314.444916	144.860000
314.538177	145.320000
314.631439	145.640000
314.724701	145.460000
314.817993	145.400000
314.911255	145.820000
315.004517	145.420000
315.097778	145.060000
315.191040	145.620000
315.284302	146.060000
315.377594	146.100000
315.470856	146.060000
315.564117	145.600000
315.657379	144.660000
315.750671	144.160000
315.843933	144.400000
315.937195	144.180000
316.030518	144.040000
316.123749	144.080000
316.217041	144.940000
316.310303	144.760000
316.403595	145.080000
316.496857	145.620000
316.590149	146.060000
316.683411	145.260000
316.776703	145.180000
316.869965	145.320000
316.963257	144.940000
317.056519	144.420000
317.149811	144.400000
317.243073	144.120000
317.336365	144.060000
317.429626	144.400000
317.522919	144.960000
317.616180	145.040000
317.709473	145.120000
317.802765	144.880000
317.896027	144.820000
317.989319	144.960000
318.082611	145.080000
318.175873	145.160000
318.269165	145.600000
318.362488	145.680000
318.455750	145.600000
318.549042	145.840000
318.642303	146.160000
318.735626	145.660000
318.828888	145.580000
318.922211	145.020000
319.015472	145.540000
319.108765	144.860000
319.202057	144.640000
319.295349	144.880000
319.388641	145.120000
319.481934	144.460000
319.575226	144.720000
319.668518	145.380000
319.761810	145.340000
319.855103	145.640000
319.948395	145.900000
320.041687	146.200000
320.134979	146.060000
320.228271	145.800000
320.321564	145.500000
320.414856	145.300000
320.508148	144.980000
320.601440	144.760000
320.694763	144.700000
320.788025	145.520000
320.881348	145.560000
320.974640	145.560000
321.067963	144.960000
321.161224	145.200000
321.254547	144.080000
321.347839	144.560000
321.441162	144.200000
321.534454	144.900000
321.627747	144.740000
321.721069	145.600000
321.814362	145.560000
321.907654	146.220000
322.000946	146.040000
322.094269	146.640000
322.187561	146.160000
322.280884	146.280000
322.374176	146.240000
322.467468	146.920000
322.560791	146.760000
322.654083	147.200000
322.747406	146.880000
322.840698	146.980000
322.934021	146.940000
323.027344	146.940000
323.120636	146.520000
323.213959	146.500000
323.307251	145.900000
323.400574	145.540000
323.493866	144.960000
323.587219	145.320000
323.680511	145.700000
323.773834	146.140000
323.867157	146.220000
323.960449	146.380000
324.053772	145.940000
324.147095	145.720000
324.240387	146.000000
324.333710	145.720000
324.427032	145.760000
324.520355	146.040000
324.613647	145.440000
324.706970	145.160000
324.800293	145.360000
324.893616	145.700000
324.986938	146.080000
325.080231	146.240000
325.173553	146.760000
325.266876	147.100000
325.360199	146.940000
325.453522	146.380000
325.546875	146.340000
325.640167	146.340000
325.733521	146.380000
325.826813	146.780000
325.920166	146.460000
326.013489	146.420000
326.106812	145.520000
326.200134	144.920000
326.293457	144.020000
326.386780	144.300000
326.480103	144.200000
326.573425	144.200000
326.666748	144.520000
326.760071	145.340000
326.853424	145.760000
326.946747	145.860000
327.040070	146.880000
327.133392	146.800000
327.226715	145.860000
327.320068	145.160000
327.413391	145.900000
327.506714	144.840000
327.600037	144.660000
327.693390	145.100000
327.786713	145.420000
327.880066	145.040000
327.973358	145.780000
328.066742	146.240000
328.160034	146.420000
328.253418	146.440000
328.346710	145.880000
328.440063	145.100000
328.533417	144.640000
328.626740	144.980000
328.720093	144.800000
328.813416	144.840000
328.906769	145.080000
329.000092	145.460000
329.093445	145.080000
329.186768	144.920000
329.280121	145.620000
329.373444	146.080000
329.466797	146.200000
329.560120	146.260000
329.653473	146.600000
329.746796	146.080000
329.840149	145.760000
329.933502	145.620000
330.026825	145.620000
330.120178	145.220000
330.213562	145.460000
330.306854	145.500000
330.400238	145.360000
330.493561	144.820000
330.586945	145.900000
330.680237	145.940000
330.773621	145.960000
330.866974	146.020000
330.960327	146.620000
331.053680	145.980000
331.147003	145.980000
331.240356	146.260000
331.333710	146.060000
331.427063	145.740000
331.520416	145.660000
331.613770	145.540000
331.707123	145.560000
331.800476	145.940000
331.893829	146.760000
331.987152	146.940000
332.080505	147.000000
332.173859	146.480000
332.267212	145.860000
332.360565	145.320000
332.453918	144.860000
332.547333	144.700000
332.640656	145.020000
332.734039	145.280000
332.827362	144.820000
332.920746	145.440000
333.014069	145.880000
333.107452	146.260000
333.200806	146.320000
333.294159	146.500000
333.387543	145.940000
333.480896	145.160000
333.574249	144.680000
333.667603	144.480000
333.760956	144.860000
333.854340	145.040000
333.947693	145.460000
334.041046	145.860000
334.134430	146.120000
334.227783	146.000000
334.321136	145.900000
334.414520	145.580000
334.507874	145.460000
334.601227	145.520000
334.694611	145.000000
334.787964	145.240000
334.881348	145.780000
334.974701	145.400000
335.068085	145.140000
335.161438	145.680000
335.254822	145.540000
335.348175	145.180000
335.441559	144.840000
335.534943	145.600000
335.628296	145.140000
335.721680	145.340000
335.815033	145.400000
335.908417	146.160000
336.001770	145.800000
336.095154	145.780000
336.188538	145.360000
336.281891	145.200000
336.375275	144.520000
336.468658	143.940000
336.562012	144.540000
336.655396	145.200000
336.748779	145.440000
336.842133	146.060000
336.935516	146.640000
337.028900	146.260000
337.122284	145.920000
337.215637	146.160000
337.309021	145.740000
337.402435	145.260000
337.495789	145.080000
337.589203	144.800000
337.682526	144.240000
337.775940	144.520000
337.869324	144.980000
337.962708	144.900000
338.056091	145.440000
338.149475	145.500000
338.242859	145.480000
338.336243	144.800000
338.429626	145.040000
338.523010	144.680000
338.616394	144.480000
338.709778	144.400000
338.803162	144.880000
338.896545	144.980000
338.989929	144.700000
339.083313	145.040000
339.176697	144.620000
339.270081	144.420000
339.363464	144.800000
339.456848	145.180000
339.550232	144.900000
339.643616	145.360000
339.737030	145.420000
339.830383	144.980000
339.923828	145.080000
340.017181	145.480000
340.110596	145.480000
340.203949	145.640000
340.297363	145.200000
340.390778	145.020000
340.484161	145.040000
340.577545	144.820000
340.670959	144.660000
340.764343	144.960000
340.857727	144.840000
340.951111	144.140000
341.044525	144.600000
341.137909	144.200000
341.231293	144.200000
341.324707	144.040000
341.418091	144.900000
341.511505	144.820000
341.604889	145.420000
341.698303	145.660000
341.791687	145.780000
341.885071	145.440000
341.978485	145.200000
342.071899	145.320000
342.165283	145.460000
342.258698	145.860000
342.352081	146.200000
342.445496	146.660000
342.538879	146.120000
342.632324	145.500000
342.725708	145.120000
342.819122	144.420000
342.912506	144.040000
343.005920	144.300000
343.099335	145.300000
343.192719	145.380000
343.286133	145.600000
343.379547	146.040000
343.472931	146.360000
343.566345	145.780000
343.659760	146.120000
343.753143	146.220000
343.846558	145.680000
343.939972	145.500000
344.033386	146.080000
344.126770	145.680000
344.220184	145.840000
344.313599	146.420000
344.407043	146.520000
344.500427	145.620000
344.593872	146.260000
344.687225	146.060000
344.780670	145.460000
344.874054	145.220000
344.967499	146.000000
345.060913	145.640000
345.154327	145.420000
345.247742	145.300000
345.341156	144.960000
345.434570	144.220000
345.527985	144.060000
345.621399	144.400000
345.714813	144.280000
345.808228	144.780000
345.901642	144.800000
345.995056	144.800000
346.088470	144.600000
346.181885	144.760000
346.275299	144.420000
346.368713	144.400000
346.462128	144.180000
346.555573	144.560000
346.648987	145.140000
346.742401	145.380000
346.835815	146.060000
346.929260	145.840000
347.022644	145.660000
347.116119	145.460000
347.209503	145.940000
347.302948	146.460000
347.396362	147.360000
347.489807	147.540000
347.583221	147.840000
347.676636	147.000000
347.770050	145.880000
347.863495	145.240000
347.956909	145.060000
348.050323	144.540000
348.143768	144.560000
348.237183	144.440000
348.330597	145.100000
348.424042	145.460000
348.517456	145.800000
348.610901	146.220000
348.704315	146.520000
348.797760	145.660000
348.891174	144.960000
348.984619	144.140000
349.078033	144.420000
349.171448	145.000000
349.264923	145.040000
349.358337	145.340000
349.451782	145.760000
349.545197	144.880000
349.638641	143.980000
349.732086	143.840000
349.825500	144.260000
349.918945	143.900000
350.012390	144.860000
350.105804	145.260000
350.199249	145.660000
350.292664	145.880000
350.386108	146.280000
350.479553	146.300000
350.572968	146.180000
350.666412	146.220000
350.759857	145.980000
350.853302	146.660000
350.946716	146.140000
351.040161	146.300000
351.133606	146.240000
351.227081	145.580000
351.320465	145.700000
351.413940	145.660000
351.507355	145.900000
351.600830	146.000000
351.694244	146.220000
351.787720	145.800000
351.881104	146.100000
351.974579	146.040000
352.067993	146.720000
352.161469	146.640000
352.254883	145.940000
352.348358	145.660000
352.441803	145.460000
352.535248	145.100000
352.628693	145.680000
352.722137	146.000000
352.815582	146.500000
352.909027	146.780000
353.002472	146.280000
353.095917	146.060000
353.189362	146.320000
353.282806	145.920000
353.376251	145.460000
353.469696	145.300000
353.563141	145.500000
353.656586	145.280000
353.750061	144.780000
353.843475	145.000000
353.936981	145.720000
354.030396	145.080000
354.123871	145.000000
354.217285	145.720000
354.310760	145.820000
354.404175	145.620000
354.497681	145.560000
354.591095	145.720000
354.684570	144.980000
354.777985	144.680000
354.871490	144.440000
354.964935	145.180000
355.058380	145.240000
355.151855	145.120000
355.245300	145.660000
355.338745	146.020000
355.432220	145.620000
355.525665	145.200000
355.619110	146.080000
355.712585	145.500000
355.806030	145.020000
355.899475	144.840000
355.992950	145.360000
356.086426	145.540000
356.179871	145.540000
356.273346	145.800000
356.366791	146.080000
356.460266	146.080000
356.553711	145.440000
356.647186	145.440000
356.740631	145.180000
356.834106	144.780000
356.927551	144.860000
357.021027	145.020000
357.114471	145.280000
357.207947	145.540000
357.301422	146.040000
357.394867	145.880000
357.488342	146.240000
357.581818	145.980000
357.675262	146.060000
357.768738	145.720000
357.862213	145.220000
357.955658	145.320000
358.049133	145.220000
358.142609	145.360000
358.236053	145.400000
358.329529	145.660000
358.423035	145.320000
358.516449	145.440000
358.609955	145.820000
358.703400	146.280000
358.796906	146.620000
358.890350	146.180000
358.983826	146.400000
359.077271	145.420000
359.170776	145.060000
359.264221	144.600000
359.357727	145.100000
359.451172	145.480000
359.544647	145.720000
359.638123	145.560000
359.731598	146.380000
359.825073	146.520000
359.918549	145.860000
360.012024	146.060000
360.105499	145.820000
360.198975	145.280000
360.292450	145.080000
360.385925	145.280000
360.479401	144.900000
360.572876	145.400000
360.666351	145.720000
360.759857	145.740000
360.853302	145.860000
360.946808	145.640000
361.040253	145.360000
361.133759	144.700000
361.227203	144.720000
361.320709	144.600000
361.414154	145.040000
361.507660	145.680000
361.601105	146.500000
361.694641	146.940000
361.788086	146.860000
361.881592	147.280000
361.975067	146.700000
362.068542	146.740000
362.162018	146.600000
362.255524	146.460000
362.348999	146.060000
362.442474	146.260000
362.535950	145.600000
362.629456	145.300000
362.722931	145.280000
362.816406	145.660000
362.909882	146.060000
363.003387	145.780000
363.096863	146.300000
363.190338	146.460000
363.283875	146.080000
363.377319	145.800000
363.470825	146.480000
363.564301	145.340000
363.657806	145.560000
363.751282	145.080000
363.844788	146.140000
363.938232	145.560000
364.031769	146.480000
364.125214	146.520000
364.218750	147.480000
364.312225	145.860000
364.405731	146.140000
364.499207	145.300000
364.592712	144.840000
364.686188	144.620000
364.779694	145.260000
364.873169	145.320000
364.966675	145.520000
365.060150	145.720000
365.153656	146.140000
365.247131	145.840000
365.340637	146.080000
365.434143	146.780000
365.527618	146.780000
365.621155	145.760000
365.714600	145.700000
365.808136	145.500000
365.901611	144.580000
365.995117	144.240000
366.088593	144.520000
366.182129	144.680000
366.275604	144.840000
366.369110	145.160000
366.462585	145.260000
366.556122	145.800000
366.649567	145.980000
366.743103	146.000000
366.836609	145.700000
366.930115	145.920000
367.023590	146.040000
367.117096	145.660000
367.210602	145.420000
367.304108	146.180000
367.397614	146.780000
367.491119	146.520000
367.584595	146.700000
367.678101	146.900000
367.771606	146.640000
367.865112	146.140000
367.958649	145.480000
368.052124	145.040000
368.145660	144.880000
368.239136	145.240000
368.332672	145.340000
368.426147	145.660000
368.519684	146.060000
368.613159	146.420000
368.706696	145.980000
368.800171	145.740000
368.893707	145.680000
368.987183	145.600000
369.080719	145.640000
369.174225	145.720000
369.267731	146.200000
369.361237	146.140000
369.454742	146.040000
369.548248	145.820000
369.641754	145.440000
369.735260	145.000000
369.828766	144.300000
369.922272	144.880000
370.015808	144.760000
370.109314	144.620000
370.202820	144.300000
370.296356	145.520000
370.389832	144.860000
370.483368	144.700000
370.576874	144.860000
370.670410	145.280000
370.763885	144.340000
370.857422	144.540000
370.950928	144.340000
371.044464	145.100000
371.137939	145.140000
371.231476	145.640000
371.324982	146.020000
371.418518	146.460000
371.512024	145.980000
371.605560	145.720000
371.699066	145.960000
371.792572	145.300000
371.886108	145.500000
371.979614	145.420000
372.073120	146.080000
372.166656	145.900000
372.260162	146.320000
372.353668	145.780000
372.447205	145.360000
372.540710	145.180000
372.634277	145.000000
372.727753	145.060000
372.821320	145.380000
372.914795	145.820000
373.008362	145.360000
373.101837	145.540000
373.195404	145.300000
373.288879	145.300000
373.382446	145.740000
373.475922	145.900000
373.569489	146.580000
373.662964	147.100000
373.756531	147.060000
373.850037	147.280000
373.943573	147.140000
374.037109	146.060000
374.130615	146.160000
374.224152	146.260000
374.317657	145.800000
374.411194	146.540000
374.504730	146.720000
374.598236	146.260000
374.691772	146.120000
374.785309	146.240000
374.878815	145.380000
374.972351	145.620000
375.065887	145.420000
375.159454	146.020000
375.252930	145.460000
375.346497	145.960000
375.440002	146.440000
375.533569	146.620000
375.627045	145.900000
375.720612	146.400000
375.814117	146.500000
375.907684	145.720000
376.001160	145.460000
376.094727	145.200000
376.188232	145.820000
376.281799	145.580000
376.375336	145.880000
376.468872	146.660000
376.562408	147.000000
376.655914	146.120000
376.749451	146.300000
376.842987	146.480000
376.936523	145.980000
377.030060	145.900000
377.123596	146.160000
377.217133	145.620000
377.310669	145.200000
377.404205	145.460000
377.497772	145.960000
377.591278	145.600000
377.684845	146.440000
377.778351	147.140000
377.871918	147.120000
377.965424	146.140000
378.058990	146.440000
378.152496	145.880000
378.246063	145.920000
378.339569	145.860000
378.433136	146.320000
378.526642	146.220000
378.620209	146.240000
378.713745	145.520000
378.807312	145.800000
378.900848	145.520000
378.994385	145.800000
379.087921	145.260000
379.181458	145.760000
379.274994	144.840000
379.368530	145.200000
379.462097	145.240000
379.555634	146.060000
379.649170	145.280000
379.742706	145.580000
379.836273	145.380000
379.929810	144.920000
380.023376	144.420000
380.116882	144.520000
380.210449	144.700000
380.303986	144.640000
380.397552	144.300000
380.491058	144.500000
380.584656	144.680000
380.678162	144.800000
380.771729	144.980000
380.865265	145.800000
380.958832	145.960000
381.052368	146.180000
381.145935	146.440000
381.239471	146.740000
381.333008	146.660000
381.426575	146.580000
381.520111	146.920000
381.613647	146.920000
381.707214	146.380000
381.800751	145.820000
381.894318	146.060000
381.987854	145.480000
382.081421	145.060000
382.174988	145.500000
382.268524	145.500000
382.362091	145.500000
382.455627	146.320000
382.549194	146.180000
382.642731	145.560000
382.736298	145.620000
382.829834	145.280000
382.923401	145.360000
383.016937	145.680000
383.110504	146.220000
383.204041	146.360000
383.297607	146.480000
383.391174	145.780000
383.484741	146.400000
383.578278	145.960000
383.671844	145.480000
383.765411	145.180000
383.858948	145.500000
383.952515	145.220000
384.046051	145.860000
384.139618	146.680000
384.233185	146.840000
384.326721	146.580000
384.420288	146.740000
384.513855	146.700000
384.607422	146.640000
384.700989	147.280000
384.794525	147.220000
384.888123	147.120000
384.981659	147.080000
385.075226	146.720000
385.168762	145.940000
385.262360	146.140000
385.355896	145.140000
385.449463	144.820000
385.542999	144.920000
385.636597	145.620000
385.730164	145.600000
385.823730	145.800000
385.917267	145.300000
386.010834	145.360000
386.104401	145.300000
386.197968	145.260000
386.291534	145.480000
386.385101	146.200000
386.478668	146.260000
386.572235	145.960000
386.665802	145.640000
386.759338	145.340000
386.852905	144.920000
386.946472	144.640000
387.040070	144.680000
387.133606	145.060000
387.227203	144.980000
387.320740	145.460000
387.414337	145.740000
387.507874	145.340000
387.601471	145.180000
387.695007	145.240000
387.788605	144.920000
387.882141	145.200000
387.975739	145.580000
388.069275	145.340000
388.162872	145.840000
388.256439	145.880000
388.350037	145.080000
388.443604	144.900000
388.537170	144.900000
388.630737	145.460000
388.724304	145.640000
388.817871	146.000000
388.911438	145.920000
389.005005	146.240000
389.098602	145.660000
389.192169	145.320000
389.285736	145.640000
389.379333	145.680000
389.472870	145.600000
389.566467	145.700000
389.660034	145.860000
389.753632	145.200000
389.847168	145.640000
389.940765	145.600000
390.034332	145.860000
390.127930	145.340000
390.221466	145.360000
390.315063	144.820000
390.408630	144.400000
390.502228	143.360000
390.595795	143.600000
390.689362	144.060000
390.782959	144.380000
390.876526	144.880000
390.970093	145.100000
391.063690	145.800000
391.157257	145.800000
391.250824	146.120000
391.344421	145.720000
391.437988	146.240000
391.531555	146.080000
391.625153	146.040000
391.718750	146.180000
391.812317	146.560000
391.905914	145.920000
391.999481	145.900000
392.093079	145.860000
392.186615	145.880000
392.280243	145.900000
392.373779	146.200000
392.467407	146.600000
392.560944	146.660000
392.654572	145.840000
392.748108	145.680000
392.841736	145.760000
392.935303	145.140000
393.028900	144.960000
393.122467	145.320000
393.216064	144.960000
393.309631	144.440000
393.403229	144.480000
393.496796	144.440000
393.590393	143.780000
393.683990	144.100000
393.777557	144.800000
393.871155	144.740000
393.964722	144.960000
394.058350	145.540000
394.151917	145.680000
394.245514	145.180000
394.339081	145.700000
394.432678	146.060000
394.526245	145.860000
394.619873	145.400000
394.713409	145.800000
394.807037	145.440000
394.900604	145.220000
394.994202	145.560000
395.087769	145.860000
395.181396	145.280000
395.274994	145.980000
395.368561	145.280000
395.462158	145.520000
395.555756	145.280000
395.649353	146.080000
395.742920	145.480000
395.836517	146.300000
395.930115	145.140000
396.023712	145.480000
396.117279	145.520000
396.210876	145.140000
396.304474	144.860000
396.398071	145.500000
396.491669	145.660000
396.585266	145.460000
396.678833	145.540000
396.772461	145.940000
396.866028	145.840000
396.959656	145.620000
397.053223	145.800000
397.146851	145.900000
397.240417	145.840000
397.334015	146.860000
397.427582	147.060000
397.521210	147.420000
397.614807	147.980000
397.708405	148.580000
397.802002	148.860000
397.895599	150.360000
397.989197	151.240000
398.082794	152.820000
398.176392	154.740000
398.269989	156.800000
398.363586	159.160000
398.457184	163.040000
398.550781	166.920000
398.644379	170.240000
398.737976	174.500000
398.831573	179.060000
398.925201	182.680000
399.018768	187.020000
399.112396	192.140000
399.205963	197.640000
399.299591	203.280000
399.393158	209.880000
399.486786	216.900000
399.580353	224.280000
399.673981	232.560000
399.767578	241.640000
399.861206	251.820000
399.954773	262.020000
400.048401	272.220000
400.141998	279.820000
400.235596	287.840000
400.329193	292.000000
400.422791	295.960000
400.516418	297.820000
400.610016	300.500000
400.703613	300.460000
400.797211	299.520000
400.890808	296.220000
400.984436	292.520000
401.078033	284.980000
401.171631	276.340000
401.265259	266.860000
401.358826	256.400000
401.452484	244.120000
401.546051	233.280000
401.639679	220.660000
401.733246	209.400000
401.826904	198.360000
401.920471	188.500000
402.014099	179.640000
402.107697	173.180000
402.201324	167.480000
402.294891	163.100000
402.388550	159.620000
402.482147	156.680000
402.575745	153.700000
402.669373	151.500000
402.762970	149.640000
402.856567	148.720000
402.950195	148.100000
403.043793	147.700000
403.137390	148.220000
403.231018	147.340000
403.324615	147.560000
403.418243	146.740000
403.511841	146.940000
403.605469	146.240000
403.699066	146.660000
403.792694	146.240000
403.886292	146.660000
403.979919	146.380000
404.073517	146.060000
404.167145	146.740000
404.260712	146.560000
404.354370	146.060000
404.447937	146.360000
404.541595	146.420000
404.635162	146.060000
404.728821	146.360000
404.822418	146.080000
404.916046	145.880000
405.009644	146.380000
405.103271	146.520000
405.196899	146.460000
405.290497	146.760000
405.384125	147.240000
405.477722	146.700000
405.571350	146.520000
405.664948	146.560000
405.758575	146.400000
405.852203	145.660000
405.945801	145.840000
406.039429	145.800000
406.133057	145.600000
406.226654	145.640000
406.320312	145.780000
406.413879	145.900000
406.507538	145.820000
406.601135	145.260000
406.694763	146.080000
406.788361	145.860000
406.882019	145.500000
406.975586	145.940000
407.069244	146.720000
407.162872	146.300000
407.256470	146.520000
407.350098	146.580000
407.443726	145.880000
407.537323	145.400000
407.630951	145.600000
407.724579	144.960000
407.818207	145.360000
407.911804	145.680000
408.005432	145.680000
408.099060	145.740000
408.192688	146.620000
408.286285	146.280000
408.379913	145.800000
408.473572	146.040000
408.567169	145.260000
408.660828	144.920000
408.754395	144.820000
408.848053	145.040000
408.941650	145.220000
409.035309	145.340000
409.128906	145.400000
409.222565	145.580000
409.316132	145.720000
409.409790	145.100000
409.503387	145.160000
409.597046	145.040000
409.690674	145.060000
409.784302	145.040000
409.877930	145.120000
409.971558	145.120000
410.065186	145.140000
410.158783	145.060000
410.252411	145.040000
410.346039	145.360000
410.439667	145.420000
410.533295	145.860000
410.626923	145.940000
410.720551	145.880000
410.814209	146.240000
410.907806	146.100000
411.001465	145.440000
411.095062	145.560000
411.188721	145.640000
411.282318	145.340000
411.375977	145.160000
411.469574	145.420000
411.563232	145.120000
411.656830	144.720000
411.750488	144.500000
411.844086	144.600000
411.937744	144.640000
412.031372	144.680000
412.125000	145.080000
412.218628	144.920000
412.312256	145.300000
412.405884	145.680000
412.499512	145.520000
412.593170	145.640000
412.686798	146.020000
412.780426	146.040000
412.874054	146.040000
412.967682	146.280000
413.061310	146.820000
413.154968	146.880000
413.248566	146.620000
413.342224	146.260000
413.435852	146.340000
413.529510	145.680000
413.623108	145.340000
413.716766	145.480000
413.810364	145.960000
413.904022	145.680000
413.997650	145.500000
414.091309	146.200000
414.184906	145.980000
414.278564	145.400000
414.372192	145.800000
414.465851	146.060000
414.559479	145.660000
414.653107	146.580000
414.746735	146.460000
414.840393	146.480000
414.934021	146.880000
415.027649	146.560000
415.121277	146.180000
415.214935	146.480000
415.308563	146.240000
415.402191	145.180000
415.495850	145.140000
415.589478	144.800000
415.683136	144.720000
415.776733	145.200000
415.870422	146.040000
415.964020	145.660000
416.057678	145.680000
416.151306	145.900000
416.244965	145.520000
416.338562	145.380000
416.432251	146.360000
416.525848	147.100000
416.619507	147.220000
416.713165	147.520000
416.806793	147.220000
416.900421	146.940000
416.994080	146.020000
417.087708	145.820000
417.181366	145.360000
417.274994	145.420000
417.368622	145.700000
417.462280	146.280000
417.555908	145.940000
417.649567	145.840000
417.743195	145.900000
417.836853	145.620000
417.930481	145.780000
418.024170	146.300000
418.117767	146.820000
418.211426	147.160000
418.305054	147.440000
418.398712	146.760000
418.492340	146.540000
418.585999	146.900000
418.679626	146.840000
418.773285	146.480000
418.866913	146.960000
418.960571	147.280000
419.054230	146.860000
419.147858	146.940000
419.241516	147.120000
419.335144	146.720000
419.428802	146.340000
419.522461	146.140000
419.616089	145.560000
419.709747	145.760000
419.803375	146.160000
419.897034	146.060000
419.990662	145.940000
420.084320	146.700000
420.177979	146.720000
420.271606	146.620000
420.365295	147.040000
420.458893	147.220000
420.552582	147.000000
420.646210	146.860000
420.739868	146.640000
420.833496	146.360000
420.927155	146.040000
421.020782	145.640000
421.114471	144.880000
421.208069	145.080000
421.301758	145.480000
421.395386	145.780000
421.489044	145.840000
421.582703	146.480000
421.676361	146.900000
421.769989	146.340000
421.863647	146.580000
421.957306	146.760000
422.050934	146.520000
422.144592	146.140000
422.238251	145.760000
422.331909	145.360000
422.425537	145.220000
422.519196	145.220000
422.612854	144.780000
422.706543	144.860000
422.800140	145.120000
422.893829	144.620000
422.987457	144.560000
423.081146	144.820000
423.174744	145.840000
423.268433	145.480000
423.362061	145.540000
423.455750	145.260000
423.549347	145.100000
423.643036	144.140000
423.736664	144.740000
423.830353	144.960000
423.924011	145.680000
424.017639	145.340000
424.111298	145.540000
424.204956	144.920000
424.298615	144.940000
424.392273	144.720000
424.485931	145.160000
424.579559	145.260000
424.673218	145.420000
424.766876	145.940000
424.860535	145.720000
424.954193	145.460000
425.047882	145.880000
425.141510	146.080000
425.235199	145.840000
425.328796	145.520000
425.422485	145.680000
425.516113	144.960000
425.609802	144.780000
425.703430	144.780000
425.797119	144.940000
425.890747	145.120000
425.984436	145.660000
426.078064	145.980000
426.171753	145.840000
426.265411	145.620000
426.359070	145.740000
426.452728	145.200000
426.546356	145.060000
426.640015	144.940000
426.733673	145.020000
426.827332	144.700000
426.920990	145.360000
427.014648	144.660000
427.108307	145.040000
427.201965	145.780000
427.295624	145.900000
427.389282	145.040000
427.482941	145.420000
427.576630	145.160000
427.670258	144.360000
427.763947	143.940000
427.857574	144.280000
427.951263	144.680000
428.044922	144.520000
428.138611	144.680000
428.232239	145.560000
428.325928	145.960000
428.419556	146.020000
428.513245	146.100000
428.606903	146.180000
428.700562	145.260000
428.794220	144.400000
428.887878	143.920000
428.981537	144.160000
429.075195	144.240000
429.168854	145.040000
429.262512	145.360000
429.356201	145.480000
429.449860	145.320000
429.543518	145.400000
429.637177	145.200000
429.730835	144.920000
429.824493	145.080000
429.918182	145.260000
430.011810	144.680000
430.105530	144.380000
430.199158	144.920000
430.292847	144.500000
430.386475	143.840000
430.480164	144.100000
430.573792	143.920000
430.667511	143.840000
430.761139	143.960000
430.854828	144.860000
430.948456	144.940000
431.042145	145.740000
431.135834	145.400000
431.229492	145.720000
431.323151	145.700000
431.416809	145.840000
431.510468	145.320000
431.604156	145.540000
431.697815	145.360000
431.791473	144.780000
431.885132	144.400000
431.978821	144.620000
432.072479	145.160000
432.166138	145.640000
432.259827	145.860000
432.353485	146.060000
432.447174	146.380000
432.540802	145.920000
432.634491	145.860000
432.728149	145.960000
432.821838	146.700000
432.915466	146.040000
433.009186	146.120000
433.102814	145.540000
433.196503	145.460000
433.290131	145.100000
433.383850	145.700000
433.477509	145.580000
433.571167	146.520000
433.664856	146.860000
433.758514	147.140000
433.852173	146.980000
433.945862	147.160000
434.039520	146.540000
434.133179	145.760000
434.226868	145.360000
434.320526	144.640000
434.414185	145.140000
434.507874	144.800000
434.601562	145.300000
434.695221	145.120000
434.788910	145.640000
434.882538	145.300000
434.976257	145.220000
435.069885	145.240000
435.163574	145.500000
435.257233	145.180000
435.350922	145.140000
435.444580	144.960000
435.538269	144.740000
435.631897	144.940000
435.725616	145.560000
435.819275	145.880000
435.912964	146.680000
436.006622	146.980000
436.100311	146.800000
436.193970	146.020000
436.287628	145.560000
436.381317	145.120000
436.474976	144.540000
436.568665	144.120000
436.662323	144.500000
436.756012	144.720000
436.849670	144.620000
436.943390	144.800000
437.037018	144.720000
437.130737	144.640000
437.224365	144.280000
437.318085	144.380000
437.411713	144.560000
437.505432	145.320000
437.599060	145.840000
437.692780	146.640000
437.786407	146.500000
437.880127	146.480000
437.973755	145.920000
438.067474	145.460000
438.161133	145.260000
438.254822	146.060000
438.348480	145.840000
438.442169	146.600000
438.535828	146.700000
438.629517	145.960000
438.723175	145.080000
438.816864	145.660000
438.910553	144.840000
439.004211	144.600000
439.097900	144.700000
439.191559	145.020000
439.285248	144.420000
439.378906	144.940000
439.472626	144.940000
439.566284	144.800000
439.659973	145.000000
439.753632	145.160000
439.847321	145.580000
439.940979	145.700000
440.034698	146.100000
440.128326	145.600000
440.222046	145.340000
440.315674	144.480000
440.409393	144.720000
440.503082	144.420000
440.596741	144.940000
440.690430	145.500000
440.784088	145.280000
440.877777	144.460000
440.971466	144.660000
441.065125	144.020000
441.158813	143.580000
441.252502	143.640000
441.346161	144.400000
441.439850	144.680000
441.533539	144.620000
441.627197	144.960000
441.720886	144.860000
441.814606	144.960000
441.908234	145.040000
442.001953	145.340000
442.095612	145.180000
442.189301	145.640000
442.282959	145.540000
442.376678	144.760000
442.470306	145.300000
442.564026	145.200000
442.657684	145.340000
442.751404	145.200000
442.845032	146.300000
442.938751	145.740000
443.032440	145.900000
443.126099	145.460000
443.219788	145.700000
443.313477	145.280000
443.407166	145.700000
443.500824	145.660000
443.594513	145.700000
443.688202	145.580000
443.781891	144.980000
443.875549	144.580000
443.969238	144.620000
444.062927	144.920000
444.156647	145.020000
444.250275	145.680000
444.343994	145.700000
444.437653	145.880000
444.531372	145.920000
444.625031	145.500000
444.718719	144.720000
444.812378	144.800000
444.906097	144.580000
444.999756	144.140000
445.093445	144.340000
445.187103	144.960000
445.280823	145.400000
445.374512	144.920000
445.468201	145.180000
445.561859	145.200000
445.655548	145.320000
445.749237	144.480000
445.842926	144.840000
445.936615	145.340000
446.030304	145.160000
446.123962	145.400000
446.217651	145.640000
446.311340	146.200000
446.405029	145.800000
446.498749	145.740000
446.592407	145.040000
446.686096	145.180000
446.779755	145.240000
446.873474	145.020000
446.967133	145.200000
447.060852	144.940000
447.154510	145.020000
447.248230	144.660000
447.341858	145.100000
447.435577	144.760000
447.529236	144.980000
447.622955	144.840000
447.716644	144.720000
447.810333	144.440000
447.904022	145.120000
447.997711	145.360000
448.091400	145.640000
448.185059	145.820000
448.278748	146.020000
448.372437	145.680000
448.466125	145.920000
448.559814	145.880000
448.653503	146.060000
448.747192	146.380000
448.840912	146.640000
448.934570	146.740000
449.028290	146.900000
449.121948	146.380000
449.215637	145.840000
449.309296	145.420000
449.403015	145.160000
449.496674	144.840000
449.590393	144.840000
449.684052	144.720000
449.777771	145.400000
449.871429	144.780000
449.965149	144.760000
450.058838	145.020000
450.152527	145.520000
450.246216	144.900000
450.339905	145.420000
450.433594	145.520000
450.527283	146.000000
450.620972	145.420000
450.714661	145.720000
450.808350	145.680000
450.902039	145.580000
450.995728	145.060000
451.089417	145.020000
451.183105	144.900000
451.276794	145.240000
451.370514	144.760000
451.464172	143.920000
451.557892	144.040000
451.651550	144.480000
451.745270	143.940000
451.838928	143.940000
451.932648	144.900000
452.026306	145.300000
452.120026	144.620000
452.213684	145.080000
452.307404	145.300000
452.401062	145.020000
452.494781	145.120000
452.588470	145.340000
452.682159	144.860000
452.775848	145.040000
452.869537	144.760000
452.963226	144.300000
453.056915	144.400000
453.150604	144.760000
453.244293	145.140000
453.337982	145.940000
453.431671	146.340000
453.525360	146.660000
453.619049	146.520000
453.712769	146.340000
453.806427	145.920000
453.900146	145.380000
453.993805	144.940000
454.087555	145.280000
454.181213	145.220000
454.274933	144.920000
454.368591	145.160000
454.462311	144.980000
454.555969	144.360000
454.649689	145.000000
454.743347	144.940000
454.837067	145.560000
454.930756	146.180000
455.024445	146.600000
455.118134	146.200000
455.211853	146.660000
455.305542	146.220000
455.399231	145.820000
455.492920	145.660000
455.586609	145.520000
455.680298	145.540000
455.773987	145.080000
455.867676	145.120000
455.961365	145.480000
456.055084	145.360000
456.148773	145.180000
456.242493	145.520000
456.336151	145.620000
456.429871	145.640000
456.523529	146.140000
456.617249	145.900000
456.710907	146.500000
456.804626	146.440000
456.898315	146.020000
456.992035	145.860000
457.085693	146.040000
457.179413	145.080000
457.273102	145.720000
457.366791	145.860000
457.460480	145.960000
457.554199	146.480000
457.647888	146.840000
457.741577	146.200000
457.835266	146.340000
457.928955	146.340000
458.022644	146.340000
458.116364	146.520000
458.210052	146.400000
458.303741	146.500000
458.397461	145.860000
458.491119	145.200000
458.584839	145.020000
458.678528	144.940000
458.772247	144.620000
458.865906	145.020000
458.959625	146.200000
459.053284	146.300000
459.147003	146.120000
459.240692	146.700000
459.334412	146.680000
459.428070	145.740000
459.521790	145.520000
459.615479	145.860000
459.709198	146.020000
459.802887	145.600000
459.896576	145.740000
459.990265	145.660000
460.083954	145.600000
460.177673	145.000000
460.271362	144.940000
460.365051	144.680000
460.458740	144.920000
460.552429	144.620000
460.646149	144.580000
460.739838	144.640000
460.833527	144.680000
460.927246	144.280000
461.020905	144.440000
461.114655	144.320000
461.208313	144.960000
461.302032	144.600000
461.395691	145.200000
461.489441	145.380000
461.583099	145.620000
461.676819	144.940000
461.770477	145.640000
461.864197	145.200000
461.957916	145.000000
462.051605	144.240000
462.145294	145.280000
462.238983	144.900000
462.332703	145.420000
462.426392	145.960000
462.520081	146.500000
462.613770	145.800000
462.707489	146.040000
462.801178	145.780000
462.894867	145.660000
462.988556	145.840000
463.082275	145.920000
463.175964	145.420000
463.269684	145.520000
463.363342	145.060000
463.457092	144.420000
463.550751	144.680000
463.644470	144.980000
463.738129	144.920000
463.831879	145.140000
463.925537	146.160000
464.019257	146.060000
464.112946	146.400000
464.206665	146.040000
464.300323	146.000000
464.394043	145.440000
464.487762	145.380000
464.581451	145.320000
464.675140	145.180000
464.768829	145.540000
464.862549	145.660000
464.956238	145.640000
465.049927	145.620000
465.143646	146.080000
465.237335	145.560000
465.331024	145.920000
465.424713	145.860000
465.518433	145.780000
465.612152	145.600000
465.705811	145.960000
465.799561	145.600000
465.893219	145.200000
465.986938	145.200000
466.080597	145.160000
466.174347	145.560000
466.268005	145.600000
466.361725	145.920000
466.455414	145.880000
466.549133	145.700000
466.642792	145.540000
466.736542	145.340000
466.830231	145.180000
466.923920	145.040000
467.017609	145.260000
467.111328	144.620000
467.205017	144.840000
467.298706	145.180000
467.392426	145.200000
467.486115	145.240000
467.579803	145.180000
467.673523	145.220000
467.767212	145.140000
467.860901	145.200000
467.954651	145.640000
468.048309	146.240000
468.142029	146.060000
468.235718	146.040000
468.329437	145.900000
468.423096	145.440000
468.516846	145.040000
468.610504	144.740000
468.704224	144.180000
468.797913	144.120000
468.891632	144.300000
468.985291	144.260000
469.079010	144.560000
469.172729	144.660000
469.266418	145.260000
469.360107	145.220000
469.453827	145.220000
469.547516	145.300000
469.641205	146.100000
469.734924	146.160000
469.828613	146.440000
469.922302	146.900000
470.016022	146.740000
470.109711	146.040000
470.203430	145.340000
470.297150	144.360000
470.390808	144.180000
470.484558	144.260000
470.578217	145.060000
470.671936	145.560000
470.765625	146.740000
470.859344	146.320000
470.953003	146.520000
471.046753	145.760000
471.140411	144.920000
471.234131	144.580000
471.327820	145.120000
471.421539	144.920000
471.515228	144.760000
471.608948	145.460000
471.702637	145.040000
471.796326	144.700000
471.890045	145.020000
471.983734	145.280000
472.077423	144.840000
472.171143	145.180000
472.264832	145.300000
472.358521	144.900000
472.452240	144.660000
472.545929	145.420000
472.639648	145.600000
472.733337	145.640000
472.827057	145.860000
472.920746	146.360000
473.014465	146.260000
473.108124	146.040000
473.201874	146.240000
473.295532	146.140000
473.389252	146.160000
473.482941	145.980000
473.576660	145.700000
473.670319	145.540000
473.764069	145.760000
473.857727	145.700000
473.951477	145.980000
474.045166	146.580000
474.138855	146.300000
474.232574	146.100000
474.326263	146.020000
474.419952	146.040000
474.513672	145.720000
474.607361	145.520000
474.701050	145.720000
474.794769	146.220000
474.888458	146.300000
474.982178	146.580000
475.075867	146.880000
475.169586	146.680000
475.263275	146.300000
475.356995	145.880000
475.450653	145.540000
475.544403	145.280000
475.638062	145.980000
475.731812	145.680000
475.825470	145.360000
475.919189	145.600000
476.012878	146.000000
476.106598	145.260000
476.200256	145.520000
476.294006	145.820000
476.387695	145.560000
476.481384	145.340000
476.575104	145.580000
476.668793	145.240000
476.762512	144.760000
476.856201	145.460000
476.949890	145.260000
477.043610	144.540000
477.137299	144.580000
477.230988	145.140000
477.324707	144.280000
477.418396	145.040000
477.512146	145.420000
477.605804	145.500000
477.699524	145.800000
477.793213	145.660000
477.886932	145.180000
477.980591	144.940000
478.074341	144.860000
478.167999	144.040000
478.261749	144.460000
478.355408	144.520000
478.449127	144.920000
478.542816	145.660000
478.636536	146.660000
478.730225	146.760000
478.823944	147.000000
478.917633	146.920000
479.011322	146.740000
479.105042	146.440000
479.198730	146.420000
479.292450	145.980000
479.386139	146.320000
479.479828	146.280000
479.573547	146.440000
479.667267	146.280000
479.760925	146.400000
479.854675	146.180000
479.948334	146.000000
480.042084	145.260000
480.135742	145.540000
480.229462	145.240000
480.323151	145.140000
480.416870	144.660000
480.510529	145.060000
480.604279	144.440000
480.697937	145.000000
480.791656	144.780000
480.885345	145.000000
480.979065	144.940000
481.072754	145.900000
481.166473	146.140000
481.260132	146.480000
481.353882	146.480000
481.447540	146.180000
481.541260	145.920000
481.635010	145.160000
481.728668	144.980000
481.822388	144.800000
481.916077	145.320000
482.009796	145.120000
482.103485	145.740000
482.197205	145.540000
482.290863	145.740000
482.384613	145.180000
482.478271	144.820000
482.571991	144.780000
482.665680	145.240000
482.759399	146.000000
482.853058	146.700000
482.946808	146.680000
483.040466	146.540000
483.134216	146.400000
483.227875	145.680000
483.321594	146.020000
483.415283	146.240000
483.509003	146.060000
483.602661	145.680000
483.696411	145.960000
483.790070	145.460000
483.883789	145.280000
483.977478	145.380000
484.071198	145.720000
484.164917	145.080000
484.258606	144.520000
484.352325	145.020000
484.445984	145.200000
484.539734	145.080000
484.633392	145.100000
484.727142	145.740000
484.820801	145.400000
484.914520	145.100000
485.008209	145.380000
485.101929	145.860000
485.195587	145.620000
485.289337	145.520000
485.382996	145.760000
485.476715	145.480000
485.570404	145.640000
485.664124	145.380000
485.757782	145.680000
485.851532	145.260000
485.945190	145.400000
486.038910	145.340000
486.132599	146.020000
486.226318	145.720000
486.319977	145.720000
486.413727	145.880000
486.507446	145.540000
486.601105	144.640000
486.694855	144.120000
486.788513	144.000000
486.882233	143.780000
486.975922	143.780000
487.069641	143.920000
487.163300	144.420000
487.257050	145.620000
487.350708	145.300000
487.444427	145.160000
487.538116	145.420000
487.631836	145.320000
487.725494	144.760000
487.819214	145.000000
487.912903	145.320000
488.006622	145.760000
488.100281	146.340000
488.194031	146.320000
488.287689	146.860000
488.381409	147.380000
488.475098	147.020000
488.568817	146.840000
488.662476	146.520000
488.756226	145.680000
488.849945	144.520000
488.943604	144.420000
489.037354	144.700000
489.131012	144.680000
489.224731	145.060000
489.318390	145.400000
489.412140	145.600000
489.505798	145.220000
489.599518	145.240000
489.693207	145.200000
489.786926	145.240000
489.880585	144.780000
489.974335	144.920000
490.067993	145.900000
490.161713	146.120000
490.255371	146.800000
490.349121	147.040000
490.442780	146.920000
490.536499	145.680000
490.630188	145.640000
490.723907	144.980000
490.817566	145.060000
490.911285	144.900000
491.004974	144.940000
491.098694	144.300000
491.192413	144.840000
491.286102	144.840000
491.379822	145.040000
491.473480	145.380000
491.567200	145.660000
491.660889	145.020000
491.754608	144.860000
491.848267	144.780000
491.941986	144.640000
492.035675	144.820000
492.129395	145.060000
492.223053	144.820000
492.316772	144.860000
492.410461	144.740000
492.504181	144.740000
492.597839	144.700000
492.691559	145.120000
492.785248	145.220000
492.878967	145.700000
492.972626	145.600000
493.066345	145.640000
493.160034	145.180000
493.253754	144.780000
493.347412	144.020000
493.441132	144.120000
493.534882	144.740000
493.628540	145.480000
493.722260	146.000000
493.815918	146.420000
493.909668	146.920000
494.003326	146.820000
494.097046	146.240000
494.190704	145.640000
494.284454	145.800000
494.378113	145.540000
494.471832	145.100000
494.565491	145.040000
494.659210	145.360000
494.752899	144.860000
494.846619	144.500000
494.940277	144.680000
495.033997	144.600000
495.127686	144.580000
495.221405	144.720000
495.315063	145.040000
495.408783	144.800000
495.502441	145.200000
495.596191	145.320000
495.689850	145.320000
495.783569	145.500000
495.877228	145.860000
495.970947	145.620000
496.064697	145.440000
496.158356	146.320000
496.252075	146.240000
496.345734	146.100000
496.439453	146.920000
496.533142	146.960000
496.626862	146.860000
496.720520	146.740000
496.814240	146.540000
496.907898	145.960000
497.001617	146.200000
497.095306	145.560000
497.189026	145.500000
497.282684	146.000000
497.376404	146.160000
497.470062	145.800000
497.563782	146.080000
497.657471	145.760000
497.751190	145.080000
497.844849	144.880000
497.938568	145.120000
498.032227	144.920000
498.125946	145.260000
498.219635	145.160000
498.313354	145.180000
498.407074	145.080000
498.500732	145.180000
498.594452	145.520000
498.688110	145.620000
498.781830	145.360000
498.875519	145.060000
498.969238	144.960000
499.062897	144.400000
499.156616	144.920000
499.250275	145.180000
499.343994	145.180000
499.437653	145.300000
499.531372	145.640000
499.625061	145.720000
499.718781	146.080000
499.812439	146.680000
499.906158	146.440000
499.999817	146.060000
500.093536	145.840000
500.187195	145.840000
500.280914	145.660000
500.374573	145.960000
500.468323	145.880000
500.561981	145.940000
500.655701	145.280000
500.749420	145.140000
500.843079	145.300000
500.936798	145.580000
501.030457	145.860000
501.124176	146.200000
501.217834	146.040000
501.311554	145.620000
501.405212	145.200000
501.498962	144.460000
501.592621	144.420000
501.686340	145.020000
501.779999	145.560000
501.873718	146.040000
501.967377	146.240000
502.061096	146.440000
502.154755	145.940000
502.248474	145.640000
502.342133	145.780000
502.435852	145.980000
502.529510	146.680000
502.623230	147.200000
502.716888	146.780000
502.810608	146.780000
502.904266	146.840000
502.997986	145.980000
503.091705	145.400000
503.185364	145.340000
503.279083	145.220000
503.372772	145.120000
503.466492	145.080000
503.560150	145.120000
503.653870	145.620000
503.747528	145.380000
503.841248	145.240000
503.934906	145.220000
504.028625	145.180000
504.122284	145.300000
504.216003	146.060000
504.309662	145.520000
504.403381	145.840000
504.497040	145.780000
504.590759	145.400000
504.684418	145.400000
504.778137	146.260000
504.871796	146.420000
504.965515	146.320000
505.059174	146.440000
505.152893	145.420000
505.246521	144.660000
505.340240	143.960000
505.433899	144.260000
505.527618	144.440000
505.621338	144.900000
505.714996	145.000000
505.808716	145.120000
505.902374	145.480000
505.996094	145.560000
506.089752	145.520000
506.183472	145.760000
506.277130	145.840000
506.370850	145.560000
506.464508	145.060000
506.558228	145.000000
506.651886	144.680000
506.745605	144.780000
506.839264	144.800000
506.932983	145.280000
507.026611	145.320000
507.120331	145.900000
507.213989	145.540000
507.307709	145.420000
507.401367	145.540000
507.495087	146.540000
507.588745	146.240000
507.682465	147.020000
507.776123	146.800000
507.869843	146.580000
507.963531	145.800000
508.057190	146.420000
508.150909	145.660000
508.244568	146.100000
508.338287	145.360000
508.431946	145.160000
508.525665	144.600000
508.619324	144.960000
508.713013	144.940000
508.806671	145.880000
508.900391	146.680000
508.994049	147.220000
509.087769	146.680000
509.181427	146.700000
509.275146	146.260000
509.368774	145.340000
509.462494	144.800000
509.556152	145.120000
509.649872	145.380000
509.743530	145.700000
509.837250	145.940000
509.930878	145.820000
510.024597	145.800000
510.118256	145.000000
510.211975	144.660000
510.305695	144.300000
510.399353	144.960000
510.493042	145.420000
510.586700	145.860000
510.680420	146.640000
510.774078	146.800000
510.867798	146.460000
510.961426	145.960000
511.055145	145.820000
511.148804	145.340000
511.242523	145.760000
511.336151	145.900000
511.429871	146.360000
511.523529	146.340000
511.617249	146.020000
511.710876	145.720000
511.804596	145.320000
511.898254	144.660000
511.991974	144.820000
512.085632	145.000000
512.179321	144.960000
512.272949	145.300000
512.366699	145.920000
512.460327	145.880000
512.554077	146.680000
512.647766	146.580000
512.741394	146.360000
512.835144	146.480000
512.928772	146.160000
513.022461	145.500000
513.116150	145.400000
513.209839	146.140000
513.303467	145.740000
513.397217	145.520000
513.490845	145.540000
513.584595	145.620000
513.678223	144.920000
513.771912	144.440000
513.865601	145.020000
513.959290	144.540000
514.052917	144.540000
514.146667	145.300000
514.240295	145.860000
514.333984	146.060000
514.427673	146.120000
514.521362	146.580000
514.614990	145.520000
514.708740	145.740000
514.802368	145.660000
514.896057	145.940000
514.989746	146.340000
515.083435	146.440000
515.177124	146.300000
515.270752	145.940000
515.364502	145.960000
515.458130	145.640000
515.551819	145.580000
515.645508	145.180000
515.739197	145.200000
515.832825	145.120000
515.926575	144.780000
516.020203	145.300000
516.113892	145.960000
516.207520	146.100000
516.301270	146.140000
516.394897	146.020000
516.488586	146.280000
516.582275	145.820000
516.675964	145.160000
516.769592	145.140000
516.863281	146.020000
516.956970	146.120000
517.050659	146.200000
517.144287	146.700000
517.238037	146.760000
517.331665	146.040000
517.425354	145.320000
517.519043	145.100000
517.612732	145.520000
517.706421	145.400000
517.800049	144.900000
517.893738	144.960000
517.987427	145.140000
518.081116	144.720000
518.174744	144.520000
518.268433	145.480000
518.362122	146.160000
518.455811	146.320000
518.549438	147.000000
518.643127	147.940000
518.736816	147.260000
518.830505	146.440000
518.924133	146.200000
519.017822	146.100000
519.111511	145.320000
519.205200	145.580000
519.298828	145.720000
519.392517	145.500000
519.486206	145.320000
519.579895	145.660000
519.673523	145.480000
519.767212	145.280000
519.860901	145.740000
519.954590	145.480000
520.048279	144.900000
520.141907	145.000000
520.235596	146.180000
520.329224	146.480000
520.422974	146.460000
520.516602	146.800000
520.610291	146.300000
520.703918	145.900000
520.797607	145.460000
520.891296	145.540000
520.984985	145.740000
521.078613	146.740000
521.172302	145.940000
521.265930	146.900000
521.359680	147.380000
521.453308	147.220000
521.546997	146.900000
521.640625	147.240000
521.734314	146.300000
521.827942	145.900000
521.921692	146.220000
522.015320	146.220000
522.109009	146.140000
522.202698	145.760000
522.296326	145.660000
522.390015	145.780000
522.483704	145.840000
522.577393	145.880000
522.671021	146.180000
522.764709	146.000000
522.858337	146.040000
522.952026	145.720000
523.045654	146.240000
523.139404	146.880000
523.233032	147.020000
523.326721	146.460000
523.420349	146.400000
523.514038	145.860000
523.607666	145.900000
523.701355	145.520000
523.795044	145.500000
523.888733	145.540000
523.982361	145.980000
524.076050	145.360000
524.169678	145.880000
524.263367	145.980000
524.356995	145.900000
524.450684	145.560000
524.544373	145.200000
524.638062	145.100000
524.731750	145.260000
524.825378	145.160000
524.919067	144.740000
525.012695	145.160000
525.106384	145.120000
525.200012	145.100000
525.293701	145.100000
525.387329	145.480000
525.481018	145.620000
525.574646	145.820000
525.668396	145.820000
525.762024	146.380000
525.855713	146.360000
525.949341	145.780000
526.043030	145.720000
526.136658	145.580000
526.230347	145.220000
526.323975	144.920000
526.417664	144.880000
526.511292	144.800000
526.604980	144.680000
526.698608	144.780000
526.792297	144.940000
526.885925	145.580000
526.979614	145.760000
527.073303	145.700000
527.166931	145.520000
527.260620	145.920000
527.354309	145.940000
527.447998	145.540000
527.541626	145.280000
527.635315	145.320000
527.728943	145.480000
527.822632	145.420000
527.916260	145.580000
528.009949	146.120000
528.103577	145.960000
528.197266	145.280000
528.290894	145.120000
528.384583	144.960000
528.478210	144.720000
528.571899	145.080000
528.665527	145.380000
528.759216	145.460000
528.852844	145.840000
528.946533	145.760000
529.040161	145.600000
529.133850	145.580000
529.227478	145.980000
529.321167	146.220000
529.414856	146.700000
529.508484	147.300000
529.602173	146.840000
529.695801	146.580000
529.789490	146.380000
529.883057	145.960000
529.976746	145.780000
530.070374	146.480000
530.164062	146.240000
530.257690	146.140000
530.351379	146.720000
530.445007	146.500000
530.538696	145.780000
530.632324	146.100000
530.726013	146.180000
530.819641	145.980000
530.913330	146.160000
531.006958	146.180000
531.100647	146.160000
531.194275	146.020000
531.287964	145.760000
531.381592	145.180000
531.475220	145.600000
531.568848	145.220000
531.662537	144.940000
531.756226	145.160000
531.849854	145.260000
531.943542	145.220000
532.037170	144.920000
532.130859	145.600000
532.224487	145.080000
532.318176	144.780000
532.411804	145.200000
532.505432	145.660000
532.599060	145.060000
532.692749	145.120000
532.786377	145.660000
532.880066	144.820000
532.973694	144.300000
533.067383	144.500000
533.161011	144.600000
533.254639	144.300000
533.348267	144.080000
533.441956	144.560000
533.535583	144.220000
533.629272	144.500000
533.722900	144.240000
533.816589	144.440000
533.910156	144.700000
534.003845	144.660000
534.097534	144.820000
534.191162	145.600000
534.284851	145.860000
534.378479	145.360000
534.472107	145.400000
534.565735	145.000000
534.659424	144.900000
534.753052	145.340000
534.846741	145.320000
534.940369	146.000000
535.033997	146.140000
535.127625	146.040000
535.221313	146.100000
535.314941	146.120000
535.408630	145.440000
535.502197	145.460000
535.595886	145.320000
535.689514	144.720000
535.783203	145.240000
535.876831	145.900000
535.970459	145.880000
536.064087	145.560000
536.157776	145.740000
536.251404	145.840000
536.345093	145.200000
536.438721	145.400000
536.532349	145.900000
536.626038	146.140000
536.719666	146.140000
536.813293	146.340000
536.906921	146.260000
537.000610	146.440000
537.094238	146.300000
537.187866	146.100000
537.281494	146.100000
537.375183	146.060000
537.468811	145.480000
537.562439	145.500000
537.656067	145.480000
537.749756	145.400000
537.843384	145.960000
537.937012	146.520000
538.030640	146.200000
538.124329	145.800000
538.217896	146.080000
538.311584	145.840000
538.405212	145.500000
538.498901	145.920000
538.592468	146.620000
538.686157	146.020000
538.779785	145.180000
538.873413	144.960000
538.967102	144.380000
539.060730	143.700000
539.154358	144.240000
539.247986	144.760000
539.341675	144.840000
539.435242	145.020000
539.528931	145.360000
539.622559	144.640000
539.716187	144.960000
539.809814	145.140000
539.903503	145.260000
539.997070	145.000000
540.090759	145.440000
540.184387	144.860000
540.278015	145.080000
540.371643	145.300000
540.465332	145.380000
540.558899	145.380000
540.652588	145.760000
540.746216	145.460000
540.839844	145.460000
540.933472	145.580000
541.027100	145.400000
541.120728	145.360000
541.214417	145.520000
541.308044	145.820000
541.401672	145.700000
541.495300	145.660000
541.588928	145.420000
541.682617	145.280000
541.776184	144.940000
541.869873	145.100000
541.963440	145.460000
542.057129	145.520000
542.150757	145.460000
542.244385	145.240000
542.338013	144.960000
542.431641	144.800000
542.525269	144.760000
542.618958	145.300000
542.712524	145.540000
542.806213	145.760000
542.899780	145.840000
542.993469	145.720000
543.087036	145.220000
543.180725	144.520000
543.274292	144.540000
543.367981	144.780000
543.461548	145.380000
543.555237	145.180000
543.648926	145.840000
543.742493	146.420000
543.836182	146.440000
543.929749	145.780000
544.023437	145.960000
544.117004	145.980000
544.210693	145.640000
544.304260	145.640000
544.397949	145.740000
544.491516	146.000000
544.585205	146.180000
544.678772	145.780000
544.772461	146.100000
544.866028	146.060000
544.959717	146.120000
545.053284	145.640000
545.146973	146.000000
545.240540	145.680000
545.334229	146.380000
545.427795	146.000000
545.521423	146.280000
545.615051	146.120000
545.708679	146.180000
545.802307	145.640000
545.895935	145.980000
545.989624	146.440000
546.083191	146.420000
546.176880	146.240000
546.270447	145.660000
546.364136	146.000000
546.457703	145.540000
546.551331	145.420000
546.644958	145.540000
546.738586	146.360000
546.832214	145.720000
546.925842	145.540000
547.019409	146.220000
547.113098	145.760000
547.206665	145.240000
547.300354	145.720000
547.393921	146.060000
547.487549	146.020000
547.581177	146.080000
547.674805	146.300000
547.768433	145.580000
547.862061	145.380000
547.955627	144.440000
548.049316	145.020000
548.142883	145.220000
548.236572	145.760000
548.330139	145.900000
548.423767	146.140000
548.517456	145.860000
548.611023	145.960000
548.704651	145.480000
548.798279	145.380000
548.891907	146.000000
548.985474	145.780000
549.079163	145.760000
549.172729	145.780000
549.266357	145.500000
549.359985	145.060000
549.453613	144.800000
549.547180	144.620000
549.640869	145.080000
549.734436	145.200000
549.828064	145.660000
549.921631	145.660000
550.015320	145.240000
550.108887	145.620000
550.202515	145.860000
550.296143	145.300000
550.389771	145.740000
550.483337	146.160000
550.576965	145.720000
550.670593	145.880000
550.764221	146.260000
550.857849	146.280000
550.951477	145.880000
551.045105	145.600000
551.138672	145.420000
551.232300	144.940000
551.325928	145.080000
551.419556	145.500000
551.513123	145.840000
551.606750	145.940000
551.700378	146.180000
551.794006	145.860000
551.887573	145.680000
551.981201	145.800000
552.074768	145.560000
552.168457	145.500000
552.262024	146.400000
552.355652	146.500000
552.449219	146.880000
552.542847	147.040000
552.636475	146.620000
552.730103	145.700000
552.823669	145.760000
552.917297	145.080000
553.010864	144.920000
553.104553	145.320000
553.198181	145.020000
553.291748	145.520000
553.385376	145.860000
553.478943	145.680000
553.572571	146.040000
553.666199	146.780000
553.759827	146.280000
553.853394	145.580000
553.947021	145.820000
554.040588	145.440000
554.134216	145.120000
554.227783	145.740000
554.321411	146.440000
554.415039	146.120000
554.508667	146.080000
554.602234	146.360000
554.695862	145.500000
554.789429	145.260000
554.883057	145.560000
554.976624	145.660000
555.070251	145.400000
555.163818	145.380000
555.257507	145.460000
555.351074	145.360000
555.444702	146.220000
555.538330	145.940000
555.631897	146.560000
555.725525	146.420000
555.819092	146.460000
555.912720	145.400000
556.006287	146.200000
556.099915	145.720000
556.193481	146.000000
556.287109	146.140000
556.380676	145.940000
556.474304	145.820000
556.567871	146.200000
556.661499	145.520000
556.755066	145.420000
556.848694	145.760000
556.942261	145.380000
557.035889	145.360000
557.129517	145.660000
557.223145	145.920000
557.316711	146.040000
557.410339	146.380000
557.503906	146.020000
557.597473	146.680000
557.691040	146.560000
557.784668	146.560000
557.878296	146.140000
557.971863	146.440000
558.065491	146.060000
558.159058	145.720000
558.252686	146.240000
558.346252	147.180000
558.439880	146.620000
558.533447	146.400000
558.627075	146.320000
558.720642	145.520000
558.814270	145.040000
558.907837	145.440000
559.001465	145.340000
559.095032	146.040000
559.188660	146.440000
559.282227	145.880000
559.375854	146.560000
559.469360	146.340000
559.562988	146.380000
559.656555	146.160000
559.750183	146.740000
559.843750	146.280000
559.937378	146.420000
560.030945	145.920000
560.124573	0.000000
560.218140	0.000000
560.311707	0.000000
560.405334	0.000000
560.498901	0.000000
560.592529	0.000000
560.686096	0.000000
560.779724	0.000000
560.873291	0.000000
560.966858	0.000000
561.060425	0.000000
561.154053	0.000000
561.247620	0.000000
561.341248	0.000000
561.434814	0.000000
561.528381	0.000000
561.621948	0.000000
561.715576	0.000000
561.809143	0.000000
561.902771	0.000000
561.996277	0.000000
562.089905	0.000000
562.183472	0.000000
562.277100	0.000000
