Model Number: SPM-002-B   
Serial Number: 70087108
Firmware Version: 004.15.4
Exposure Time: 100000.000000us
Data Taken on: 11-12-2020 18:51:26.417
Wavelength	Amplitude
221.570786	0.000000
221.663406	0.000000
221.756027	0.000000
221.848648	0.000000
221.941269	0.000000
222.033905	0.000000
222.126526	0.000000
222.219162	0.000000
222.311798	0.000000
222.404419	0.000000
222.497055	0.000000
222.589676	0.000000
222.682312	0.000000
222.774933	0.000000
222.867569	0.000000
222.960205	0.000000
223.052841	0.000000
223.145462	0.000000
223.238098	0.000000
223.330734	0.000000
223.423386	0.000000
223.516022	0.000000
223.608658	0.000000
223.701309	0.000000
223.793945	0.000000
223.886581	0.000000
223.979218	0.000000
224.071869	0.000000
224.164505	0.000000
224.257156	0.000000
224.349792	0.000000
224.442444	0.000000
224.535095	0.000000
224.627747	0.000000
224.720398	0.000000
224.813034	0.000000
224.905685	0.000000
224.998337	145.260000
225.090988	144.740000
225.183640	144.580000
225.276291	144.380000
225.368942	144.720000
225.461594	145.560000
225.554245	146.000000
225.646912	145.980000
225.739578	146.240000
225.832230	146.640000
225.924896	145.860000
226.017548	146.280000
226.110199	146.940000
226.202866	146.540000
226.295532	146.000000
226.388184	146.220000
226.480850	145.820000
226.573517	145.280000
226.666168	145.640000
226.758835	146.040000
226.851501	146.380000
226.944183	146.260000
227.036850	145.900000
227.129517	145.880000
227.222183	145.940000
227.314850	146.220000
227.407516	146.780000
227.500198	147.580000
227.592865	147.260000
227.685532	146.760000
227.778214	146.100000
227.870880	146.220000
227.963562	146.420000
228.056229	147.040000
228.148926	147.280000
228.241592	148.300000
228.334274	147.600000
228.426956	147.300000
228.519638	146.980000
228.612305	146.560000
228.704987	146.180000
228.797668	146.300000
228.890350	145.780000
228.983032	145.200000
229.075714	145.780000
229.168396	145.400000
229.261108	145.020000
229.353790	145.160000
229.446472	145.680000
229.539169	145.440000
229.631851	145.140000
229.724533	145.580000
229.817230	145.940000
229.909912	146.580000
230.002609	146.780000
230.095306	146.980000
230.187988	147.000000
230.280685	146.480000
230.373383	145.260000
230.466095	144.960000
230.558792	144.980000
230.651474	144.720000
230.744171	144.960000
230.836868	145.020000
230.929581	145.320000
231.022278	145.620000
231.114975	145.880000
231.207672	145.780000
231.300369	146.480000
231.393082	146.460000
231.485779	146.060000
231.578506	146.000000
231.671204	146.140000
231.763916	145.960000
231.856613	145.760000
231.949326	146.020000
232.042023	145.880000
232.134735	145.800000
232.227448	145.500000
232.320160	145.800000
232.412872	145.840000
232.505585	146.520000
232.598297	146.760000
232.691010	146.660000
232.783722	146.400000
232.876450	146.960000
232.969162	146.580000
233.061874	145.860000
233.154587	145.740000
233.247314	146.120000
233.340027	145.400000
233.432739	145.640000
233.525467	145.920000
233.618179	146.600000
233.710907	145.920000
233.803635	146.340000
233.896347	146.040000
233.989090	146.900000
234.081818	146.440000
234.174545	146.940000
234.267258	146.520000
234.359985	146.580000
234.452713	145.840000
234.545441	146.060000
234.638168	145.800000
234.730896	146.300000
234.823639	146.300000
234.916367	146.760000
235.009094	146.920000
235.101822	146.940000
235.194580	146.620000
235.287308	146.740000
235.380051	146.060000
235.472778	146.180000
235.565521	146.760000
235.658249	146.420000
235.750992	146.160000
235.843719	146.280000
235.936462	146.260000
236.029205	145.400000
236.121948	145.120000
236.214691	145.640000
236.307449	146.440000
236.400192	145.860000
236.492935	145.940000
236.585678	146.240000
236.678421	145.720000
236.771164	145.520000
236.863907	146.180000
236.956665	146.740000
237.049408	148.280000
237.142151	147.980000
237.234909	148.260000
237.327652	148.220000
237.420410	147.900000
237.513153	146.800000
237.605927	147.020000
237.698669	146.180000
237.791428	145.300000
237.884186	145.680000
237.976944	145.200000
238.069702	145.500000
238.162445	145.460000
238.255203	145.800000
238.347961	145.740000
238.440720	145.860000
238.533478	145.320000
238.626266	145.060000
238.719025	145.480000
238.811783	145.500000
238.904541	145.400000
238.997314	145.500000
239.090073	145.660000
239.182831	145.600000
239.275604	146.060000
239.368362	146.000000
239.461136	146.400000
239.553909	146.420000
239.646667	146.060000
239.739441	145.440000
239.832214	145.860000
239.925003	145.980000
240.017761	146.440000
240.110535	147.220000
240.203308	146.840000
240.296082	146.780000
240.388855	146.440000
240.481628	146.380000
240.574417	146.140000
240.667191	146.500000
240.759964	146.160000
240.852737	146.180000
240.945526	146.060000
241.038315	145.880000
241.131088	145.820000
241.223877	146.160000
241.316650	145.760000
241.409439	146.140000
241.502228	145.700000
241.595001	146.120000
241.687790	145.760000
241.780579	145.960000
241.873367	145.800000
241.966141	146.040000
242.058929	145.320000
242.151718	145.700000
242.244507	146.180000
242.337311	145.600000
242.430099	146.240000
242.522903	146.720000
242.615692	146.320000
242.708481	146.180000
242.801270	146.760000
242.894073	146.340000
242.986862	146.180000
243.079651	146.780000
243.172455	146.820000
243.265244	146.900000
243.358063	146.400000
243.450867	146.740000
243.543655	146.320000
243.636459	146.220000
243.729263	146.000000
243.822067	146.400000
243.914856	146.680000
244.007660	147.200000
244.100464	147.020000
244.193268	146.720000
244.286072	146.680000
244.378876	146.020000
244.471680	145.220000
244.564499	145.480000
244.657318	146.340000
244.750122	146.460000
244.842926	145.980000
244.935745	146.580000
245.028549	146.260000
245.121368	145.720000
245.214172	145.720000
245.306992	146.400000
245.399796	146.060000
245.492615	146.460000
245.585434	146.320000
245.678253	146.320000
245.771072	146.100000
245.863892	146.860000
245.956711	146.900000
246.049530	146.800000
246.142349	146.800000
246.235168	147.300000
246.327988	147.100000
246.420807	146.980000
246.513626	146.960000
246.606445	146.480000
246.699280	146.280000
246.792099	145.760000
246.884918	145.440000
246.977753	145.400000
247.070587	145.960000
247.163422	145.540000
247.256241	145.900000
247.349075	146.280000
247.441895	146.520000
247.534729	146.100000
247.627563	146.020000
247.720383	146.320000
247.813217	146.000000
247.906052	145.780000
247.998886	146.040000
248.091736	146.140000
248.184570	145.840000
248.277405	145.960000
248.370239	146.880000
248.463074	147.600000
248.555908	147.780000
248.648743	147.440000
248.741592	147.480000
248.834427	146.720000
248.927261	145.760000
249.020111	146.500000
249.112946	147.280000
249.205795	146.860000
249.298630	147.040000
249.391495	147.320000
249.484344	146.560000
249.577179	145.980000
249.670029	146.460000
249.762878	146.860000
249.855728	146.680000
249.948563	146.580000
250.041412	146.300000
250.134262	146.460000
250.227112	146.020000
250.319962	146.100000
250.412827	146.160000
250.505692	145.960000
250.598541	145.700000
250.691391	145.640000
250.784241	145.440000
250.877106	145.820000
250.969955	146.040000
251.062805	146.480000
251.155670	147.020000
251.248520	146.900000
251.341385	146.920000
251.434235	146.460000
251.527100	146.100000
251.619965	145.400000
251.712814	146.480000
251.805695	146.380000
251.898560	146.920000
251.991425	147.180000
252.084290	147.500000
252.177155	146.580000
252.270020	146.100000
252.362885	146.020000
252.455750	145.880000
252.548615	145.320000
252.641479	145.320000
252.734360	145.440000
252.827240	145.280000
252.920105	145.320000
253.012970	145.480000
253.105850	145.460000
253.198715	145.000000
253.291595	145.300000
253.384460	145.000000
253.477341	145.420000
253.570221	145.720000
253.663086	145.820000
253.755966	146.420000
253.848846	146.300000
253.941727	146.280000
254.034592	146.100000
254.127472	145.760000
254.220367	145.280000
254.313248	145.420000
254.406128	144.880000
254.499008	145.240000
254.591904	146.320000
254.684784	146.760000
254.777664	146.920000
254.870544	146.780000
254.963440	146.400000
255.056335	146.280000
255.149216	145.500000
255.242111	145.760000
255.334991	146.340000
255.427887	146.600000
255.520767	146.600000
255.613663	147.000000
255.706558	146.340000
255.799438	145.960000
255.892334	145.580000
255.985229	145.480000
256.078125	145.220000
256.171021	145.380000
256.263916	145.840000
256.356812	146.220000
256.449707	145.620000
256.542603	145.320000
256.635498	145.820000
256.728394	145.400000
256.821289	145.060000
256.914215	145.800000
257.007080	146.600000
257.100006	146.500000
257.192932	147.200000
257.285828	147.600000
257.378723	147.440000
257.471619	146.960000
257.564545	146.420000
257.657440	146.120000
257.750336	146.100000
257.843262	145.880000
257.936157	147.000000
258.029053	147.520000
258.121979	147.560000
258.214874	147.440000
258.307800	147.280000
258.400696	145.980000
258.493622	145.780000
258.586517	145.020000
258.679443	145.240000
258.772339	145.080000
258.865265	145.080000
258.958160	145.040000
259.051086	145.860000
259.144012	145.640000
259.236938	146.540000
259.329834	146.620000
259.422791	146.320000
259.515717	145.800000
259.608612	145.520000
259.701538	145.500000
259.794464	145.460000
259.887390	145.440000
259.980316	145.560000
260.073212	145.420000
260.166138	144.320000
260.259064	144.940000
260.351990	145.500000
260.444916	145.400000
260.537842	145.840000
260.630768	146.880000
260.723694	146.460000
260.816620	146.300000
260.909546	146.460000
261.002472	146.100000
261.095398	145.220000
261.188354	145.500000
261.281281	145.180000
261.374207	145.320000
261.467133	146.020000
261.560089	146.420000
261.653015	145.820000
261.745972	146.300000
261.838867	146.540000
261.931824	146.400000
262.024780	146.020000
262.117706	146.640000
262.210663	146.600000
262.303589	146.440000
262.396515	146.220000
262.489471	147.160000
262.582397	146.820000
262.675354	146.340000
262.768280	146.140000
262.861237	146.180000
262.954163	145.860000
263.047119	146.160000
263.140045	146.300000
263.233002	146.420000
263.325958	146.680000
263.418884	146.320000
263.511841	146.180000
263.604797	146.260000
263.697723	146.140000
263.790680	145.740000
263.883636	146.260000
263.976593	145.940000
264.069550	146.120000
264.162476	146.040000
264.255463	145.820000
264.348419	145.600000
264.441376	145.980000
264.534332	145.440000
264.627289	145.680000
264.720245	146.200000
264.813202	145.740000
264.906158	146.000000
264.999115	146.520000
265.092072	146.260000
265.185028	146.720000
265.277985	146.880000
265.370941	146.460000
265.463898	146.160000
265.556854	146.160000
265.649811	145.200000
265.742798	145.500000
265.835754	145.900000
265.928711	146.440000
266.021667	146.340000
266.114655	146.700000
266.207611	146.820000
266.300568	145.860000
266.393585	145.180000
266.486511	145.640000
266.579498	145.000000
266.672485	144.920000
266.765442	145.400000
266.858429	146.060000
266.951385	145.720000
267.044342	146.100000
267.137329	145.940000
267.230316	146.160000
267.323273	145.780000
267.416260	146.140000
267.509216	146.080000
267.602203	146.120000
267.695160	146.200000
267.788147	146.160000
267.881134	145.820000
267.974091	146.120000
268.067078	145.900000
268.160065	145.460000
268.253052	145.540000
268.346008	145.560000
268.438995	145.200000
268.531982	145.320000
268.624969	145.260000
268.717987	145.620000
268.810944	145.740000
268.903961	145.740000
268.996948	145.200000
269.089905	145.740000
269.182892	145.480000
269.275879	145.860000
269.368866	145.800000
269.461853	146.400000
269.554871	146.180000
269.647858	146.360000
269.740845	146.260000
269.833832	146.500000
269.926819	146.400000
270.019806	146.440000
270.112793	145.640000
270.205811	145.780000
270.298798	145.820000
270.391785	146.220000
270.484772	146.060000
270.577789	146.580000
270.670776	146.160000
270.763763	146.240000
270.856750	146.040000
270.949768	145.840000
271.042786	145.940000
271.135773	145.780000
271.228790	146.020000
271.321808	145.640000
271.414795	145.520000
271.507782	145.280000
271.600800	145.260000
271.693817	144.980000
271.786804	145.560000
271.879822	145.920000
271.972809	145.880000
272.065826	146.360000
272.158844	145.920000
272.251831	146.380000
272.344849	146.320000
272.437866	146.040000
272.530853	145.840000
272.623871	146.340000
272.716888	145.200000
272.809906	145.420000
272.902893	145.740000
272.995911	145.320000
273.088928	145.180000
273.181946	145.620000
273.274963	145.300000
273.367981	145.000000
273.460999	145.360000
273.554047	145.760000
273.647003	146.240000
273.740051	146.340000
273.833069	146.960000
273.926086	146.920000
274.019135	146.580000
274.112152	146.320000
274.205170	146.280000
274.298187	146.460000
274.391205	145.920000
274.484222	145.920000
274.577240	145.740000
274.670258	145.920000
274.763306	145.440000
274.856323	146.040000
274.949341	146.080000
275.042358	146.380000
275.135406	146.100000
275.228424	146.160000
275.321442	146.000000
275.414490	145.540000
275.507507	145.820000
275.600525	146.180000
275.693573	145.900000
275.786591	145.680000
275.879669	146.120000
275.972656	145.740000
276.065735	145.840000
276.158752	146.680000
276.251801	147.200000
276.344818	147.280000
276.437866	147.040000
276.530884	146.660000
276.623932	145.460000
276.716980	145.520000
276.809998	145.600000
276.903046	145.740000
276.996094	146.460000
277.089111	147.420000
277.182159	147.620000
277.275208	147.240000
277.368256	147.320000
277.461304	146.880000
277.554321	146.260000
277.647369	146.160000
277.740417	146.160000
277.833466	145.640000
277.926514	145.740000
278.019562	146.500000
278.112610	146.080000
278.205688	146.660000
278.298706	147.100000
278.391785	146.840000
278.484833	146.200000
278.577881	145.880000
278.670929	145.740000
278.763977	145.620000
278.857025	145.760000
278.950073	145.860000
279.043121	145.560000
279.136169	145.380000
279.229248	145.140000
279.322296	145.060000
279.415344	144.940000
279.508392	145.220000
279.601440	144.980000
279.694519	145.160000
279.787567	144.980000
279.880615	144.660000
279.973694	144.780000
280.066742	144.920000
280.159790	144.920000
280.252869	144.620000
280.345917	145.240000
280.438995	145.380000
280.532074	145.580000
280.625122	146.080000
280.718201	147.180000
280.811279	147.100000
280.904327	146.860000
280.997406	146.980000
281.090454	146.700000
281.183533	145.660000
281.276581	145.640000
281.369659	145.380000
281.462738	145.280000
281.555786	145.380000
281.648865	145.860000
281.741943	145.680000
281.835022	146.840000
281.928070	146.580000
282.021149	146.360000
282.114227	146.180000
282.207306	146.080000
282.300385	145.760000
282.393433	145.980000
282.486511	146.080000
282.579590	146.500000
282.672668	146.860000
282.765747	146.280000
282.858856	145.860000
282.951904	145.840000
283.045013	145.940000
283.138062	146.120000
283.231171	146.480000
283.324249	147.040000
283.417328	147.040000
283.510406	146.640000
283.603485	146.260000
283.696564	146.100000
283.789642	146.220000
283.882751	146.140000
283.975830	146.580000
284.068909	146.460000
284.161987	147.340000
284.255066	146.720000
284.348175	146.660000
284.441254	146.460000
284.534332	147.000000
284.627441	146.440000
284.720520	146.260000
284.813599	146.140000
284.906708	145.800000
284.999786	145.040000
285.092896	144.520000
285.185974	145.640000
285.279053	145.480000
285.372192	145.680000
285.465240	146.340000
285.558380	146.620000
285.651459	146.000000
285.744568	147.060000
285.837677	146.820000
285.930756	146.880000
286.023865	147.000000
286.116943	146.620000
286.210052	146.140000
286.303162	146.180000
286.396240	146.100000
286.489349	145.700000
286.582458	146.520000
286.675568	146.420000
286.768646	146.380000
286.861755	146.560000
286.954865	147.380000
287.047974	146.700000
287.141083	146.360000
287.234161	146.320000
287.327271	145.980000
287.420380	145.960000
287.513519	145.740000
287.606598	146.060000
287.699738	146.260000
287.792816	146.260000
287.885956	146.020000
287.979034	146.140000
288.072174	145.960000
288.165283	146.080000
288.258392	146.380000
288.351501	146.020000
288.444611	146.760000
288.537720	146.980000
288.630859	146.700000
288.723969	146.440000
288.817078	146.600000
288.910187	145.940000
289.003296	145.580000
289.096436	145.280000
289.189545	145.360000
289.282654	144.960000
289.375763	145.400000
289.468903	145.780000
289.562012	146.360000
289.655121	146.320000
289.748260	146.600000
289.841400	146.840000
289.934509	146.740000
290.027649	146.700000
290.120728	146.460000
290.213898	146.540000
290.306976	146.060000
290.400146	145.980000
290.493256	145.360000
290.586395	145.840000
290.679535	145.820000
290.772644	145.600000
290.865784	144.800000
290.958893	145.220000
291.052032	144.980000
291.145172	145.180000
291.238281	145.080000
291.331421	145.620000
291.424561	146.200000
291.517670	145.820000
291.610809	145.920000
291.703949	146.000000
291.797089	146.280000
291.890228	145.520000
291.983337	145.840000
292.076477	145.460000
292.169617	145.840000
292.262756	145.880000
292.355927	145.680000
292.449036	145.280000
292.542206	145.720000
292.635315	145.620000
292.728485	146.000000
292.821625	146.020000
292.914764	147.440000
293.007904	147.320000
293.101044	147.160000
293.194183	146.760000
293.287323	146.920000
293.380463	145.680000
293.473602	145.620000
293.566742	145.820000
293.659882	146.060000
293.753021	146.240000
293.846191	146.500000
293.939331	146.220000
294.032471	145.840000
294.125610	145.640000
294.218781	145.880000
294.311920	146.280000
294.405060	146.540000
294.498230	146.580000
294.591370	146.740000
294.684540	146.320000
294.777679	145.660000
294.870850	145.680000
294.963959	145.820000
295.057159	145.500000
295.150299	145.860000
295.243469	145.860000
295.336609	145.340000
295.429779	145.380000
295.522919	145.740000
295.616089	145.700000
295.709229	146.240000
295.802399	146.700000
295.895569	146.520000
295.988708	146.340000
296.081879	146.500000
296.175018	146.040000
296.268188	145.880000
296.361359	146.300000
296.454529	146.500000
296.547668	146.020000
296.640839	146.340000
296.734009	146.240000
296.827179	146.200000
296.920319	146.240000
297.013519	146.380000
297.106659	146.360000
297.199860	146.540000
297.292999	146.420000
297.386200	145.820000
297.479309	145.920000
297.572510	146.080000
297.665680	145.400000
297.758850	145.340000
297.852020	145.560000
297.945190	145.320000
298.038361	144.840000
298.131531	145.840000
298.224701	145.640000
298.317871	145.600000
298.411072	145.380000
298.504242	145.320000
298.597412	144.840000
298.690582	145.240000
298.783752	145.240000
298.876923	146.040000
298.970093	146.120000
299.063293	146.460000
299.156464	146.680000
299.249634	147.000000
299.342834	146.680000
299.436005	147.060000
299.529205	146.960000
299.622345	146.700000
299.715576	146.080000
299.808716	145.900000
299.901917	145.880000
299.995117	145.980000
300.088287	146.340000
300.181488	146.180000
300.274658	146.120000
300.367828	145.960000
300.461029	145.860000
300.554199	145.640000
300.647400	145.960000
300.740601	146.440000
300.833771	146.180000
300.926971	146.600000
301.020142	146.340000
301.113342	146.340000
301.206512	146.120000
301.299713	146.280000
301.392914	146.020000
301.486084	146.120000
301.579285	145.820000
301.672516	146.220000
301.765686	146.160000
301.858887	145.780000
301.952057	145.600000
302.045288	146.020000
302.138458	145.640000
302.231659	145.320000
302.324860	145.500000
302.418060	145.460000
302.511261	145.400000
302.604462	145.700000
302.697662	145.780000
302.790863	145.700000
302.884064	145.560000
302.977264	145.720000
303.070465	145.620000
303.163666	146.360000
303.256866	146.840000
303.350067	147.120000
303.443268	146.920000
303.536469	146.880000
303.629669	146.260000
303.722870	146.180000
303.816071	145.860000
303.909271	145.820000
304.002472	145.240000
304.095673	145.460000
304.188934	144.680000
304.282104	145.700000
304.375336	145.840000
304.468506	145.860000
304.561768	145.460000
304.654968	146.140000
304.748169	145.260000
304.841370	144.800000
304.934601	145.320000
305.027802	145.580000
305.121002	145.320000
305.214233	145.600000
305.307434	146.140000
305.400665	146.500000
305.493866	146.140000
305.587097	146.460000
305.680298	146.320000
305.773499	146.500000
305.866730	146.180000
305.959930	146.940000
306.053162	147.040000
306.146393	146.640000
306.239594	145.840000
306.332825	145.680000
306.426025	145.820000
306.519287	145.200000
306.612488	145.600000
306.705719	145.880000
306.798920	146.320000
306.892181	145.340000
306.985352	145.300000
307.078613	145.000000
307.171844	145.460000
307.265045	144.580000
307.358276	144.880000
307.451508	145.300000
307.544739	145.980000
307.637970	145.700000
307.731201	146.000000
307.824402	146.600000
307.917633	146.840000
308.010864	147.160000
308.104095	147.280000
308.197327	147.380000
308.290558	147.320000
308.383789	146.900000
308.477020	146.180000
308.570251	145.620000
308.663483	145.080000
308.756714	144.820000
308.849976	144.880000
308.943176	145.340000
309.036438	145.560000
309.129639	145.580000
309.222900	145.340000
309.316101	145.360000
309.409393	144.880000
309.502625	144.680000
309.595856	145.100000
309.689087	145.300000
309.782318	145.080000
309.875580	145.060000
309.968811	145.540000
310.062042	145.020000
310.155273	145.080000
310.248535	145.300000
310.341766	145.500000
310.434998	145.180000
310.528259	145.600000
310.621490	145.640000
310.714722	145.180000
310.807983	145.120000
310.901215	144.860000
310.994476	144.660000
311.087708	144.300000
311.181000	144.640000
311.274200	144.160000
311.367462	144.400000
311.460693	144.220000
311.553986	145.260000
311.647186	145.660000
311.740479	146.600000
311.833710	146.180000
311.926971	146.460000
312.020203	145.300000
312.113464	144.960000
312.206726	143.840000
312.299957	144.680000
312.393219	145.620000
312.486481	146.320000
312.579712	146.280000
312.672974	146.800000
312.766235	146.540000
312.859497	145.600000
312.952759	145.320000
313.045990	145.780000
313.139252	145.320000
313.232513	145.440000
313.325775	145.700000
313.419037	145.480000
313.512299	144.640000
313.605530	145.300000
313.698822	145.360000
313.792053	145.380000
313.885345	144.800000
313.978577	145.300000
314.071869	144.700000
314.165131	144.540000
314.258392	144.940000
314.351654	145.700000
314.444916	145.120000
314.538177	145.840000
314.631439	145.900000
314.724701	145.560000
314.817993	145.340000
314.911255	145.840000
315.004517	145.120000
315.097778	145.120000
315.191040	145.160000
315.284302	145.300000
315.377594	145.040000
315.470856	145.140000
315.564117	144.720000
315.657379	143.900000
315.750671	143.720000
315.843933	144.160000
315.937195	144.180000
316.030518	144.400000
316.123749	144.820000
316.217041	145.720000
316.310303	145.620000
316.403595	145.880000
316.496857	146.340000
316.590149	146.680000
316.683411	145.660000
316.776703	145.460000
316.869965	145.360000
316.963257	144.920000
317.056519	144.200000
317.149811	144.260000
317.243073	144.140000
317.336365	144.180000
317.429626	144.620000
317.522919	145.260000
317.616180	145.400000
317.709473	145.320000
317.802765	145.160000
317.896027	144.840000
317.989319	145.240000
318.082611	144.880000
318.175873	145.020000
318.269165	145.340000
318.362488	145.380000
318.455750	145.020000
318.549042	145.700000
318.642303	145.940000
318.735626	145.500000
318.828888	145.560000
318.922211	145.040000
319.015472	145.500000
319.108765	145.000000
319.202057	144.980000
319.295349	145.100000
319.388641	145.540000
319.481934	145.140000
319.575226	145.120000
319.668518	145.580000
319.761810	145.640000
319.855103	145.860000
319.948395	145.560000
320.041687	145.860000
320.134979	145.620000
320.228271	145.340000
320.321564	144.960000
320.414856	145.000000
320.508148	144.500000
320.601440	144.360000
320.694763	144.080000
320.788025	144.640000
320.881348	144.840000
320.974640	145.000000
321.067963	144.740000
321.161224	145.040000
321.254547	144.340000
321.347839	144.760000
321.441162	144.720000
321.534454	145.360000
321.627747	145.360000
321.721069	145.940000
321.814362	145.820000
321.907654	145.900000
322.000946	145.500000
322.094269	146.120000
322.187561	145.720000
322.280884	145.780000
322.374176	146.020000
322.467468	146.580000
322.560791	146.280000
322.654083	146.600000
322.747406	146.480000
322.840698	146.500000
322.934021	146.540000
323.027344	146.500000
323.120636	146.380000
323.213959	146.120000
323.307251	145.820000
323.400574	145.360000
323.493866	145.000000
323.587219	145.280000
323.680511	145.580000
323.773834	145.840000
323.867157	145.780000
323.960449	145.800000
324.053772	145.400000
324.147095	145.220000
324.240387	145.680000
324.333710	146.100000
324.427032	146.460000
324.520355	146.600000
324.613647	146.340000
324.706970	145.600000
324.800293	145.260000
324.893616	145.320000
324.986938	145.540000
325.080231	145.080000
325.173553	145.900000
325.266876	146.360000
325.360199	146.140000
325.453522	145.240000
325.546875	145.520000
325.640167	145.280000
325.733521	145.280000
325.826813	145.800000
325.920166	146.360000
326.013489	146.460000
326.106812	145.900000
326.200134	145.400000
326.293457	144.820000
326.386780	144.880000
326.480103	144.680000
326.573425	144.940000
326.666748	144.960000
326.760071	145.300000
326.853424	145.120000
326.946747	145.280000
327.040070	145.820000
327.133392	145.780000
327.226715	145.120000
327.320068	144.940000
327.413391	145.680000
327.506714	144.900000
327.600037	144.900000
327.693390	145.260000
327.786713	145.500000
327.880066	145.060000
327.973358	145.560000
328.066742	146.120000
328.160034	146.120000
328.253418	146.600000
328.346710	146.520000
328.440063	146.140000
328.533417	145.860000
328.626740	146.140000
328.720093	145.500000
328.813416	145.100000
328.906769	145.240000
329.000092	145.400000
329.093445	145.400000
329.186768	145.520000
329.280121	146.280000
329.373444	146.480000
329.466797	146.280000
329.560120	146.140000
329.653473	146.320000
329.746796	145.680000
329.840149	145.460000
329.933502	145.400000
330.026825	145.200000
330.120178	145.060000
330.213562	145.380000
330.306854	145.580000
330.400238	145.520000
330.493561	145.440000
330.586945	145.800000
330.680237	145.600000
330.773621	145.780000
330.866974	146.100000
330.960327	146.360000
331.053680	146.160000
331.147003	146.560000
331.240356	146.580000
331.333710	146.600000
331.427063	146.240000
331.520416	145.840000
331.613770	145.620000
331.707123	145.380000
331.800476	145.120000
331.893829	146.220000
331.987152	146.760000
332.080505	146.680000
332.173859	146.420000
332.267212	146.140000
332.360565	145.160000
332.453918	144.760000
332.547333	144.760000
332.640656	145.140000
332.734039	145.460000
332.827362	145.440000
332.920746	146.080000
333.014069	146.340000
333.107452	146.740000
333.200806	146.900000
333.294159	147.060000
333.387543	146.500000
333.480896	146.120000
333.574249	145.560000
333.667603	145.140000
333.760956	145.280000
333.854340	145.440000
333.947693	145.560000
334.041046	145.800000
334.134430	146.540000
334.227783	146.260000
334.321136	146.000000
334.414520	145.680000
334.507874	145.820000
334.601227	145.280000
334.694611	145.240000
334.787964	145.560000
334.881348	146.080000
334.974701	145.940000
335.068085	145.760000
335.161438	146.020000
335.254822	145.940000
335.348175	145.740000
335.441559	145.260000
335.534943	146.060000
335.628296	146.000000
335.721680	145.860000
335.815033	145.980000
335.908417	146.480000
336.001770	146.280000
336.095154	146.220000
336.188538	145.960000
336.281891	145.540000
336.375275	145.040000
336.468658	144.620000
336.562012	144.700000
336.655396	145.320000
336.748779	145.600000
336.842133	146.020000
336.935516	146.240000
337.028900	145.660000
337.122284	145.300000
337.215637	145.360000
337.309021	144.940000
337.402435	144.520000
337.495789	144.580000
337.589203	144.440000
337.682526	144.220000
337.775940	144.760000
337.869324	145.180000
337.962708	145.160000
338.056091	145.640000
338.149475	145.440000
338.242859	145.340000
338.336243	144.940000
338.429626	145.460000
338.523010	145.140000
338.616394	145.120000
338.709778	145.080000
338.803162	145.140000
338.896545	145.160000
338.989929	144.940000
339.083313	145.380000
339.176697	145.100000
339.270081	145.260000
339.363464	145.440000
339.456848	146.080000
339.550232	145.720000
339.643616	145.560000
339.737030	145.640000
339.830383	145.440000
339.923828	145.180000
340.017181	145.220000
340.110596	145.380000
340.203949	145.260000
340.297363	144.820000
340.390778	144.700000
340.484161	144.700000
340.577545	144.780000
340.670959	144.740000
340.764343	144.900000
340.857727	145.000000
340.951111	144.640000
341.044525	144.800000
341.137909	144.480000
341.231293	144.580000
341.324707	144.140000
341.418091	145.300000
341.511505	145.200000
341.604889	145.720000
341.698303	145.860000
341.791687	146.320000
341.885071	145.380000
341.978485	145.260000
342.071899	145.520000
342.165283	145.680000
342.258698	145.700000
342.352081	146.220000
342.445496	146.460000
342.538879	145.980000
342.632324	145.520000
342.725708	145.340000
342.819122	144.840000
342.912506	144.920000
343.005920	144.960000
343.099335	146.080000
343.192719	146.200000
343.286133	146.560000
343.379547	146.560000
343.472931	146.560000
343.566345	145.520000
343.659760	145.840000
343.753143	145.860000
343.846558	145.620000
343.939972	145.660000
344.033386	146.440000
344.126770	146.040000
344.220184	146.180000
344.313599	146.500000
344.407043	146.480000
344.500427	145.480000
344.593872	145.840000
344.687225	145.240000
344.780670	144.880000
344.874054	144.680000
344.967499	145.220000
345.060913	145.240000
345.154327	145.720000
345.247742	145.620000
345.341156	145.600000
345.434570	145.260000
345.527985	145.100000
345.621399	145.060000
345.714813	145.080000
345.808228	145.180000
345.901642	145.280000
345.995056	144.860000
346.088470	144.940000
346.181885	145.160000
346.275299	145.020000
346.368713	145.120000
346.462128	145.080000
346.555573	144.920000
346.648987	144.900000
346.742401	144.940000
346.835815	145.180000
346.929260	145.040000
347.022644	145.100000
347.116119	145.400000
347.209503	146.000000
347.302948	146.820000
347.396362	147.540000
347.489807	147.580000
347.583221	147.800000
347.676636	147.140000
347.770050	145.740000
347.863495	145.300000
347.956909	145.240000
348.050323	144.520000
348.143768	144.700000
348.237183	144.700000
348.330597	145.000000
348.424042	145.320000
348.517456	145.860000
348.610901	146.220000
348.704315	146.240000
348.797760	145.860000
348.891174	145.040000
348.984619	144.280000
349.078033	144.500000
349.171448	145.200000
349.264923	145.200000
349.358337	145.600000
349.451782	146.100000
349.545197	145.540000
349.638641	145.020000
349.732086	144.600000
349.825500	144.940000
349.918945	144.720000
350.012390	144.980000
350.105804	145.360000
350.199249	146.040000
350.292664	146.100000
350.386108	146.300000
350.479553	146.680000
350.572968	146.300000
350.666412	146.340000
350.759857	146.240000
350.853302	146.600000
350.946716	146.000000
351.040161	146.320000
351.133606	146.200000
351.227081	146.080000
351.320465	146.440000
351.413940	146.780000
351.507355	146.840000
351.600830	147.140000
351.694244	146.920000
351.787720	146.460000
351.881104	146.440000
351.974579	146.120000
352.067993	146.520000
352.161469	146.660000
352.254883	146.040000
352.348358	145.640000
352.441803	145.540000
352.535248	144.780000
352.628693	145.040000
352.722137	145.220000
352.815582	145.600000
352.909027	146.040000
353.002472	145.900000
353.095917	146.000000
353.189362	146.300000
353.282806	146.140000
353.376251	145.600000
353.469696	145.240000
353.563141	145.460000
353.656586	145.420000
353.750061	144.960000
353.843475	145.000000
353.936981	145.740000
354.030396	144.980000
354.123871	144.880000
354.217285	145.800000
354.310760	146.460000
354.404175	146.320000
354.497681	145.980000
354.591095	146.040000
354.684570	145.280000
354.777985	144.780000
354.871490	144.820000
354.964935	145.600000
355.058380	145.440000
355.151855	145.580000
355.245300	146.020000
355.338745	146.180000
355.432220	146.020000
355.525665	145.800000
355.619110	146.120000
355.712585	145.880000
355.806030	145.700000
355.899475	145.100000
355.992950	145.580000
356.086426	145.620000
356.179871	145.560000
356.273346	145.340000
356.366791	145.940000
356.460266	145.980000
356.553711	145.540000
356.647186	145.700000
356.740631	145.580000
356.834106	145.540000
356.927551	145.440000
357.021027	145.460000
357.114471	145.540000
357.207947	145.780000
357.301422	145.800000
357.394867	145.720000
357.488342	146.180000
357.581818	145.820000
357.675262	146.000000
357.768738	145.840000
357.862213	145.000000
357.955658	144.800000
358.049133	144.900000
358.142609	144.920000
358.236053	144.520000
358.329529	145.480000
358.423035	145.560000
358.516449	145.240000
358.609955	145.720000
358.703400	146.800000
358.796906	146.680000
358.890350	146.180000
358.983826	146.620000
359.077271	146.000000
359.170776	145.560000
359.264221	145.140000
359.357727	145.640000
359.451172	145.980000
359.544647	146.020000
359.638123	145.700000
359.731598	146.520000
359.825073	146.720000
359.918549	146.480000
360.012024	146.780000
360.105499	146.480000
360.198975	146.100000
360.292450	145.840000
360.385925	145.640000
360.479401	145.020000
360.572876	145.560000
360.666351	145.760000
360.759857	145.520000
360.853302	145.660000
360.946808	145.520000
361.040253	145.540000
361.133759	144.920000
361.227203	145.140000
361.320709	144.800000
361.414154	145.380000
361.507660	145.640000
361.601105	146.560000
361.694641	147.020000
361.788086	147.180000
361.881592	147.540000
361.975067	146.860000
362.068542	146.780000
362.162018	146.560000
362.255524	146.220000
362.348999	145.840000
362.442474	146.480000
362.535950	146.140000
362.629456	145.960000
362.722931	146.200000
362.816406	146.500000
362.909882	146.760000
363.003387	146.400000
363.096863	146.720000
363.190338	146.600000
363.283875	146.260000
363.377319	145.820000
363.470825	146.240000
363.564301	145.560000
363.657806	145.700000
363.751282	145.400000
363.844788	146.120000
363.938232	145.780000
364.031769	146.700000
364.125214	146.860000
364.218750	147.840000
364.312225	146.660000
364.405731	146.980000
364.499207	145.980000
364.592712	145.560000
364.686188	144.940000
364.779694	145.240000
364.873169	144.940000
364.966675	145.240000
365.060150	145.320000
365.153656	145.820000
365.247131	146.040000
365.340637	146.040000
365.434143	146.340000
365.527618	146.800000
365.621155	145.900000
365.714600	145.840000
365.808136	146.000000
365.901611	145.120000
365.995117	144.660000
366.088593	144.720000
366.182129	144.620000
366.275604	144.680000
366.369110	145.340000
366.462585	145.620000
366.556122	146.560000
366.649567	146.480000
366.743103	146.500000
366.836609	146.160000
366.930115	146.300000
367.023590	145.820000
367.117096	145.780000
367.210602	145.400000
367.304108	146.300000
367.397614	146.760000
367.491119	146.880000
367.584595	146.980000
367.678101	147.500000
367.771606	146.900000
367.865112	146.140000
367.958649	145.480000
368.052124	145.280000
368.145660	144.900000
368.239136	145.200000
368.332672	145.240000
368.426147	145.540000
368.519684	145.600000
368.613159	145.860000
368.706696	145.360000
368.800171	145.380000
368.893707	145.040000
368.987183	144.780000
369.080719	144.660000
369.174225	144.520000
369.267731	144.760000
369.361237	145.100000
369.454742	145.340000
369.548248	145.960000
369.641754	146.300000
369.735260	146.240000
369.828766	145.540000
369.922272	146.160000
370.015808	145.660000
370.109314	145.340000
370.202820	145.240000
370.296356	146.500000
370.389832	146.080000
370.483368	145.880000
370.576874	145.880000
370.670410	145.800000
370.763885	144.680000
370.857422	144.500000
370.950928	144.520000
371.044464	145.280000
371.137939	145.280000
371.231476	145.760000
371.324982	146.360000
371.418518	146.340000
371.512024	145.900000
371.605560	145.760000
371.699066	145.920000
371.792572	145.500000
371.886108	145.960000
371.979614	145.800000
372.073120	146.300000
372.166656	145.960000
372.260162	146.020000
372.353668	145.400000
372.447205	145.400000
372.540710	145.260000
372.634277	145.320000
372.727753	145.360000
372.821320	145.520000
372.914795	145.820000
373.008362	145.780000
373.101837	146.060000
373.195404	146.020000
373.288879	145.740000
373.382446	146.100000
373.475922	146.000000
373.569489	146.420000
373.662964	147.120000
373.756531	147.440000
373.850037	147.240000
373.943573	146.980000
374.037109	146.060000
374.130615	145.620000
374.224152	145.540000
374.317657	145.520000
374.411194	146.380000
374.504730	146.620000
374.598236	146.440000
374.691772	146.500000
374.785309	146.600000
374.878815	145.720000
374.972351	145.980000
375.065887	145.860000
375.159454	146.560000
375.252930	145.800000
375.346497	146.020000
375.440002	146.580000
375.533569	146.280000
375.627045	145.380000
375.720612	145.620000
375.814117	145.960000
375.907684	145.260000
376.001160	145.120000
376.094727	145.000000
376.188232	145.500000
376.281799	145.280000
376.375336	145.100000
376.468872	146.120000
376.562408	146.320000
376.655914	145.980000
376.749451	146.120000
376.842987	146.340000
376.936523	145.740000
377.030060	145.920000
377.123596	146.260000
377.217133	145.760000
377.310669	145.760000
377.404205	145.980000
377.497772	146.320000
377.591278	145.980000
377.684845	146.880000
377.778351	147.400000
377.871918	147.220000
377.965424	146.620000
378.058990	146.440000
378.152496	146.040000
378.246063	146.000000
378.339569	146.100000
378.433136	146.100000
378.526642	146.240000
378.620209	146.280000
378.713745	145.780000
378.807312	145.860000
378.900848	145.960000
378.994385	146.240000
379.087921	145.600000
379.181458	145.760000
379.274994	145.340000
379.368530	145.040000
379.462097	144.880000
379.555634	145.460000
379.649170	145.020000
379.742706	145.100000
379.836273	145.480000
379.929810	145.620000
380.023376	145.120000
380.116882	145.380000
380.210449	145.380000
380.303986	144.840000
380.397552	144.140000
380.491058	144.400000
380.584656	144.220000
380.678162	144.500000
380.771729	144.920000
380.865265	145.640000
380.958832	145.980000
381.052368	146.280000
381.145935	146.500000
381.239471	146.840000
381.333008	146.240000
381.426575	145.800000
381.520111	146.080000
381.613647	145.980000
381.707214	145.760000
381.800751	145.720000
381.894318	146.060000
381.987854	145.200000
382.081421	145.260000
382.174988	145.600000
382.268524	145.560000
382.362091	145.340000
382.455627	146.280000
382.549194	145.740000
382.642731	145.140000
382.736298	145.080000
382.829834	144.960000
382.923401	145.200000
383.016937	145.520000
383.110504	145.820000
383.204041	145.900000
383.297607	146.340000
383.391174	145.420000
383.484741	145.920000
383.578278	145.620000
383.671844	145.380000
383.765411	144.820000
383.858948	145.320000
383.952515	145.040000
384.046051	145.460000
384.139618	146.300000
384.233185	146.360000
384.326721	146.240000
384.420288	146.620000
384.513855	146.320000
384.607422	146.380000
384.700989	146.860000
384.794525	146.360000
384.888123	145.940000
384.981659	146.500000
385.075226	145.780000
385.168762	145.240000
385.262360	145.440000
385.355896	144.520000
385.449463	144.120000
385.542999	144.340000
385.636597	145.340000
385.730164	145.980000
385.823730	146.200000
385.917267	145.860000
386.010834	146.220000
386.104401	145.980000
386.197968	145.740000
386.291534	146.300000
386.385101	146.660000
386.478668	146.960000
386.572235	146.420000
386.665802	145.980000
386.759338	145.520000
386.852905	145.200000
386.946472	144.640000
387.040070	145.140000
387.133606	145.300000
387.227203	145.360000
387.320740	145.560000
387.414337	145.680000
387.507874	145.280000
387.601471	145.400000
387.695007	145.360000
387.788605	145.140000
387.882141	144.760000
387.975739	144.840000
388.069275	144.520000
388.162872	144.840000
388.256439	144.900000
388.350037	145.040000
388.443604	144.980000
388.537170	145.320000
388.630737	145.700000
388.724304	145.760000
388.817871	145.660000
388.911438	145.700000
389.005005	145.740000
389.098602	145.760000
389.192169	145.380000
389.285736	145.880000
389.379333	145.800000
389.472870	145.340000
389.566467	145.260000
389.660034	145.920000
389.753632	145.280000
389.847168	145.460000
389.940765	145.820000
390.034332	146.100000
390.127930	145.360000
390.221466	145.660000
390.315063	145.100000
390.408630	144.500000
390.502228	143.400000
390.595795	143.920000
390.689362	144.080000
390.782959	144.980000
390.876526	145.640000
390.970093	145.840000
391.063690	146.100000
391.157257	146.140000
391.250824	145.920000
391.344421	145.960000
391.437988	146.420000
391.531555	146.520000
391.625153	146.440000
391.718750	146.560000
391.812317	146.260000
391.905914	146.140000
391.999481	145.900000
392.093079	145.960000
392.186615	145.960000
392.280243	146.100000
392.373779	146.040000
392.467407	146.380000
392.560944	146.320000
392.654572	145.860000
392.748108	145.820000
392.841736	145.820000
392.935303	145.260000
393.028900	145.180000
393.122467	145.480000
393.216064	145.060000
393.309631	144.900000
393.403229	144.680000
393.496796	144.580000
393.590393	143.980000
393.683990	144.480000
393.777557	144.680000
393.871155	145.260000
393.964722	145.760000
394.058350	145.860000
394.151917	145.860000
394.245514	146.060000
394.339081	146.220000
394.432678	146.240000
394.526245	146.660000
394.619873	146.140000
394.713409	145.800000
394.807037	145.540000
394.900604	145.500000
394.994202	145.460000
395.087769	146.020000
395.181396	145.660000
395.274994	146.400000
395.368561	145.620000
395.462158	145.640000
395.555756	145.320000
395.649353	146.020000
395.742920	145.240000
395.836517	146.040000
395.930115	145.340000
396.023712	145.660000
396.117279	145.840000
396.210876	145.440000
396.304474	145.400000
396.398071	145.860000
396.491669	145.880000
396.585266	145.260000
396.678833	145.340000
396.772461	145.500000
396.866028	145.580000
396.959656	145.760000
397.053223	146.180000
397.146851	146.300000
397.240417	146.420000
397.334015	147.120000
397.427582	147.000000
397.521210	147.400000
397.614807	148.240000
397.708405	148.580000
397.802002	148.960000
397.895599	150.320000
397.989197	151.280000
398.082794	152.860000
398.176392	154.760000
398.269989	157.100000
398.363586	159.980000
398.457184	164.040000
398.550781	167.880000
398.644379	171.680000
398.737976	176.020000
398.831573	180.380000
398.925201	184.160000
399.018768	188.540000
399.112396	194.020000
399.205963	199.200000
399.299591	205.400000
399.393158	211.940000
399.486786	219.800000
399.580353	227.880000
399.673981	236.840000
399.767578	246.660000
399.861206	258.520000
399.954773	270.100000
400.048401	280.440000
400.141998	289.620000
400.235596	297.800000
400.329193	302.480000
400.422791	306.180000
400.516418	308.520000
400.610016	310.700000
400.703613	310.860000
400.797211	309.160000
400.890808	305.100000
400.984436	300.480000
401.078033	292.540000
401.171631	283.560000
401.265259	273.160000
401.358826	262.600000
401.452484	250.300000
401.546051	238.860000
401.639679	225.480000
401.733246	214.260000
401.826904	202.540000
401.920471	192.260000
402.014099	182.920000
402.107697	175.780000
402.201324	169.400000
402.294891	164.820000
402.388550	160.920000
402.482147	157.820000
402.575745	155.120000
402.669373	152.880000
402.762970	150.660000
402.856567	149.580000
402.950195	148.700000
403.043793	148.040000
403.137390	148.360000
403.231018	147.480000
403.324615	147.520000
403.418243	146.900000
403.511841	147.060000
403.605469	146.220000
403.699066	146.680000
403.792694	146.260000
403.886292	146.380000
403.979919	146.160000
404.073517	145.720000
404.167145	146.000000
404.260712	146.000000
404.354370	145.740000
404.447937	145.780000
404.541595	146.220000
404.635162	146.480000
404.728821	146.600000
404.822418	146.320000
404.916046	146.160000
405.009644	146.400000
405.103271	146.440000
405.196899	146.080000
405.290497	146.480000
405.384125	146.660000
405.477722	146.580000
405.571350	145.980000
405.664948	146.200000
405.758575	145.980000
405.852203	145.360000
405.945801	144.940000
406.039429	145.000000
406.133057	145.020000
406.226654	145.160000
406.320312	145.460000
406.413879	145.760000
406.507538	146.200000
406.601135	145.800000
406.694763	146.220000
406.788361	145.700000
406.882019	145.440000
406.975586	145.700000
407.069244	146.140000
407.162872	145.980000
407.256470	146.460000
407.350098	146.620000
407.443726	145.720000
407.537323	145.180000
407.630951	145.360000
407.724579	145.140000
407.818207	145.440000
407.911804	145.380000
408.005432	145.680000
408.099060	145.700000
408.192688	146.100000
408.286285	145.860000
408.379913	145.860000
408.473572	145.880000
408.567169	145.300000
408.660828	145.080000
408.754395	144.880000
408.848053	144.880000
408.941650	145.100000
409.035309	144.880000
409.128906	144.900000
409.222565	144.900000
409.316132	144.980000
409.409790	144.580000
409.503387	144.900000
409.597046	145.040000
409.690674	145.260000
409.784302	145.460000
409.877930	145.220000
409.971558	145.400000
410.065186	145.340000
410.158783	145.120000
410.252411	145.080000
410.346039	145.700000
410.439667	145.720000
410.533295	145.820000
410.626923	146.080000
410.720551	145.980000
410.814209	146.400000
410.907806	146.600000
411.001465	146.180000
411.095062	146.140000
411.188721	146.280000
411.282318	145.420000
411.375977	144.920000
411.469574	145.200000
411.563232	145.160000
411.656830	145.120000
411.750488	145.020000
411.844086	144.920000
411.937744	145.280000
412.031372	144.980000
412.125000	144.760000
412.218628	144.980000
412.312256	145.780000
412.405884	145.980000
412.499512	146.380000
412.593170	146.620000
412.686798	146.920000
412.780426	146.420000
412.874054	146.000000
412.967682	145.720000
413.061310	146.580000
413.154968	146.540000
413.248566	146.420000
413.342224	146.340000
413.435852	146.660000
413.529510	145.720000
413.623108	145.300000
413.716766	145.400000
413.810364	145.800000
413.904022	145.360000
413.997650	145.160000
414.091309	145.900000
414.184906	145.620000
414.278564	145.020000
414.372192	145.220000
414.465851	145.740000
414.559479	145.220000
414.653107	146.100000
414.746735	146.360000
414.840393	146.540000
414.934021	146.640000
415.027649	146.680000
415.121277	146.440000
415.214935	146.560000
415.308563	146.380000
415.402191	145.460000
415.495850	144.960000
415.589478	144.340000
415.683136	143.960000
415.776733	144.280000
415.870422	145.080000
415.964020	145.080000
416.057678	145.500000
416.151306	145.760000
416.244965	145.460000
416.338562	145.120000
416.432251	145.900000
416.525848	146.800000
416.619507	147.220000
416.713165	147.680000
416.806793	147.740000
416.900421	147.800000
416.994080	146.760000
417.087708	146.280000
417.181366	145.680000
417.274994	145.860000
417.368622	145.940000
417.462280	146.580000
417.555908	146.660000
417.649567	146.540000
417.743195	146.540000
417.836853	146.240000
417.930481	145.720000
418.024170	145.820000
418.117767	146.700000
418.211426	146.760000
418.305054	146.900000
418.398712	146.660000
418.492340	146.660000
418.585999	146.520000
418.679626	146.480000
418.773285	146.380000
418.866913	146.640000
418.960571	146.880000
419.054230	146.460000
419.147858	146.560000
419.241516	146.740000
419.335144	146.580000
419.428802	146.600000
419.522461	146.500000
419.616089	145.900000
419.709747	146.140000
419.803375	146.420000
419.897034	145.820000
419.990662	145.800000
420.084320	146.580000
420.177979	146.580000
420.271606	146.760000
420.365295	147.500000
420.458893	147.880000
420.552582	147.760000
420.646210	147.380000
420.739868	147.060000
420.833496	146.540000
420.927155	146.220000
421.020782	145.900000
421.114471	145.700000
421.208069	145.620000
421.301758	145.660000
421.395386	145.660000
421.489044	145.640000
421.582703	145.440000
421.676361	146.060000
421.769989	145.820000
421.863647	146.160000
421.957306	146.260000
422.050934	146.840000
422.144592	146.520000
422.238251	146.540000
422.331909	145.940000
422.425537	145.660000
422.519196	145.340000
422.612854	144.960000
422.706543	144.980000
422.800140	145.480000
422.893829	145.320000
422.987457	144.780000
423.081146	145.020000
423.174744	145.580000
423.268433	145.180000
423.362061	145.320000
423.455750	145.380000
423.549347	145.220000
423.643036	144.220000
423.736664	144.740000
423.830353	144.800000
423.924011	145.580000
424.017639	145.280000
424.111298	145.480000
424.204956	145.200000
424.298615	145.380000
424.392273	144.800000
424.485931	145.360000
424.579559	145.540000
424.673218	145.460000
424.766876	145.260000
424.860535	145.200000
424.954193	144.600000
425.047882	145.260000
425.141510	145.400000
425.235199	145.540000
425.328796	145.440000
425.422485	145.600000
425.516113	144.660000
425.609802	144.640000
425.703430	144.860000
425.797119	145.020000
425.890747	145.360000
425.984436	145.800000
426.078064	145.860000
426.171753	145.960000
426.265411	145.840000
426.359070	145.800000
426.452728	145.560000
426.546356	145.340000
426.640015	145.000000
426.733673	145.120000
426.827332	144.780000
426.920990	145.740000
427.014648	145.460000
427.108307	145.720000
427.201965	146.280000
427.295624	146.700000
427.389282	145.780000
427.482941	146.420000
427.576630	146.140000
427.670258	145.320000
427.763947	145.100000
427.857574	145.240000
427.951263	144.920000
428.044922	144.860000
428.138611	145.200000
428.232239	145.700000
428.325928	146.380000
428.419556	146.840000
428.513245	146.840000
428.606903	147.140000
428.700562	146.620000
428.794220	145.660000
428.887878	145.140000
428.981537	145.540000
429.075195	145.220000
429.168854	145.620000
429.262512	145.940000
429.356201	146.260000
429.449860	146.140000
429.543518	146.120000
429.637177	146.180000
429.730835	146.140000
429.824493	145.720000
429.918182	145.560000
430.011810	145.180000
430.105530	144.620000
430.199158	144.980000
430.292847	145.160000
430.386475	145.000000
430.480164	145.180000
430.573792	144.900000
430.667511	144.720000
430.761139	144.440000
430.854828	145.000000
430.948456	145.040000
431.042145	145.940000
431.135834	145.500000
431.229492	146.100000
431.323151	145.960000
431.416809	146.100000
431.510468	145.840000
431.604156	145.920000
431.697815	145.740000
431.791473	145.260000
431.885132	144.800000
431.978821	144.700000
432.072479	144.980000
432.166138	145.300000
432.259827	145.360000
432.353485	145.980000
432.447174	146.140000
432.540802	146.100000
432.634491	145.960000
432.728149	146.320000
432.821838	146.820000
432.915466	146.280000
433.009186	146.340000
433.102814	145.640000
433.196503	145.120000
433.290131	144.720000
433.383850	145.060000
433.477509	145.140000
433.571167	146.200000
433.664856	146.940000
433.758514	147.280000
433.852173	147.220000
433.945862	146.960000
434.039520	146.660000
434.133179	145.960000
434.226868	145.500000
434.320526	145.200000
434.414185	145.780000
434.507874	145.580000
434.601562	145.960000
434.695221	145.820000
434.788910	146.020000
434.882538	145.700000
434.976257	145.140000
435.069885	145.020000
435.163574	145.300000
435.257233	145.040000
435.350922	145.100000
435.444580	145.160000
435.538269	145.260000
435.631897	145.340000
435.725616	146.100000
435.819275	146.500000
435.912964	146.960000
436.006622	146.920000
436.100311	146.720000
436.193970	145.800000
436.287628	145.340000
436.381317	145.080000
436.474976	144.740000
436.568665	144.380000
436.662323	144.620000
436.756012	144.520000
436.849670	144.680000
436.943390	144.880000
437.037018	144.900000
437.130737	144.940000
437.224365	144.560000
437.318085	144.680000
437.411713	144.740000
437.505432	145.560000
437.599060	146.040000
437.692780	147.160000
437.786407	147.040000
437.880127	147.060000
437.973755	146.300000
438.067474	145.660000
438.161133	145.100000
438.254822	145.260000
438.348480	144.920000
438.442169	145.620000
438.535828	146.260000
438.629517	146.020000
438.723175	145.420000
438.816864	145.980000
438.910553	145.300000
439.004211	145.000000
439.097900	145.000000
439.191559	145.380000
439.285248	144.540000
439.378906	144.940000
439.472626	144.780000
439.566284	144.640000
439.659973	145.000000
439.753632	145.200000
439.847321	145.440000
439.940979	145.820000
440.034698	146.020000
440.128326	145.460000
440.222046	145.600000
440.315674	145.100000
440.409393	145.140000
440.503082	144.800000
440.596741	145.060000
440.690430	145.200000
440.784088	145.140000
440.877777	144.400000
440.971466	144.540000
441.065125	144.200000
441.158813	144.100000
441.252502	143.960000
441.346161	144.120000
441.439850	144.380000
441.533539	144.360000
441.627197	144.900000
441.720886	145.140000
441.814606	145.780000
441.908234	146.020000
442.001953	146.020000
442.095612	145.540000
442.189301	145.700000
442.282959	145.520000
442.376678	144.780000
442.470306	145.580000
442.564026	145.260000
442.657684	145.380000
442.751404	145.320000
442.845032	146.520000
442.938751	145.660000
443.032440	146.120000
443.126099	145.580000
443.219788	146.060000
443.313477	145.440000
443.407166	145.760000
443.500824	145.700000
443.594513	146.020000
443.688202	145.580000
443.781891	145.240000
443.875549	144.840000
443.969238	144.720000
444.062927	144.760000
444.156647	144.620000
444.250275	144.900000
444.343994	145.080000
444.437653	145.200000
444.531372	144.960000
444.625031	145.040000
444.718719	144.720000
444.812378	144.940000
444.906097	144.820000
444.999756	144.700000
445.093445	144.620000
445.187103	144.720000
445.280823	144.940000
445.374512	144.860000
445.468201	144.880000
445.561859	144.620000
445.655548	144.700000
445.749237	144.000000
445.842926	144.120000
445.936615	144.700000
446.030304	144.640000
446.123962	144.860000
446.217651	145.120000
446.311340	145.200000
446.405029	144.400000
446.498749	144.480000
446.592407	143.980000
446.686096	144.160000
446.779755	144.180000
446.873474	144.860000
446.967133	145.280000
447.060852	145.320000
447.154510	145.320000
447.248230	145.400000
447.341858	145.080000
447.435577	144.480000
447.529236	144.020000
447.622955	144.180000
447.716644	144.120000
447.810333	144.440000
447.904022	145.180000
447.997711	145.500000
448.091400	145.640000
448.185059	145.400000
448.278748	145.340000
448.372437	144.760000
448.466125	145.180000
448.559814	144.780000
448.653503	145.300000
448.747192	145.380000
448.840912	145.840000
448.934570	145.840000
449.028290	146.540000
449.121948	146.120000
449.215637	145.880000
449.309296	145.760000
449.403015	145.620000
449.496674	145.220000
449.590393	145.300000
449.684052	145.100000
449.777771	145.660000
449.871429	145.360000
449.965149	145.300000
450.058838	145.580000
450.152527	146.140000
450.246216	145.500000
450.339905	145.860000
450.433594	145.760000
450.527283	146.360000
450.620972	145.980000
450.714661	146.020000
450.808350	146.220000
450.902039	146.600000
450.995728	145.900000
451.089417	145.560000
451.183105	145.720000
451.276794	145.840000
451.370514	145.060000
451.464172	144.660000
451.557892	145.080000
451.651550	144.960000
451.745270	144.420000
451.838928	144.420000
451.932648	144.860000
452.026306	145.100000
452.120026	145.100000
452.213684	145.420000
452.307404	145.740000
452.401062	145.720000
452.494781	145.720000
452.588470	145.940000
452.682159	145.540000
452.775848	145.660000
452.869537	145.300000
452.963226	144.960000
453.056915	144.780000
453.150604	145.060000
453.244293	145.300000
453.337982	145.980000
453.431671	146.560000
453.525360	147.040000
453.619049	146.880000
453.712769	146.580000
453.806427	145.860000
453.900146	145.120000
453.993805	144.480000
454.087555	144.900000
454.181213	145.120000
454.274933	145.400000
454.368591	145.640000
454.462311	145.300000
454.555969	145.040000
454.649689	145.520000
454.743347	145.280000
454.837067	145.820000
454.930756	146.780000
455.024445	146.920000
455.118134	146.400000
455.211853	146.580000
455.305542	145.880000
455.399231	145.520000
455.492920	145.240000
455.586609	145.020000
455.680298	145.140000
455.773987	145.020000
455.867676	144.900000
455.961365	145.360000
456.055084	145.440000
456.148773	145.180000
456.242493	145.280000
456.336151	145.260000
456.429871	145.060000
456.523529	145.480000
456.617249	145.360000
456.710907	146.080000
456.804626	145.960000
456.898315	145.620000
456.992035	145.460000
457.085693	145.640000
457.179413	144.780000
457.273102	145.720000
457.366791	145.820000
457.460480	145.900000
457.554199	146.200000
457.647888	146.500000
457.741577	145.860000
457.835266	145.940000
457.928955	145.940000
458.022644	145.920000
458.116364	146.100000
458.210052	145.840000
458.303741	145.860000
458.397461	145.040000
458.491119	144.580000
458.584839	144.520000
458.678528	144.220000
458.772247	144.080000
458.865906	144.680000
458.959625	145.720000
459.053284	145.780000
459.147003	145.860000
459.240692	146.320000
459.334412	146.180000
459.428070	145.440000
459.521790	145.300000
459.615479	145.580000
459.709198	146.020000
459.802887	145.800000
459.896576	145.480000
459.990265	145.620000
460.083954	145.680000
460.177673	144.880000
460.271362	145.080000
460.365051	145.260000
460.458740	144.980000
460.552429	144.500000
460.646149	144.600000
460.739838	144.260000
460.833527	144.260000
460.927246	144.020000
461.020905	144.260000
461.114655	144.140000
461.208313	144.740000
461.302032	144.560000
461.395691	145.220000
461.489441	145.120000
461.583099	145.140000
461.676819	144.500000
461.770477	144.780000
461.864197	144.100000
461.957916	144.020000
462.051605	143.600000
462.145294	144.740000
462.238983	144.600000
462.332703	145.480000
462.426392	146.420000
462.520081	146.540000
462.613770	145.720000
462.707489	146.000000
462.801178	145.520000
462.894867	145.020000
462.988556	145.260000
463.082275	145.560000
463.175964	145.120000
463.269684	145.160000
463.363342	145.080000
463.457092	144.680000
463.550751	144.820000
463.644470	145.000000
463.738129	145.020000
463.831879	145.000000
463.925537	145.940000
464.019257	146.140000
464.112946	146.300000
464.206665	146.000000
464.300323	145.800000
464.394043	145.340000
464.487762	144.840000
464.581451	145.060000
464.675140	145.040000
464.768829	145.600000
464.862549	145.960000
464.956238	146.440000
465.049927	146.220000
465.143646	146.360000
465.237335	145.680000
465.331024	145.680000
465.424713	145.300000
465.518433	145.500000
465.612152	145.360000
465.705811	145.680000
465.799561	145.340000
465.893219	145.340000
465.986938	144.760000
466.080597	144.760000
466.174347	144.860000
466.268005	145.040000
466.361725	144.520000
466.455414	144.800000
466.549133	144.960000
466.642792	144.960000
466.736542	144.500000
466.830231	144.900000
466.923920	145.020000
467.017609	145.140000
467.111328	144.660000
467.205017	144.900000
467.298706	144.720000
467.392426	144.740000
467.486115	144.960000
467.579803	145.020000
467.673523	145.280000
467.767212	145.780000
467.860901	145.740000
467.954651	145.680000
468.048309	146.220000
468.142029	146.120000
468.235718	146.140000
468.329437	145.880000
468.423096	145.700000
468.516846	145.360000
468.610504	144.980000
468.704224	144.520000
468.797913	144.680000
468.891632	144.800000
468.985291	144.880000
469.079010	145.340000
469.172729	145.180000
469.266418	145.680000
469.360107	145.740000
469.453827	145.740000
469.547516	145.480000
469.641205	146.020000
469.734924	145.860000
469.828613	145.900000
469.922302	145.920000
470.016022	146.220000
470.109711	145.960000
470.203430	145.540000
470.297150	144.880000
470.390808	145.140000
470.484558	144.760000
470.578217	145.040000
470.671936	145.340000
470.765625	145.980000
470.859344	145.420000
470.953003	145.760000
471.046753	145.260000
471.140411	144.660000
471.234131	144.660000
471.327820	145.440000
471.421539	145.300000
471.515228	145.160000
471.608948	145.680000
471.702637	145.400000
471.796326	144.620000
471.890045	144.940000
471.983734	145.300000
472.077423	145.040000
472.171143	145.260000
472.264832	145.620000
472.358521	145.240000
472.452240	144.980000
472.545929	145.600000
472.639648	145.300000
472.733337	145.500000
472.827057	145.560000
472.920746	145.680000
473.014465	145.620000
473.108124	145.940000
473.201874	145.700000
473.295532	145.560000
473.389252	145.860000
473.482941	145.840000
473.576660	145.180000
473.670319	145.260000
473.764069	145.560000
473.857727	145.540000
473.951477	145.760000
474.045166	146.580000
474.138855	146.260000
474.232574	146.140000
474.326263	146.040000
474.419952	145.760000
474.513672	145.520000
474.607361	145.580000
474.701050	145.820000
474.794769	146.280000
474.888458	146.480000
474.982178	146.440000
475.075867	146.800000
475.169586	146.620000
475.263275	146.080000
475.356995	145.780000
475.450653	145.640000
475.544403	145.320000
475.638062	146.300000
475.731812	146.120000
475.825470	145.920000
475.919189	146.180000
476.012878	146.600000
476.106598	145.560000
476.200256	145.940000
476.294006	145.840000
476.387695	145.740000
476.481384	145.320000
476.575104	145.340000
476.668793	144.780000
476.762512	144.600000
476.856201	145.200000
476.949890	144.880000
477.043610	144.300000
477.137299	144.520000
477.230988	145.200000
477.324707	144.340000
477.418396	145.060000
477.512146	145.480000
477.605804	145.520000
477.699524	145.260000
477.793213	145.260000
477.886932	144.880000
477.980591	144.820000
478.074341	144.640000
478.167999	144.340000
478.261749	144.680000
478.355408	144.620000
478.449127	144.960000
478.542816	146.020000
478.636536	146.620000
478.730225	146.620000
478.823944	146.960000
478.917633	146.620000
479.011322	146.200000
479.105042	146.100000
479.198730	146.280000
479.292450	145.860000
479.386139	146.200000
479.479828	146.260000
479.573547	146.240000
479.667267	145.960000
479.760925	146.160000
479.854675	146.140000
479.948334	145.860000
480.042084	145.680000
480.135742	146.000000
480.229462	145.320000
480.323151	145.280000
480.416870	144.820000
480.510529	144.660000
480.604279	143.920000
480.697937	144.760000
480.791656	144.220000
480.885345	144.040000
480.979065	144.100000
481.072754	144.760000
481.166473	145.080000
481.260132	145.180000
481.353882	145.720000
481.447540	145.760000
481.541260	145.520000
481.635010	144.680000
481.728668	144.580000
481.822388	144.760000
481.916077	144.820000
482.009796	144.620000
482.103485	145.440000
482.197205	145.660000
482.290863	145.580000
482.384613	145.420000
482.478271	145.400000
482.571991	145.120000
482.665680	145.240000
482.759399	145.580000
482.853058	145.900000
482.946808	145.860000
483.040466	145.560000
483.134216	145.500000
483.227875	144.980000
483.321594	145.480000
483.415283	145.680000
483.509003	145.500000
483.602661	145.220000
483.696411	145.500000
483.790070	145.020000
483.883789	144.900000
483.977478	145.660000
484.071198	145.880000
484.164917	145.500000
484.258606	144.920000
484.352325	145.480000
484.445984	145.240000
484.539734	145.340000
484.633392	145.020000
484.727142	145.440000
484.820801	144.740000
484.914520	144.760000
485.008209	144.900000
485.101929	145.420000
485.195587	145.260000
485.289337	145.360000
485.382996	145.260000
485.476715	145.060000
485.570404	145.720000
485.664124	145.640000
485.757782	146.000000
485.851532	145.800000
485.945190	145.740000
486.038910	145.080000
486.132599	145.560000
486.226318	145.060000
486.319977	144.980000
486.413727	145.280000
486.507446	145.120000
486.601105	144.480000
486.694855	144.540000
486.788513	144.240000
486.882233	144.240000
486.975922	144.220000
487.069641	144.160000
487.163300	143.860000
487.257050	145.180000
487.350708	144.660000
487.444427	144.560000
487.538116	144.540000
487.631836	144.740000
487.725494	144.060000
487.819214	144.380000
487.912903	144.320000
488.006622	145.120000
488.100281	145.300000
488.194031	145.080000
488.287689	145.720000
488.381409	146.720000
488.475098	146.580000
488.568817	146.920000
488.662476	146.700000
488.756226	145.740000
488.849945	144.540000
488.943604	144.500000
489.037354	144.500000
489.131012	144.740000
489.224731	144.800000
489.318390	145.060000
489.412140	145.040000
489.505798	144.820000
489.599518	144.460000
489.693207	144.680000
489.786926	144.580000
489.880585	144.280000
489.974335	144.720000
490.067993	146.000000
490.161713	146.260000
490.255371	147.120000
490.349121	147.340000
490.442780	146.780000
490.536499	145.760000
490.630188	145.760000
490.723907	145.100000
490.817566	145.180000
490.911285	145.400000
491.004974	145.220000
491.098694	144.640000
491.192413	145.280000
491.286102	144.960000
491.379822	144.860000
491.473480	145.240000
491.567200	145.520000
491.660889	144.700000
491.754608	144.920000
491.848267	145.180000
491.941986	145.140000
492.035675	145.100000
492.129395	145.540000
492.223053	145.320000
492.316772	145.220000
492.410461	145.060000
492.504181	145.420000
492.597839	144.800000
492.691559	145.120000
492.785248	145.220000
492.878967	145.640000
492.972626	145.040000
493.066345	145.560000
493.160034	144.960000
493.253754	144.660000
493.347412	143.980000
493.441132	144.400000
493.534882	144.860000
493.628540	145.300000
493.722260	145.560000
493.815918	145.980000
493.909668	146.280000
494.003326	146.080000
494.097046	145.720000
494.190704	145.400000
494.284454	145.620000
494.378113	145.720000
494.471832	145.560000
494.565491	145.900000
494.659210	146.140000
494.752899	145.840000
494.846619	145.560000
494.940277	145.700000
495.033997	145.380000
495.127686	145.240000
495.221405	145.140000
495.315063	144.900000
495.408783	144.780000
495.502441	145.060000
495.596191	145.060000
495.689850	145.120000
495.783569	145.640000
495.877228	145.700000
495.970947	145.600000
496.064697	145.680000
496.158356	146.700000
496.252075	146.600000
496.345734	146.200000
496.439453	146.820000
496.533142	146.880000
496.626862	146.440000
496.720520	146.260000
496.814240	146.760000
496.907898	146.420000
497.001617	146.540000
497.095306	145.860000
497.189026	145.780000
497.282684	145.820000
497.376404	146.000000
497.470062	145.520000
497.563782	145.780000
497.657471	145.700000
497.751190	145.320000
497.844849	144.920000
497.938568	145.320000
498.032227	145.340000
498.125946	145.620000
498.219635	145.540000
498.313354	145.980000
498.407074	145.620000
498.500732	145.600000
498.594452	145.420000
498.688110	145.160000
498.781830	144.280000
498.875519	144.160000
498.969238	144.020000
499.062897	144.020000
499.156616	145.060000
499.250275	145.580000
499.343994	145.720000
499.437653	145.900000
499.531372	145.960000
499.625061	145.920000
499.718781	145.840000
499.812439	145.940000
499.906158	145.720000
499.999817	145.340000
500.093536	144.880000
500.187195	145.200000
500.280914	145.380000
500.374573	145.620000
500.468323	145.480000
500.561981	145.860000
500.655701	145.420000
500.749420	145.260000
500.843079	145.500000
500.936798	146.000000
501.030457	146.080000
501.124176	146.500000
501.217834	146.480000
501.311554	146.260000
501.405212	146.040000
501.498962	145.100000
501.592621	145.020000
501.686340	145.140000
501.779999	145.120000
501.873718	145.320000
501.967377	145.980000
502.061096	146.240000
502.154755	146.040000
502.248474	145.920000
502.342133	145.640000
502.435852	145.600000
502.529510	146.200000
502.623230	147.100000
502.716888	146.760000
502.810608	146.860000
502.904266	146.960000
502.997986	146.000000
503.091705	145.160000
503.185364	145.240000
503.279083	145.500000
503.372772	145.280000
503.466492	145.100000
503.560150	145.300000
503.653870	145.520000
503.747528	145.300000
503.841248	145.420000
503.934906	145.620000
504.028625	145.340000
504.122284	145.720000
504.216003	146.540000
504.309662	146.140000
504.403381	146.500000
504.497040	146.540000
504.590759	145.760000
504.684418	145.720000
504.778137	145.980000
504.871796	145.920000
504.965515	145.840000
505.059174	146.340000
505.152893	145.540000
505.246521	145.140000
505.340240	144.920000
505.433899	145.340000
505.527618	145.400000
505.621338	145.920000
505.714996	145.920000
505.808716	145.860000
505.902374	146.100000
505.996094	146.280000
506.089752	145.800000
506.183472	146.140000
506.277130	146.280000
506.370850	146.100000
506.464508	145.840000
506.558228	145.960000
506.651886	145.960000
506.745605	145.900000
506.839264	146.100000
506.932983	145.940000
507.026611	146.180000
507.120331	146.580000
507.213989	146.120000
507.307709	146.120000
507.401367	146.560000
507.495087	147.160000
507.588745	146.520000
507.682465	147.660000
507.776123	147.280000
507.869843	147.080000
507.963531	146.680000
508.057190	147.060000
508.150909	145.660000
508.244568	145.640000
508.338287	145.300000
508.431946	144.700000
508.525665	144.340000
508.619324	144.740000
508.713013	145.100000
508.806671	145.540000
508.900391	146.340000
508.994049	146.620000
509.087769	146.160000
509.181427	145.700000
509.275146	145.220000
509.368774	144.120000
509.462494	143.880000
509.556152	144.340000
509.649872	144.880000
509.743530	145.300000
509.837250	145.920000
509.930878	145.980000
510.024597	145.840000
510.118256	145.620000
510.211975	145.380000
510.305695	145.080000
510.399353	145.440000
510.493042	146.020000
510.586700	146.000000
510.680420	146.660000
510.774078	146.620000
510.867798	146.700000
510.961426	146.080000
511.055145	145.940000
511.148804	145.300000
511.242523	145.740000
511.336151	145.800000
511.429871	146.500000
511.523529	146.220000
511.617249	145.860000
511.710876	145.660000
511.804596	145.180000
511.898254	144.640000
511.991974	145.400000
512.085632	145.560000
512.179321	145.740000
512.272949	146.100000
512.366699	146.200000
512.460327	145.520000
512.554077	146.500000
512.647766	146.340000
512.741394	146.040000
512.835144	146.760000
512.928772	146.660000
513.022461	146.280000
513.116150	146.060000
513.209839	146.440000
513.303467	145.760000
513.397217	145.780000
513.490845	145.260000
513.584595	145.060000
513.678223	144.480000
513.771912	144.160000
513.865601	144.320000
513.959290	144.300000
514.052917	144.520000
514.146667	145.440000
514.240295	146.180000
514.333984	146.420000
514.427673	146.580000
514.521362	147.000000
514.614990	146.220000
514.708740	146.100000
514.802368	146.080000
514.896057	146.040000
514.989746	146.460000
515.083435	146.600000
515.177124	146.420000
515.270752	146.100000
515.364502	146.080000
515.458130	145.960000
515.551819	145.600000
515.645508	145.520000
515.739197	145.680000
515.832825	145.540000
515.926575	145.100000
516.020203	145.420000
516.113892	145.680000
516.207520	145.700000
516.301270	145.860000
516.394897	145.860000
516.488586	146.580000
516.582275	146.540000
516.675964	145.880000
516.769592	146.120000
516.863281	146.440000
516.956970	146.260000
517.050659	146.220000
517.144287	146.740000
517.238037	146.660000
517.331665	146.080000
517.425354	145.480000
517.519043	145.000000
517.612732	145.520000
517.706421	145.420000
517.800049	145.220000
517.893738	145.220000
517.987427	145.540000
518.081116	144.940000
518.174744	144.520000
518.268433	145.380000
518.362122	146.080000
518.455811	146.080000
518.549438	146.800000
518.643127	147.960000
518.736816	147.380000
518.830505	146.680000
518.924133	146.820000
519.017822	146.840000
519.111511	146.440000
519.205200	147.060000
519.298828	147.180000
519.392517	146.900000
519.486206	146.980000
519.579895	146.900000
519.673523	146.380000
519.767212	146.480000
519.860901	147.140000
519.954590	146.500000
520.048279	145.960000
520.141907	146.100000
520.235596	147.080000
520.329224	146.960000
520.422974	147.040000
520.516602	147.100000
520.610291	146.520000
520.703918	145.700000
520.797607	144.940000
520.891296	144.840000
520.984985	145.200000
521.078613	146.100000
521.172302	145.700000
521.265930	146.600000
521.359680	147.040000
521.453308	146.820000
521.546997	146.600000
521.640625	147.060000
521.734314	146.200000
521.827942	145.820000
521.921692	146.140000
522.015320	145.920000
522.109009	145.580000
522.202698	146.020000
522.296326	146.320000
522.390015	146.520000
522.483704	146.740000
522.577393	146.400000
522.671021	146.000000
522.764709	145.280000
522.858337	145.520000
522.952026	145.220000
523.045654	145.980000
523.139404	146.820000
523.233032	147.120000
523.326721	146.460000
523.420349	146.460000
523.514038	146.180000
523.607666	146.140000
523.701355	146.180000
523.795044	146.360000
523.888733	146.520000
523.982361	146.700000
524.076050	146.360000
524.169678	146.720000
524.263367	146.540000
524.356995	146.280000
524.450684	146.020000
524.544373	145.640000
524.638062	145.640000
524.731750	145.720000
524.825378	145.680000
524.919067	145.220000
525.012695	145.520000
525.106384	144.860000
525.200012	145.180000
525.293701	145.340000
525.387329	145.800000
525.481018	145.780000
525.574646	146.280000
525.668396	146.140000
525.762024	146.380000
525.855713	146.640000
525.949341	146.060000
526.043030	146.360000
526.136658	145.900000
526.230347	145.780000
526.323975	145.240000
526.417664	145.620000
526.511292	145.340000
526.604980	145.680000
526.698608	145.580000
526.792297	145.820000
526.885925	146.480000
526.979614	146.560000
527.073303	146.560000
527.166931	146.620000
527.260620	146.480000
527.354309	146.300000
527.447998	146.240000
527.541626	145.940000
527.635315	145.900000
527.728943	146.600000
527.822632	146.440000
527.916260	146.520000
528.009949	146.920000
528.103577	146.440000
528.197266	145.560000
528.290894	145.840000
528.384583	145.480000
528.478210	145.340000
528.571899	145.940000
528.665527	146.780000
528.759216	146.520000
528.852844	147.040000
528.946533	146.920000
529.040161	146.920000
529.133850	146.020000
529.227478	146.040000
529.321167	145.940000
529.414856	146.220000
529.508484	146.480000
529.602173	146.660000
529.695801	146.740000
529.789490	146.520000
529.883057	146.180000
529.976746	146.380000
530.070374	146.640000
530.164062	146.400000
530.257690	146.680000
530.351379	147.020000
530.445007	146.380000
530.538696	145.820000
530.632324	145.840000
530.726013	145.600000
530.819641	145.680000
530.913330	145.860000
531.006958	146.080000
531.100647	146.440000
531.194275	146.200000
531.287964	145.680000
531.381592	145.580000
531.475220	146.100000
531.568848	145.760000
531.662537	145.740000
531.756226	146.320000
531.849854	146.340000
531.943542	145.960000
532.037170	145.560000
532.130859	146.300000
532.224487	145.720000
532.318176	145.500000
532.411804	145.880000
532.505432	146.620000
532.599060	145.820000
532.692749	146.060000
532.786377	146.500000
532.880066	146.040000
532.973694	145.260000
533.067383	145.900000
533.161011	145.820000
533.254639	145.640000
533.348267	145.660000
533.441956	145.920000
533.535583	145.680000
533.629272	145.860000
533.722900	145.480000
533.816589	145.660000
533.910156	146.060000
534.003845	145.580000
534.097534	145.840000
534.191162	146.640000
534.284851	146.400000
534.378479	146.040000
534.472107	146.320000
534.565735	145.840000
534.659424	145.660000
534.753052	145.960000
534.846741	145.700000
534.940369	146.300000
535.033997	146.440000
535.127625	146.120000
535.221313	146.540000
535.314941	146.520000
535.408630	145.420000
535.502197	145.900000
535.595886	145.940000
535.689514	145.420000
535.783203	145.900000
535.876831	146.660000
535.970459	146.260000
536.064087	145.920000
536.157776	146.120000
536.251404	146.240000
536.345093	146.100000
536.438721	146.100000
536.532349	146.520000
536.626038	146.340000
536.719666	146.380000
536.813293	146.120000
536.906921	145.980000
537.000610	146.000000
537.094238	146.040000
537.187866	145.920000
537.281494	146.100000
537.375183	146.380000
537.468811	146.060000
537.562439	146.040000
537.656067	145.820000
537.749756	145.800000
537.843384	146.000000
537.937012	146.260000
538.030640	145.920000
538.124329	145.760000
538.217896	145.920000
538.311584	145.780000
538.405212	145.620000
538.498901	146.020000
538.592468	146.560000
538.686157	146.120000
538.779785	145.300000
538.873413	145.180000
538.967102	144.900000
539.060730	144.680000
539.154358	145.160000
539.247986	145.720000
539.341675	145.820000
539.435242	145.940000
539.528931	145.980000
539.622559	145.500000
539.716187	145.880000
539.809814	145.960000
539.903503	145.900000
539.997070	145.640000
540.090759	145.920000
540.184387	145.620000
540.278015	145.980000
540.371643	146.220000
540.465332	146.360000
540.558899	146.000000
540.652588	146.040000
540.746216	145.840000
540.839844	146.100000
540.933472	146.080000
541.027100	146.200000
541.120728	146.540000
541.214417	146.500000
541.308044	146.620000
541.401672	146.520000
541.495300	146.760000
541.588928	146.100000
541.682617	145.940000
541.776184	145.460000
541.869873	145.720000
541.963440	145.360000
542.057129	145.600000
542.150757	145.760000
542.244385	145.600000
542.338013	145.260000
542.431641	145.580000
542.525269	145.500000
542.618958	145.940000
542.712524	146.180000
542.806213	146.080000
542.899780	146.160000
542.993469	146.040000
543.087036	145.300000
543.180725	144.720000
543.274292	145.120000
543.367981	145.180000
543.461548	145.760000
543.555237	146.020000
543.648926	146.820000
543.742493	147.340000
543.836182	147.560000
543.929749	147.080000
544.023437	147.260000
544.117004	146.920000
544.210693	146.660000
544.304260	146.560000
544.397949	146.540000
544.491516	146.540000
544.585205	146.460000
544.678772	145.920000
544.772461	146.060000
544.866028	146.080000
544.959717	146.380000
545.053284	146.340000
545.146973	146.700000
545.240540	146.700000
545.334229	147.360000
545.427795	147.280000
545.521423	147.480000
545.615051	147.340000
545.708679	147.580000
545.802307	146.740000
545.895935	146.880000
545.989624	147.380000
546.083191	147.080000
546.176880	146.520000
546.270447	146.240000
546.364136	146.260000
546.457703	145.740000
546.551331	146.060000
546.644958	145.920000
546.738586	146.560000
546.832214	146.100000
546.925842	145.820000
547.019409	146.000000
547.113098	145.940000
547.206665	145.560000
547.300354	145.740000
547.393921	146.540000
547.487549	146.460000
547.581177	146.540000
547.674805	146.620000
547.768433	145.760000
547.862061	145.240000
547.955627	144.720000
548.049316	145.160000
548.142883	145.500000
548.236572	146.420000
548.330139	146.640000
548.423767	146.740000
548.517456	146.680000
548.611023	146.920000
548.704651	145.940000
548.798279	145.800000
548.891907	146.520000
548.985474	146.340000
549.079163	146.300000
549.172729	146.660000
549.266357	146.280000
549.359985	146.120000
549.453613	145.740000
549.547180	145.220000
549.640869	145.900000
549.734436	145.840000
549.828064	145.820000
549.921631	145.820000
550.015320	145.460000
550.108887	145.300000
550.202515	145.820000
550.296143	145.360000
550.389771	145.580000
550.483337	146.000000
550.576965	145.580000
550.670593	145.420000
550.764221	145.660000
550.857849	145.600000
550.951477	145.300000
551.045105	145.240000
551.138672	145.300000
551.232300	145.060000
551.325928	145.300000
551.419556	145.840000
551.513123	145.920000
551.606750	145.700000
551.700378	145.800000
551.794006	145.700000
551.887573	145.440000
551.981201	146.160000
552.074768	146.180000
552.168457	145.860000
552.262024	146.760000
552.355652	146.700000
552.449219	146.680000
552.542847	146.900000
552.636475	147.060000
552.730103	145.860000
552.823669	145.740000
552.917297	144.920000
553.010864	144.820000
553.104553	145.260000
553.198181	145.200000
553.291748	146.020000
553.385376	146.520000
553.478943	146.360000
553.572571	146.220000
553.666199	146.540000
553.759827	146.060000
553.853394	145.760000
553.947021	145.820000
554.040588	145.540000
554.134216	145.560000
554.227783	146.220000
554.321411	146.620000
554.415039	146.220000
554.508667	146.560000
554.602234	146.600000
554.695862	145.760000
554.789429	145.820000
554.883057	146.300000
554.976624	146.180000
555.070251	146.400000
555.163818	146.160000
555.257507	145.980000
555.351074	146.160000
555.444702	147.080000
555.538330	146.740000
555.631897	147.380000
555.725525	147.020000
555.819092	146.800000
555.912720	145.380000
556.006287	145.780000
556.099915	145.480000
556.193481	145.940000
556.287109	146.120000
556.380676	146.800000
556.474304	146.640000
556.567871	146.560000
556.661499	146.080000
556.755066	146.100000
556.848694	146.000000
556.942261	145.600000
557.035889	145.760000
557.129517	145.900000
557.223145	145.980000
557.316711	145.780000
557.410339	146.180000
557.503906	146.480000
557.597473	146.500000
557.691040	146.280000
557.784668	146.680000
557.878296	146.640000
557.971863	146.500000
558.065491	146.960000
558.159058	146.600000
558.252686	147.080000
558.346252	147.780000
558.439880	147.480000
558.533447	146.840000
558.627075	146.840000
558.720642	146.120000
558.814270	145.500000
558.907837	145.480000
559.001465	145.520000
559.095032	146.380000
559.188660	146.500000
559.282227	145.960000
559.375854	146.920000
559.469360	146.960000
559.562988	146.720000
559.656555	146.840000
559.750183	147.380000
559.843750	146.680000
559.937378	146.620000
560.030945	146.340000
560.124573	0.000000
560.218140	0.000000
560.311707	0.000000
560.405334	0.000000
560.498901	0.000000
560.592529	0.000000
560.686096	0.000000
560.779724	0.000000
560.873291	0.000000
560.966858	0.000000
561.060425	0.000000
561.154053	0.000000
561.247620	0.000000
561.341248	0.000000
561.434814	0.000000
561.528381	0.000000
561.621948	0.000000
561.715576	0.000000
561.809143	0.000000
561.902771	0.000000
561.996277	0.000000
562.089905	0.000000
562.183472	0.000000
562.277100	0.000000
