Model Number: SPM-002-B   
Serial Number: 70087108
Firmware Version: 004.15.4
Exposure Time: 100000.000000us
Data Taken on: 11-12-2020 18:51:32.471
Wavelength	Amplitude
221.570786	0.000000
221.663406	0.000000
221.756027	0.000000
221.848648	0.000000
221.941269	0.000000
222.033905	0.000000
222.126526	0.000000
222.219162	0.000000
222.311798	0.000000
222.404419	0.000000
222.497055	0.000000
222.589676	0.000000
222.682312	0.000000
222.774933	0.000000
222.867569	0.000000
222.960205	0.000000
223.052841	0.000000
223.145462	0.000000
223.238098	0.000000
223.330734	0.000000
223.423386	0.000000
223.516022	0.000000
223.608658	0.000000
223.701309	0.000000
223.793945	0.000000
223.886581	0.000000
223.979218	0.000000
224.071869	0.000000
224.164505	0.000000
224.257156	0.000000
224.349792	0.000000
224.442444	0.000000
224.535095	0.000000
224.627747	0.000000
224.720398	0.000000
224.813034	0.000000
224.905685	0.000000
224.998337	145.200000
225.090988	144.980000
225.183640	145.160000
225.276291	145.240000
225.368942	145.400000
225.461594	145.900000
225.554245	146.420000
225.646912	146.400000
225.739578	146.940000
225.832230	147.300000
225.924896	146.340000
226.017548	146.460000
226.110199	146.900000
226.202866	146.240000
226.295532	146.160000
226.388184	146.200000
226.480850	145.760000
226.573517	145.220000
226.666168	145.440000
226.758835	145.460000
226.851501	146.300000
226.944183	146.560000
227.036850	146.140000
227.129517	146.140000
227.222183	146.240000
227.314850	146.020000
227.407516	146.300000
227.500198	147.300000
227.592865	146.940000
227.685532	146.720000
227.778214	146.280000
227.870880	146.260000
227.963562	146.620000
228.056229	147.400000
228.148926	147.240000
228.241592	148.140000
228.334274	147.940000
228.426956	147.540000
228.519638	147.060000
228.612305	147.040000
228.704987	146.720000
228.797668	146.460000
228.890350	145.940000
228.983032	145.480000
229.075714	146.280000
229.168396	146.120000
229.261108	145.880000
229.353790	146.400000
229.446472	146.940000
229.539169	146.540000
229.631851	145.860000
229.724533	146.400000
229.817230	146.360000
229.909912	147.300000
230.002609	146.900000
230.095306	147.180000
230.187988	146.880000
230.280685	146.740000
230.373383	145.060000
230.466095	145.180000
230.558792	145.640000
230.651474	145.740000
230.744171	145.680000
230.836868	146.240000
230.929581	146.420000
231.022278	146.380000
231.114975	146.380000
231.207672	146.140000
231.300369	146.200000
231.393082	146.260000
231.485779	145.980000
231.578506	145.960000
231.671204	146.240000
231.763916	146.480000
231.856613	146.320000
231.949326	146.360000
232.042023	146.340000
232.134735	145.940000
232.227448	145.360000
232.320160	145.820000
232.412872	145.880000
232.505585	146.720000
232.598297	147.220000
232.691010	147.660000
232.783722	146.840000
232.876450	147.340000
232.969162	146.580000
233.061874	145.920000
233.154587	145.440000
233.247314	146.040000
233.340027	145.180000
233.432739	145.640000
233.525467	145.940000
233.618179	146.500000
233.710907	146.220000
233.803635	146.920000
233.896347	146.300000
233.989090	146.960000
234.081818	146.640000
234.174545	146.840000
234.267258	146.180000
234.359985	146.340000
234.452713	146.100000
234.545441	145.960000
234.638168	146.000000
234.730896	146.740000
234.823639	146.680000
234.916367	146.680000
235.009094	146.780000
235.101822	146.540000
235.194580	146.080000
235.287308	146.120000
235.380051	145.680000
235.472778	146.020000
235.565521	146.300000
235.658249	146.140000
235.750992	146.460000
235.843719	146.720000
235.936462	146.660000
236.029205	146.160000
236.121948	146.200000
236.214691	146.260000
236.307449	146.740000
236.400192	146.420000
236.492935	146.340000
236.585678	146.440000
236.678421	146.360000
236.771164	146.280000
236.863907	146.880000
236.956665	147.380000
237.049408	148.940000
237.142151	148.340000
237.234909	148.760000
237.327652	148.820000
237.420410	148.420000
237.513153	147.540000
237.605927	147.680000
237.698669	147.080000
237.791428	146.240000
237.884186	146.680000
237.976944	145.840000
238.069702	146.200000
238.162445	146.040000
238.255203	146.260000
238.347961	146.500000
238.440720	146.680000
238.533478	146.480000
238.626266	145.960000
238.719025	146.440000
238.811783	146.300000
238.904541	146.280000
238.997314	146.460000
239.090073	146.520000
239.182831	146.500000
239.275604	147.000000
239.368362	146.560000
239.461136	146.560000
239.553909	146.640000
239.646667	146.340000
239.739441	146.080000
239.832214	146.660000
239.925003	146.760000
240.017761	147.400000
240.110535	147.840000
240.203308	147.060000
240.296082	147.160000
240.388855	146.960000
240.481628	146.900000
240.574417	147.000000
240.667191	147.400000
240.759964	146.980000
240.852737	146.940000
240.945526	146.640000
241.038315	146.020000
241.131088	145.880000
241.223877	146.280000
241.316650	145.880000
241.409439	145.960000
241.502228	145.680000
241.595001	146.480000
241.687790	146.260000
241.780579	146.500000
241.873367	146.840000
241.966141	147.240000
242.058929	146.280000
242.151718	146.420000
242.244507	146.740000
242.337311	145.640000
242.430099	146.020000
242.522903	146.520000
242.615692	146.300000
242.708481	146.220000
242.801270	147.120000
242.894073	147.140000
242.986862	146.940000
243.079651	147.220000
243.172455	147.100000
243.265244	147.100000
243.358063	146.420000
243.450867	146.820000
243.543655	146.820000
243.636459	146.800000
243.729263	146.940000
243.822067	147.460000
243.914856	147.600000
244.007660	147.840000
244.100464	147.660000
244.193268	147.160000
244.286072	146.820000
244.378876	145.980000
244.471680	145.400000
244.564499	145.860000
244.657318	146.460000
244.750122	146.720000
244.842926	146.240000
244.935745	146.820000
245.028549	146.540000
245.121368	146.180000
245.214172	146.080000
245.306992	147.020000
245.399796	146.620000
245.492615	146.720000
245.585434	146.600000
245.678253	146.700000
245.771072	146.580000
245.863892	146.940000
245.956711	147.080000
246.049530	146.760000
246.142349	146.500000
246.235168	146.540000
246.327988	146.940000
246.420807	147.000000
246.513626	147.260000
246.606445	147.140000
246.699280	147.020000
246.792099	146.600000
246.884918	146.040000
246.977753	146.000000
247.070587	146.120000
247.163422	146.080000
247.256241	146.000000
247.349075	146.500000
247.441895	146.540000
247.534729	146.580000
247.627563	146.580000
247.720383	147.000000
247.813217	147.020000
247.906052	146.780000
247.998886	146.980000
248.091736	146.940000
248.184570	146.300000
248.277405	145.820000
248.370239	146.620000
248.463074	147.400000
248.555908	147.820000
248.648743	147.900000
248.741592	148.280000
248.834427	147.820000
248.927261	146.620000
249.020111	146.600000
249.112946	147.380000
249.205795	146.960000
249.298630	147.180000
249.391495	147.520000
249.484344	147.120000
249.577179	146.420000
249.670029	146.780000
249.762878	147.140000
249.855728	146.840000
249.948563	146.960000
250.041412	146.420000
250.134262	146.520000
250.227112	146.500000
250.319962	147.160000
250.412827	147.220000
250.505692	147.280000
250.598541	147.280000
250.691391	146.880000
250.784241	146.520000
250.877106	146.640000
250.969955	146.640000
251.062805	146.920000
251.155670	147.120000
251.248520	146.860000
251.341385	146.940000
251.434235	146.700000
251.527100	146.200000
251.619965	145.800000
251.712814	146.740000
251.805695	146.660000
251.898560	147.160000
251.991425	147.560000
252.084290	147.720000
252.177155	146.580000
252.270020	146.140000
252.362885	146.080000
252.455750	145.820000
252.548615	145.580000
252.641479	145.700000
252.734360	145.440000
252.827240	145.280000
252.920105	145.500000
253.012970	145.660000
253.105850	145.760000
253.198715	145.920000
253.291595	146.020000
253.384460	145.360000
253.477341	145.400000
253.570221	145.420000
253.663086	145.260000
253.755966	145.800000
253.848846	146.120000
253.941727	146.100000
254.034592	146.440000
254.127472	146.100000
254.220367	146.020000
254.313248	146.200000
254.406128	145.860000
254.499008	145.700000
254.591904	146.820000
254.684784	147.380000
254.777664	147.480000
254.870544	147.420000
254.963440	147.400000
255.056335	147.620000
255.149216	146.560000
255.242111	146.740000
255.334991	147.060000
255.427887	147.140000
255.520767	146.600000
255.613663	146.960000
255.706558	146.140000
255.799438	145.940000
255.892334	145.500000
255.985229	145.540000
256.078125	145.160000
256.171021	145.580000
256.263916	145.820000
256.356812	146.180000
256.449707	146.420000
256.542603	146.320000
256.635498	146.660000
256.728394	146.760000
256.821289	146.440000
256.914215	146.440000
257.007080	147.200000
257.100006	147.240000
257.192932	147.500000
257.285828	147.960000
257.378723	147.440000
257.471619	146.860000
257.564545	145.980000
257.657440	145.760000
257.750336	146.380000
257.843262	146.440000
257.936157	147.720000
258.029053	148.340000
258.121979	148.780000
258.214874	148.000000
258.307800	147.880000
258.400696	146.640000
258.493622	146.300000
258.586517	145.320000
258.679443	145.660000
258.772339	145.400000
258.865265	145.500000
258.958160	145.440000
259.051086	146.220000
259.144012	145.780000
259.236938	146.520000
259.329834	146.640000
259.422791	146.560000
259.515717	145.980000
259.608612	146.020000
259.701538	146.080000
259.794464	145.940000
259.887390	146.060000
259.980316	145.940000
260.073212	145.720000
260.166138	144.780000
260.259064	145.120000
260.351990	145.940000
260.444916	145.840000
260.537842	146.140000
260.630768	147.160000
260.723694	146.760000
260.816620	146.120000
260.909546	146.160000
261.002472	146.060000
261.095398	145.320000
261.188354	145.480000
261.281281	145.220000
261.374207	145.440000
261.467133	145.960000
261.560089	146.260000
261.653015	146.080000
261.745972	146.860000
261.838867	147.420000
261.931824	147.340000
262.024780	146.880000
262.117706	147.120000
262.210663	146.960000
262.303589	146.640000
262.396515	146.520000
262.489471	147.460000
262.582397	147.140000
262.675354	146.940000
262.768280	146.800000
262.861237	146.600000
262.954163	146.280000
263.047119	146.480000
263.140045	146.080000
263.233002	145.960000
263.325958	146.220000
263.418884	145.980000
263.511841	145.980000
263.604797	146.240000
263.697723	146.140000
263.790680	146.180000
263.883636	146.700000
263.976593	146.540000
264.069550	146.480000
264.162476	146.360000
264.255463	146.080000
264.348419	145.580000
264.441376	145.720000
264.534332	145.680000
264.627289	145.820000
264.720245	146.160000
264.813202	146.040000
264.906158	146.340000
264.999115	146.620000
265.092072	146.460000
265.185028	146.860000
265.277985	147.120000
265.370941	146.660000
265.463898	146.520000
265.556854	146.540000
265.649811	145.480000
265.742798	145.380000
265.835754	145.500000
265.928711	145.840000
266.021667	145.920000
266.114655	146.280000
266.207611	146.480000
266.300568	145.800000
266.393585	145.460000
266.486511	145.920000
266.579498	145.480000
266.672485	145.060000
266.765442	145.500000
266.858429	145.780000
266.951385	145.340000
267.044342	145.600000
267.137329	145.740000
267.230316	146.180000
267.323273	145.640000
267.416260	146.140000
267.509216	146.000000
267.602203	145.980000
267.695160	146.080000
267.788147	146.160000
267.881134	145.600000
267.974091	145.800000
268.067078	145.740000
268.160065	145.580000
268.253052	145.520000
268.346008	145.760000
268.438995	145.560000
268.531982	145.580000
268.624969	145.380000
268.717987	145.860000
268.810944	145.940000
268.903961	146.020000
268.996948	145.620000
269.089905	146.280000
269.182892	146.300000
269.275879	146.480000
269.368866	146.360000
269.461853	147.180000
269.554871	146.740000
269.647858	146.440000
269.740845	146.500000
269.833832	146.920000
269.926819	146.500000
270.019806	146.440000
270.112793	146.340000
270.205811	146.420000
270.298798	146.200000
270.391785	146.720000
270.484772	146.560000
270.577789	146.700000
270.670776	146.280000
270.763763	146.400000
270.856750	146.460000
270.949768	146.320000
271.042786	146.380000
271.135773	146.400000
271.228790	146.500000
271.321808	145.800000
271.414795	145.540000
271.507782	145.300000
271.600800	145.160000
271.693817	144.880000
271.786804	145.560000
271.879822	146.140000
271.972809	146.100000
272.065826	146.500000
272.158844	146.280000
272.251831	146.500000
272.344849	146.200000
272.437866	145.980000
272.530853	145.880000
272.623871	146.320000
272.716888	145.440000
272.809906	145.800000
272.902893	145.980000
272.995911	145.520000
273.088928	145.360000
273.181946	145.600000
273.274963	145.240000
273.367981	145.180000
273.460999	145.460000
273.554047	145.880000
273.647003	146.640000
273.740051	146.740000
273.833069	147.540000
273.926086	147.840000
274.019135	147.660000
274.112152	146.740000
274.205170	146.880000
274.298187	146.500000
274.391205	146.040000
274.484222	145.860000
274.577240	146.100000
274.670258	145.600000
274.763306	145.400000
274.856323	145.980000
274.949341	146.040000
275.042358	146.660000
275.135406	146.980000
275.228424	147.040000
275.321442	146.820000
275.414490	146.500000
275.507507	146.280000
275.600525	146.860000
275.693573	146.560000
275.786591	145.800000
275.879669	146.200000
275.972656	145.600000
276.065735	145.080000
276.158752	145.760000
276.251801	146.900000
276.344818	146.620000
276.437866	147.180000
276.530884	147.080000
276.623932	146.120000
276.716980	145.960000
276.809998	145.960000
276.903046	145.820000
276.996094	146.580000
277.089111	147.500000
277.182159	147.640000
277.275208	147.460000
277.368256	147.460000
277.461304	147.060000
277.554321	146.100000
277.647369	145.800000
277.740417	146.120000
277.833466	145.900000
277.926514	145.660000
278.019562	146.740000
278.112610	146.240000
278.205688	146.300000
278.298706	146.520000
278.391785	146.540000
278.484833	145.540000
278.577881	145.720000
278.670929	146.040000
278.763977	145.960000
278.857025	146.220000
278.950073	146.700000
279.043121	146.620000
279.136169	146.260000
279.229248	146.180000
279.322296	146.220000
279.415344	145.800000
279.508392	145.860000
279.601440	146.140000
279.694519	145.900000
279.787567	145.580000
279.880615	145.880000
279.973694	146.000000
280.066742	145.800000
280.159790	146.140000
280.252869	146.100000
280.345917	146.240000
280.438995	146.200000
280.532074	145.980000
280.625122	146.160000
280.718201	147.080000
280.811279	146.920000
280.904327	147.140000
280.997406	147.540000
281.090454	147.440000
281.183533	146.340000
281.276581	146.240000
281.369659	146.060000
281.462738	145.760000
281.555786	145.720000
281.648865	146.100000
281.741943	146.240000
281.835022	146.620000
281.928070	146.600000
282.021149	146.520000
282.114227	146.200000
282.207306	145.920000
282.300385	145.640000
282.393433	145.880000
282.486511	145.660000
282.579590	146.160000
282.672668	146.780000
282.765747	146.420000
282.858856	145.880000
282.951904	146.000000
283.045013	146.000000
283.138062	146.360000
283.231171	146.700000
283.324249	147.160000
283.417328	147.540000
283.510406	147.280000
283.603485	146.580000
283.696564	146.440000
283.789642	146.620000
283.882751	146.040000
283.975830	146.660000
284.068909	146.640000
284.161987	147.360000
284.255066	146.540000
284.348175	146.820000
284.441254	146.300000
284.534332	146.580000
284.627441	145.940000
284.720520	146.280000
284.813599	146.180000
284.906708	146.060000
284.999786	145.760000
285.092896	145.520000
285.185974	146.400000
285.279053	146.140000
285.372192	146.280000
285.465240	146.800000
285.558380	146.900000
285.651459	146.320000
285.744568	147.280000
285.837677	147.000000
285.930756	147.000000
286.023865	146.880000
286.116943	146.300000
286.210052	146.200000
286.303162	146.380000
286.396240	146.000000
286.489349	146.020000
286.582458	146.820000
286.675568	146.400000
286.768646	146.380000
286.861755	146.520000
286.954865	147.200000
287.047974	146.680000
287.141083	146.560000
287.234161	146.300000
287.327271	146.080000
287.420380	145.880000
287.513519	145.900000
287.606598	145.960000
287.699738	146.200000
287.792816	146.240000
287.885956	146.040000
287.979034	145.900000
288.072174	145.860000
288.165283	145.640000
288.258392	145.920000
288.351501	145.540000
288.444611	146.160000
288.537720	146.600000
288.630859	146.600000
288.723969	146.640000
288.817078	147.100000
288.910187	146.920000
289.003296	146.160000
289.096436	146.120000
289.189545	145.800000
289.282654	145.260000
289.375763	145.320000
289.468903	145.900000
289.562012	146.260000
289.655121	146.300000
289.748260	146.780000
289.841400	147.100000
289.934509	146.800000
290.027649	146.820000
290.120728	146.540000
290.213898	146.540000
290.306976	145.780000
290.400146	145.900000
290.493256	145.520000
290.586395	145.840000
290.679535	146.040000
290.772644	146.100000
290.865784	145.460000
290.958893	145.700000
291.052032	145.340000
291.145172	145.000000
291.238281	144.920000
291.331421	145.500000
291.424561	145.780000
291.517670	145.780000
291.610809	146.100000
291.703949	146.400000
291.797089	146.680000
291.890228	146.180000
291.983337	146.440000
292.076477	146.120000
292.169617	146.280000
292.262756	146.280000
292.355927	146.200000
292.449036	146.060000
292.542206	146.600000
292.635315	146.640000
292.728485	146.340000
292.821625	146.220000
292.914764	147.540000
293.007904	147.300000
293.101044	147.020000
293.194183	147.060000
293.287323	147.600000
293.380463	146.540000
293.473602	146.260000
293.566742	146.380000
293.659882	146.700000
293.753021	146.860000
293.846191	146.880000
293.939331	146.600000
294.032471	146.560000
294.125610	145.980000
294.218781	146.080000
294.311920	146.480000
294.405060	146.840000
294.498230	146.820000
294.591370	147.160000
294.684540	146.540000
294.777679	145.860000
294.870850	146.180000
294.963959	146.180000
295.057159	145.820000
295.150299	146.100000
295.243469	146.020000
295.336609	145.480000
295.429779	145.360000
295.522919	146.100000
295.616089	145.980000
295.709229	146.760000
295.802399	146.960000
295.895569	146.760000
295.988708	146.380000
296.081879	146.660000
296.175018	146.000000
296.268188	145.900000
296.361359	146.400000
296.454529	146.400000
296.547668	146.280000
296.640839	146.660000
296.734009	146.620000
296.827179	146.740000
296.920319	147.060000
297.013519	146.680000
297.106659	146.660000
297.199860	146.740000
297.292999	146.600000
297.386200	145.980000
297.479309	146.060000
297.572510	145.940000
297.665680	145.500000
297.758850	145.280000
297.852020	145.500000
297.945190	145.640000
298.038361	145.460000
298.131531	146.680000
298.224701	146.580000
298.317871	146.160000
298.411072	145.700000
298.504242	145.420000
298.597412	144.600000
298.690582	145.140000
298.783752	145.600000
298.876923	146.320000
298.970093	146.440000
299.063293	146.760000
299.156464	146.600000
299.249634	146.620000
299.342834	146.400000
299.436005	146.960000
299.529205	146.880000
299.622345	146.920000
299.715576	146.540000
299.808716	146.080000
299.901917	145.780000
299.995117	145.860000
300.088287	146.100000
300.181488	146.040000
300.274658	146.320000
300.367828	146.660000
300.461029	146.660000
300.554199	146.420000
300.647400	147.000000
300.740601	147.500000
300.833771	147.120000
300.926971	147.280000
301.020142	146.820000
301.113342	146.340000
301.206512	145.920000
301.299713	146.180000
301.392914	145.740000
301.486084	146.180000
301.579285	145.980000
301.672516	146.800000
301.765686	146.400000
301.858887	146.600000
301.952057	146.480000
302.045288	146.960000
302.138458	146.420000
302.231659	146.360000
302.324860	146.140000
302.418060	146.080000
302.511261	145.960000
302.604462	145.960000
302.697662	146.040000
302.790863	145.780000
302.884064	145.360000
302.977264	145.360000
303.070465	145.660000
303.163666	146.380000
303.256866	146.880000
303.350067	147.060000
303.443268	147.100000
303.536469	147.180000
303.629669	146.600000
303.722870	146.900000
303.816071	146.820000
303.909271	146.480000
304.002472	145.620000
304.095673	145.160000
304.188934	144.380000
304.282104	145.400000
304.375336	145.660000
304.468506	145.780000
304.561768	145.700000
304.654968	146.160000
304.748169	145.480000
304.841370	145.240000
304.934601	145.580000
305.027802	145.800000
305.121002	145.520000
305.214233	145.320000
305.307434	145.520000
305.400665	145.980000
305.493866	145.740000
305.587097	145.900000
305.680298	145.740000
305.773499	146.220000
305.866730	145.840000
305.959930	146.560000
306.053162	146.880000
306.146393	146.700000
306.239594	145.740000
306.332825	145.480000
306.426025	145.920000
306.519287	145.360000
306.612488	145.960000
306.705719	146.380000
306.798920	146.460000
306.892181	145.380000
306.985352	145.300000
307.078613	144.680000
307.171844	144.840000
307.265045	144.480000
307.358276	144.560000
307.451508	144.860000
307.544739	145.500000
307.637970	145.080000
307.731201	145.380000
307.824402	146.080000
307.917633	146.200000
308.010864	146.480000
308.104095	147.400000
308.197327	147.400000
308.290558	146.920000
308.383789	146.540000
308.477020	146.200000
308.570251	145.060000
308.663483	144.780000
308.756714	145.080000
308.849976	145.340000
308.943176	145.760000
309.036438	145.860000
309.129639	145.900000
309.222900	145.400000
309.316101	145.320000
309.409393	144.360000
309.502625	144.280000
309.595856	144.580000
309.689087	144.940000
309.782318	144.900000
309.875580	145.460000
309.968811	146.000000
310.062042	145.700000
310.155273	145.520000
310.248535	145.900000
310.341766	145.800000
310.434998	145.380000
310.528259	145.320000
310.621490	145.760000
310.714722	145.280000
310.807983	145.280000
310.901215	145.220000
310.994476	145.460000
311.087708	145.080000
311.181000	145.360000
311.274200	144.940000
311.367462	145.320000
311.460693	145.060000
311.553986	145.660000
311.647186	145.740000
311.740479	146.660000
311.833710	146.400000
311.926971	146.600000
312.020203	145.760000
312.113464	145.640000
312.206726	144.980000
312.299957	145.340000
312.393219	145.860000
312.486481	146.380000
312.579712	146.320000
312.672974	146.600000
312.766235	146.340000
312.859497	145.700000
312.952759	145.620000
313.045990	146.220000
313.139252	145.420000
313.232513	145.720000
313.325775	146.100000
313.419037	145.720000
313.512299	144.800000
313.605530	145.940000
313.698822	145.880000
313.792053	145.860000
313.885345	145.760000
313.978577	146.280000
314.071869	145.420000
314.165131	145.560000
314.258392	145.640000
314.351654	146.040000
314.444916	145.320000
314.538177	146.100000
314.631439	146.240000
314.724701	145.880000
314.817993	145.680000
314.911255	146.180000
315.004517	145.680000
315.097778	145.580000
315.191040	146.100000
315.284302	146.200000
315.377594	146.060000
315.470856	146.080000
315.564117	145.240000
315.657379	144.380000
315.750671	143.860000
315.843933	144.340000
315.937195	143.940000
316.030518	144.140000
316.123749	144.640000
316.217041	146.000000
316.310303	145.380000
316.403595	145.940000
316.496857	146.360000
316.590149	146.320000
316.683411	145.120000
316.776703	145.240000
316.869965	145.120000
316.963257	144.800000
317.056519	144.560000
317.149811	144.880000
317.243073	144.980000
317.336365	145.260000
317.429626	145.720000
317.522919	146.200000
317.616180	146.120000
317.709473	146.020000
317.802765	145.520000
317.896027	145.100000
317.989319	145.440000
318.082611	145.320000
318.175873	145.160000
318.269165	145.300000
318.362488	145.560000
318.455750	144.800000
318.549042	145.020000
318.642303	145.600000
318.735626	145.300000
318.828888	145.380000
318.922211	145.240000
319.015472	145.920000
319.108765	145.220000
319.202057	145.180000
319.295349	145.220000
319.388641	145.660000
319.481934	145.280000
319.575226	145.260000
319.668518	145.560000
319.761810	145.640000
319.855103	145.540000
319.948395	145.220000
320.041687	145.540000
320.134979	145.740000
320.228271	145.540000
320.321564	145.200000
320.414856	145.360000
320.508148	145.420000
320.601440	145.200000
320.694763	145.240000
320.788025	146.160000
320.881348	146.360000
320.974640	146.160000
321.067963	145.780000
321.161224	145.740000
321.254547	144.760000
321.347839	145.040000
321.441162	144.880000
321.534454	145.420000
321.627747	145.180000
321.721069	145.880000
321.814362	145.900000
321.907654	145.840000
322.000946	145.600000
322.094269	146.360000
322.187561	145.860000
322.280884	146.180000
322.374176	146.540000
322.467468	146.820000
322.560791	146.500000
322.654083	147.200000
322.747406	146.820000
322.840698	147.040000
322.934021	147.300000
323.027344	147.680000
323.120636	147.380000
323.213959	147.320000
323.307251	146.600000
323.400574	146.180000
323.493866	145.520000
323.587219	145.420000
323.680511	145.320000
323.773834	146.000000
323.867157	146.040000
323.960449	146.180000
324.053772	146.140000
324.147095	146.240000
324.240387	146.600000
324.333710	146.740000
324.427032	146.740000
324.520355	146.920000
324.613647	146.500000
324.706970	145.840000
324.800293	145.520000
324.893616	145.860000
324.986938	145.760000
325.080231	145.860000
325.173553	146.340000
325.266876	147.020000
325.360199	146.840000
325.453522	146.520000
325.546875	146.340000
325.640167	146.380000
325.733521	146.380000
325.826813	146.640000
325.920166	146.560000
326.013489	146.740000
326.106812	145.740000
326.200134	145.080000
326.293457	144.360000
326.386780	144.480000
326.480103	144.280000
326.573425	144.780000
326.666748	144.800000
326.760071	145.540000
326.853424	145.780000
326.946747	146.020000
327.040070	146.920000
327.133392	146.860000
327.226715	145.940000
327.320068	145.460000
327.413391	145.700000
327.506714	144.720000
327.600037	144.740000
327.693390	145.040000
327.786713	145.200000
327.880066	144.920000
327.973358	145.240000
328.066742	145.880000
328.160034	146.300000
328.253418	146.660000
328.346710	146.300000
328.440063	146.020000
328.533417	145.620000
328.626740	145.560000
328.720093	145.360000
328.813416	145.560000
328.906769	145.880000
329.000092	146.100000
329.093445	145.860000
329.186768	145.560000
329.280121	146.040000
329.373444	146.180000
329.466797	145.920000
329.560120	146.140000
329.653473	146.420000
329.746796	145.780000
329.840149	145.500000
329.933502	145.760000
330.026825	145.220000
330.120178	145.300000
330.213562	145.580000
330.306854	145.360000
330.400238	145.060000
330.493561	145.240000
330.586945	146.000000
330.680237	146.440000
330.773621	146.660000
330.866974	146.920000
330.960327	147.240000
331.053680	146.520000
331.147003	146.480000
331.240356	146.880000
331.333710	146.980000
331.427063	146.860000
331.520416	146.760000
331.613770	146.400000
331.707123	146.280000
331.800476	146.120000
331.893829	147.140000
331.987152	147.420000
332.080505	147.440000
332.173859	147.320000
332.267212	146.720000
332.360565	145.520000
332.453918	145.060000
332.547333	145.000000
332.640656	145.000000
332.734039	145.460000
332.827362	145.320000
332.920746	145.660000
333.014069	145.880000
333.107452	145.920000
333.200806	146.100000
333.294159	146.360000
333.387543	146.060000
333.480896	145.680000
333.574249	145.520000
333.667603	144.980000
333.760956	145.240000
333.854340	145.520000
333.947693	145.500000
334.041046	145.840000
334.134430	146.300000
334.227783	145.960000
334.321136	145.500000
334.414520	145.400000
334.507874	145.080000
334.601227	145.080000
334.694611	144.880000
334.787964	145.120000
334.881348	145.560000
334.974701	145.340000
335.068085	145.180000
335.161438	145.680000
335.254822	145.500000
335.348175	145.660000
335.441559	145.720000
335.534943	146.260000
335.628296	145.840000
335.721680	146.200000
335.815033	146.220000
335.908417	146.640000
336.001770	146.420000
336.095154	146.480000
336.188538	145.880000
336.281891	145.280000
336.375275	144.780000
336.468658	144.560000
336.562012	144.760000
336.655396	145.580000
336.748779	146.220000
336.842133	146.340000
336.935516	146.520000
337.028900	146.420000
337.122284	146.200000
337.215637	146.300000
337.309021	146.100000
337.402435	145.600000
337.495789	145.320000
337.589203	145.180000
337.682526	144.540000
337.775940	144.960000
337.869324	145.680000
337.962708	145.720000
338.056091	146.360000
338.149475	146.300000
338.242859	146.480000
338.336243	145.800000
338.429626	146.240000
338.523010	145.680000
338.616394	145.700000
338.709778	145.760000
338.803162	145.860000
338.896545	145.660000
338.989929	145.100000
339.083313	145.480000
339.176697	144.920000
339.270081	144.880000
339.363464	145.380000
339.456848	146.020000
339.550232	145.440000
339.643616	145.380000
339.737030	145.540000
339.830383	145.080000
339.923828	145.120000
340.017181	145.300000
340.110596	145.460000
340.203949	145.460000
340.297363	145.280000
340.390778	145.300000
340.484161	145.380000
340.577545	145.280000
340.670959	145.400000
340.764343	145.260000
340.857727	145.260000
340.951111	144.820000
341.044525	145.120000
341.137909	144.800000
341.231293	145.120000
341.324707	144.420000
341.418091	145.480000
341.511505	145.260000
341.604889	145.500000
341.698303	145.600000
341.791687	145.760000
341.885071	145.120000
341.978485	145.080000
342.071899	145.200000
342.165283	145.220000
342.258698	145.840000
342.352081	146.220000
342.445496	147.000000
342.538879	146.800000
342.632324	146.660000
342.725708	146.420000
342.819122	146.160000
342.912506	145.540000
343.005920	145.640000
343.099335	146.380000
343.192719	146.560000
343.286133	146.440000
343.379547	146.740000
343.472931	146.580000
343.566345	145.760000
343.659760	145.800000
343.753143	145.500000
343.846558	144.920000
343.939972	145.060000
344.033386	145.620000
344.126770	145.240000
344.220184	145.620000
344.313599	146.360000
344.407043	146.240000
344.500427	145.700000
344.593872	145.980000
344.687225	145.700000
344.780670	145.120000
344.874054	144.920000
344.967499	145.720000
345.060913	145.820000
345.154327	146.000000
345.247742	146.040000
345.341156	146.200000
345.434570	145.440000
345.527985	145.360000
345.621399	145.340000
345.714813	145.380000
345.808228	145.680000
345.901642	145.700000
345.995056	145.400000
346.088470	145.600000
346.181885	145.580000
346.275299	145.180000
346.368713	144.860000
346.462128	144.780000
346.555573	144.440000
346.648987	144.540000
346.742401	144.380000
346.835815	144.960000
346.929260	144.700000
347.022644	144.920000
347.116119	145.180000
347.209503	145.580000
347.302948	146.180000
347.396362	147.060000
347.489807	147.280000
347.583221	147.360000
347.676636	147.300000
347.770050	145.920000
347.863495	145.180000
347.956909	144.860000
348.050323	144.280000
348.143768	144.220000
348.237183	144.480000
348.330597	145.100000
348.424042	145.300000
348.517456	145.600000
348.610901	145.940000
348.704315	145.920000
348.797760	145.440000
348.891174	144.920000
348.984619	144.680000
349.078033	144.820000
349.171448	145.560000
349.264923	145.560000
349.358337	145.860000
349.451782	145.880000
349.545197	144.860000
349.638641	144.080000
349.732086	144.020000
349.825500	144.420000
349.918945	144.260000
350.012390	145.180000
350.105804	146.000000
350.199249	146.400000
350.292664	146.740000
350.386108	147.180000
350.479553	147.300000
350.572968	146.760000
350.666412	146.780000
350.759857	146.220000
350.853302	146.300000
350.946716	145.660000
351.040161	145.800000
351.133606	145.620000
351.227081	145.660000
351.320465	146.480000
351.413940	146.600000
351.507355	146.780000
351.600830	147.000000
351.694244	146.800000
351.787720	146.020000
351.881104	146.100000
351.974579	145.820000
352.067993	146.460000
352.161469	146.440000
352.254883	145.800000
352.348358	145.680000
352.441803	145.920000
352.535248	145.220000
352.628693	145.380000
352.722137	145.460000
352.815582	145.920000
352.909027	145.820000
353.002472	145.520000
353.095917	145.280000
353.189362	145.880000
353.282806	145.720000
353.376251	145.560000
353.469696	145.280000
353.563141	146.100000
353.656586	145.600000
353.750061	145.120000
353.843475	145.080000
353.936981	145.760000
354.030396	144.980000
354.123871	145.160000
354.217285	146.020000
354.310760	146.000000
354.404175	145.820000
354.497681	145.580000
354.591095	145.440000
354.684570	144.460000
354.777985	144.360000
354.871490	144.020000
354.964935	144.720000
355.058380	144.920000
355.151855	144.980000
355.245300	145.560000
355.338745	145.940000
355.432220	145.560000
355.525665	145.040000
355.619110	145.500000
355.712585	145.120000
355.806030	144.900000
355.899475	144.960000
355.992950	145.740000
356.086426	146.100000
356.179871	145.920000
356.273346	146.200000
356.366791	146.260000
356.460266	146.080000
356.553711	145.320000
356.647186	145.440000
356.740631	144.940000
356.834106	144.780000
356.927551	144.860000
357.021027	145.040000
357.114471	145.120000
357.207947	145.500000
357.301422	145.700000
357.394867	145.580000
357.488342	146.080000
357.581818	146.080000
357.675262	146.320000
357.768738	146.140000
357.862213	145.680000
357.955658	145.460000
358.049133	145.360000
358.142609	145.400000
358.236053	145.160000
358.329529	145.220000
358.423035	145.400000
358.516449	145.060000
358.609955	145.180000
358.703400	145.900000
358.796906	146.260000
358.890350	145.740000
358.983826	146.500000
359.077271	145.860000
359.170776	145.660000
359.264221	145.940000
359.357727	146.180000
359.451172	146.200000
359.544647	146.380000
359.638123	146.100000
359.731598	146.000000
359.825073	146.540000
359.918549	146.300000
360.012024	146.600000
360.105499	146.380000
360.198975	146.400000
360.292450	146.140000
360.385925	146.140000
360.479401	145.660000
360.572876	146.300000
360.666351	146.180000
360.759857	145.940000
360.853302	145.800000
360.946808	145.620000
361.040253	145.180000
361.133759	144.720000
361.227203	144.920000
361.320709	144.900000
361.414154	145.380000
361.507660	145.540000
361.601105	146.180000
361.694641	146.380000
361.788086	146.380000
361.881592	146.520000
361.975067	146.360000
362.068542	146.680000
362.162018	146.480000
362.255524	146.020000
362.348999	145.980000
362.442474	146.180000
362.535950	145.400000
362.629456	145.120000
362.722931	145.600000
362.816406	145.760000
362.909882	146.240000
363.003387	146.240000
363.096863	146.900000
363.190338	146.820000
363.283875	146.440000
363.377319	145.740000
363.470825	146.340000
363.564301	145.560000
363.657806	145.600000
363.751282	145.440000
363.844788	146.400000
363.938232	145.600000
364.031769	146.200000
364.125214	146.460000
364.218750	147.040000
364.312225	145.900000
364.405731	146.480000
364.499207	145.920000
364.592712	145.500000
364.686188	145.120000
364.779694	145.440000
364.873169	145.080000
364.966675	145.160000
365.060150	145.380000
365.153656	145.700000
365.247131	145.820000
365.340637	146.300000
365.434143	146.700000
365.527618	146.780000
365.621155	146.020000
365.714600	145.740000
365.808136	145.640000
365.901611	144.680000
365.995117	144.240000
366.088593	144.360000
366.182129	144.340000
366.275604	144.200000
366.369110	144.580000
366.462585	144.920000
366.556122	145.780000
366.649567	146.020000
366.743103	145.780000
366.836609	145.760000
366.930115	146.080000
367.023590	145.840000
367.117096	145.820000
367.210602	146.060000
367.304108	146.480000
367.397614	146.600000
367.491119	146.680000
367.584595	147.020000
367.678101	147.360000
367.771606	147.200000
367.865112	146.620000
367.958649	145.900000
368.052124	145.760000
368.145660	145.280000
368.239136	145.700000
368.332672	145.820000
368.426147	146.060000
368.519684	145.740000
368.613159	146.280000
368.706696	145.600000
368.800171	145.500000
368.893707	145.580000
368.987183	145.640000
369.080719	145.340000
369.174225	145.820000
369.267731	146.040000
369.361237	146.260000
369.454742	146.140000
369.548248	146.300000
369.641754	145.760000
369.735260	145.600000
369.828766	144.580000
369.922272	145.060000
370.015808	144.980000
370.109314	144.880000
370.202820	144.500000
370.296356	146.040000
370.389832	145.660000
370.483368	145.140000
370.576874	145.600000
370.670410	146.000000
370.763885	144.740000
370.857422	144.700000
370.950928	144.760000
371.044464	145.080000
371.137939	145.300000
371.231476	145.740000
371.324982	146.220000
371.418518	146.440000
371.512024	146.060000
371.605560	145.880000
371.699066	146.060000
371.792572	145.560000
371.886108	146.100000
371.979614	145.980000
372.073120	146.440000
372.166656	146.300000
372.260162	146.900000
372.353668	146.320000
372.447205	146.500000
372.540710	146.380000
372.634277	146.480000
372.727753	146.140000
372.821320	146.380000
372.914795	146.280000
373.008362	145.900000
373.101837	145.760000
373.195404	145.580000
373.288879	145.480000
373.382446	145.900000
373.475922	146.020000
373.569489	146.700000
373.662964	147.140000
373.756531	147.140000
373.850037	147.120000
373.943573	146.920000
374.037109	145.700000
374.130615	145.700000
374.224152	146.020000
374.317657	145.860000
374.411194	146.600000
374.504730	147.040000
374.598236	146.420000
374.691772	145.880000
374.785309	145.800000
374.878815	144.820000
374.972351	145.220000
375.065887	145.740000
375.159454	146.500000
375.252930	146.340000
375.346497	146.860000
375.440002	147.100000
375.533569	146.760000
375.627045	145.920000
375.720612	146.080000
375.814117	146.120000
375.907684	145.720000
376.001160	145.420000
376.094727	144.960000
376.188232	145.520000
376.281799	145.680000
376.375336	145.600000
376.468872	146.380000
376.562408	146.960000
376.655914	146.280000
376.749451	146.240000
376.842987	146.520000
376.936523	146.100000
377.030060	146.120000
377.123596	146.200000
377.217133	145.380000
377.310669	145.240000
377.404205	145.560000
377.497772	146.120000
377.591278	145.980000
377.684845	147.280000
377.778351	147.420000
377.871918	147.300000
377.965424	146.500000
378.058990	146.440000
378.152496	145.700000
378.246063	146.000000
378.339569	145.840000
378.433136	145.920000
378.526642	146.040000
378.620209	145.980000
378.713745	145.220000
378.807312	145.680000
378.900848	145.780000
378.994385	146.080000
379.087921	145.460000
379.181458	145.960000
379.274994	144.780000
379.368530	144.600000
379.462097	144.680000
379.555634	145.780000
379.649170	145.220000
379.742706	145.700000
379.836273	145.920000
379.929810	145.260000
380.023376	144.500000
380.116882	144.860000
380.210449	144.960000
380.303986	144.740000
380.397552	144.420000
380.491058	144.680000
380.584656	144.160000
380.678162	144.500000
380.771729	144.500000
380.865265	145.780000
380.958832	145.680000
381.052368	146.120000
381.145935	146.560000
381.239471	146.880000
381.333008	146.400000
381.426575	146.580000
381.520111	146.900000
381.613647	146.760000
381.707214	146.520000
381.800751	145.880000
381.894318	146.020000
381.987854	145.160000
382.081421	144.860000
382.174988	145.100000
382.268524	145.240000
382.362091	145.460000
382.455627	146.440000
382.549194	146.280000
382.642731	145.760000
382.736298	145.720000
382.829834	145.100000
382.923401	145.600000
383.016937	145.780000
383.110504	146.020000
383.204041	146.400000
383.297607	146.880000
383.391174	145.940000
383.484741	146.600000
383.578278	146.540000
383.671844	145.880000
383.765411	145.040000
383.858948	145.400000
383.952515	144.660000
384.046051	145.220000
384.139618	145.880000
384.233185	146.760000
384.326721	146.480000
384.420288	147.060000
384.513855	146.860000
384.607422	146.860000
384.700989	146.940000
384.794525	146.680000
384.888123	146.360000
384.981659	146.460000
385.075226	146.180000
385.168762	145.640000
385.262360	145.760000
385.355896	144.800000
385.449463	144.660000
385.542999	144.680000
385.636597	145.580000
385.730164	145.840000
385.823730	145.980000
385.917267	145.540000
386.010834	145.940000
386.104401	145.460000
386.197968	145.480000
386.291534	145.880000
386.385101	146.180000
386.478668	146.300000
386.572235	146.020000
386.665802	145.540000
386.759338	145.380000
386.852905	145.260000
386.946472	144.940000
387.040070	145.240000
387.133606	145.420000
387.227203	145.300000
387.320740	145.660000
387.414337	145.660000
387.507874	145.340000
387.601471	145.660000
387.695007	145.740000
387.788605	145.360000
387.882141	145.520000
387.975739	145.940000
388.069275	145.440000
388.162872	145.780000
388.256439	145.920000
388.350037	145.600000
388.443604	145.400000
388.537170	145.580000
388.630737	145.980000
388.724304	145.940000
388.817871	145.840000
388.911438	145.920000
389.005005	146.140000
389.098602	145.780000
389.192169	145.640000
389.285736	146.360000
389.379333	146.320000
389.472870	145.800000
389.566467	145.720000
389.660034	145.820000
389.753632	144.900000
389.847168	144.880000
389.940765	145.480000
390.034332	145.540000
390.127930	145.300000
390.221466	145.580000
390.315063	145.260000
390.408630	144.560000
390.502228	144.000000
390.595795	144.400000
390.689362	144.660000
390.782959	145.320000
390.876526	145.720000
390.970093	145.920000
391.063690	146.460000
391.157257	146.280000
391.250824	146.120000
391.344421	146.000000
391.437988	146.400000
391.531555	146.240000
391.625153	146.540000
391.718750	146.580000
391.812317	146.580000
391.905914	146.360000
391.999481	146.160000
392.093079	146.120000
392.186615	146.380000
392.280243	146.340000
392.373779	146.460000
392.467407	147.000000
392.560944	146.520000
392.654572	145.940000
392.748108	146.220000
392.841736	145.880000
392.935303	145.260000
393.028900	145.680000
393.122467	145.640000
393.216064	145.440000
393.309631	145.520000
393.403229	145.280000
393.496796	145.040000
393.590393	144.720000
393.683990	144.820000
393.777557	145.260000
393.871155	145.260000
393.964722	145.600000
394.058350	145.900000
394.151917	146.180000
394.245514	146.060000
394.339081	146.760000
394.432678	146.840000
394.526245	147.140000
394.619873	146.600000
394.713409	146.660000
394.807037	146.160000
394.900604	146.080000
394.994202	145.860000
395.087769	146.200000
395.181396	145.620000
395.274994	146.240000
395.368561	145.800000
395.462158	146.040000
395.555756	145.960000
395.649353	146.620000
395.742920	145.960000
395.836517	146.580000
395.930115	145.940000
396.023712	146.100000
396.117279	146.060000
396.210876	145.900000
396.304474	145.560000
396.398071	145.880000
396.491669	145.880000
396.585266	145.640000
396.678833	145.480000
396.772461	145.620000
396.866028	145.600000
396.959656	145.800000
397.053223	146.080000
397.146851	146.160000
397.240417	146.280000
397.334015	146.780000
397.427582	146.620000
397.521210	147.060000
397.614807	147.880000
397.708405	148.440000
397.802002	148.980000
397.895599	150.160000
397.989197	150.960000
398.082794	152.360000
398.176392	154.280000
398.269989	156.400000
398.363586	158.920000
398.457184	162.280000
398.550781	165.700000
398.644379	168.600000
398.737976	172.040000
398.831573	175.840000
398.925201	179.120000
399.018768	182.360000
399.112396	186.600000
399.205963	190.980000
399.299591	195.420000
399.393158	199.900000
399.486786	206.520000
399.580353	212.940000
399.673981	220.220000
399.767578	228.700000
399.861206	238.940000
399.954773	247.520000
400.048401	256.660000
400.141998	264.620000
400.235596	272.220000
400.329193	276.940000
400.422791	281.960000
400.516418	284.200000
400.610016	286.700000
400.703613	287.660000
400.797211	286.880000
400.890808	284.220000
400.984436	281.960000
401.078033	276.060000
401.171631	268.100000
401.265259	259.800000
401.358826	250.680000
401.452484	239.280000
401.546051	228.940000
401.639679	217.080000
401.733246	206.440000
401.826904	195.620000
401.920471	186.040000
402.014099	177.640000
402.107697	171.480000
402.201324	166.100000
402.294891	162.000000
402.388550	159.020000
402.482147	156.260000
402.575745	153.940000
402.669373	151.680000
402.762970	150.100000
402.856567	149.360000
402.950195	148.700000
403.043793	148.100000
403.137390	148.660000
403.231018	147.380000
403.324615	147.380000
403.418243	146.660000
403.511841	147.000000
403.605469	146.340000
403.699066	147.260000
403.792694	146.680000
403.886292	147.020000
403.979919	146.740000
404.073517	146.440000
404.167145	146.600000
404.260712	146.780000
404.354370	146.600000
404.447937	146.560000
404.541595	146.800000
404.635162	146.660000
404.728821	146.800000
404.822418	146.540000
404.916046	146.360000
405.009644	146.680000
405.103271	146.740000
405.196899	146.700000
405.290497	146.880000
405.384125	147.360000
405.477722	146.760000
405.571350	146.380000
405.664948	146.280000
405.758575	146.060000
405.852203	145.020000
405.945801	145.280000
406.039429	145.360000
406.133057	145.120000
406.226654	145.240000
406.320312	145.760000
406.413879	145.660000
406.507538	145.880000
406.601135	145.320000
406.694763	145.560000
406.788361	144.980000
406.882019	144.900000
406.975586	145.360000
407.069244	146.520000
407.162872	146.440000
407.256470	146.800000
407.350098	146.660000
407.443726	145.760000
407.537323	144.820000
407.630951	144.980000
407.724579	144.840000
407.818207	145.280000
407.911804	145.340000
408.005432	145.420000
408.099060	145.480000
408.192688	145.940000
408.286285	145.620000
408.379913	145.680000
408.473572	146.060000
408.567169	145.260000
408.660828	145.120000
408.754395	145.280000
408.848053	145.140000
408.941650	144.780000
409.035309	144.960000
409.128906	145.180000
409.222565	145.080000
409.316132	145.520000
409.409790	145.580000
409.503387	145.960000
409.597046	146.140000
409.690674	146.160000
409.784302	145.960000
409.877930	145.860000
409.971558	145.860000
410.065186	145.380000
410.158783	145.180000
410.252411	145.360000
410.346039	145.880000
410.439667	145.620000
410.533295	145.820000
410.626923	146.500000
410.720551	146.120000
410.814209	146.280000
410.907806	146.540000
411.001465	146.060000
411.095062	145.840000
411.188721	146.060000
411.282318	145.540000
411.375977	144.860000
411.469574	145.360000
411.563232	145.060000
411.656830	144.600000
411.750488	144.720000
411.844086	144.940000
411.937744	144.840000
412.031372	144.840000
412.125000	145.240000
412.218628	145.140000
412.312256	146.100000
412.405884	146.740000
412.499512	146.840000
412.593170	147.320000
412.686798	147.700000
412.780426	147.140000
412.874054	146.700000
412.967682	146.520000
413.061310	146.740000
413.154968	146.700000
413.248566	146.680000
413.342224	146.520000
413.435852	146.660000
413.529510	146.020000
413.623108	145.460000
413.716766	145.320000
413.810364	145.780000
413.904022	145.560000
413.997650	145.240000
414.091309	145.800000
414.184906	146.020000
414.278564	145.560000
414.372192	146.080000
414.465851	146.500000
414.559479	146.280000
414.653107	146.800000
414.746735	146.540000
414.840393	146.240000
414.934021	146.680000
415.027649	146.260000
415.121277	146.100000
415.214935	146.620000
415.308563	146.740000
415.402191	145.740000
415.495850	145.860000
415.589478	145.120000
415.683136	144.840000
415.776733	145.000000
415.870422	146.000000
415.964020	145.520000
416.057678	146.000000
416.151306	145.820000
416.244965	145.500000
416.338562	145.080000
416.432251	146.100000
416.525848	146.640000
416.619507	147.080000
416.713165	147.520000
416.806793	147.540000
416.900421	147.060000
416.994080	146.240000
417.087708	146.060000
417.181366	145.360000
417.274994	145.180000
417.368622	145.580000
417.462280	146.460000
417.555908	146.360000
417.649567	146.400000
417.743195	146.460000
417.836853	146.400000
417.930481	146.180000
418.024170	146.300000
418.117767	146.800000
418.211426	147.020000
418.305054	147.480000
418.398712	146.760000
418.492340	147.000000
418.585999	146.980000
418.679626	146.940000
418.773285	146.460000
418.866913	147.180000
418.960571	147.240000
419.054230	147.500000
419.147858	147.560000
419.241516	147.680000
419.335144	147.180000
419.428802	146.960000
419.522461	146.640000
419.616089	146.200000
419.709747	146.180000
419.803375	146.520000
419.897034	146.320000
419.990662	146.260000
420.084320	146.720000
420.177979	147.040000
420.271606	147.040000
420.365295	147.280000
420.458893	147.340000
420.552582	147.660000
420.646210	147.260000
420.739868	146.740000
420.833496	146.400000
420.927155	146.040000
421.020782	145.540000
421.114471	144.940000
421.208069	145.380000
421.301758	145.500000
421.395386	145.940000
421.489044	145.780000
421.582703	146.280000
421.676361	146.620000
421.769989	146.440000
421.863647	146.800000
421.957306	147.060000
422.050934	147.280000
422.144592	146.840000
422.238251	146.800000
422.331909	146.200000
422.425537	146.120000
422.519196	145.960000
422.612854	145.600000
422.706543	145.500000
422.800140	145.760000
422.893829	145.300000
422.987457	144.960000
423.081146	145.140000
423.174744	145.920000
423.268433	145.420000
423.362061	145.540000
423.455750	145.320000
423.549347	145.440000
423.643036	144.700000
423.736664	145.420000
423.830353	145.520000
423.924011	146.440000
424.017639	145.900000
424.111298	145.900000
424.204956	145.700000
424.298615	146.000000
424.392273	145.480000
424.485931	145.840000
424.579559	146.040000
424.673218	145.660000
424.766876	145.420000
424.860535	145.100000
424.954193	144.660000
425.047882	145.240000
425.141510	145.480000
425.235199	145.500000
425.328796	145.620000
425.422485	146.060000
425.516113	145.080000
425.609802	145.000000
425.703430	145.260000
425.797119	145.260000
425.890747	145.180000
425.984436	145.440000
426.078064	145.480000
426.171753	145.340000
426.265411	145.460000
426.359070	145.500000
426.452728	145.360000
426.546356	145.120000
426.640015	144.920000
426.733673	144.980000
426.827332	144.880000
426.920990	145.800000
427.014648	145.580000
427.108307	145.960000
427.201965	146.300000
427.295624	146.300000
427.389282	145.400000
427.482941	146.000000
427.576630	145.760000
427.670258	145.160000
427.763947	145.220000
427.857574	145.280000
427.951263	144.980000
428.044922	144.800000
428.138611	144.920000
428.232239	145.420000
428.325928	145.940000
428.419556	146.460000
428.513245	146.200000
428.606903	146.220000
428.700562	145.640000
428.794220	144.900000
428.887878	144.340000
428.981537	144.920000
429.075195	144.960000
429.168854	145.420000
429.262512	145.820000
429.356201	145.900000
429.449860	145.440000
429.543518	145.520000
429.637177	145.600000
429.730835	145.440000
429.824493	145.420000
429.918182	146.000000
430.011810	145.680000
430.105530	144.960000
430.199158	145.620000
430.292847	145.400000
430.386475	144.900000
430.480164	144.880000
430.573792	144.660000
430.667511	143.960000
430.761139	144.100000
430.854828	144.400000
430.948456	144.700000
431.042145	145.420000
431.135834	145.320000
431.229492	145.920000
431.323151	146.200000
431.416809	146.160000
431.510468	146.200000
431.604156	146.060000
431.697815	146.020000
431.791473	145.320000
431.885132	144.880000
431.978821	145.120000
432.072479	145.580000
432.166138	145.820000
432.259827	145.900000
432.353485	146.420000
432.447174	146.160000
432.540802	145.780000
432.634491	145.520000
432.728149	145.860000
432.821838	146.300000
432.915466	146.080000
433.009186	146.360000
433.102814	145.640000
433.196503	145.620000
433.290131	145.180000
433.383850	145.500000
433.477509	145.600000
433.571167	146.740000
433.664856	147.140000
433.758514	147.540000
433.852173	147.440000
433.945862	147.480000
434.039520	146.800000
434.133179	146.080000
434.226868	145.500000
434.320526	145.020000
434.414185	145.420000
434.507874	145.120000
434.601562	145.680000
434.695221	145.840000
434.788910	146.400000
434.882538	146.180000
434.976257	145.980000
435.069885	145.760000
435.163574	145.780000
435.257233	144.940000
435.350922	144.680000
435.444580	144.800000
435.538269	144.300000
435.631897	144.400000
435.725616	145.800000
435.819275	146.260000
435.912964	146.740000
436.006622	147.520000
436.100311	147.560000
436.193970	146.460000
436.287628	146.040000
436.381317	145.740000
436.474976	145.220000
436.568665	144.740000
436.662323	144.900000
436.756012	145.040000
436.849670	144.760000
436.943390	144.480000
437.037018	144.720000
437.130737	144.980000
437.224365	144.860000
437.318085	145.140000
437.411713	145.460000
437.505432	145.920000
437.599060	146.020000
437.692780	146.420000
437.786407	146.480000
437.880127	146.620000
437.973755	145.920000
438.067474	145.560000
438.161133	145.380000
438.254822	145.620000
438.348480	145.340000
438.442169	146.400000
438.535828	146.700000
438.629517	146.340000
438.723175	145.740000
438.816864	146.060000
438.910553	145.200000
439.004211	144.920000
439.097900	144.800000
439.191559	145.100000
439.285248	144.580000
439.378906	144.780000
439.472626	144.740000
439.566284	144.800000
439.659973	144.820000
439.753632	145.020000
439.847321	145.440000
439.940979	145.500000
440.034698	145.620000
440.128326	145.300000
440.222046	145.260000
440.315674	144.560000
440.409393	144.700000
440.503082	144.740000
440.596741	144.980000
440.690430	144.980000
440.784088	144.900000
440.877777	144.260000
440.971466	144.520000
441.065125	144.540000
441.158813	144.840000
441.252502	144.900000
441.346161	145.660000
441.439850	145.560000
441.533539	145.360000
441.627197	145.760000
441.720886	146.120000
441.814606	146.300000
441.908234	146.720000
442.001953	147.040000
442.095612	146.740000
442.189301	146.760000
442.282959	146.580000
442.376678	145.820000
442.470306	146.380000
442.564026	146.080000
442.657684	146.000000
442.751404	146.080000
442.845032	146.660000
442.938751	145.600000
443.032440	145.780000
443.126099	145.500000
443.219788	145.740000
443.313477	145.600000
443.407166	146.400000
443.500824	146.480000
443.594513	146.680000
443.688202	146.400000
443.781891	146.000000
443.875549	145.340000
443.969238	145.440000
444.062927	145.680000
444.156647	145.580000
444.250275	146.260000
444.343994	146.560000
444.437653	146.500000
444.531372	146.240000
444.625031	145.840000
444.718719	145.300000
444.812378	145.440000
444.906097	145.020000
444.999756	144.640000
445.093445	144.760000
445.187103	144.800000
445.280823	145.300000
445.374512	145.240000
445.468201	145.680000
445.561859	145.680000
445.655548	145.640000
445.749237	144.880000
445.842926	145.340000
445.936615	145.600000
446.030304	145.620000
446.123962	146.220000
446.217651	145.960000
446.311340	145.900000
446.405029	145.240000
446.498749	145.020000
446.592407	144.260000
446.686096	144.720000
446.779755	144.620000
446.873474	144.980000
446.967133	145.520000
447.060852	145.500000
447.154510	145.360000
447.248230	145.520000
447.341858	145.480000
447.435577	144.820000
447.529236	144.520000
447.622955	144.560000
447.716644	144.360000
447.810333	144.760000
447.904022	145.500000
447.997711	146.040000
448.091400	146.400000
448.185059	146.500000
448.278748	146.460000
448.372437	146.100000
448.466125	146.080000
448.559814	145.840000
448.653503	146.080000
448.747192	146.120000
448.840912	146.340000
448.934570	146.420000
449.028290	146.780000
449.121948	146.240000
449.215637	145.760000
449.309296	145.400000
449.403015	145.480000
449.496674	145.100000
449.590393	145.420000
449.684052	145.280000
449.777771	146.080000
449.871429	145.400000
449.965149	145.340000
450.058838	145.660000
450.152527	146.300000
450.246216	146.000000
450.339905	146.380000
450.433594	146.180000
450.527283	146.240000
450.620972	145.720000
450.714661	145.680000
450.808350	146.040000
450.902039	146.420000
450.995728	146.140000
451.089417	146.080000
451.183105	146.080000
451.276794	146.360000
451.370514	145.680000
451.464172	145.120000
451.557892	145.140000
451.651550	145.000000
451.745270	144.320000
451.838928	144.340000
451.932648	144.840000
452.026306	145.340000
452.120026	145.120000
452.213684	145.400000
452.307404	145.680000
452.401062	145.760000
452.494781	145.700000
452.588470	145.940000
452.682159	145.500000
452.775848	145.600000
452.869537	145.160000
452.963226	144.940000
453.056915	144.840000
453.150604	145.060000
453.244293	145.240000
453.337982	146.000000
453.431671	146.340000
453.525360	146.600000
453.619049	146.700000
453.712769	146.540000
453.806427	145.700000
453.900146	145.280000
453.993805	144.940000
454.087555	145.340000
454.181213	145.560000
454.274933	145.740000
454.368591	145.620000
454.462311	145.700000
454.555969	145.100000
454.649689	145.700000
454.743347	145.580000
454.837067	146.400000
454.930756	146.900000
455.024445	147.100000
455.118134	146.600000
455.211853	147.100000
455.305542	146.060000
455.399231	145.840000
455.492920	145.800000
455.586609	145.840000
455.680298	146.080000
455.773987	146.140000
455.867676	146.040000
455.961365	146.400000
456.055084	146.060000
456.148773	145.600000
456.242493	145.800000
456.336151	145.780000
456.429871	145.860000
456.523529	146.420000
456.617249	146.160000
456.710907	146.640000
456.804626	146.440000
456.898315	145.760000
456.992035	145.320000
457.085693	145.180000
457.179413	144.380000
457.273102	145.280000
457.366791	145.760000
457.460480	146.360000
457.554199	147.020000
457.647888	147.500000
457.741577	146.900000
457.835266	146.740000
457.928955	146.380000
458.022644	146.540000
458.116364	146.740000
458.210052	146.360000
458.303741	146.300000
458.397461	145.300000
458.491119	144.840000
458.584839	144.520000
458.678528	144.620000
458.772247	144.400000
458.865906	145.360000
458.959625	146.000000
459.053284	146.160000
459.147003	146.160000
459.240692	146.980000
459.334412	146.880000
459.428070	146.480000
459.521790	146.320000
459.615479	146.260000
459.709198	146.160000
459.802887	145.600000
459.896576	145.080000
459.990265	145.380000
460.083954	145.820000
460.177673	145.400000
460.271362	145.820000
460.365051	146.060000
460.458740	145.740000
460.552429	144.980000
460.646149	144.980000
460.739838	144.740000
460.833527	144.680000
460.927246	144.700000
461.020905	144.820000
461.114655	145.040000
461.208313	145.320000
461.302032	145.040000
461.395691	145.240000
461.489441	145.280000
461.583099	144.860000
461.676819	144.600000
461.770477	145.140000
461.864197	144.780000
461.957916	144.880000
462.051605	144.300000
462.145294	145.180000
462.238983	144.680000
462.332703	145.640000
462.426392	146.340000
462.520081	147.080000
462.613770	146.240000
462.707489	146.580000
462.801178	145.660000
462.894867	145.080000
462.988556	145.200000
463.082275	145.380000
463.175964	145.080000
463.269684	145.580000
463.363342	145.820000
463.457092	144.940000
463.550751	145.180000
463.644470	145.220000
463.738129	145.140000
463.831879	145.000000
463.925537	146.080000
464.019257	146.060000
464.112946	146.140000
464.206665	145.700000
464.300323	145.600000
464.394043	145.160000
464.487762	145.120000
464.581451	145.760000
464.675140	146.080000
464.768829	146.520000
464.862549	146.740000
464.956238	146.880000
465.049927	146.580000
465.143646	146.700000
465.237335	146.080000
465.331024	146.400000
465.424713	146.200000
465.518433	146.060000
465.612152	145.700000
465.705811	146.260000
465.799561	145.560000
465.893219	145.440000
465.986938	145.700000
466.080597	145.740000
466.174347	145.760000
466.268005	146.500000
466.361725	146.580000
466.455414	146.300000
466.549133	146.320000
466.642792	146.160000
466.736542	145.680000
466.830231	145.680000
466.923920	145.600000
467.017609	145.680000
467.111328	145.480000
467.205017	145.560000
467.298706	145.680000
467.392426	146.040000
467.486115	146.240000
467.579803	145.860000
467.673523	146.200000
467.767212	146.080000
467.860901	145.740000
467.954651	145.760000
468.048309	146.400000
468.142029	145.820000
468.235718	145.860000
468.329437	145.800000
468.423096	145.780000
468.516846	145.400000
468.610504	145.380000
468.704224	145.040000
468.797913	145.000000
468.891632	144.860000
468.985291	144.900000
469.079010	145.160000
469.172729	144.720000
469.266418	144.980000
469.360107	144.840000
469.453827	144.660000
469.547516	144.680000
469.641205	145.640000
469.734924	145.940000
469.828613	146.300000
469.922302	146.800000
470.016022	146.500000
470.109711	146.180000
470.203430	145.480000
470.297150	144.580000
470.390808	144.280000
470.484558	144.200000
470.578217	144.680000
470.671936	145.360000
470.765625	146.100000
470.859344	146.000000
470.953003	146.580000
471.046753	145.960000
471.140411	145.300000
471.234131	145.420000
471.327820	146.140000
471.421539	146.040000
471.515228	145.800000
471.608948	146.160000
471.702637	145.840000
471.796326	145.080000
471.890045	144.920000
471.983734	145.460000
472.077423	145.160000
472.171143	145.420000
472.264832	145.540000
472.358521	145.240000
472.452240	144.900000
472.545929	145.520000
472.639648	145.340000
472.733337	145.580000
472.827057	145.940000
472.920746	146.240000
473.014465	146.480000
473.108124	146.660000
473.201874	146.880000
473.295532	146.680000
473.389252	146.940000
473.482941	146.820000
473.576660	146.400000
473.670319	146.100000
473.764069	146.640000
473.857727	146.660000
473.951477	146.660000
474.045166	147.420000
474.138855	147.340000
474.232574	147.240000
474.326263	146.980000
474.419952	146.700000
474.513672	146.320000
474.607361	146.220000
474.701050	146.180000
474.794769	146.660000
474.888458	147.000000
474.982178	147.160000
475.075867	147.540000
475.169586	147.220000
475.263275	146.780000
475.356995	146.660000
475.450653	146.060000
475.544403	145.540000
475.638062	146.280000
475.731812	145.960000
475.825470	145.760000
475.919189	146.320000
476.012878	146.800000
476.106598	145.980000
476.200256	146.440000
476.294006	146.420000
476.387695	146.060000
476.481384	146.120000
476.575104	146.360000
476.668793	145.800000
476.762512	145.580000
476.856201	146.100000
476.949890	145.900000
477.043610	145.480000
477.137299	145.680000
477.230988	145.840000
477.324707	145.300000
477.418396	145.460000
477.512146	145.640000
477.605804	145.760000
477.699524	145.860000
477.793213	146.060000
477.886932	146.040000
477.980591	145.900000
478.074341	145.700000
478.167999	145.220000
478.261749	145.060000
478.355408	144.580000
478.449127	145.020000
478.542816	145.940000
478.636536	146.400000
478.730225	146.580000
478.823944	147.040000
478.917633	146.760000
479.011322	146.340000
479.105042	146.560000
479.198730	146.860000
479.292450	146.480000
479.386139	146.860000
479.479828	146.760000
479.573547	146.900000
479.667267	146.740000
479.760925	147.100000
479.854675	147.240000
479.948334	147.340000
480.042084	146.720000
480.135742	146.780000
480.229462	146.240000
480.323151	145.920000
480.416870	144.960000
480.510529	145.100000
480.604279	144.660000
480.697937	145.380000
480.791656	144.940000
480.885345	145.300000
480.979065	145.120000
481.072754	145.760000
481.166473	145.840000
481.260132	146.000000
481.353882	146.520000
481.447540	146.540000
481.541260	146.500000
481.635010	145.800000
481.728668	145.880000
481.822388	145.120000
481.916077	145.500000
482.009796	145.120000
482.103485	145.640000
482.197205	145.600000
482.290863	146.240000
482.384613	145.800000
482.478271	145.500000
482.571991	145.320000
482.665680	145.420000
482.759399	146.000000
482.853058	146.740000
482.946808	146.820000
483.040466	146.800000
483.134216	146.540000
483.227875	145.640000
483.321594	145.780000
483.415283	145.740000
483.509003	145.780000
483.602661	145.840000
483.696411	146.200000
483.790070	145.640000
483.883789	145.720000
483.977478	145.940000
484.071198	146.160000
484.164917	145.620000
484.258606	145.280000
484.352325	145.620000
484.445984	145.500000
484.539734	145.460000
484.633392	145.340000
484.727142	146.020000
484.820801	145.860000
484.914520	145.720000
485.008209	145.920000
485.101929	146.520000
485.195587	145.940000
485.289337	145.840000
485.382996	145.780000
485.476715	145.440000
485.570404	145.980000
485.664124	145.840000
485.757782	146.340000
485.851532	146.080000
485.945190	146.100000
486.038910	145.740000
486.132599	146.220000
486.226318	145.620000
486.319977	145.740000
486.413727	146.360000
486.507446	145.760000
486.601105	145.180000
486.694855	145.080000
486.788513	144.700000
486.882233	144.440000
486.975922	144.640000
487.069641	144.700000
487.163300	144.720000
487.257050	146.320000
487.350708	146.000000
487.444427	145.760000
487.538116	145.900000
487.631836	146.040000
487.725494	145.400000
487.819214	145.540000
487.912903	145.680000
488.006622	146.220000
488.100281	146.660000
488.194031	146.240000
488.287689	146.540000
488.381409	147.100000
488.475098	146.820000
488.568817	146.820000
488.662476	146.500000
488.756226	145.640000
488.849945	144.680000
488.943604	144.960000
489.037354	144.760000
489.131012	144.840000
489.224731	145.280000
489.318390	145.640000
489.412140	145.380000
489.505798	145.160000
489.599518	145.120000
489.693207	145.120000
489.786926	145.020000
489.880585	144.660000
489.974335	145.320000
490.067993	146.180000
490.161713	146.420000
490.255371	147.060000
490.349121	147.360000
490.442780	146.680000
490.536499	145.800000
490.630188	145.780000
490.723907	145.380000
490.817566	145.400000
490.911285	145.580000
491.004974	145.560000
491.098694	145.080000
491.192413	145.800000
491.286102	145.560000
491.379822	145.560000
491.473480	145.900000
491.567200	146.120000
491.660889	145.260000
491.754608	145.320000
491.848267	144.900000
491.941986	144.760000
492.035675	144.660000
492.129395	145.060000
492.223053	145.000000
492.316772	145.480000
492.410461	145.380000
492.504181	145.660000
492.597839	145.360000
492.691559	145.800000
492.785248	145.580000
492.878967	145.960000
492.972626	145.540000
493.066345	146.080000
493.160034	145.500000
493.253754	145.600000
493.347412	144.940000
493.441132	145.280000
493.534882	145.200000
493.628540	145.760000
493.722260	145.860000
493.815918	146.240000
493.909668	146.740000
494.003326	147.100000
494.097046	146.680000
494.190704	146.560000
494.284454	146.640000
494.378113	146.800000
494.471832	146.100000
494.565491	146.240000
494.659210	146.160000
494.752899	146.080000
494.846619	145.460000
494.940277	145.800000
495.033997	145.660000
495.127686	145.520000
495.221405	145.460000
495.315063	145.620000
495.408783	145.580000
495.502441	145.920000
495.596191	146.080000
495.689850	145.900000
495.783569	145.960000
495.877228	145.760000
495.970947	145.300000
496.064697	145.600000
496.158356	146.580000
496.252075	146.660000
496.345734	146.540000
496.439453	147.400000
496.533142	147.260000
496.626862	147.160000
496.720520	147.080000
496.814240	147.360000
496.907898	146.860000
497.001617	146.960000
497.095306	146.000000
497.189026	145.780000
497.282684	146.000000
497.376404	146.320000
497.470062	146.140000
497.563782	146.620000
497.657471	146.700000
497.751190	146.280000
497.844849	145.840000
497.938568	146.280000
498.032227	146.320000
498.125946	146.380000
498.219635	146.080000
498.313354	146.240000
498.407074	145.800000
498.500732	145.800000
498.594452	145.800000
498.688110	145.780000
498.781830	145.520000
498.875519	145.680000
498.969238	145.520000
499.062897	145.540000
499.156616	146.100000
499.250275	146.240000
499.343994	145.920000
499.437653	145.960000
499.531372	145.900000
499.625061	146.140000
499.718781	146.360000
499.812439	146.500000
499.906158	146.280000
499.999817	146.040000
500.093536	145.580000
500.187195	145.460000
500.280914	145.440000
500.374573	145.920000
500.468323	145.960000
500.561981	146.100000
500.655701	145.720000
500.749420	145.780000
500.843079	145.660000
500.936798	145.680000
501.030457	145.960000
501.124176	146.200000
501.217834	146.200000
501.311554	145.960000
501.405212	145.840000
501.498962	144.960000
501.592621	144.860000
501.686340	145.080000
501.779999	145.680000
501.873718	145.640000
501.967377	146.100000
502.061096	146.440000
502.154755	145.760000
502.248474	145.560000
502.342133	145.960000
502.435852	146.200000
502.529510	146.760000
502.623230	147.560000
502.716888	146.940000
502.810608	146.820000
502.904266	146.900000
502.997986	146.200000
503.091705	145.660000
503.185364	145.900000
503.279083	145.860000
503.372772	145.660000
503.466492	145.160000
503.560150	145.260000
503.653870	145.360000
503.747528	145.540000
503.841248	145.480000
503.934906	145.960000
504.028625	145.720000
504.122284	146.120000
504.216003	146.680000
504.309662	146.200000
504.403381	146.440000
504.497040	146.360000
504.590759	145.660000
504.684418	145.340000
504.778137	145.900000
504.871796	146.060000
504.965515	145.900000
505.059174	146.200000
505.152893	145.600000
505.246521	145.400000
505.340240	144.980000
505.433899	145.360000
505.527618	145.480000
505.621338	146.000000
505.714996	145.820000
505.808716	145.680000
505.902374	146.200000
505.996094	146.160000
506.089752	145.980000
506.183472	146.340000
506.277130	146.300000
506.370850	146.000000
506.464508	145.820000
506.558228	145.780000
506.651886	145.240000
506.745605	145.740000
506.839264	145.860000
506.932983	146.080000
507.026611	146.120000
507.120331	146.800000
507.213989	146.280000
507.307709	146.300000
507.401367	146.420000
507.495087	147.080000
507.588745	146.680000
507.682465	147.620000
507.776123	147.620000
507.869843	147.420000
507.963531	146.920000
508.057190	147.400000
508.150909	146.500000
508.244568	146.460000
508.338287	146.500000
508.431946	146.120000
508.525665	145.640000
508.619324	145.480000
508.713013	145.620000
508.806671	145.800000
508.900391	146.700000
508.994049	146.920000
509.087769	147.000000
509.181427	146.820000
509.275146	146.180000
509.368774	145.180000
509.462494	145.320000
509.556152	145.460000
509.649872	145.740000
509.743530	146.060000
509.837250	146.580000
509.930878	146.420000
510.024597	146.420000
510.118256	146.060000
510.211975	146.000000
510.305695	145.320000
510.399353	145.640000
510.493042	146.100000
510.586700	146.140000
510.680420	146.840000
510.774078	147.060000
510.867798	146.800000
510.961426	146.060000
511.055145	146.100000
511.148804	145.520000
511.242523	145.860000
511.336151	145.880000
511.429871	146.600000
511.523529	146.580000
511.617249	146.560000
511.710876	146.480000
511.804596	146.280000
511.898254	145.900000
511.991974	146.240000
512.085632	146.100000
512.179321	146.200000
512.272949	146.640000
512.366699	146.900000
512.460327	146.360000
512.554077	147.180000
512.647766	147.000000
512.741394	146.520000
512.835144	146.740000
512.928772	146.640000
513.022461	146.260000
513.116150	146.060000
513.209839	146.480000
513.303467	145.860000
513.397217	145.620000
513.490845	145.320000
513.584595	145.420000
513.678223	145.020000
513.771912	144.720000
513.865601	145.120000
513.959290	144.740000
514.052917	145.080000
514.146667	145.780000
514.240295	146.500000
514.333984	147.020000
514.427673	147.100000
514.521362	147.200000
514.614990	146.340000
514.708740	146.160000
514.802368	145.760000
514.896057	146.180000
514.989746	146.740000
515.083435	147.040000
515.177124	147.240000
515.270752	147.000000
515.364502	146.880000
515.458130	146.500000
515.551819	146.160000
515.645508	145.760000
515.739197	145.660000
515.832825	145.840000
515.926575	145.280000
516.020203	145.580000
516.113892	146.200000
516.207520	146.480000
516.301270	146.180000
516.394897	146.620000
516.488586	146.900000
516.582275	146.480000
516.675964	145.860000
516.769592	145.900000
516.863281	146.140000
516.956970	146.300000
517.050659	146.580000
517.144287	147.200000
517.238037	147.300000
517.331665	146.400000
517.425354	145.940000
517.519043	145.680000
517.612732	145.980000
517.706421	145.940000
517.800049	146.000000
517.893738	145.900000
517.987427	145.860000
518.081116	145.460000
518.174744	145.220000
518.268433	145.400000
518.362122	145.840000
518.455811	145.800000
518.549438	146.520000
518.643127	147.420000
518.736816	147.380000
518.830505	146.960000
518.924133	146.840000
519.017822	146.520000
519.111511	145.960000
519.205200	146.600000
519.298828	146.680000
519.392517	146.460000
519.486206	146.720000
519.579895	146.800000
519.673523	146.060000
519.767212	145.860000
519.860901	146.560000
519.954590	146.020000
520.048279	145.620000
520.141907	145.680000
520.235596	146.740000
520.329224	146.720000
520.422974	146.600000
520.516602	146.860000
520.610291	146.880000
520.703918	146.260000
520.797607	145.680000
520.891296	145.980000
520.984985	145.980000
521.078613	146.440000
521.172302	146.020000
521.265930	147.080000
521.359680	147.500000
521.453308	147.360000
521.546997	147.160000
521.640625	147.720000
521.734314	146.960000
521.827942	146.520000
521.921692	146.820000
522.015320	146.860000
522.109009	146.320000
522.202698	146.200000
522.296326	146.040000
522.390015	146.400000
522.483704	146.420000
522.577393	146.600000
522.671021	146.580000
522.764709	146.340000
522.858337	146.320000
522.952026	146.020000
523.045654	146.300000
523.139404	146.820000
523.233032	147.280000
523.326721	146.860000
523.420349	147.020000
523.514038	146.600000
523.607666	146.820000
523.701355	146.500000
523.795044	146.740000
523.888733	146.820000
523.982361	146.980000
524.076050	146.260000
524.169678	146.660000
524.263367	146.260000
524.356995	145.920000
524.450684	146.020000
524.544373	145.940000
524.638062	146.080000
524.731750	146.260000
524.825378	146.620000
524.919067	146.100000
525.012695	146.160000
525.106384	145.660000
525.200012	145.720000
525.293701	145.640000
525.387329	146.600000
525.481018	147.080000
525.574646	147.360000
525.668396	147.620000
525.762024	147.740000
525.855713	147.280000
525.949341	146.760000
526.043030	146.700000
526.136658	146.160000
526.230347	145.940000
526.323975	145.660000
526.417664	145.660000
526.511292	145.660000
526.604980	145.780000
526.698608	145.380000
526.792297	145.460000
526.885925	145.900000
526.979614	145.980000
527.073303	146.060000
527.166931	146.340000
527.260620	146.640000
527.354309	146.820000
527.447998	146.440000
527.541626	146.440000
527.635315	146.740000
527.728943	147.120000
527.822632	146.920000
527.916260	147.100000
528.009949	147.260000
528.103577	146.720000
528.197266	145.960000
528.290894	145.880000
528.384583	145.740000
528.478210	145.780000
528.571899	146.240000
528.665527	146.760000
528.759216	146.580000
528.852844	146.880000
528.946533	146.900000
529.040161	146.980000
529.133850	146.500000
529.227478	147.000000
529.321167	147.360000
529.414856	147.600000
529.508484	147.900000
529.602173	147.980000
529.695801	147.400000
529.789490	146.760000
529.883057	146.400000
529.976746	146.260000
530.070374	146.560000
530.164062	146.580000
530.257690	147.080000
530.351379	147.100000
530.445007	146.920000
530.538696	145.940000
530.632324	146.180000
530.726013	146.160000
530.819641	146.000000
530.913330	146.060000
531.006958	146.420000
531.100647	146.340000
531.194275	145.800000
531.287964	145.640000
531.381592	145.240000
531.475220	145.500000
531.568848	145.500000
531.662537	145.520000
531.756226	146.080000
531.849854	146.180000
531.943542	146.280000
532.037170	145.860000
532.130859	146.520000
532.224487	145.860000
532.318176	145.640000
532.411804	146.160000
532.505432	146.380000
532.599060	145.600000
532.692749	145.760000
532.786377	146.280000
532.880066	145.360000
532.973694	145.140000
533.067383	145.260000
533.161011	145.280000
533.254639	145.220000
533.348267	145.240000
533.441956	145.580000
533.535583	145.500000
533.629272	145.240000
533.722900	144.480000
533.816589	144.480000
533.910156	144.700000
534.003845	144.340000
534.097534	145.160000
534.191162	146.060000
534.284851	146.640000
534.378479	146.360000
534.472107	146.720000
534.565735	146.040000
534.659424	146.020000
534.753052	145.740000
534.846741	145.500000
534.940369	146.220000
535.033997	146.320000
535.127625	146.280000
535.221313	146.900000
535.314941	146.660000
535.408630	145.760000
535.502197	146.180000
535.595886	145.900000
535.689514	145.340000
535.783203	146.200000
535.876831	146.820000
535.970459	146.360000
536.064087	146.500000
536.157776	146.540000
536.251404	146.260000
536.345093	145.980000
536.438721	146.120000
536.532349	145.880000
536.626038	145.860000
536.719666	146.100000
536.813293	146.100000
536.906921	145.840000
537.000610	146.200000
537.094238	146.020000
537.187866	145.900000
537.281494	145.920000
537.375183	146.140000
537.468811	146.180000
537.562439	146.300000
537.656067	145.940000
537.749756	146.260000
537.843384	146.960000
537.937012	146.940000
538.030640	146.640000
538.124329	146.780000
538.217896	146.580000
538.311584	146.260000
538.405212	145.960000
538.498901	146.220000
538.592468	147.140000
538.686157	146.680000
538.779785	146.000000
538.873413	146.240000
538.967102	146.100000
539.060730	145.240000
539.154358	145.900000
539.247986	146.360000
539.341675	146.040000
539.435242	146.020000
539.528931	146.080000
539.622559	145.360000
539.716187	145.940000
539.809814	146.100000
539.903503	146.180000
539.997070	146.200000
540.090759	146.600000
540.184387	145.920000
540.278015	146.400000
540.371643	146.500000
540.465332	146.400000
540.558899	146.240000
540.652588	146.280000
540.746216	145.560000
540.839844	145.860000
540.933472	145.940000
541.027100	145.840000
541.120728	145.760000
541.214417	146.280000
541.308044	146.440000
541.401672	146.240000
541.495300	146.140000
541.588928	145.800000
541.682617	145.320000
541.776184	144.420000
541.869873	144.600000
541.963440	144.700000
542.057129	145.020000
542.150757	145.180000
542.244385	145.360000
542.338013	144.880000
542.431641	145.040000
542.525269	144.840000
542.618958	145.160000
542.712524	145.600000
542.806213	145.740000
542.899780	145.980000
542.993469	145.940000
543.087036	145.540000
543.180725	145.080000
543.274292	145.600000
543.367981	145.600000
543.461548	146.340000
543.555237	146.460000
543.648926	146.780000
543.742493	146.900000
543.836182	146.760000
543.929749	146.260000
544.023437	146.400000
544.117004	146.560000
544.210693	146.680000
544.304260	146.520000
544.397949	146.420000
544.491516	146.500000
544.585205	146.480000
544.678772	145.740000
544.772461	146.280000
544.866028	146.240000
544.959717	146.280000
545.053284	145.920000
545.146973	146.360000
545.240540	145.860000
545.334229	146.700000
545.427795	146.660000
545.521423	146.820000
545.615051	146.760000
545.708679	147.240000
545.802307	146.660000
545.895935	146.680000
545.989624	147.200000
546.083191	147.060000
546.176880	146.740000
546.270447	146.360000
546.364136	146.760000
546.457703	146.440000
546.551331	146.240000
546.644958	146.420000
546.738586	146.720000
546.832214	146.040000
546.925842	145.840000
547.019409	146.400000
547.113098	146.040000
547.206665	146.120000
547.300354	146.460000
547.393921	146.840000
547.487549	147.040000
547.581177	147.020000
547.674805	146.740000
547.768433	145.660000
547.862061	145.440000
547.955627	144.820000
548.049316	145.240000
548.142883	145.620000
548.236572	146.580000
548.330139	146.760000
548.423767	146.820000
548.517456	146.660000
548.611023	146.780000
548.704651	145.940000
548.798279	145.780000
548.891907	146.020000
548.985474	145.920000
549.079163	145.760000
549.172729	145.920000
549.266357	145.440000
549.359985	145.100000
549.453613	144.820000
549.547180	144.700000
549.640869	145.400000
549.734436	145.820000
549.828064	146.360000
549.921631	146.500000
550.015320	146.040000
550.108887	146.180000
550.202515	146.240000
550.296143	145.840000
550.389771	145.820000
550.483337	145.960000
550.576965	145.580000
550.670593	145.640000
550.764221	145.680000
550.857849	145.600000
550.951477	145.660000
551.045105	145.420000
551.138672	145.320000
551.232300	144.900000
551.325928	145.320000
551.419556	145.580000
551.513123	145.840000
551.606750	145.820000
551.700378	146.340000
551.794006	146.020000
551.887573	145.780000
551.981201	145.960000
552.074768	145.700000
552.168457	145.380000
552.262024	146.380000
552.355652	146.420000
552.449219	147.160000
552.542847	147.620000
552.636475	147.420000
552.730103	146.240000
552.823669	145.940000
552.917297	144.800000
553.010864	144.320000
553.104553	144.820000
553.198181	145.020000
553.291748	145.820000
553.385376	146.200000
553.478943	146.480000
553.572571	146.320000
553.666199	146.400000
553.759827	145.820000
553.853394	145.160000
553.947021	145.100000
554.040588	145.080000
554.134216	145.020000
554.227783	145.780000
554.321411	146.760000
554.415039	146.500000
554.508667	146.460000
554.602234	146.820000
554.695862	146.240000
554.789429	145.960000
554.883057	146.220000
554.976624	146.180000
555.070251	145.820000
555.163818	145.760000
555.257507	145.920000
555.351074	145.700000
555.444702	146.820000
555.538330	146.580000
555.631897	146.900000
555.725525	146.540000
555.819092	146.520000
555.912720	145.280000
556.006287	145.960000
556.099915	145.480000
556.193481	145.620000
556.287109	146.120000
556.380676	145.980000
556.474304	145.700000
556.567871	146.140000
556.661499	145.560000
556.755066	145.180000
556.848694	145.460000
556.942261	145.140000
557.035889	145.340000
557.129517	145.820000
557.223145	146.180000
557.316711	145.900000
557.410339	146.380000
557.503906	145.880000
557.597473	145.760000
557.691040	145.420000
557.784668	145.560000
557.878296	145.380000
557.971863	145.660000
558.065491	146.060000
558.159058	146.120000
558.252686	147.080000
558.346252	147.600000
558.439880	147.100000
558.533447	146.840000
558.627075	146.560000
558.720642	145.860000
558.814270	145.540000
558.907837	145.580000
559.001465	145.320000
559.095032	146.140000
559.188660	146.160000
559.282227	145.440000
559.375854	146.180000
559.469360	145.920000
559.562988	145.620000
559.656555	145.760000
559.750183	146.240000
559.843750	146.040000
559.937378	146.500000
560.030945	146.500000
560.124573	0.000000
560.218140	0.000000
560.311707	0.000000
560.405334	0.000000
560.498901	0.000000
560.592529	0.000000
560.686096	0.000000
560.779724	0.000000
560.873291	0.000000
560.966858	0.000000
561.060425	0.000000
561.154053	0.000000
561.247620	0.000000
561.341248	0.000000
561.434814	0.000000
561.528381	0.000000
561.621948	0.000000
561.715576	0.000000
561.809143	0.000000
561.902771	0.000000
561.996277	0.000000
562.089905	0.000000
562.183472	0.000000
562.277100	0.000000
