Model Number: SPM-002-B   
Serial Number: 70087108
Firmware Version: 004.15.4
Exposure Time: 100000.000000us
Data Taken on: 11-12-2020 18:51:49.834
Wavelength	Amplitude
221.570786	0.000000
221.663406	0.000000
221.756027	0.000000
221.848648	0.000000
221.941269	0.000000
222.033905	0.000000
222.126526	0.000000
222.219162	0.000000
222.311798	0.000000
222.404419	0.000000
222.497055	0.000000
222.589676	0.000000
222.682312	0.000000
222.774933	0.000000
222.867569	0.000000
222.960205	0.000000
223.052841	0.000000
223.145462	0.000000
223.238098	0.000000
223.330734	0.000000
223.423386	0.000000
223.516022	0.000000
223.608658	0.000000
223.701309	0.000000
223.793945	0.000000
223.886581	0.000000
223.979218	0.000000
224.071869	0.000000
224.164505	0.000000
224.257156	0.000000
224.349792	0.000000
224.442444	0.000000
224.535095	0.000000
224.627747	0.000000
224.720398	0.000000
224.813034	0.000000
224.905685	0.000000
224.998337	145.140000
225.090988	144.840000
225.183640	144.900000
225.276291	144.840000
225.368942	145.140000
225.461594	145.200000
225.554245	145.580000
225.646912	145.720000
225.739578	146.240000
225.832230	146.720000
225.924896	146.040000
226.017548	146.600000
226.110199	147.000000
226.202866	146.260000
226.295532	146.100000
226.388184	146.080000
226.480850	145.060000
226.573517	144.440000
226.666168	144.820000
226.758835	144.980000
226.851501	145.620000
226.944183	145.920000
227.036850	145.940000
227.129517	146.000000
227.222183	146.200000
227.314850	146.020000
227.407516	146.520000
227.500198	147.220000
227.592865	146.700000
227.685532	146.060000
227.778214	145.780000
227.870880	145.960000
227.963562	146.060000
228.056229	146.720000
228.148926	146.780000
228.241592	147.760000
228.334274	147.260000
228.426956	146.660000
228.519638	146.560000
228.612305	146.120000
228.704987	145.760000
228.797668	145.880000
228.890350	145.640000
228.983032	145.040000
229.075714	145.940000
229.168396	145.140000
229.261108	144.740000
229.353790	145.100000
229.446472	145.520000
229.539169	145.380000
229.631851	145.580000
229.724533	146.040000
229.817230	146.160000
229.909912	147.060000
230.002609	146.580000
230.095306	146.540000
230.187988	146.320000
230.280685	145.900000
230.373383	144.600000
230.466095	144.480000
230.558792	144.780000
230.651474	144.780000
230.744171	144.880000
230.836868	145.080000
230.929581	145.520000
231.022278	145.620000
231.114975	145.480000
231.207672	145.400000
231.300369	146.040000
231.393082	146.200000
231.485779	145.680000
231.578506	145.660000
231.671204	145.780000
231.763916	145.280000
231.856613	145.120000
231.949326	145.520000
232.042023	145.580000
232.134735	145.660000
232.227448	145.660000
232.320160	145.920000
232.412872	145.940000
232.505585	146.440000
232.598297	146.780000
232.691010	146.700000
232.783722	146.260000
232.876450	146.620000
232.969162	146.260000
233.061874	145.800000
233.154587	145.780000
233.247314	146.160000
233.340027	145.700000
233.432739	146.120000
233.525467	146.220000
233.618179	146.440000
233.710907	145.940000
233.803635	146.340000
233.896347	146.000000
233.989090	146.340000
234.081818	146.200000
234.174545	146.680000
234.267258	145.980000
234.359985	146.260000
234.452713	145.960000
234.545441	145.820000
234.638168	145.340000
234.730896	145.820000
234.823639	145.520000
234.916367	146.000000
235.009094	146.500000
235.101822	146.760000
235.194580	146.620000
235.287308	146.680000
235.380051	146.060000
235.472778	146.020000
235.565521	146.060000
235.658249	145.940000
235.750992	146.080000
235.843719	146.080000
235.936462	146.280000
236.029205	145.840000
236.121948	145.640000
236.214691	145.660000
236.307449	146.440000
236.400192	145.680000
236.492935	145.940000
236.585678	146.220000
236.678421	146.240000
236.771164	145.780000
236.863907	146.580000
236.956665	146.620000
237.049408	148.160000
237.142151	147.560000
237.234909	148.260000
237.327652	148.100000
237.420410	148.000000
237.513153	146.780000
237.605927	146.840000
237.698669	145.940000
237.791428	145.380000
237.884186	145.860000
237.976944	145.460000
238.069702	145.820000
238.162445	145.500000
238.255203	145.340000
238.347961	145.480000
238.440720	145.420000
238.533478	145.280000
238.626266	145.200000
238.719025	145.700000
238.811783	145.300000
238.904541	145.360000
238.997314	145.280000
239.090073	145.360000
239.182831	145.540000
239.275604	146.280000
239.368362	146.220000
239.461136	146.520000
239.553909	146.580000
239.646667	146.280000
239.739441	145.740000
239.832214	146.140000
239.925003	146.120000
240.017761	146.760000
240.110535	147.340000
240.203308	146.880000
240.296082	146.680000
240.388855	146.540000
240.481628	146.500000
240.574417	146.380000
240.667191	146.920000
240.759964	146.780000
240.852737	146.740000
240.945526	146.400000
241.038315	146.340000
241.131088	146.320000
241.223877	146.700000
241.316650	146.500000
241.409439	146.920000
241.502228	146.340000
241.595001	146.800000
241.687790	146.440000
241.780579	146.740000
241.873367	146.600000
241.966141	146.860000
242.058929	145.980000
242.151718	146.400000
242.244507	146.600000
242.337311	145.800000
242.430099	146.380000
242.522903	146.820000
242.615692	146.480000
242.708481	146.420000
242.801270	147.120000
242.894073	146.800000
242.986862	146.960000
243.079651	147.200000
243.172455	146.900000
243.265244	147.100000
243.358063	146.480000
243.450867	146.480000
243.543655	146.420000
243.636459	146.360000
243.729263	146.440000
243.822067	146.940000
243.914856	147.060000
244.007660	146.960000
244.100464	147.100000
244.193268	146.440000
244.286072	146.140000
244.378876	145.440000
244.471680	144.920000
244.564499	145.440000
244.657318	146.400000
244.750122	146.620000
244.842926	146.320000
244.935745	147.380000
245.028549	146.720000
245.121368	146.220000
245.214172	146.480000
245.306992	146.960000
245.399796	146.200000
245.492615	146.220000
245.585434	145.860000
245.678253	145.660000
245.771072	145.780000
245.863892	146.400000
245.956711	146.660000
246.049530	146.580000
246.142349	146.180000
246.235168	146.220000
246.327988	146.100000
246.420807	145.880000
246.513626	145.900000
246.606445	146.100000
246.699280	145.820000
246.792099	145.620000
246.884918	145.280000
246.977753	145.220000
247.070587	145.340000
247.163422	145.620000
247.256241	145.580000
247.349075	146.040000
247.441895	146.080000
247.534729	145.900000
247.627563	145.780000
247.720383	146.300000
247.813217	146.040000
247.906052	145.980000
247.998886	146.200000
248.091736	145.860000
248.184570	145.520000
248.277405	145.940000
248.370239	146.660000
248.463074	147.360000
248.555908	147.840000
248.648743	147.660000
248.741592	147.660000
248.834427	147.280000
248.927261	146.160000
249.020111	146.720000
249.112946	147.300000
249.205795	146.680000
249.298630	146.620000
249.391495	146.720000
249.484344	145.980000
249.577179	145.800000
249.670029	146.160000
249.762878	146.580000
249.855728	147.200000
249.948563	147.240000
250.041412	146.600000
250.134262	146.980000
250.227112	147.240000
250.319962	146.920000
250.412827	147.140000
250.505692	147.000000
250.598541	146.740000
250.691391	146.040000
250.784241	146.160000
250.877106	146.040000
250.969955	145.980000
251.062805	146.620000
251.155670	147.020000
251.248520	146.620000
251.341385	146.720000
251.434235	146.960000
251.527100	146.340000
251.619965	145.920000
251.712814	146.440000
251.805695	146.180000
251.898560	146.180000
251.991425	146.080000
252.084290	146.260000
252.177155	146.020000
252.270020	146.200000
252.362885	146.400000
252.455750	146.600000
252.548615	146.300000
252.641479	146.140000
252.734360	145.800000
252.827240	145.760000
252.920105	145.920000
253.012970	145.880000
253.105850	145.900000
253.198715	145.940000
253.291595	145.860000
253.384460	145.380000
253.477341	145.680000
253.570221	145.820000
253.663086	145.720000
253.755966	146.220000
253.848846	146.480000
253.941727	146.560000
254.034592	146.640000
254.127472	146.140000
254.220367	145.900000
254.313248	146.020000
254.406128	145.460000
254.499008	145.680000
254.591904	146.800000
254.684784	147.320000
254.777664	147.020000
254.870544	147.300000
254.963440	147.260000
255.056335	147.080000
255.149216	146.440000
255.242111	147.140000
255.334991	147.440000
255.427887	147.240000
255.520767	147.260000
255.613663	147.240000
255.706558	146.340000
255.799438	145.880000
255.892334	145.780000
255.985229	145.640000
256.078125	145.780000
256.171021	145.860000
256.263916	146.380000
256.356812	146.360000
256.449707	146.340000
256.542603	146.000000
256.635498	146.580000
256.728394	146.420000
256.821289	146.180000
256.914215	146.480000
257.007080	147.000000
257.100006	147.160000
257.192932	147.720000
257.285828	147.920000
257.378723	147.460000
257.471619	147.280000
257.564545	146.660000
257.657440	146.200000
257.750336	146.680000
257.843262	146.540000
257.936157	147.440000
258.029053	147.740000
258.121979	147.760000
258.214874	147.040000
258.307800	147.000000
258.400696	145.460000
258.493622	145.600000
258.586517	144.820000
258.679443	145.120000
258.772339	144.760000
258.865265	145.240000
258.958160	144.940000
259.051086	146.100000
259.144012	146.020000
259.236938	147.080000
259.329834	147.140000
259.422791	146.980000
259.515717	146.180000
259.608612	145.980000
259.701538	146.040000
259.794464	146.000000
259.887390	146.080000
259.980316	145.960000
260.073212	145.820000
260.166138	144.700000
260.259064	144.900000
260.351990	145.280000
260.444916	145.580000
260.537842	146.200000
260.630768	146.940000
260.723694	146.680000
260.816620	146.340000
260.909546	146.200000
261.002472	145.500000
261.095398	144.960000
261.188354	144.800000
261.281281	144.300000
261.374207	144.440000
261.467133	145.320000
261.560089	145.880000
261.653015	146.060000
261.745972	146.940000
261.838867	147.360000
261.931824	147.340000
262.024780	146.720000
262.117706	146.780000
262.210663	146.920000
262.303589	146.460000
262.396515	146.440000
262.489471	147.460000
262.582397	147.320000
262.675354	146.400000
262.768280	146.480000
262.861237	146.420000
262.954163	145.880000
263.047119	146.040000
263.140045	146.020000
263.233002	145.840000
263.325958	145.340000
263.418884	144.860000
263.511841	145.000000
263.604797	145.380000
263.697723	145.380000
263.790680	145.900000
263.883636	146.680000
263.976593	146.460000
264.069550	146.580000
264.162476	146.520000
264.255463	146.180000
264.348419	145.780000
264.441376	146.080000
264.534332	145.700000
264.627289	145.660000
264.720245	146.540000
264.813202	146.080000
264.906158	146.180000
264.999115	146.580000
265.092072	146.600000
265.185028	146.580000
265.277985	147.020000
265.370941	146.620000
265.463898	146.520000
265.556854	146.440000
265.649811	145.260000
265.742798	145.320000
265.835754	145.640000
265.928711	146.100000
266.021667	146.360000
266.114655	147.160000
266.207611	147.160000
266.300568	146.200000
266.393585	145.700000
266.486511	145.920000
266.579498	144.900000
266.672485	145.080000
266.765442	145.420000
266.858429	145.820000
266.951385	145.160000
267.044342	145.520000
267.137329	145.460000
267.230316	145.940000
267.323273	145.280000
267.416260	146.440000
267.509216	146.460000
267.602203	146.040000
267.695160	146.480000
267.788147	146.440000
267.881134	145.520000
267.974091	145.800000
268.067078	146.020000
268.160065	145.360000
268.253052	145.300000
268.346008	145.500000
268.438995	144.880000
268.531982	145.100000
268.624969	145.220000
268.717987	145.580000
268.810944	145.700000
268.903961	146.480000
268.996948	146.260000
269.089905	146.620000
269.182892	146.740000
269.275879	146.720000
269.368866	146.180000
269.461853	146.460000
269.554871	146.060000
269.647858	146.180000
269.740845	146.840000
269.833832	147.080000
269.926819	146.640000
270.019806	146.780000
270.112793	146.200000
270.205811	145.900000
270.298798	146.040000
270.391785	146.580000
270.484772	146.460000
270.577789	146.660000
270.670776	146.120000
270.763763	146.160000
270.856750	146.380000
270.949768	146.140000
271.042786	146.440000
271.135773	146.880000
271.228790	146.780000
271.321808	146.000000
271.414795	145.840000
271.507782	145.440000
271.600800	144.960000
271.693817	145.020000
271.786804	145.440000
271.879822	145.740000
271.972809	145.800000
272.065826	146.160000
272.158844	145.880000
272.251831	146.380000
272.344849	146.440000
272.437866	146.060000
272.530853	145.940000
272.623871	145.940000
272.716888	144.920000
272.809906	145.220000
272.902893	145.440000
272.995911	145.040000
273.088928	145.340000
273.181946	145.740000
273.274963	145.020000
273.367981	144.980000
273.460999	145.480000
273.554047	145.520000
273.647003	146.020000
273.740051	146.320000
273.833069	146.840000
273.926086	146.640000
274.019135	146.260000
274.112152	145.760000
274.205170	145.640000
274.298187	146.040000
274.391205	145.600000
274.484222	145.820000
274.577240	145.920000
274.670258	146.040000
274.763306	145.360000
274.856323	146.080000
274.949341	145.840000
275.042358	146.100000
275.135406	145.980000
275.228424	146.020000
275.321442	145.980000
275.414490	145.960000
275.507507	146.160000
275.600525	146.820000
275.693573	146.640000
275.786591	146.140000
275.879669	146.560000
275.972656	145.980000
276.065735	145.520000
276.158752	146.220000
276.251801	147.120000
276.344818	147.080000
276.437866	147.100000
276.530884	146.960000
276.623932	146.160000
276.716980	145.980000
276.809998	146.060000
276.903046	146.240000
276.996094	147.000000
277.089111	147.560000
277.182159	147.840000
277.275208	147.380000
277.368256	147.420000
277.461304	146.760000
277.554321	146.200000
277.647369	145.900000
277.740417	146.080000
277.833466	145.500000
277.926514	145.600000
278.019562	146.340000
278.112610	145.600000
278.205688	145.640000
278.298706	145.960000
278.391785	145.520000
278.484833	144.760000
278.577881	144.700000
278.670929	144.820000
278.763977	145.140000
278.857025	145.840000
278.950073	146.420000
279.043121	146.480000
279.136169	146.400000
279.229248	145.920000
279.322296	145.840000
279.415344	145.420000
279.508392	145.600000
279.601440	145.640000
279.694519	145.480000
279.787567	145.400000
279.880615	145.320000
279.973694	145.180000
280.066742	145.180000
280.159790	145.640000
280.252869	145.040000
280.345917	145.340000
280.438995	145.360000
280.532074	145.360000
280.625122	145.660000
280.718201	147.040000
280.811279	146.820000
280.904327	147.080000
280.997406	147.180000
281.090454	146.900000
281.183533	145.880000
281.276581	145.960000
281.369659	145.480000
281.462738	145.460000
281.555786	145.420000
281.648865	145.620000
281.741943	145.680000
281.835022	146.300000
281.928070	146.180000
282.021149	146.060000
282.114227	145.660000
282.207306	145.540000
282.300385	145.600000
282.393433	145.620000
282.486511	145.780000
282.579590	146.500000
282.672668	146.740000
282.765747	146.240000
282.858856	146.020000
282.951904	146.020000
283.045013	146.080000
283.138062	146.220000
283.231171	146.860000
283.324249	147.420000
283.417328	147.700000
283.510406	147.060000
283.603485	146.840000
283.696564	146.700000
283.789642	146.780000
283.882751	146.560000
283.975830	147.420000
284.068909	147.060000
284.161987	147.520000
284.255066	146.640000
284.348175	146.620000
284.441254	146.040000
284.534332	146.980000
284.627441	146.240000
284.720520	146.240000
284.813599	146.020000
284.906708	146.100000
284.999786	145.040000
285.092896	144.980000
285.185974	145.960000
285.279053	145.660000
285.372192	145.760000
285.465240	146.600000
285.558380	146.620000
285.651459	146.240000
285.744568	147.440000
285.837677	146.920000
285.930756	146.500000
286.023865	146.520000
286.116943	146.260000
286.210052	145.980000
286.303162	146.240000
286.396240	146.180000
286.489349	146.080000
286.582458	146.000000
286.675568	145.540000
286.768646	145.700000
286.861755	145.980000
286.954865	146.380000
287.047974	146.160000
287.141083	146.060000
287.234161	145.900000
287.327271	145.660000
287.420380	146.240000
287.513519	146.380000
287.606598	146.640000
287.699738	146.640000
287.792816	146.600000
287.885956	145.960000
287.979034	145.820000
288.072174	145.800000
288.165283	145.640000
288.258392	145.580000
288.351501	144.960000
288.444611	145.540000
288.537720	145.740000
288.630859	145.860000
288.723969	146.120000
288.817078	146.680000
288.910187	146.200000
289.003296	145.480000
289.096436	145.160000
289.189545	145.260000
289.282654	145.040000
289.375763	145.500000
289.468903	146.080000
289.562012	146.620000
289.655121	146.360000
289.748260	146.440000
289.841400	146.780000
289.934509	146.600000
290.027649	146.820000
290.120728	146.800000
290.213898	146.820000
290.306976	146.060000
290.400146	146.120000
290.493256	145.380000
290.586395	145.520000
290.679535	145.960000
290.772644	146.000000
290.865784	145.080000
290.958893	145.220000
291.052032	145.000000
291.145172	144.440000
291.238281	144.260000
291.331421	145.000000
291.424561	145.340000
291.517670	145.400000
291.610809	145.940000
291.703949	145.940000
291.797089	146.020000
291.890228	145.720000
291.983337	145.520000
292.076477	144.980000
292.169617	145.260000
292.262756	145.100000
292.355927	145.100000
292.449036	145.040000
292.542206	145.380000
292.635315	145.580000
292.728485	146.180000
292.821625	145.760000
292.914764	147.120000
293.007904	147.300000
293.101044	147.080000
293.194183	146.940000
293.287323	147.300000
293.380463	146.420000
293.473602	146.100000
293.566742	146.280000
293.659882	146.400000
293.753021	146.720000
293.846191	146.460000
293.939331	146.020000
294.032471	146.080000
294.125610	145.660000
294.218781	146.120000
294.311920	146.660000
294.405060	146.940000
294.498230	146.660000
294.591370	146.980000
294.684540	145.880000
294.777679	145.160000
294.870850	145.380000
294.963959	145.580000
295.057159	144.920000
295.150299	145.440000
295.243469	145.620000
295.336609	145.080000
295.429779	144.920000
295.522919	145.440000
295.616089	145.640000
295.709229	146.180000
295.802399	146.660000
295.895569	146.480000
295.988708	146.040000
296.081879	146.020000
296.175018	145.700000
296.268188	145.500000
296.361359	145.900000
296.454529	146.300000
296.547668	146.020000
296.640839	145.940000
296.734009	145.720000
296.827179	145.980000
296.920319	146.140000
297.013519	145.960000
297.106659	146.200000
297.199860	146.260000
297.292999	145.660000
297.386200	145.180000
297.479309	145.280000
297.572510	145.260000
297.665680	145.100000
297.758850	145.460000
297.852020	145.720000
297.945190	145.560000
298.038361	145.080000
298.131531	146.080000
298.224701	145.740000
298.317871	145.340000
298.411072	145.080000
298.504242	145.080000
298.597412	144.400000
298.690582	144.860000
298.783752	144.920000
298.876923	145.500000
298.970093	145.440000
299.063293	145.820000
299.156464	145.880000
299.249634	146.620000
299.342834	146.700000
299.436005	147.340000
299.529205	147.300000
299.622345	147.220000
299.715576	146.440000
299.808716	146.160000
299.901917	146.240000
299.995117	146.420000
300.088287	146.380000
300.181488	146.140000
300.274658	145.740000
300.367828	145.320000
300.461029	145.120000
300.554199	145.480000
300.647400	145.880000
300.740601	146.900000
300.833771	146.840000
300.926971	146.920000
301.020142	146.300000
301.113342	146.060000
301.206512	145.540000
301.299713	145.840000
301.392914	145.620000
301.486084	145.940000
301.579285	145.840000
301.672516	146.140000
301.765686	145.840000
301.858887	145.840000
301.952057	145.780000
302.045288	146.280000
302.138458	146.180000
302.231659	145.900000
302.324860	145.840000
302.418060	145.580000
302.511261	145.220000
302.604462	145.340000
302.697662	145.540000
302.790863	145.600000
302.884064	145.300000
302.977264	145.300000
303.070465	145.180000
303.163666	145.620000
303.256866	145.600000
303.350067	145.840000
303.443268	146.280000
303.536469	146.660000
303.629669	146.160000
303.722870	146.500000
303.816071	146.460000
303.909271	146.180000
304.002472	145.140000
304.095673	145.360000
304.188934	144.900000
304.282104	145.700000
304.375336	145.720000
304.468506	146.120000
304.561768	145.860000
304.654968	146.440000
304.748169	145.820000
304.841370	145.640000
304.934601	146.060000
305.027802	145.820000
305.121002	145.360000
305.214233	145.500000
305.307434	145.600000
305.400665	145.960000
305.493866	145.900000
305.587097	146.140000
305.680298	145.840000
305.773499	146.380000
305.866730	145.760000
305.959930	146.420000
306.053162	146.620000
306.146393	146.460000
306.239594	145.920000
306.332825	146.320000
306.426025	146.480000
306.519287	146.020000
306.612488	146.440000
306.705719	146.220000
306.798920	145.940000
306.892181	145.440000
306.985352	145.000000
307.078613	144.440000
307.171844	145.020000
307.265045	144.620000
307.358276	144.260000
307.451508	144.620000
307.544739	145.260000
307.637970	144.760000
307.731201	144.820000
307.824402	145.680000
307.917633	145.940000
308.010864	146.240000
308.104095	146.880000
308.197327	147.100000
308.290558	146.860000
308.383789	146.780000
308.477020	146.120000
308.570251	145.160000
308.663483	144.740000
308.756714	144.600000
308.849976	144.540000
308.943176	144.860000
309.036438	145.140000
309.129639	145.380000
309.222900	145.280000
309.316101	145.020000
309.409393	144.820000
309.502625	144.700000
309.595856	144.700000
309.689087	145.140000
309.782318	145.280000
309.875580	145.340000
309.968811	145.620000
310.062042	145.540000
310.155273	145.040000
310.248535	145.460000
310.341766	145.380000
310.434998	145.080000
310.528259	145.160000
310.621490	145.580000
310.714722	144.920000
310.807983	145.080000
310.901215	145.000000
310.994476	145.320000
311.087708	145.060000
311.181000	145.460000
311.274200	145.000000
311.367462	145.420000
311.460693	144.880000
311.553986	145.540000
311.647186	145.740000
311.740479	146.540000
311.833710	146.160000
311.926971	146.580000
312.020203	145.200000
312.113464	145.020000
312.206726	144.260000
312.299957	144.560000
312.393219	144.800000
312.486481	145.760000
312.579712	145.320000
312.672974	145.660000
312.766235	145.800000
312.859497	145.480000
312.952759	145.340000
313.045990	146.460000
313.139252	145.880000
313.232513	145.960000
313.325775	146.120000
313.419037	145.840000
313.512299	144.960000
313.605530	145.580000
313.698822	145.660000
313.792053	145.520000
313.885345	145.320000
313.978577	145.160000
314.071869	144.620000
314.165131	144.700000
314.258392	144.960000
314.351654	145.300000
314.444916	145.240000
314.538177	146.000000
314.631439	146.220000
314.724701	145.820000
314.817993	145.700000
314.911255	146.060000
315.004517	145.500000
315.097778	145.180000
315.191040	145.640000
315.284302	146.040000
315.377594	145.720000
315.470856	145.840000
315.564117	145.540000
315.657379	144.880000
315.750671	144.240000
315.843933	144.960000
315.937195	144.580000
316.030518	144.640000
316.123749	144.840000
316.217041	145.960000
316.310303	145.340000
316.403595	146.000000
316.496857	146.360000
316.590149	146.860000
316.683411	145.780000
316.776703	146.040000
316.869965	145.880000
316.963257	145.560000
317.056519	144.880000
317.149811	145.280000
317.243073	145.360000
317.336365	145.300000
317.429626	145.560000
317.522919	146.020000
317.616180	146.020000
317.709473	145.200000
317.802765	145.200000
317.896027	144.820000
317.989319	145.240000
318.082611	145.040000
318.175873	145.440000
318.269165	145.540000
318.362488	145.960000
318.455750	145.500000
318.549042	146.120000
318.642303	146.500000
318.735626	146.140000
318.828888	146.140000
318.922211	145.760000
319.015472	146.120000
319.108765	145.580000
319.202057	145.420000
319.295349	145.200000
319.388641	145.520000
319.481934	145.020000
319.575226	145.060000
319.668518	145.620000
319.761810	145.620000
319.855103	145.780000
319.948395	145.680000
320.041687	146.040000
320.134979	146.000000
320.228271	145.880000
320.321564	145.440000
320.414856	145.460000
320.508148	145.040000
320.601440	144.920000
320.694763	144.700000
320.788025	145.460000
320.881348	145.320000
320.974640	145.360000
321.067963	144.940000
321.161224	145.020000
321.254547	144.080000
321.347839	144.860000
321.441162	144.720000
321.534454	145.160000
321.627747	145.420000
321.721069	146.280000
321.814362	146.000000
321.907654	146.380000
322.000946	146.380000
322.094269	146.880000
322.187561	146.360000
322.280884	146.460000
322.374176	146.640000
322.467468	147.020000
322.560791	146.560000
322.654083	147.160000
322.747406	147.060000
322.840698	147.140000
322.934021	147.380000
323.027344	147.660000
323.120636	147.360000
323.213959	147.100000
323.307251	146.600000
323.400574	146.260000
323.493866	145.540000
323.587219	145.420000
323.680511	146.060000
323.773834	146.200000
323.867157	145.600000
323.960449	146.160000
324.053772	146.180000
324.147095	145.740000
324.240387	146.600000
324.333710	147.100000
324.427032	147.260000
324.520355	147.140000
324.613647	146.620000
324.706970	145.760000
324.800293	145.380000
324.893616	145.340000
324.986938	145.520000
325.080231	145.760000
325.173553	146.060000
325.266876	146.720000
325.360199	146.720000
325.453522	146.380000
325.546875	145.860000
325.640167	145.960000
325.733521	145.980000
325.826813	146.300000
325.920166	146.200000
326.013489	146.420000
326.106812	145.720000
326.200134	144.860000
326.293457	144.020000
326.386780	144.180000
326.480103	144.320000
326.573425	144.420000
326.666748	145.020000
326.760071	145.600000
326.853424	145.920000
326.946747	146.000000
327.040070	146.920000
327.133392	146.480000
327.226715	145.800000
327.320068	145.080000
327.413391	145.420000
327.506714	144.520000
327.600037	144.700000
327.693390	144.900000
327.786713	145.340000
327.880066	145.000000
327.973358	145.280000
328.066742	145.760000
328.160034	145.920000
328.253418	146.300000
328.346710	146.020000
328.440063	145.760000
328.533417	145.340000
328.626740	145.580000
328.720093	145.020000
328.813416	144.980000
328.906769	145.200000
329.000092	145.360000
329.093445	144.980000
329.186768	145.140000
329.280121	145.760000
329.373444	146.180000
329.466797	146.020000
329.560120	146.580000
329.653473	146.640000
329.746796	146.160000
329.840149	146.020000
329.933502	146.040000
330.026825	145.380000
330.120178	145.260000
330.213562	145.320000
330.306854	145.280000
330.400238	145.580000
330.493561	145.760000
330.586945	146.420000
330.680237	146.480000
330.773621	146.500000
330.866974	146.340000
330.960327	146.520000
331.053680	145.880000
331.147003	146.260000
331.240356	146.340000
331.333710	146.360000
331.427063	146.040000
331.520416	146.080000
331.613770	145.640000
331.707123	145.740000
331.800476	145.880000
331.893829	147.040000
331.987152	147.380000
332.080505	147.360000
332.173859	146.640000
332.267212	145.820000
332.360565	144.840000
332.453918	144.180000
332.547333	144.200000
332.640656	144.880000
332.734039	145.440000
332.827362	145.460000
332.920746	146.140000
333.014069	146.460000
333.107452	146.460000
333.200806	146.860000
333.294159	147.060000
333.387543	146.420000
333.480896	145.940000
333.574249	145.600000
333.667603	144.860000
333.760956	144.780000
333.854340	145.020000
333.947693	145.160000
334.041046	145.280000
334.134430	145.740000
334.227783	145.400000
334.321136	145.440000
334.414520	145.220000
334.507874	145.220000
334.601227	145.220000
334.694611	145.060000
334.787964	145.020000
334.881348	145.580000
334.974701	145.460000
335.068085	145.140000
335.161438	145.640000
335.254822	145.580000
335.348175	145.300000
335.441559	145.120000
335.534943	145.660000
335.628296	145.780000
335.721680	146.000000
335.815033	146.140000
335.908417	146.440000
336.001770	146.500000
336.095154	146.060000
336.188538	145.480000
336.281891	145.080000
336.375275	144.720000
336.468658	144.620000
336.562012	144.820000
336.655396	145.700000
336.748779	146.380000
336.842133	146.680000
336.935516	146.540000
337.028900	146.560000
337.122284	146.240000
337.215637	146.040000
337.309021	145.960000
337.402435	145.700000
337.495789	145.360000
337.589203	145.180000
337.682526	145.180000
337.775940	145.660000
337.869324	146.180000
337.962708	146.200000
338.056091	146.660000
338.149475	146.080000
338.242859	145.980000
338.336243	145.180000
338.429626	145.400000
338.523010	145.080000
338.616394	145.200000
338.709778	145.300000
338.803162	146.000000
338.896545	146.040000
338.989929	145.600000
339.083313	146.100000
339.176697	145.640000
339.270081	145.140000
339.363464	145.460000
339.456848	146.220000
339.550232	145.420000
339.643616	145.420000
339.737030	145.680000
339.830383	145.440000
339.923828	145.140000
340.017181	145.300000
340.110596	145.520000
340.203949	145.600000
340.297363	145.060000
340.390778	144.980000
340.484161	145.300000
340.577545	145.280000
340.670959	144.980000
340.764343	145.300000
340.857727	145.520000
340.951111	145.020000
341.044525	145.060000
341.137909	144.660000
341.231293	144.680000
341.324707	144.500000
341.418091	145.600000
341.511505	145.340000
341.604889	146.040000
341.698303	146.120000
341.791687	146.180000
341.885071	145.640000
341.978485	145.740000
342.071899	146.040000
342.165283	146.480000
342.258698	146.500000
342.352081	146.880000
342.445496	147.480000
342.538879	146.820000
342.632324	146.340000
342.725708	146.200000
342.819122	145.600000
342.912506	144.980000
343.005920	145.100000
343.099335	146.000000
343.192719	146.040000
343.286133	146.120000
343.379547	146.460000
343.472931	146.800000
343.566345	145.720000
343.659760	146.180000
343.753143	146.020000
343.846558	145.720000
343.939972	145.480000
344.033386	146.380000
344.126770	145.920000
344.220184	146.120000
344.313599	146.360000
344.407043	146.440000
344.500427	145.600000
344.593872	146.160000
344.687225	145.900000
344.780670	145.680000
344.874054	145.360000
344.967499	146.060000
345.060913	145.700000
345.154327	146.080000
345.247742	145.620000
345.341156	145.680000
345.434570	145.040000
345.527985	144.880000
345.621399	144.740000
345.714813	145.220000
345.808228	145.640000
345.901642	145.800000
345.995056	145.320000
346.088470	145.360000
346.181885	145.300000
346.275299	144.840000
346.368713	144.680000
346.462128	144.660000
346.555573	144.660000
346.648987	144.680000
346.742401	144.720000
346.835815	145.280000
346.929260	145.540000
347.022644	145.720000
347.116119	145.900000
347.209503	146.080000
347.302948	146.500000
347.396362	147.340000
347.489807	147.180000
347.583221	147.260000
347.676636	147.100000
347.770050	146.040000
347.863495	145.340000
347.956909	145.400000
348.050323	145.000000
348.143768	145.120000
348.237183	145.020000
348.330597	145.400000
348.424042	145.660000
348.517456	146.320000
348.610901	146.140000
348.704315	146.260000
348.797760	145.660000
348.891174	144.900000
348.984619	144.020000
349.078033	144.660000
349.171448	145.240000
349.264923	145.140000
349.358337	145.480000
349.451782	145.760000
349.545197	144.820000
349.638641	144.200000
349.732086	144.060000
349.825500	144.500000
349.918945	144.200000
350.012390	144.980000
350.105804	145.220000
350.199249	145.540000
350.292664	145.840000
350.386108	146.120000
350.479553	146.440000
350.572968	146.580000
350.666412	146.860000
350.759857	146.420000
350.853302	146.980000
350.946716	146.280000
351.040161	146.400000
351.133606	146.380000
351.227081	146.260000
351.320465	146.620000
351.413940	146.560000
351.507355	146.360000
351.600830	146.460000
351.694244	146.020000
351.787720	145.500000
351.881104	145.900000
351.974579	145.900000
352.067993	146.340000
352.161469	146.640000
352.254883	146.240000
352.348358	146.000000
352.441803	145.940000
352.535248	145.620000
352.628693	146.040000
352.722137	146.180000
352.815582	146.420000
352.909027	146.640000
353.002472	146.520000
353.095917	146.020000
353.189362	146.340000
353.282806	146.260000
353.376251	146.140000
353.469696	145.500000
353.563141	146.160000
353.656586	145.520000
353.750061	144.840000
353.843475	145.000000
353.936981	145.800000
354.030396	145.220000
354.123871	145.380000
354.217285	146.420000
354.310760	146.560000
354.404175	146.220000
354.497681	146.160000
354.591095	146.440000
354.684570	145.580000
354.777985	144.980000
354.871490	144.980000
354.964935	145.400000
355.058380	145.560000
355.151855	145.200000
355.245300	146.000000
355.338745	146.520000
355.432220	146.060000
355.525665	145.200000
355.619110	146.060000
355.712585	145.320000
355.806030	144.680000
355.899475	144.720000
355.992950	145.400000
356.086426	145.400000
356.179871	145.840000
356.273346	146.040000
356.366791	146.340000
356.460266	146.440000
356.553711	146.180000
356.647186	146.100000
356.740631	145.880000
356.834106	145.560000
356.927551	145.460000
357.021027	145.480000
357.114471	145.560000
357.207947	145.900000
357.301422	146.100000
357.394867	145.900000
357.488342	146.460000
357.581818	146.260000
357.675262	146.500000
357.768738	146.500000
357.862213	146.300000
357.955658	146.400000
358.049133	146.220000
358.142609	146.320000
358.236053	146.200000
358.329529	146.500000
358.423035	146.220000
358.516449	146.000000
358.609955	146.060000
358.703400	146.520000
358.796906	146.660000
358.890350	146.200000
358.983826	146.740000
359.077271	145.800000
359.170776	145.600000
359.264221	145.200000
359.357727	145.520000
359.451172	145.560000
359.544647	146.000000
359.638123	145.760000
359.731598	146.420000
359.825073	146.800000
359.918549	146.940000
360.012024	147.060000
360.105499	146.500000
360.198975	146.260000
360.292450	145.780000
360.385925	145.580000
360.479401	145.200000
360.572876	145.740000
360.666351	146.080000
360.759857	145.920000
360.853302	145.800000
360.946808	145.720000
361.040253	145.840000
361.133759	145.440000
361.227203	145.760000
361.320709	145.160000
361.414154	145.600000
361.507660	146.000000
361.601105	146.040000
361.694641	146.480000
361.788086	146.840000
361.881592	147.040000
361.975067	146.420000
362.068542	146.560000
362.162018	146.220000
362.255524	145.940000
362.348999	145.800000
362.442474	146.180000
362.535950	145.480000
362.629456	145.420000
362.722931	145.660000
362.816406	145.820000
362.909882	145.960000
363.003387	146.160000
363.096863	146.340000
363.190338	146.260000
363.283875	145.940000
363.377319	145.640000
363.470825	146.200000
363.564301	145.380000
363.657806	145.880000
363.751282	145.660000
363.844788	146.400000
363.938232	145.880000
364.031769	147.100000
364.125214	147.060000
364.218750	147.840000
364.312225	146.680000
364.405731	146.860000
364.499207	145.940000
364.592712	145.700000
364.686188	144.900000
364.779694	145.380000
364.873169	145.400000
364.966675	145.480000
365.060150	145.520000
365.153656	146.100000
365.247131	146.100000
365.340637	146.420000
365.434143	146.780000
365.527618	146.860000
365.621155	146.140000
365.714600	146.020000
365.808136	145.740000
365.901611	144.900000
365.995117	144.560000
366.088593	144.700000
366.182129	144.540000
366.275604	144.620000
366.369110	144.920000
366.462585	145.200000
366.556122	145.820000
366.649567	145.920000
366.743103	146.060000
366.836609	145.960000
366.930115	146.060000
367.023590	145.900000
367.117096	145.880000
367.210602	145.580000
367.304108	146.100000
367.397614	146.400000
367.491119	146.400000
367.584595	146.460000
367.678101	146.980000
367.771606	146.960000
367.865112	146.680000
367.958649	145.980000
368.052124	145.840000
368.145660	145.420000
368.239136	145.700000
368.332672	145.700000
368.426147	146.200000
368.519684	146.400000
368.613159	146.580000
368.706696	146.080000
368.800171	146.000000
368.893707	145.540000
368.987183	145.360000
369.080719	145.360000
369.174225	145.220000
369.267731	145.380000
369.361237	145.800000
369.454742	145.640000
369.548248	146.040000
369.641754	145.920000
369.735260	145.440000
369.828766	144.420000
369.922272	145.500000
370.015808	144.720000
370.109314	144.920000
370.202820	144.980000
370.296356	146.540000
370.389832	145.760000
370.483368	145.780000
370.576874	145.700000
370.670410	145.920000
370.763885	145.000000
370.857422	145.160000
370.950928	145.200000
371.044464	145.720000
371.137939	145.580000
371.231476	146.240000
371.324982	146.580000
371.418518	146.700000
371.512024	146.300000
371.605560	146.440000
371.699066	146.260000
371.792572	145.580000
371.886108	146.140000
371.979614	146.080000
372.073120	146.520000
372.166656	146.240000
372.260162	146.540000
372.353668	146.060000
372.447205	145.900000
372.540710	145.440000
372.634277	145.520000
372.727753	145.500000
372.821320	145.300000
372.914795	145.220000
373.008362	145.400000
373.101837	145.520000
373.195404	145.440000
373.288879	145.360000
373.382446	146.340000
373.475922	146.100000
373.569489	146.740000
373.662964	147.140000
373.756531	147.020000
373.850037	146.940000
373.943573	146.840000
374.037109	145.760000
374.130615	145.880000
374.224152	146.300000
374.317657	145.800000
374.411194	146.760000
374.504730	146.820000
374.598236	146.240000
374.691772	146.060000
374.785309	146.180000
374.878815	145.000000
374.972351	145.540000
375.065887	145.460000
375.159454	145.940000
375.252930	145.660000
375.346497	146.060000
375.440002	146.260000
375.533569	146.540000
375.627045	145.840000
375.720612	145.920000
375.814117	146.320000
375.907684	145.640000
376.001160	145.300000
376.094727	144.940000
376.188232	145.520000
376.281799	145.520000
376.375336	145.900000
376.468872	146.760000
376.562408	147.400000
376.655914	146.980000
376.749451	146.800000
376.842987	146.560000
376.936523	145.880000
377.030060	145.940000
377.123596	146.080000
377.217133	145.780000
377.310669	146.000000
377.404205	146.260000
377.497772	146.900000
377.591278	146.780000
377.684845	147.580000
377.778351	147.880000
377.871918	147.720000
377.965424	146.540000
378.058990	146.400000
378.152496	145.600000
378.246063	145.540000
378.339569	145.640000
378.433136	146.340000
378.526642	146.440000
378.620209	146.740000
378.713745	146.140000
378.807312	146.560000
378.900848	146.280000
378.994385	146.340000
379.087921	145.520000
379.181458	146.040000
379.274994	145.160000
379.368530	144.960000
379.462097	144.980000
379.555634	145.680000
379.649170	145.240000
379.742706	145.600000
379.836273	145.840000
379.929810	145.300000
380.023376	145.120000
380.116882	144.920000
380.210449	144.620000
380.303986	144.260000
380.397552	144.400000
380.491058	144.540000
380.584656	144.800000
380.678162	145.300000
380.771729	145.420000
380.865265	146.220000
380.958832	145.960000
381.052368	146.060000
381.145935	146.220000
381.239471	146.700000
381.333008	146.200000
381.426575	146.480000
381.520111	146.660000
381.613647	146.780000
381.707214	146.260000
381.800751	145.800000
381.894318	145.840000
381.987854	145.520000
382.081421	145.060000
382.174988	145.300000
382.268524	145.280000
382.362091	144.900000
382.455627	145.780000
382.549194	145.540000
382.642731	145.120000
382.736298	145.180000
382.829834	145.240000
382.923401	145.200000
383.016937	145.720000
383.110504	146.260000
383.204041	146.820000
383.297607	147.280000
383.391174	146.400000
383.484741	146.800000
383.578278	146.340000
383.671844	145.840000
383.765411	145.260000
383.858948	145.640000
383.952515	145.080000
384.046051	145.440000
384.139618	145.700000
384.233185	146.120000
384.326721	146.180000
384.420288	146.740000
384.513855	146.700000
384.607422	146.840000
384.700989	146.800000
384.794525	146.380000
384.888123	145.860000
384.981659	146.160000
385.075226	145.840000
385.168762	145.680000
385.262360	145.980000
385.355896	145.420000
385.449463	145.200000
385.542999	145.120000
385.636597	145.840000
385.730164	145.860000
385.823730	145.820000
385.917267	145.300000
386.010834	145.400000
386.104401	144.920000
386.197968	145.280000
386.291534	145.780000
386.385101	146.040000
386.478668	146.440000
386.572235	146.220000
386.665802	145.620000
386.759338	145.320000
386.852905	145.000000
386.946472	144.580000
387.040070	144.820000
387.133606	144.960000
387.227203	144.860000
387.320740	145.300000
387.414337	145.080000
387.507874	144.940000
387.601471	145.020000
387.695007	145.040000
387.788605	145.080000
387.882141	145.440000
387.975739	145.600000
388.069275	145.360000
388.162872	145.760000
388.256439	145.520000
388.350037	145.300000
388.443604	145.160000
388.537170	145.340000
388.630737	145.580000
388.724304	145.800000
388.817871	145.720000
388.911438	145.640000
389.005005	145.880000
389.098602	146.180000
389.192169	145.980000
389.285736	146.560000
389.379333	146.740000
389.472870	146.260000
389.566467	146.000000
389.660034	146.180000
389.753632	145.760000
389.847168	146.040000
389.940765	146.240000
390.034332	146.160000
390.127930	145.840000
390.221466	145.740000
390.315063	145.060000
390.408630	144.320000
390.502228	143.600000
390.595795	143.980000
390.689362	144.140000
390.782959	144.680000
390.876526	145.260000
390.970093	145.660000
391.063690	146.080000
391.157257	146.260000
391.250824	146.400000
391.344421	146.400000
391.437988	146.720000
391.531555	146.640000
391.625153	146.580000
391.718750	146.840000
391.812317	146.940000
391.905914	146.180000
391.999481	145.900000
392.093079	146.100000
392.186615	145.920000
392.280243	145.980000
392.373779	146.480000
392.467407	146.920000
392.560944	146.640000
392.654572	146.180000
392.748108	146.020000
392.841736	146.340000
392.935303	145.760000
393.028900	145.580000
393.122467	145.760000
393.216064	145.500000
393.309631	144.740000
393.403229	144.460000
393.496796	144.460000
393.590393	143.740000
393.683990	144.440000
393.777557	145.200000
393.871155	145.460000
393.964722	146.260000
394.058350	146.580000
394.151917	146.120000
394.245514	145.640000
394.339081	146.040000
394.432678	145.640000
394.526245	145.560000
394.619873	145.580000
394.713409	145.800000
394.807037	145.520000
394.900604	145.620000
394.994202	146.000000
395.087769	146.100000
395.181396	145.540000
395.274994	145.960000
395.368561	145.060000
395.462158	145.220000
395.555756	144.700000
395.649353	145.280000
395.742920	144.860000
395.836517	145.740000
395.930115	145.040000
396.023712	145.760000
396.117279	145.920000
396.210876	145.520000
396.304474	145.400000
396.398071	145.960000
396.491669	145.720000
396.585266	145.480000
396.678833	145.460000
396.772461	145.660000
396.866028	145.520000
396.959656	145.800000
397.053223	145.920000
397.146851	146.160000
397.240417	146.120000
397.334015	146.860000
397.427582	146.680000
397.521210	147.120000
397.614807	147.800000
397.708405	148.360000
397.802002	148.660000
397.895599	150.220000
397.989197	151.180000
398.082794	152.260000
398.176392	153.920000
398.269989	155.680000
398.363586	157.440000
398.457184	160.580000
398.550781	163.960000
398.644379	166.600000
398.737976	170.140000
398.831573	173.960000
398.925201	177.140000
399.018768	180.440000
399.112396	184.500000
399.205963	188.460000
399.299591	192.580000
399.393158	197.120000
399.486786	203.320000
399.580353	209.940000
399.673981	217.540000
399.767578	225.880000
399.861206	235.400000
399.954773	245.220000
400.048401	255.060000
400.141998	263.820000
400.235596	272.580000
400.329193	278.760000
400.422791	284.000000
400.516418	287.120000
400.610016	290.520000
400.703613	292.200000
400.797211	292.800000
400.890808	290.840000
400.984436	288.000000
401.078033	282.340000
401.171631	275.000000
401.265259	266.320000
401.358826	257.120000
401.452484	246.160000
401.546051	235.680000
401.639679	223.660000
401.733246	212.560000
401.826904	200.980000
401.920471	191.300000
402.014099	181.920000
402.107697	175.120000
402.201324	169.260000
402.294891	164.860000
402.388550	161.540000
402.482147	158.720000
402.575745	156.060000
402.669373	153.500000
402.762970	152.040000
402.856567	150.480000
402.950195	149.520000
403.043793	148.520000
403.137390	148.800000
403.231018	147.740000
403.324615	147.880000
403.418243	146.900000
403.511841	146.880000
403.605469	146.180000
403.699066	146.460000
403.792694	146.160000
403.886292	146.760000
403.979919	146.680000
404.073517	146.560000
404.167145	146.820000
404.260712	146.620000
404.354370	146.260000
404.447937	146.600000
404.541595	146.760000
404.635162	146.840000
404.728821	147.340000
404.822418	147.120000
404.916046	146.760000
405.009644	147.200000
405.103271	147.060000
405.196899	146.740000
405.290497	147.060000
405.384125	147.340000
405.477722	146.420000
405.571350	145.860000
405.664948	146.120000
405.758575	146.080000
405.852203	145.700000
405.945801	146.120000
406.039429	146.440000
406.133057	145.720000
406.226654	145.340000
406.320312	145.420000
406.413879	145.460000
406.507538	145.460000
406.601135	145.300000
406.694763	146.300000
406.788361	145.900000
406.882019	145.580000
406.975586	145.920000
407.069244	146.920000
407.162872	146.420000
407.256470	146.800000
407.350098	146.840000
407.443726	146.020000
407.537323	145.160000
407.630951	145.160000
407.724579	144.700000
407.818207	145.220000
407.911804	145.480000
408.005432	145.580000
408.099060	145.440000
408.192688	145.920000
408.286285	145.500000
408.379913	145.240000
408.473572	145.400000
408.567169	145.000000
408.660828	144.920000
408.754395	144.660000
408.848053	144.660000
408.941650	144.860000
409.035309	144.900000
409.128906	144.780000
409.222565	144.780000
409.316132	145.340000
409.409790	145.180000
409.503387	145.600000
409.597046	145.660000
409.690674	145.940000
409.784302	145.800000
409.877930	145.560000
409.971558	145.520000
410.065186	145.220000
410.158783	145.060000
410.252411	145.180000
410.346039	145.600000
410.439667	145.300000
410.533295	145.880000
410.626923	146.340000
410.720551	146.180000
410.814209	146.320000
410.907806	146.580000
411.001465	146.160000
411.095062	145.960000
411.188721	146.200000
411.282318	145.960000
411.375977	145.480000
411.469574	145.560000
411.563232	145.240000
411.656830	144.820000
411.750488	144.820000
411.844086	144.900000
411.937744	145.260000
412.031372	145.480000
412.125000	145.460000
412.218628	145.220000
412.312256	146.120000
412.405884	146.140000
412.499512	145.940000
412.593170	146.500000
412.686798	146.980000
412.780426	146.080000
412.874054	145.960000
412.967682	146.160000
413.061310	146.180000
413.154968	145.980000
413.248566	146.320000
413.342224	146.020000
413.435852	146.240000
413.529510	145.880000
413.623108	145.500000
413.716766	145.420000
413.810364	145.820000
413.904022	145.180000
413.997650	144.680000
414.091309	145.320000
414.184906	145.280000
414.278564	144.820000
414.372192	145.380000
414.465851	146.040000
414.559479	145.400000
414.653107	146.040000
414.746735	145.840000
414.840393	145.580000
414.934021	145.760000
415.027649	145.540000
415.121277	145.140000
415.214935	145.920000
415.308563	145.980000
415.402191	145.220000
415.495850	145.400000
415.589478	145.160000
415.683136	145.140000
415.776733	145.300000
415.870422	145.880000
415.964020	145.500000
416.057678	145.620000
416.151306	145.260000
416.244965	145.040000
416.338562	144.760000
416.432251	145.520000
416.525848	146.180000
416.619507	146.380000
416.713165	147.000000
416.806793	147.040000
416.900421	147.100000
416.994080	146.240000
417.087708	146.100000
417.181366	145.340000
417.274994	145.220000
417.368622	145.520000
417.462280	146.120000
417.555908	146.260000
417.649567	146.480000
417.743195	146.720000
417.836853	146.680000
417.930481	146.760000
418.024170	146.600000
418.117767	147.080000
418.211426	147.260000
418.305054	147.160000
418.398712	146.500000
418.492340	146.560000
418.585999	146.520000
418.679626	146.560000
418.773285	146.480000
418.866913	146.780000
418.960571	146.960000
419.054230	146.660000
419.147858	146.460000
419.241516	146.420000
419.335144	146.180000
419.428802	145.860000
419.522461	145.840000
419.616089	145.660000
419.709747	145.740000
419.803375	145.980000
419.897034	145.720000
419.990662	145.480000
420.084320	145.880000
420.177979	146.100000
420.271606	146.360000
420.365295	147.140000
420.458893	147.620000
420.552582	147.680000
420.646210	147.200000
420.739868	146.640000
420.833496	146.340000
420.927155	146.000000
421.020782	145.660000
421.114471	145.600000
421.208069	145.740000
421.301758	145.460000
421.395386	145.300000
421.489044	144.960000
421.582703	144.940000
421.676361	145.380000
421.769989	145.520000
421.863647	146.020000
421.957306	146.480000
422.050934	146.720000
422.144592	146.340000
422.238251	146.040000
422.331909	145.500000
422.425537	145.420000
422.519196	145.300000
422.612854	145.080000
422.706543	145.080000
422.800140	145.320000
422.893829	144.980000
422.987457	144.860000
423.081146	144.760000
423.174744	145.280000
423.268433	145.060000
423.362061	144.960000
423.455750	144.660000
423.549347	144.900000
423.643036	144.100000
423.736664	144.620000
423.830353	144.800000
423.924011	145.600000
424.017639	145.020000
424.111298	145.300000
424.204956	145.060000
424.298615	145.280000
424.392273	144.860000
424.485931	145.440000
424.579559	145.820000
424.673218	145.640000
424.766876	145.800000
424.860535	145.220000
424.954193	145.040000
425.047882	145.400000
425.141510	145.520000
425.235199	145.280000
425.328796	145.800000
425.422485	145.920000
425.516113	145.220000
425.609802	145.420000
425.703430	145.560000
425.797119	144.940000
425.890747	144.660000
425.984436	144.860000
426.078064	144.520000
426.171753	144.320000
426.265411	144.760000
426.359070	145.480000
426.452728	145.400000
426.546356	145.480000
426.640015	145.640000
426.733673	145.760000
426.827332	145.260000
426.920990	146.040000
427.014648	145.580000
427.108307	145.560000
427.201965	145.920000
427.295624	146.160000
427.389282	145.180000
427.482941	145.820000
427.576630	145.860000
427.670258	145.160000
427.763947	145.140000
427.857574	145.480000
427.951263	145.340000
428.044922	145.180000
428.138611	145.400000
428.232239	145.800000
428.325928	146.040000
428.419556	146.600000
428.513245	146.440000
428.606903	146.800000
428.700562	146.100000
428.794220	145.480000
428.887878	144.640000
428.981537	144.740000
429.075195	144.660000
429.168854	145.380000
429.262512	145.500000
429.356201	145.940000
429.449860	145.960000
429.543518	145.800000
429.637177	145.700000
429.730835	145.660000
429.824493	145.640000
429.918182	145.860000
430.011810	145.700000
430.105530	144.900000
430.199158	145.320000
430.292847	144.720000
430.386475	144.300000
430.480164	144.040000
430.573792	144.180000
430.667511	144.060000
430.761139	144.400000
430.854828	145.200000
430.948456	145.340000
431.042145	145.940000
431.135834	145.520000
431.229492	146.040000
431.323151	146.120000
431.416809	146.020000
431.510468	145.840000
431.604156	145.660000
431.697815	145.520000
431.791473	144.700000
431.885132	144.700000
431.978821	144.960000
432.072479	145.480000
432.166138	145.560000
432.259827	145.700000
432.353485	146.140000
432.447174	146.020000
432.540802	145.820000
432.634491	145.700000
432.728149	146.160000
432.821838	146.560000
432.915466	146.300000
433.009186	146.440000
433.102814	145.900000
433.196503	145.200000
433.290131	144.940000
433.383850	145.120000
433.477509	145.180000
433.571167	146.460000
433.664856	147.120000
433.758514	147.300000
433.852173	147.140000
433.945862	147.040000
434.039520	146.360000
434.133179	145.800000
434.226868	145.680000
434.320526	145.380000
434.414185	146.040000
434.507874	145.640000
434.601562	146.080000
434.695221	145.800000
434.788910	146.460000
434.882538	146.140000
434.976257	145.960000
435.069885	145.800000
435.163574	145.920000
435.257233	145.360000
435.350922	145.480000
435.444580	145.300000
435.538269	145.020000
435.631897	145.240000
435.725616	145.740000
435.819275	146.160000
435.912964	147.040000
436.006622	147.820000
436.100311	147.780000
436.193970	147.000000
436.287628	146.160000
436.381317	145.660000
436.474976	144.880000
436.568665	144.600000
436.662323	145.000000
436.756012	145.420000
436.849670	145.480000
436.943390	145.700000
437.037018	146.040000
437.130737	145.960000
437.224365	145.460000
437.318085	145.480000
437.411713	145.460000
437.505432	145.420000
437.599060	146.020000
437.692780	146.920000
437.786407	146.700000
437.880127	146.720000
437.973755	146.240000
438.067474	145.640000
438.161133	145.140000
438.254822	145.820000
438.348480	145.760000
438.442169	146.520000
438.535828	146.860000
438.629517	146.360000
438.723175	145.840000
438.816864	146.340000
438.910553	145.560000
439.004211	145.060000
439.097900	145.100000
439.191559	145.160000
439.285248	144.360000
439.378906	144.900000
439.472626	145.160000
439.566284	145.060000
439.659973	145.680000
439.753632	145.880000
439.847321	145.940000
439.940979	145.900000
440.034698	146.320000
440.128326	145.400000
440.222046	145.440000
440.315674	144.880000
440.409393	145.340000
440.503082	144.940000
440.596741	145.560000
440.690430	145.960000
440.784088	145.920000
440.877777	145.340000
440.971466	145.760000
441.065125	145.280000
441.158813	144.900000
441.252502	145.000000
441.346161	145.360000
441.439850	145.400000
441.533539	145.460000
441.627197	145.420000
441.720886	145.360000
441.814606	145.380000
441.908234	145.640000
442.001953	145.520000
442.095612	146.000000
442.189301	146.320000
442.282959	146.540000
442.376678	145.960000
442.470306	146.660000
442.564026	146.260000
442.657684	146.360000
442.751404	145.920000
442.845032	146.680000
442.938751	145.960000
443.032440	145.920000
443.126099	145.600000
443.219788	146.160000
443.313477	145.660000
443.407166	146.140000
443.500824	146.220000
443.594513	146.400000
443.688202	145.980000
443.781891	145.260000
443.875549	144.740000
443.969238	144.600000
444.062927	144.540000
444.156647	144.520000
444.250275	145.360000
444.343994	145.740000
444.437653	146.040000
444.531372	145.860000
444.625031	145.620000
444.718719	145.060000
444.812378	145.020000
444.906097	144.720000
444.999756	144.460000
445.093445	144.720000
445.187103	145.140000
445.280823	145.660000
445.374512	145.200000
445.468201	145.620000
445.561859	145.560000
445.655548	145.640000
445.749237	144.800000
445.842926	145.180000
445.936615	145.480000
446.030304	145.200000
446.123962	145.440000
446.217651	145.600000
446.311340	145.760000
446.405029	145.060000
446.498749	144.720000
446.592407	144.160000
446.686096	144.640000
446.779755	144.780000
446.873474	145.100000
446.967133	145.500000
447.060852	145.360000
447.154510	144.880000
447.248230	144.800000
447.341858	144.880000
447.435577	144.560000
447.529236	144.500000
447.622955	144.580000
447.716644	144.460000
447.810333	144.580000
447.904022	145.180000
447.997711	145.320000
448.091400	145.340000
448.185059	145.660000
448.278748	145.740000
448.372437	145.360000
448.466125	145.680000
448.559814	145.740000
448.653503	145.800000
448.747192	145.900000
448.840912	146.560000
448.934570	146.340000
449.028290	146.640000
449.121948	146.440000
449.215637	146.060000
449.309296	145.460000
449.403015	145.720000
449.496674	145.620000
449.590393	145.580000
449.684052	145.340000
449.777771	146.320000
449.871429	145.740000
449.965149	145.600000
450.058838	145.520000
450.152527	146.160000
450.246216	145.640000
450.339905	145.600000
450.433594	145.280000
450.527283	146.020000
450.620972	145.620000
450.714661	145.480000
450.808350	146.020000
450.902039	146.460000
450.995728	145.920000
451.089417	145.940000
451.183105	145.900000
451.276794	146.360000
451.370514	145.540000
451.464172	145.020000
451.557892	145.000000
451.651550	145.340000
451.745270	144.480000
451.838928	144.640000
451.932648	145.160000
452.026306	145.560000
452.120026	145.200000
452.213684	145.940000
452.307404	146.060000
452.401062	146.040000
452.494781	145.880000
452.588470	145.700000
452.682159	144.820000
452.775848	145.100000
452.869537	144.480000
452.963226	144.360000
453.056915	144.320000
453.150604	144.600000
453.244293	144.600000
453.337982	145.580000
453.431671	145.880000
453.525360	146.420000
453.619049	146.540000
453.712769	146.460000
453.806427	145.840000
453.900146	145.420000
453.993805	145.140000
454.087555	145.500000
454.181213	145.680000
454.274933	145.680000
454.368591	145.840000
454.462311	145.860000
454.555969	145.180000
454.649689	145.760000
454.743347	145.740000
454.837067	146.320000
454.930756	146.680000
455.024445	147.280000
455.118134	146.620000
455.211853	147.000000
455.305542	146.240000
455.399231	145.780000
455.492920	145.640000
455.586609	145.780000
455.680298	145.620000
455.773987	145.420000
455.867676	145.580000
455.961365	145.460000
456.055084	145.180000
456.148773	144.860000
456.242493	145.140000
456.336151	145.020000
456.429871	145.600000
456.523529	146.200000
456.617249	146.200000
456.710907	146.920000
456.804626	146.980000
456.898315	146.140000
456.992035	145.500000
457.085693	145.380000
457.179413	144.280000
457.273102	144.960000
457.366791	145.080000
457.460480	145.940000
457.554199	147.160000
457.647888	147.520000
457.741577	146.580000
457.835266	146.880000
457.928955	146.520000
458.022644	146.300000
458.116364	146.600000
458.210052	147.060000
458.303741	147.040000
458.397461	146.440000
458.491119	145.280000
458.584839	145.180000
458.678528	144.640000
458.772247	144.400000
458.865906	144.700000
458.959625	146.080000
459.053284	145.860000
459.147003	145.920000
459.240692	146.420000
459.334412	146.220000
459.428070	145.340000
459.521790	145.360000
459.615479	145.380000
459.709198	145.640000
459.802887	145.600000
459.896576	145.520000
459.990265	145.500000
460.083954	145.700000
460.177673	145.140000
460.271362	145.340000
460.365051	145.340000
460.458740	145.400000
460.552429	144.880000
460.646149	144.540000
460.739838	144.180000
460.833527	144.160000
460.927246	143.780000
461.020905	144.060000
461.114655	144.200000
461.208313	144.820000
461.302032	144.700000
461.395691	145.220000
461.489441	145.360000
461.583099	145.420000
461.676819	145.100000
461.770477	145.500000
461.864197	145.060000
461.957916	144.800000
462.051605	144.480000
462.145294	145.140000
462.238983	144.900000
462.332703	145.540000
462.426392	146.200000
462.520081	146.420000
462.613770	145.940000
462.707489	146.300000
462.801178	145.820000
462.894867	145.500000
462.988556	145.600000
463.082275	145.480000
463.175964	145.060000
463.269684	145.300000
463.363342	145.260000
463.457092	144.620000
463.550751	144.760000
463.644470	144.940000
463.738129	144.520000
463.831879	144.600000
463.925537	145.580000
464.019257	145.620000
464.112946	145.400000
464.206665	145.700000
464.300323	145.380000
464.394043	145.160000
464.487762	145.080000
464.581451	145.100000
464.675140	145.020000
464.768829	145.480000
464.862549	145.480000
464.956238	145.580000
465.049927	145.540000
465.143646	145.780000
465.237335	145.520000
465.331024	145.920000
465.424713	145.760000
465.518433	146.180000
465.612152	145.800000
465.705811	146.160000
465.799561	145.680000
465.893219	145.420000
465.986938	145.140000
466.080597	144.980000
466.174347	145.000000
466.268005	144.980000
466.361725	145.300000
466.455414	145.400000
466.549133	145.500000
466.642792	145.500000
466.736542	145.500000
466.830231	145.380000
466.923920	145.320000
467.017609	145.680000
467.111328	145.080000
467.205017	144.860000
467.298706	145.140000
467.392426	145.260000
467.486115	145.020000
467.579803	144.900000
467.673523	145.460000
467.767212	145.520000
467.860901	145.400000
467.954651	145.620000
468.048309	146.100000
468.142029	145.900000
468.235718	145.480000
468.329437	144.980000
468.423096	145.020000
468.516846	144.660000
468.610504	144.120000
468.704224	143.960000
468.797913	144.300000
468.891632	144.380000
468.985291	144.780000
469.079010	145.300000
469.172729	145.160000
469.266418	145.740000
469.360107	145.600000
469.453827	145.200000
469.547516	145.220000
469.641205	145.900000
469.734924	145.920000
469.828613	146.380000
469.922302	146.600000
470.016022	146.320000
470.109711	145.860000
470.203430	145.160000
470.297150	144.100000
470.390808	144.580000
470.484558	144.440000
470.578217	145.060000
470.671936	145.540000
470.765625	146.540000
470.859344	145.780000
470.953003	146.320000
471.046753	145.740000
471.140411	145.140000
471.234131	144.860000
471.327820	145.700000
471.421539	145.600000
471.515228	145.220000
471.608948	145.680000
471.702637	145.280000
471.796326	144.740000
471.890045	144.800000
471.983734	145.260000
472.077423	144.700000
472.171143	145.000000
472.264832	144.880000
472.358521	144.500000
472.452240	144.220000
472.545929	145.020000
472.639648	145.300000
472.733337	145.780000
472.827057	145.860000
472.920746	145.980000
473.014465	146.120000
473.108124	146.020000
473.201874	145.840000
473.295532	145.680000
473.389252	146.020000
473.482941	145.780000
473.576660	145.040000
473.670319	144.940000
473.764069	145.320000
473.857727	145.400000
473.951477	145.560000
474.045166	146.580000
474.138855	146.580000
474.232574	146.480000
474.326263	146.340000
474.419952	146.360000
474.513672	146.260000
474.607361	145.800000
474.701050	146.160000
474.794769	146.460000
474.888458	146.320000
474.982178	145.960000
475.075867	146.280000
475.169586	145.900000
475.263275	145.580000
475.356995	145.340000
475.450653	145.020000
475.544403	144.820000
475.638062	145.780000
475.731812	145.420000
475.825470	145.340000
475.919189	145.740000
476.012878	145.960000
476.106598	145.000000
476.200256	145.420000
476.294006	145.580000
476.387695	145.520000
476.481384	145.460000
476.575104	145.800000
476.668793	145.520000
476.762512	145.340000
476.856201	145.840000
476.949890	145.700000
477.043610	144.940000
477.137299	145.020000
477.230988	145.220000
477.324707	144.660000
477.418396	144.960000
477.512146	145.380000
477.605804	145.220000
477.699524	145.480000
477.793213	145.160000
477.886932	144.740000
477.980591	144.460000
478.074341	144.580000
478.167999	144.040000
478.261749	144.380000
478.355408	144.720000
478.449127	145.240000
478.542816	145.980000
478.636536	146.860000
478.730225	147.040000
478.823944	147.240000
478.917633	147.080000
479.011322	146.780000
479.105042	146.360000
479.198730	146.380000
479.292450	146.220000
479.386139	146.360000
479.479828	146.560000
479.573547	146.880000
479.667267	146.740000
479.760925	146.760000
479.854675	146.760000
479.948334	146.500000
480.042084	145.680000
480.135742	145.760000
480.229462	145.280000
480.323151	145.160000
480.416870	144.420000
480.510529	144.860000
480.604279	144.480000
480.697937	145.080000
480.791656	144.680000
480.885345	145.080000
480.979065	144.800000
481.072754	145.220000
481.166473	145.380000
481.260132	145.520000
481.353882	145.320000
481.447540	145.060000
481.541260	145.160000
481.635010	144.620000
481.728668	144.700000
481.822388	144.780000
481.916077	145.200000
482.009796	144.900000
482.103485	145.320000
482.197205	145.460000
482.290863	145.960000
482.384613	145.760000
482.478271	145.460000
482.571991	145.240000
482.665680	145.080000
482.759399	145.420000
482.853058	145.720000
482.946808	145.920000
483.040466	145.960000
483.134216	145.860000
483.227875	145.100000
483.321594	145.360000
483.415283	145.620000
483.509003	145.460000
483.602661	145.240000
483.696411	145.520000
483.790070	145.160000
483.883789	144.920000
483.977478	145.380000
484.071198	145.600000
484.164917	145.180000
484.258606	145.000000
484.352325	145.080000
484.445984	145.100000
484.539734	145.400000
484.633392	145.120000
484.727142	145.580000
484.820801	145.260000
484.914520	144.980000
485.008209	145.000000
485.101929	145.820000
485.195587	145.140000
485.289337	145.340000
485.382996	145.260000
485.476715	145.180000
485.570404	145.580000
485.664124	145.760000
485.757782	146.400000
485.851532	146.020000
485.945190	145.860000
486.038910	145.400000
486.132599	146.160000
486.226318	145.320000
486.319977	145.440000
486.413727	145.820000
486.507446	145.500000
486.601105	144.300000
486.694855	144.340000
486.788513	144.200000
486.882233	144.180000
486.975922	144.080000
487.069641	144.740000
487.163300	144.740000
487.257050	146.040000
487.350708	145.520000
487.444427	145.600000
487.538116	145.220000
487.631836	145.200000
487.725494	144.400000
487.819214	144.340000
487.912903	144.380000
488.006622	145.060000
488.100281	145.360000
488.194031	145.360000
488.287689	145.880000
488.381409	146.400000
488.475098	146.140000
488.568817	146.180000
488.662476	145.940000
488.756226	145.580000
488.849945	144.540000
488.943604	144.380000
489.037354	144.500000
489.131012	144.460000
489.224731	144.300000
489.318390	144.580000
489.412140	144.900000
489.505798	144.820000
489.599518	144.940000
489.693207	145.620000
489.786926	145.940000
489.880585	145.660000
489.974335	145.840000
490.067993	146.740000
490.161713	146.500000
490.255371	146.900000
490.349121	147.120000
490.442780	146.680000
490.536499	145.580000
490.630188	145.700000
490.723907	145.280000
490.817566	145.100000
490.911285	145.160000
491.004974	145.340000
491.098694	144.940000
491.192413	145.520000
491.286102	145.460000
491.379822	145.560000
491.473480	145.680000
491.567200	145.840000
491.660889	144.980000
491.754608	145.080000
491.848267	145.220000
491.941986	144.980000
492.035675	144.760000
492.129395	145.360000
492.223053	145.020000
492.316772	145.120000
492.410461	145.460000
492.504181	145.540000
492.597839	145.300000
492.691559	145.760000
492.785248	145.520000
492.878967	145.360000
492.972626	145.500000
493.066345	145.520000
493.160034	144.880000
493.253754	144.900000
493.347412	144.340000
493.441132	144.160000
493.534882	144.560000
493.628540	145.120000
493.722260	145.480000
493.815918	146.260000
493.909668	146.720000
494.003326	146.620000
494.097046	146.380000
494.190704	145.920000
494.284454	145.760000
494.378113	145.660000
494.471832	145.380000
494.565491	145.380000
494.659210	145.620000
494.752899	145.740000
494.846619	145.680000
494.940277	145.820000
495.033997	145.920000
495.127686	145.840000
495.221405	145.380000
495.315063	145.360000
495.408783	145.300000
495.502441	145.480000
495.596191	145.600000
495.689850	145.380000
495.783569	145.820000
495.877228	146.040000
495.970947	145.820000
496.064697	145.600000
496.158356	146.780000
496.252075	146.460000
496.345734	146.040000
496.439453	146.680000
496.533142	146.800000
496.626862	146.700000
496.720520	146.600000
496.814240	146.980000
496.907898	146.640000
497.001617	146.620000
497.095306	145.740000
497.189026	145.700000
497.282684	145.540000
497.376404	145.600000
497.470062	145.200000
497.563782	145.760000
497.657471	145.660000
497.751190	145.520000
497.844849	145.220000
497.938568	145.840000
498.032227	145.560000
498.125946	145.800000
498.219635	145.680000
498.313354	145.820000
498.407074	145.520000
498.500732	145.640000
498.594452	145.600000
498.688110	145.440000
498.781830	145.320000
498.875519	145.060000
498.969238	144.640000
499.062897	144.420000
499.156616	145.080000
499.250275	145.300000
499.343994	145.140000
499.437653	145.280000
499.531372	145.560000
499.625061	145.860000
499.718781	145.780000
499.812439	146.320000
499.906158	146.340000
499.999817	145.860000
500.093536	145.060000
500.187195	144.860000
500.280914	144.700000
500.374573	144.900000
500.468323	144.660000
500.561981	145.000000
500.655701	144.820000
500.749420	144.880000
500.843079	145.100000
500.936798	145.580000
501.030457	145.860000
501.124176	146.520000
501.217834	146.500000
501.311554	146.340000
501.405212	146.260000
501.498962	145.340000
501.592621	145.100000
501.686340	145.520000
501.779999	145.620000
501.873718	145.820000
501.967377	146.440000
502.061096	146.440000
502.154755	145.860000
502.248474	145.800000
502.342133	145.640000
502.435852	145.480000
502.529510	146.040000
502.623230	146.500000
502.716888	145.960000
502.810608	146.120000
502.904266	146.420000
502.997986	145.760000
503.091705	145.140000
503.185364	145.260000
503.279083	145.160000
503.372772	145.000000
503.466492	144.740000
503.560150	145.200000
503.653870	145.880000
503.747528	145.860000
503.841248	145.840000
503.934906	146.180000
504.028625	145.620000
504.122284	145.780000
504.216003	146.540000
504.309662	146.220000
504.403381	146.200000
504.497040	146.680000
504.590759	145.940000
504.684418	145.580000
504.778137	146.160000
504.871796	146.460000
504.965515	146.320000
505.059174	146.400000
505.152893	145.880000
505.246521	145.100000
505.340240	144.680000
505.433899	144.780000
505.527618	145.140000
505.621338	145.460000
505.714996	145.620000
505.808716	145.420000
505.902374	145.760000
505.996094	145.560000
506.089752	145.320000
506.183472	145.700000
506.277130	146.100000
506.370850	146.020000
506.464508	145.840000
506.558228	145.880000
506.651886	145.400000
506.745605	145.440000
506.839264	145.260000
506.932983	145.400000
507.026611	145.440000
507.120331	146.060000
507.213989	145.500000
507.307709	145.620000
507.401367	145.900000
507.495087	146.480000
507.588745	145.980000
507.682465	146.780000
507.776123	146.540000
507.869843	146.120000
507.963531	145.600000
508.057190	146.260000
508.150909	145.660000
508.244568	145.740000
508.338287	145.600000
508.431946	145.520000
508.525665	144.960000
508.619324	145.220000
508.713013	145.700000
508.806671	146.440000
508.900391	147.280000
508.994049	147.300000
509.087769	147.000000
509.181427	146.680000
509.275146	146.440000
509.368774	145.300000
509.462494	145.440000
509.556152	145.460000
509.649872	145.580000
509.743530	145.540000
509.837250	146.060000
509.930878	145.800000
510.024597	145.780000
510.118256	145.460000
510.211975	145.240000
510.305695	144.820000
510.399353	145.200000
510.493042	145.800000
510.586700	146.000000
510.680420	146.640000
510.774078	146.560000
510.867798	146.740000
510.961426	146.200000
511.055145	146.020000
511.148804	145.520000
511.242523	145.980000
511.336151	145.920000
511.429871	146.240000
511.523529	146.300000
511.617249	146.000000
511.710876	145.900000
511.804596	145.560000
511.898254	145.140000
511.991974	145.340000
512.085632	145.420000
512.179321	145.480000
512.272949	145.820000
512.366699	146.540000
512.460327	146.360000
512.554077	146.860000
512.647766	147.080000
512.741394	147.000000
512.835144	147.160000
512.928772	146.960000
513.022461	146.980000
513.116150	146.540000
513.209839	146.860000
513.303467	145.980000
513.397217	145.860000
513.490845	145.400000
513.584595	145.240000
513.678223	144.620000
513.771912	144.340000
513.865601	144.620000
513.959290	144.620000
514.052917	144.740000
514.146667	145.420000
514.240295	146.120000
514.333984	146.440000
514.427673	146.320000
514.521362	146.880000
514.614990	146.100000
514.708740	146.160000
514.802368	146.080000
514.896057	146.420000
514.989746	146.720000
515.083435	146.920000
515.177124	146.920000
515.270752	146.380000
515.364502	146.360000
515.458130	146.060000
515.551819	145.760000
515.645508	145.660000
515.739197	145.960000
515.832825	145.700000
515.926575	145.160000
516.020203	145.700000
516.113892	145.840000
516.207520	145.600000
516.301270	145.640000
516.394897	145.780000
516.488586	146.000000
516.582275	146.220000
516.675964	145.760000
516.769592	145.720000
516.863281	146.320000
516.956970	146.440000
517.050659	145.940000
517.144287	146.380000
517.238037	146.520000
517.331665	145.820000
517.425354	145.100000
517.519043	144.860000
517.612732	145.260000
517.706421	145.020000
517.800049	144.820000
517.893738	144.720000
517.987427	144.820000
518.081116	144.480000
518.174744	144.560000
518.268433	145.080000
518.362122	145.940000
518.455811	145.780000
518.549438	146.600000
518.643127	147.280000
518.736816	146.960000
518.830505	146.100000
518.924133	146.240000
519.017822	145.960000
519.111511	145.640000
519.205200	146.140000
519.298828	146.500000
519.392517	146.320000
519.486206	146.280000
519.579895	146.260000
519.673523	145.840000
519.767212	145.460000
519.860901	145.820000
519.954590	145.500000
520.048279	145.300000
520.141907	145.280000
520.235596	146.320000
520.329224	146.480000
520.422974	146.520000
520.516602	146.220000
520.610291	145.780000
520.703918	145.240000
520.797607	144.720000
520.891296	144.640000
520.984985	145.080000
521.078613	145.980000
521.172302	145.420000
521.265930	146.340000
521.359680	146.900000
521.453308	146.500000
521.546997	146.300000
521.640625	146.800000
521.734314	146.120000
521.827942	145.620000
521.921692	146.000000
522.015320	145.740000
522.109009	145.340000
522.202698	145.220000
522.296326	145.100000
522.390015	145.440000
522.483704	145.720000
522.577393	145.780000
522.671021	145.800000
522.764709	145.680000
522.858337	145.960000
522.952026	145.560000
523.045654	146.140000
523.139404	146.740000
523.233032	146.940000
523.326721	146.340000
523.420349	146.500000
523.514038	146.060000
523.607666	146.000000
523.701355	145.480000
523.795044	145.440000
523.888733	145.680000
523.982361	146.080000
524.076050	145.740000
524.169678	146.620000
524.263367	146.060000
524.356995	146.000000
524.450684	145.620000
524.544373	145.300000
524.638062	145.060000
524.731750	145.660000
524.825378	145.480000
524.919067	145.080000
525.012695	145.300000
525.106384	144.540000
525.200012	144.540000
525.293701	144.600000
525.387329	145.400000
525.481018	145.820000
525.574646	146.380000
525.668396	146.280000
525.762024	146.460000
525.855713	146.260000
525.949341	145.500000
526.043030	145.580000
526.136658	145.160000
526.230347	144.900000
526.323975	144.640000
526.417664	144.760000
526.511292	144.800000
526.604980	145.540000
526.698608	145.600000
526.792297	145.640000
526.885925	146.000000
526.979614	146.280000
527.073303	145.940000
527.166931	146.000000
527.260620	146.640000
527.354309	146.820000
527.447998	146.520000
527.541626	146.500000
527.635315	146.540000
527.728943	146.440000
527.822632	146.660000
527.916260	146.680000
528.009949	146.840000
528.103577	146.420000
528.197266	145.780000
528.290894	145.660000
528.384583	145.540000
528.478210	145.340000
528.571899	145.940000
528.665527	146.200000
528.759216	146.020000
528.852844	146.220000
528.946533	146.140000
529.040161	145.840000
529.133850	145.540000
529.227478	145.760000
529.321167	146.120000
529.414856	146.640000
529.508484	146.880000
529.602173	146.800000
529.695801	146.500000
529.789490	146.280000
529.883057	145.960000
529.976746	146.260000
530.070374	146.660000
530.164062	146.760000
530.257690	146.640000
530.351379	146.640000
530.445007	145.960000
530.538696	145.220000
530.632324	145.440000
530.726013	145.360000
530.819641	145.320000
530.913330	145.860000
531.006958	146.300000
531.100647	146.180000
531.194275	146.080000
531.287964	145.940000
531.381592	145.400000
531.475220	145.400000
531.568848	145.000000
531.662537	144.940000
531.756226	145.460000
531.849854	145.500000
531.943542	145.580000
532.037170	145.260000
532.130859	145.740000
532.224487	145.300000
532.318176	145.060000
532.411804	145.520000
532.505432	145.960000
532.599060	145.520000
532.692749	145.440000
532.786377	145.900000
532.880066	145.060000
532.973694	144.460000
533.067383	144.540000
533.161011	144.600000
533.254639	144.460000
533.348267	144.380000
533.441956	145.100000
533.535583	144.960000
533.629272	145.120000
533.722900	144.640000
533.816589	144.880000
533.910156	144.960000
534.003845	144.720000
534.097534	144.700000
534.191162	145.640000
534.284851	146.080000
534.378479	145.820000
534.472107	146.100000
534.565735	146.100000
534.659424	145.720000
534.753052	145.420000
534.846741	145.200000
534.940369	145.580000
535.033997	145.500000
535.127625	145.480000
535.221313	145.880000
535.314941	145.860000
535.408630	145.220000
535.502197	145.540000
535.595886	145.540000
535.689514	145.080000
535.783203	145.520000
535.876831	146.240000
535.970459	146.040000
536.064087	145.700000
536.157776	145.720000
536.251404	145.600000
536.345093	145.120000
536.438721	144.980000
536.532349	145.140000
536.626038	144.900000
536.719666	145.260000
536.813293	145.420000
536.906921	145.380000
537.000610	145.620000
537.094238	146.040000
537.187866	145.540000
537.281494	145.340000
537.375183	145.600000
537.468811	145.560000
537.562439	145.380000
537.656067	145.760000
537.749756	145.760000
537.843384	146.120000
537.937012	146.360000
538.030640	146.140000
538.124329	145.840000
538.217896	146.240000
538.311584	145.920000
538.405212	145.500000
538.498901	145.860000
538.592468	146.360000
538.686157	145.860000
538.779785	145.060000
538.873413	145.000000
538.967102	144.780000
539.060730	144.140000
539.154358	144.340000
539.247986	145.120000
539.341675	145.280000
539.435242	145.520000
539.528931	145.660000
539.622559	145.180000
539.716187	145.560000
539.809814	145.540000
539.903503	145.200000
539.997070	144.980000
540.090759	145.360000
540.184387	144.720000
540.278015	145.100000
540.371643	145.520000
540.465332	145.680000
540.558899	145.340000
540.652588	145.480000
540.746216	145.100000
540.839844	145.380000
540.933472	145.640000
541.027100	145.960000
541.120728	146.200000
541.214417	146.480000
541.308044	146.500000
541.401672	146.420000
541.495300	146.260000
541.588928	145.820000
541.682617	145.520000
541.776184	144.820000
541.869873	145.100000
541.963440	145.400000
542.057129	145.940000
542.150757	146.280000
542.244385	146.100000
542.338013	145.360000
542.431641	145.280000
542.525269	144.760000
542.618958	144.780000
542.712524	145.260000
542.806213	145.440000
542.899780	145.320000
542.993469	145.000000
543.087036	144.540000
543.180725	144.060000
543.274292	144.440000
543.367981	144.760000
543.461548	145.240000
543.555237	145.180000
543.648926	146.040000
543.742493	146.580000
543.836182	146.420000
543.929749	146.300000
544.023437	146.180000
544.117004	145.740000
544.210693	145.260000
544.304260	145.300000
544.397949	145.260000
544.491516	145.860000
544.585205	145.880000
544.678772	145.400000
544.772461	145.660000
544.866028	145.620000
544.959717	145.920000
545.053284	145.500000
545.146973	145.900000
545.240540	145.700000
545.334229	146.320000
545.427795	146.120000
545.521423	146.500000
545.615051	146.480000
545.708679	146.640000
545.802307	145.980000
545.895935	146.080000
545.989624	146.520000
546.083191	146.320000
546.176880	146.240000
546.270447	146.140000
546.364136	146.380000
546.457703	146.000000
546.551331	146.100000
546.644958	146.540000
546.738586	147.020000
546.832214	146.320000
546.925842	146.480000
547.019409	146.860000
547.113098	146.240000
547.206665	146.020000
547.300354	146.360000
547.393921	146.180000
547.487549	146.240000
547.581177	146.060000
547.674805	146.080000
547.768433	145.540000
547.862061	145.700000
547.955627	145.100000
548.049316	145.440000
548.142883	145.680000
548.236572	146.360000
548.330139	146.520000
548.423767	146.500000
548.517456	146.440000
548.611023	146.760000
548.704651	145.800000
548.798279	145.760000
548.891907	146.400000
548.985474	146.420000
549.079163	146.200000
549.172729	146.420000
549.266357	145.760000
549.359985	145.620000
549.453613	145.220000
549.547180	144.960000
549.640869	145.400000
549.734436	145.500000
549.828064	145.760000
549.921631	145.940000
550.015320	145.880000
550.108887	146.140000
550.202515	146.280000
550.296143	145.520000
550.389771	145.740000
550.483337	145.640000
550.576965	145.100000
550.670593	145.460000
550.764221	145.720000
550.857849	145.420000
550.951477	145.220000
551.045105	145.000000
551.138672	144.880000
551.232300	144.620000
551.325928	144.880000
551.419556	145.260000
551.513123	145.660000
551.606750	145.340000
551.700378	145.420000
551.794006	145.420000
551.887573	145.060000
551.981201	145.280000
552.074768	145.580000
552.168457	145.380000
552.262024	146.260000
552.355652	146.380000
552.449219	146.900000
552.542847	147.000000
552.636475	146.840000
552.730103	145.360000
552.823669	145.320000
552.917297	144.380000
553.010864	144.300000
553.104553	144.720000
553.198181	145.000000
553.291748	145.480000
553.385376	145.980000
553.478943	145.640000
553.572571	146.020000
553.666199	146.440000
553.759827	145.840000
553.853394	145.380000
553.947021	145.660000
554.040588	145.080000
554.134216	144.980000
554.227783	145.940000
554.321411	146.500000
554.415039	146.280000
554.508667	146.400000
554.602234	146.680000
554.695862	145.760000
554.789429	145.560000
554.883057	145.480000
554.976624	145.640000
555.070251	145.300000
555.163818	145.420000
555.257507	145.400000
555.351074	145.680000
555.444702	146.500000
555.538330	146.500000
555.631897	147.180000
555.725525	147.200000
555.819092	147.040000
555.912720	145.900000
556.006287	146.260000
556.099915	145.700000
556.193481	145.400000
556.287109	145.680000
556.380676	145.820000
556.474304	145.760000
556.567871	145.980000
556.661499	145.720000
556.755066	145.660000
556.848694	145.880000
556.942261	145.540000
557.035889	145.880000
557.129517	146.280000
557.223145	146.760000
557.316711	146.680000
557.410339	146.840000
557.503906	146.340000
557.597473	146.680000
557.691040	146.300000
557.784668	146.320000
557.878296	146.420000
557.971863	146.560000
558.065491	146.600000
558.159058	146.100000
558.252686	146.660000
558.346252	147.220000
558.439880	146.800000
558.533447	146.140000
558.627075	146.180000
558.720642	145.400000
558.814270	144.840000
558.907837	144.920000
559.001465	144.940000
559.095032	145.820000
559.188660	146.220000
559.282227	145.720000
559.375854	146.340000
559.469360	146.340000
559.562988	146.440000
559.656555	145.940000
559.750183	146.380000
559.843750	146.160000
559.937378	146.220000
560.030945	145.660000
560.124573	0.000000
560.218140	0.000000
560.311707	0.000000
560.405334	0.000000
560.498901	0.000000
560.592529	0.000000
560.686096	0.000000
560.779724	0.000000
560.873291	0.000000
560.966858	0.000000
561.060425	0.000000
561.154053	0.000000
561.247620	0.000000
561.341248	0.000000
561.434814	0.000000
561.528381	0.000000
561.621948	0.000000
561.715576	0.000000
561.809143	0.000000
561.902771	0.000000
561.996277	0.000000
562.089905	0.000000
562.183472	0.000000
562.277100	0.000000
