Model Number: SPM-002-B   
Serial Number: 70087108
Firmware Version: 004.15.4
Exposure Time: 100000.000000us
Data Taken on: 11-12-2020 18:52:10.697
Wavelength	Amplitude
221.570786	0.000000
221.663406	0.000000
221.756027	0.000000
221.848648	0.000000
221.941269	0.000000
222.033905	0.000000
222.126526	0.000000
222.219162	0.000000
222.311798	0.000000
222.404419	0.000000
222.497055	0.000000
222.589676	0.000000
222.682312	0.000000
222.774933	0.000000
222.867569	0.000000
222.960205	0.000000
223.052841	0.000000
223.145462	0.000000
223.238098	0.000000
223.330734	0.000000
223.423386	0.000000
223.516022	0.000000
223.608658	0.000000
223.701309	0.000000
223.793945	0.000000
223.886581	0.000000
223.979218	0.000000
224.071869	0.000000
224.164505	0.000000
224.257156	0.000000
224.349792	0.000000
224.442444	0.000000
224.535095	0.000000
224.627747	0.000000
224.720398	0.000000
224.813034	0.000000
224.905685	0.000000
224.998337	145.520000
225.090988	145.620000
225.183640	145.720000
225.276291	145.680000
225.368942	146.320000
225.461594	146.380000
225.554245	146.280000
225.646912	146.160000
225.739578	146.380000
225.832230	146.480000
225.924896	145.780000
226.017548	146.300000
226.110199	146.620000
226.202866	145.960000
226.295532	145.880000
226.388184	146.160000
226.480850	145.440000
226.573517	144.860000
226.666168	144.920000
226.758835	145.080000
226.851501	145.540000
226.944183	145.980000
227.036850	145.920000
227.129517	146.080000
227.222183	146.220000
227.314850	146.200000
227.407516	146.120000
227.500198	146.920000
227.592865	146.900000
227.685532	146.480000
227.778214	146.340000
227.870880	146.780000
227.963562	146.960000
228.056229	147.060000
228.148926	147.040000
228.241592	147.740000
228.334274	147.000000
228.426956	146.600000
228.519638	146.360000
228.612305	145.880000
228.704987	145.480000
228.797668	145.660000
228.890350	145.480000
228.983032	145.300000
229.075714	146.440000
229.168396	146.060000
229.261108	145.800000
229.353790	145.720000
229.446472	146.040000
229.539169	145.440000
229.631851	145.400000
229.724533	145.560000
229.817230	145.840000
229.909912	146.520000
230.002609	146.480000
230.095306	146.500000
230.187988	146.420000
230.280685	146.200000
230.373383	145.360000
230.466095	145.460000
230.558792	145.600000
230.651474	145.980000
230.744171	145.980000
230.836868	145.560000
230.929581	145.880000
231.022278	146.040000
231.114975	146.040000
231.207672	145.640000
231.300369	146.480000
231.393082	146.560000
231.485779	146.280000
231.578506	145.960000
231.671204	146.180000
231.763916	145.980000
231.856613	145.520000
231.949326	145.900000
232.042023	145.920000
232.134735	146.060000
232.227448	145.700000
232.320160	146.000000
232.412872	145.580000
232.505585	146.440000
232.598297	146.880000
232.691010	146.980000
232.783722	146.540000
232.876450	147.180000
232.969162	146.340000
233.061874	145.480000
233.154587	145.220000
233.247314	145.680000
233.340027	144.880000
233.432739	145.460000
233.525467	145.700000
233.618179	146.100000
233.710907	145.760000
233.803635	146.280000
233.896347	145.920000
233.989090	146.540000
234.081818	146.360000
234.174545	146.680000
234.267258	146.260000
234.359985	146.320000
234.452713	146.060000
234.545441	146.160000
234.638168	146.100000
234.730896	146.660000
234.823639	146.420000
234.916367	146.780000
235.009094	146.940000
235.101822	147.020000
235.194580	146.540000
235.287308	146.580000
235.380051	145.820000
235.472778	145.900000
235.565521	145.960000
235.658249	145.640000
235.750992	145.880000
235.843719	146.100000
235.936462	146.040000
236.029205	145.600000
236.121948	145.980000
236.214691	146.180000
236.307449	146.580000
236.400192	146.120000
236.492935	145.700000
236.585678	145.880000
236.678421	145.760000
236.771164	145.840000
236.863907	146.500000
236.956665	147.200000
237.049408	148.980000
237.142151	148.480000
237.234909	148.900000
237.327652	148.740000
237.420410	148.360000
237.513153	146.800000
237.605927	146.780000
237.698669	146.060000
237.791428	145.520000
237.884186	146.400000
237.976944	145.740000
238.069702	146.280000
238.162445	145.820000
238.255203	145.860000
238.347961	145.720000
238.440720	145.980000
238.533478	145.800000
238.626266	145.540000
238.719025	145.960000
238.811783	145.600000
238.904541	145.480000
238.997314	145.480000
239.090073	145.620000
239.182831	145.940000
239.275604	146.820000
239.368362	146.760000
239.461136	146.760000
239.553909	146.860000
239.646667	146.160000
239.739441	145.480000
239.832214	145.980000
239.925003	145.900000
240.017761	146.580000
240.110535	147.340000
240.203308	146.760000
240.296082	146.520000
240.388855	146.580000
240.481628	146.320000
240.574417	146.160000
240.667191	146.400000
240.759964	146.260000
240.852737	146.440000
240.945526	146.500000
241.038315	146.420000
241.131088	146.620000
241.223877	146.800000
241.316650	146.040000
241.409439	146.020000
241.502228	145.460000
241.595001	145.900000
241.687790	146.100000
241.780579	146.700000
241.873367	146.800000
241.966141	147.320000
242.058929	146.560000
242.151718	146.360000
242.244507	146.480000
242.337311	145.880000
242.430099	146.280000
242.522903	146.620000
242.615692	146.220000
242.708481	146.160000
242.801270	146.560000
242.894073	146.280000
242.986862	146.520000
243.079651	147.400000
243.172455	147.300000
243.265244	147.440000
243.358063	146.740000
243.450867	146.820000
243.543655	146.560000
243.636459	146.600000
243.729263	146.700000
243.822067	147.240000
243.914856	147.480000
244.007660	147.340000
244.100464	147.420000
244.193268	147.040000
244.286072	147.080000
244.378876	146.300000
244.471680	145.900000
244.564499	146.100000
244.657318	146.960000
244.750122	147.120000
244.842926	146.800000
244.935745	147.320000
245.028549	146.560000
245.121368	145.780000
245.214172	145.460000
245.306992	145.920000
245.399796	145.740000
245.492615	146.220000
245.585434	146.340000
245.678253	146.440000
245.771072	146.400000
245.863892	146.440000
245.956711	146.900000
246.049530	146.560000
246.142349	146.140000
246.235168	146.060000
246.327988	146.540000
246.420807	145.960000
246.513626	146.120000
246.606445	146.040000
246.699280	146.000000
246.792099	145.780000
246.884918	145.520000
246.977753	145.320000
247.070587	145.700000
247.163422	145.940000
247.256241	145.800000
247.349075	146.300000
247.441895	146.400000
247.534729	146.460000
247.627563	146.200000
247.720383	146.560000
247.813217	146.540000
247.906052	146.300000
247.998886	146.280000
248.091736	146.080000
248.184570	145.640000
248.277405	145.760000
248.370239	146.920000
248.463074	147.680000
248.555908	148.120000
248.648743	148.140000
248.741592	147.860000
248.834427	147.020000
248.927261	145.560000
249.020111	145.900000
249.112946	146.320000
249.205795	145.920000
249.298630	146.100000
249.391495	146.720000
249.484344	146.220000
249.577179	146.300000
249.670029	146.860000
249.762878	147.280000
249.855728	147.340000
249.948563	147.400000
250.041412	146.480000
250.134262	146.460000
250.227112	146.320000
250.319962	146.240000
250.412827	146.220000
250.505692	145.940000
250.598541	145.840000
250.691391	145.480000
250.784241	145.600000
250.877106	145.740000
250.969955	146.060000
251.062805	146.700000
251.155670	146.940000
251.248520	146.500000
251.341385	146.860000
251.434235	146.920000
251.527100	146.020000
251.619965	145.720000
251.712814	146.880000
251.805695	146.740000
251.898560	146.840000
251.991425	147.440000
252.084290	147.720000
252.177155	146.640000
252.270020	146.240000
252.362885	146.380000
252.455750	146.080000
252.548615	145.600000
252.641479	145.680000
252.734360	145.580000
252.827240	145.220000
252.920105	145.040000
253.012970	145.300000
253.105850	145.020000
253.198715	144.860000
253.291595	145.140000
253.384460	144.900000
253.477341	144.620000
253.570221	145.060000
253.663086	145.160000
253.755966	145.640000
253.848846	146.020000
253.941727	146.700000
254.034592	146.640000
254.127472	145.920000
254.220367	145.360000
254.313248	145.460000
254.406128	144.780000
254.499008	145.180000
254.591904	146.620000
254.684784	147.360000
254.777664	147.220000
254.870544	146.880000
254.963440	146.540000
255.056335	146.040000
255.149216	145.380000
255.242111	145.780000
255.334991	146.460000
255.427887	146.740000
255.520767	146.900000
255.613663	147.280000
255.706558	146.700000
255.799438	146.580000
255.892334	146.140000
255.985229	145.940000
256.078125	145.760000
256.171021	145.880000
256.263916	146.000000
256.356812	146.220000
256.449707	146.240000
256.542603	146.120000
256.635498	146.600000
256.728394	146.520000
256.821289	146.560000
256.914215	146.740000
257.007080	146.860000
257.100006	146.880000
257.192932	147.280000
257.285828	147.300000
257.378723	147.120000
257.471619	146.940000
257.564545	146.340000
257.657440	146.240000
257.750336	146.680000
257.843262	146.640000
257.936157	147.780000
258.029053	148.240000
258.121979	148.300000
258.214874	148.020000
258.307800	147.860000
258.400696	146.480000
258.493622	146.240000
258.586517	145.240000
258.679443	145.200000
258.772339	145.020000
258.865265	145.200000
258.958160	144.580000
259.051086	145.820000
259.144012	145.740000
259.236938	146.400000
259.329834	146.520000
259.422791	147.000000
259.515717	146.080000
259.608612	145.860000
259.701538	145.960000
259.794464	145.700000
259.887390	145.820000
259.980316	146.020000
260.073212	145.720000
260.166138	144.620000
260.259064	145.100000
260.351990	145.480000
260.444916	145.660000
260.537842	146.100000
260.630768	147.180000
260.723694	147.040000
260.816620	147.180000
260.909546	147.080000
261.002472	146.920000
261.095398	146.140000
261.188354	146.180000
261.281281	145.360000
261.374207	145.360000
261.467133	146.060000
261.560089	146.420000
261.653015	146.140000
261.745972	146.620000
261.838867	147.180000
261.931824	147.300000
262.024780	146.920000
262.117706	147.060000
262.210663	147.360000
262.303589	146.880000
262.396515	146.440000
262.489471	147.360000
262.582397	147.160000
262.675354	146.800000
262.768280	146.780000
262.861237	146.800000
262.954163	146.620000
263.047119	147.100000
263.140045	146.780000
263.233002	147.000000
263.325958	146.940000
263.418884	146.300000
263.511841	146.020000
263.604797	146.180000
263.697723	145.700000
263.790680	145.680000
263.883636	146.160000
263.976593	146.100000
264.069550	146.200000
264.162476	146.140000
264.255463	146.100000
264.348419	145.940000
264.441376	146.100000
264.534332	145.700000
264.627289	146.380000
264.720245	146.900000
264.813202	146.520000
264.906158	146.820000
264.999115	147.440000
265.092072	147.000000
265.185028	147.020000
265.277985	147.360000
265.370941	146.840000
265.463898	146.240000
265.556854	146.100000
265.649811	145.340000
265.742798	145.720000
265.835754	146.100000
265.928711	146.800000
266.021667	146.960000
266.114655	147.040000
266.207611	147.020000
266.300568	146.300000
266.393585	145.820000
266.486511	146.140000
266.579498	145.920000
266.672485	145.400000
266.765442	145.720000
266.858429	146.380000
266.951385	146.000000
267.044342	146.180000
267.137329	146.620000
267.230316	146.820000
267.323273	146.000000
267.416260	146.540000
267.509216	146.700000
267.602203	146.260000
267.695160	146.640000
267.788147	146.820000
267.881134	146.340000
267.974091	146.380000
268.067078	146.440000
268.160065	146.240000
268.253052	146.360000
268.346008	146.420000
268.438995	146.040000
268.531982	146.280000
268.624969	145.660000
268.717987	145.940000
268.810944	145.920000
268.903961	146.220000
268.996948	145.880000
269.089905	146.660000
269.182892	146.520000
269.275879	146.820000
269.368866	146.640000
269.461853	146.740000
269.554871	146.380000
269.647858	146.500000
269.740845	146.660000
269.833832	147.020000
269.926819	146.860000
270.019806	147.000000
270.112793	146.460000
270.205811	146.380000
270.298798	146.020000
270.391785	146.740000
270.484772	146.620000
270.577789	146.580000
270.670776	145.960000
270.763763	145.880000
270.856750	145.600000
270.949768	145.240000
271.042786	145.300000
271.135773	145.520000
271.228790	146.060000
271.321808	145.740000
271.414795	145.760000
271.507782	145.520000
271.600800	145.420000
271.693817	145.380000
271.786804	145.920000
271.879822	146.180000
271.972809	146.600000
272.065826	147.000000
272.158844	146.420000
272.251831	146.680000
272.344849	146.840000
272.437866	146.620000
272.530853	146.740000
272.623871	147.160000
272.716888	146.180000
272.809906	146.360000
272.902893	146.060000
272.995911	145.420000
273.088928	145.280000
273.181946	145.580000
273.274963	145.060000
273.367981	145.520000
273.460999	145.780000
273.554047	146.260000
273.647003	146.920000
273.740051	147.120000
273.833069	147.360000
273.926086	147.600000
274.019135	147.000000
274.112152	146.420000
274.205170	146.300000
274.298187	146.580000
274.391205	146.280000
274.484222	146.460000
274.577240	146.580000
274.670258	146.640000
274.763306	146.200000
274.856323	146.340000
274.949341	146.400000
275.042358	146.660000
275.135406	146.680000
275.228424	146.900000
275.321442	146.900000
275.414490	146.560000
275.507507	146.840000
275.600525	147.280000
275.693573	146.860000
275.786591	146.540000
275.879669	146.980000
275.972656	146.520000
276.065735	146.040000
276.158752	146.660000
276.251801	147.560000
276.344818	147.320000
276.437866	147.320000
276.530884	147.200000
276.623932	146.300000
276.716980	146.220000
276.809998	146.580000
276.903046	146.520000
276.996094	147.560000
277.089111	148.360000
277.182159	148.540000
277.275208	148.020000
277.368256	147.760000
277.461304	147.120000
277.554321	146.420000
277.647369	145.840000
277.740417	146.160000
277.833466	145.980000
277.926514	145.940000
278.019562	146.660000
278.112610	146.220000
278.205688	146.120000
278.298706	146.680000
278.391785	146.580000
278.484833	145.860000
278.577881	145.960000
278.670929	145.940000
278.763977	145.960000
278.857025	146.200000
278.950073	146.360000
279.043121	146.220000
279.136169	146.480000
279.229248	145.880000
279.322296	145.580000
279.415344	145.560000
279.508392	145.520000
279.601440	145.360000
279.694519	145.560000
279.787567	145.580000
279.880615	145.540000
279.973694	146.000000
280.066742	146.100000
280.159790	146.280000
280.252869	145.860000
280.345917	146.120000
280.438995	145.720000
280.532074	145.660000
280.625122	146.060000
280.718201	147.080000
280.811279	146.980000
280.904327	147.280000
280.997406	147.380000
281.090454	147.200000
281.183533	146.340000
281.276581	146.260000
281.369659	146.080000
281.462738	145.920000
281.555786	146.040000
281.648865	146.340000
281.741943	146.360000
281.835022	146.800000
281.928070	146.560000
282.021149	146.140000
282.114227	145.860000
282.207306	146.060000
282.300385	146.180000
282.393433	146.500000
282.486511	146.840000
282.579590	147.480000
282.672668	147.340000
282.765747	146.740000
282.858856	146.300000
282.951904	146.380000
283.045013	146.500000
283.138062	146.900000
283.231171	147.340000
283.324249	148.160000
283.417328	148.160000
283.510406	147.540000
283.603485	147.240000
283.696564	146.980000
283.789642	146.700000
283.882751	146.240000
283.975830	146.600000
284.068909	146.460000
284.161987	147.240000
284.255066	146.880000
284.348175	146.880000
284.441254	146.840000
284.534332	147.060000
284.627441	146.460000
284.720520	146.420000
284.813599	146.420000
284.906708	146.280000
284.999786	145.860000
285.092896	145.580000
285.185974	146.800000
285.279053	146.340000
285.372192	146.500000
285.465240	147.340000
285.558380	147.340000
285.651459	146.260000
285.744568	147.360000
285.837677	146.960000
285.930756	146.380000
286.023865	146.620000
286.116943	146.420000
286.210052	146.260000
286.303162	146.340000
286.396240	146.460000
286.489349	146.120000
286.582458	146.620000
286.675568	146.420000
286.768646	146.680000
286.861755	147.300000
286.954865	148.280000
287.047974	147.920000
287.141083	147.700000
287.234161	147.660000
287.327271	146.960000
287.420380	147.080000
287.513519	147.120000
287.606598	147.360000
287.699738	147.500000
287.792816	147.380000
287.885956	146.580000
287.979034	146.320000
288.072174	146.180000
288.165283	145.740000
288.258392	146.260000
288.351501	145.780000
288.444611	145.920000
288.537720	146.400000
288.630859	146.680000
288.723969	146.440000
288.817078	147.120000
288.910187	147.300000
289.003296	146.420000
289.096436	146.320000
289.189545	146.040000
289.282654	145.300000
289.375763	145.420000
289.468903	146.240000
289.562012	146.320000
289.655121	146.660000
289.748260	147.340000
289.841400	147.780000
289.934509	147.200000
290.027649	147.480000
290.120728	147.260000
290.213898	147.320000
290.306976	146.480000
290.400146	146.760000
290.493256	146.060000
290.586395	146.220000
290.679535	146.380000
290.772644	146.560000
290.865784	145.880000
290.958893	146.180000
291.052032	146.140000
291.145172	145.880000
291.238281	145.680000
291.331421	146.240000
291.424561	146.600000
291.517670	146.480000
291.610809	146.620000
291.703949	147.040000
291.797089	147.180000
291.890228	146.680000
291.983337	146.660000
292.076477	146.360000
292.169617	146.120000
292.262756	146.120000
292.355927	146.200000
292.449036	145.980000
292.542206	146.160000
292.635315	146.620000
292.728485	146.700000
292.821625	146.260000
292.914764	147.340000
293.007904	147.400000
293.101044	147.160000
293.194183	147.220000
293.287323	147.800000
293.380463	146.960000
293.473602	146.480000
293.566742	146.500000
293.659882	146.840000
293.753021	146.740000
293.846191	146.840000
293.939331	147.020000
294.032471	147.080000
294.125610	146.280000
294.218781	146.660000
294.311920	146.760000
294.405060	146.720000
294.498230	146.660000
294.591370	146.980000
294.684540	146.160000
294.777679	145.940000
294.870850	146.320000
294.963959	145.960000
295.057159	145.880000
295.150299	146.480000
295.243469	146.380000
295.336609	145.840000
295.429779	145.860000
295.522919	146.200000
295.616089	146.240000
295.709229	146.900000
295.802399	147.240000
295.895569	146.940000
295.988708	146.400000
296.081879	146.340000
296.175018	145.640000
296.268188	145.580000
296.361359	146.300000
296.454529	146.760000
296.547668	146.600000
296.640839	146.960000
296.734009	146.780000
296.827179	146.740000
296.920319	146.880000
297.013519	146.680000
297.106659	146.760000
297.199860	146.820000
297.292999	146.720000
297.386200	146.120000
297.479309	146.280000
297.572510	146.140000
297.665680	145.680000
297.758850	145.400000
297.852020	145.580000
297.945190	145.400000
298.038361	145.020000
298.131531	146.340000
298.224701	146.400000
298.317871	146.300000
298.411072	146.140000
298.504242	146.040000
298.597412	145.260000
298.690582	145.640000
298.783752	145.380000
298.876923	146.160000
298.970093	146.460000
299.063293	146.620000
299.156464	146.880000
299.249634	147.400000
299.342834	147.120000
299.436005	147.420000
299.529205	147.520000
299.622345	147.400000
299.715576	146.760000
299.808716	146.660000
299.901917	146.560000
299.995117	146.620000
300.088287	146.600000
300.181488	146.580000
300.274658	146.500000
300.367828	146.680000
300.461029	146.400000
300.554199	146.620000
300.647400	147.040000
300.740601	147.340000
300.833771	146.940000
300.926971	147.440000
301.020142	146.680000
301.113342	146.700000
301.206512	146.580000
301.299713	146.800000
301.392914	146.480000
301.486084	147.040000
301.579285	146.680000
301.672516	146.820000
301.765686	146.680000
301.858887	146.480000
301.952057	146.180000
302.045288	146.300000
302.138458	146.080000
302.231659	145.800000
302.324860	145.900000
302.418060	145.820000
302.511261	146.000000
302.604462	146.300000
302.697662	146.420000
302.790863	146.140000
302.884064	145.980000
302.977264	145.900000
303.070465	146.000000
303.163666	146.920000
303.256866	147.420000
303.350067	147.640000
303.443268	147.680000
303.536469	147.340000
303.629669	146.500000
303.722870	146.440000
303.816071	145.980000
303.909271	145.980000
304.002472	145.620000
304.095673	145.420000
304.188934	144.820000
304.282104	145.940000
304.375336	145.740000
304.468506	145.720000
304.561768	145.600000
304.654968	145.940000
304.748169	145.280000
304.841370	145.000000
304.934601	145.640000
305.027802	145.660000
305.121002	145.820000
305.214233	145.860000
305.307434	146.220000
305.400665	146.780000
305.493866	146.780000
305.587097	146.780000
305.680298	146.620000
305.773499	147.540000
305.866730	147.000000
305.959930	147.520000
306.053162	148.000000
306.146393	147.820000
306.239594	146.420000
306.332825	146.160000
306.426025	146.420000
306.519287	145.780000
306.612488	146.180000
306.705719	146.820000
306.798920	146.880000
306.892181	146.080000
306.985352	145.780000
307.078613	145.160000
307.171844	145.360000
307.265045	144.960000
307.358276	144.560000
307.451508	145.100000
307.544739	145.920000
307.637970	145.460000
307.731201	145.380000
307.824402	146.240000
307.917633	146.120000
308.010864	146.400000
308.104095	146.920000
308.197327	147.260000
308.290558	147.500000
308.383789	147.280000
308.477020	146.860000
308.570251	146.160000
308.663483	145.880000
308.756714	145.620000
308.849976	145.580000
308.943176	145.880000
309.036438	146.120000
309.129639	146.000000
309.222900	145.920000
309.316101	146.100000
309.409393	145.580000
309.502625	145.200000
309.595856	145.760000
309.689087	145.780000
309.782318	145.680000
309.875580	145.760000
309.968811	146.180000
310.062042	145.700000
310.155273	145.600000
310.248535	146.100000
310.341766	145.900000
310.434998	145.800000
310.528259	145.880000
310.621490	146.380000
310.714722	145.640000
310.807983	145.660000
310.901215	145.480000
310.994476	145.720000
311.087708	145.160000
311.181000	145.620000
311.274200	145.560000
311.367462	145.720000
311.460693	145.340000
311.553986	146.140000
311.647186	146.200000
311.740479	146.640000
311.833710	146.260000
311.926971	146.200000
312.020203	145.380000
312.113464	145.120000
312.206726	144.720000
312.299957	145.380000
312.393219	146.060000
312.486481	146.080000
312.579712	146.100000
312.672974	146.100000
312.766235	145.780000
312.859497	145.600000
312.952759	145.560000
313.045990	146.100000
313.139252	145.480000
313.232513	145.800000
313.325775	145.980000
313.419037	145.900000
313.512299	145.280000
313.605530	146.280000
313.698822	146.320000
313.792053	146.300000
313.885345	146.320000
313.978577	146.440000
314.071869	145.680000
314.165131	145.680000
314.258392	145.460000
314.351654	145.700000
314.444916	145.140000
314.538177	145.980000
314.631439	146.260000
314.724701	146.320000
314.817993	146.040000
314.911255	146.600000
315.004517	146.060000
315.097778	145.840000
315.191040	145.920000
315.284302	146.340000
315.377594	146.180000
315.470856	146.180000
315.564117	145.480000
315.657379	145.120000
315.750671	144.680000
315.843933	144.920000
315.937195	144.740000
316.030518	145.040000
316.123749	145.200000
316.217041	145.980000
316.310303	145.640000
316.403595	146.060000
316.496857	146.400000
316.590149	146.680000
316.683411	145.840000
316.776703	145.860000
316.869965	145.440000
316.963257	145.180000
317.056519	144.460000
317.149811	144.560000
317.243073	144.460000
317.336365	144.560000
317.429626	144.940000
317.522919	145.640000
317.616180	145.780000
317.709473	145.680000
317.802765	145.980000
317.896027	145.620000
317.989319	145.880000
318.082611	145.500000
318.175873	145.580000
318.269165	145.500000
318.362488	145.580000
318.455750	145.080000
318.549042	145.640000
318.642303	146.280000
318.735626	145.940000
318.828888	146.180000
318.922211	145.680000
319.015472	146.020000
319.108765	145.240000
319.202057	145.100000
319.295349	145.160000
319.388641	145.360000
319.481934	144.800000
319.575226	144.940000
319.668518	145.520000
319.761810	145.520000
319.855103	145.600000
319.948395	146.020000
320.041687	146.380000
320.134979	146.380000
320.228271	146.040000
320.321564	146.200000
320.414856	146.280000
320.508148	145.860000
320.601440	145.640000
320.694763	145.600000
320.788025	146.380000
320.881348	146.040000
320.974640	146.380000
321.067963	145.880000
321.161224	145.960000
321.254547	145.100000
321.347839	145.780000
321.441162	145.320000
321.534454	145.980000
321.627747	145.720000
321.721069	146.780000
321.814362	146.720000
321.907654	147.240000
322.000946	146.880000
322.094269	147.720000
322.187561	146.900000
322.280884	146.620000
322.374176	146.660000
322.467468	147.300000
322.560791	146.840000
322.654083	147.200000
322.747406	147.220000
322.840698	147.400000
322.934021	147.420000
323.027344	148.020000
323.120636	147.480000
323.213959	147.580000
323.307251	146.800000
323.400574	146.620000
323.493866	145.760000
323.587219	145.940000
323.680511	145.820000
323.773834	146.200000
323.867157	146.120000
323.960449	146.420000
324.053772	146.180000
324.147095	146.360000
324.240387	146.740000
324.333710	146.760000
324.427032	146.800000
324.520355	147.040000
324.613647	146.480000
324.706970	146.300000
324.800293	146.100000
324.893616	146.180000
324.986938	146.280000
325.080231	146.180000
325.173553	146.260000
325.266876	147.040000
325.360199	146.980000
325.453522	146.200000
325.546875	146.400000
325.640167	146.720000
325.733521	146.520000
325.826813	146.760000
325.920166	147.260000
326.013489	147.060000
326.106812	145.920000
326.200134	145.280000
326.293457	144.540000
326.386780	144.660000
326.480103	144.840000
326.573425	145.280000
326.666748	145.440000
326.760071	146.000000
326.853424	145.880000
326.946747	145.700000
327.040070	146.420000
327.133392	146.160000
327.226715	145.740000
327.320068	145.460000
327.413391	146.140000
327.506714	145.300000
327.600037	145.340000
327.693390	145.620000
327.786713	145.980000
327.880066	145.700000
327.973358	145.980000
328.066742	146.340000
328.160034	146.240000
328.253418	146.160000
328.346710	145.900000
328.440063	145.460000
328.533417	144.980000
328.626740	145.380000
328.720093	145.300000
328.813416	145.360000
328.906769	145.800000
329.000092	146.260000
329.093445	146.140000
329.186768	146.240000
329.280121	146.500000
329.373444	146.820000
329.466797	146.780000
329.560120	146.560000
329.653473	146.500000
329.746796	146.000000
329.840149	145.700000
329.933502	145.780000
330.026825	145.680000
330.120178	145.600000
330.213562	145.620000
330.306854	145.720000
330.400238	145.920000
330.493561	145.900000
330.586945	146.800000
330.680237	147.320000
330.773621	147.420000
330.866974	147.160000
330.960327	147.320000
331.053680	146.520000
331.147003	146.440000
331.240356	146.460000
331.333710	146.480000
331.427063	146.340000
331.520416	146.340000
331.613770	145.960000
331.707123	145.940000
331.800476	146.120000
331.893829	147.100000
331.987152	147.160000
332.080505	147.460000
332.173859	147.120000
332.267212	146.480000
332.360565	145.280000
332.453918	145.140000
332.547333	144.880000
332.640656	145.160000
332.734039	145.580000
332.827362	145.820000
332.920746	146.240000
333.014069	146.620000
333.107452	146.940000
333.200806	147.020000
333.294159	147.360000
333.387543	146.980000
333.480896	146.360000
333.574249	146.000000
333.667603	145.820000
333.760956	145.840000
333.854340	145.720000
333.947693	145.900000
334.041046	146.040000
334.134430	146.080000
334.227783	145.640000
334.321136	145.560000
334.414520	145.480000
334.507874	145.500000
334.601227	145.480000
334.694611	145.420000
334.787964	145.760000
334.881348	146.180000
334.974701	146.100000
335.068085	145.980000
335.161438	146.460000
335.254822	146.460000
335.348175	146.340000
335.441559	146.060000
335.534943	146.840000
335.628296	146.360000
335.721680	146.220000
335.815033	146.420000
335.908417	146.560000
336.001770	146.020000
336.095154	146.020000
336.188538	145.840000
336.281891	145.200000
336.375275	145.180000
336.468658	145.080000
336.562012	145.180000
336.655396	145.560000
336.748779	145.980000
336.842133	146.060000
336.935516	146.100000
337.028900	145.920000
337.122284	145.860000
337.215637	146.080000
337.309021	145.920000
337.402435	145.780000
337.495789	145.800000
337.589203	145.660000
337.682526	145.240000
337.775940	145.560000
337.869324	145.660000
337.962708	145.160000
338.056091	145.460000
338.149475	145.420000
338.242859	145.420000
338.336243	145.120000
338.429626	145.980000
338.523010	145.820000
338.616394	145.580000
338.709778	145.760000
338.803162	146.080000
338.896545	145.980000
338.989929	145.640000
339.083313	146.100000
339.176697	145.640000
339.270081	145.440000
339.363464	145.620000
339.456848	145.920000
339.550232	145.380000
339.643616	145.340000
339.737030	145.400000
339.830383	145.140000
339.923828	145.560000
340.017181	145.960000
340.110596	146.160000
340.203949	146.140000
340.297363	146.240000
340.390778	145.660000
340.484161	145.780000
340.577545	145.760000
340.670959	145.960000
340.764343	145.580000
340.857727	145.720000
340.951111	145.140000
341.044525	145.140000
341.137909	144.680000
341.231293	144.940000
341.324707	144.560000
341.418091	145.700000
341.511505	145.780000
341.604889	146.300000
341.698303	146.520000
341.791687	147.140000
341.885071	146.360000
341.978485	145.860000
342.071899	145.920000
342.165283	146.020000
342.258698	146.180000
342.352081	146.580000
342.445496	147.360000
342.538879	146.940000
342.632324	146.540000
342.725708	146.240000
342.819122	145.660000
342.912506	145.120000
343.005920	145.240000
343.099335	146.140000
343.192719	146.020000
343.286133	146.200000
343.379547	146.440000
343.472931	146.460000
343.566345	145.920000
343.659760	146.140000
343.753143	145.940000
343.846558	145.620000
343.939972	145.680000
344.033386	145.860000
344.126770	145.480000
344.220184	145.800000
344.313599	146.160000
344.407043	146.320000
344.500427	145.700000
344.593872	146.320000
344.687225	145.960000
344.780670	145.540000
344.874054	145.160000
344.967499	145.720000
345.060913	145.480000
345.154327	145.720000
345.247742	145.480000
345.341156	145.420000
345.434570	145.000000
345.527985	144.920000
345.621399	144.760000
345.714813	145.100000
345.808228	145.420000
345.901642	145.140000
345.995056	145.020000
346.088470	145.580000
346.181885	145.720000
346.275299	145.520000
346.368713	145.580000
346.462128	145.260000
346.555573	144.880000
346.648987	144.920000
346.742401	144.980000
346.835815	145.760000
346.929260	145.780000
347.022644	145.640000
347.116119	145.800000
347.209503	145.960000
347.302948	146.300000
347.396362	147.100000
347.489807	147.620000
347.583221	148.080000
347.676636	148.000000
347.770050	146.480000
347.863495	145.800000
347.956909	145.340000
348.050323	144.480000
348.143768	144.400000
348.237183	145.080000
348.330597	145.800000
348.424042	146.260000
348.517456	147.020000
348.610901	147.280000
348.704315	147.240000
348.797760	146.000000
348.891174	145.420000
348.984619	144.460000
349.078033	144.740000
349.171448	145.180000
349.264923	145.680000
349.358337	145.940000
349.451782	146.520000
349.545197	145.640000
349.638641	145.400000
349.732086	145.080000
349.825500	145.440000
349.918945	145.000000
350.012390	145.580000
350.105804	145.840000
350.199249	146.180000
350.292664	146.140000
350.386108	146.280000
350.479553	146.760000
350.572968	146.720000
350.666412	146.880000
350.759857	146.760000
350.853302	147.320000
350.946716	146.440000
351.040161	146.220000
351.133606	146.120000
351.227081	145.800000
351.320465	146.180000
351.413940	146.460000
351.507355	146.620000
351.600830	146.900000
351.694244	146.600000
351.787720	146.180000
351.881104	146.220000
351.974579	145.780000
352.067993	146.260000
352.161469	146.520000
352.254883	145.900000
352.348358	145.720000
352.441803	146.060000
352.535248	145.460000
352.628693	145.880000
352.722137	145.880000
352.815582	146.140000
352.909027	146.000000
353.002472	145.860000
353.095917	145.560000
353.189362	145.880000
353.282806	145.780000
353.376251	145.660000
353.469696	145.340000
353.563141	145.840000
353.656586	145.640000
353.750061	145.260000
353.843475	145.140000
353.936981	145.960000
354.030396	145.500000
354.123871	145.400000
354.217285	146.340000
354.310760	146.620000
354.404175	146.360000
354.497681	146.360000
354.591095	146.540000
354.684570	145.700000
354.777985	145.820000
354.871490	145.380000
354.964935	145.620000
355.058380	145.500000
355.151855	145.380000
355.245300	145.600000
355.338745	146.340000
355.432220	146.280000
355.525665	145.780000
355.619110	146.480000
355.712585	146.020000
355.806030	145.700000
355.899475	145.260000
355.992950	146.080000
356.086426	146.080000
356.179871	146.160000
356.273346	146.040000
356.366791	146.480000
356.460266	146.560000
356.553711	145.900000
356.647186	146.040000
356.740631	145.760000
356.834106	145.800000
356.927551	145.920000
357.021027	146.020000
357.114471	146.180000
357.207947	146.480000
357.301422	146.300000
357.394867	145.960000
357.488342	146.440000
357.581818	146.040000
357.675262	146.340000
357.768738	146.180000
357.862213	145.820000
357.955658	145.820000
358.049133	145.880000
358.142609	145.800000
358.236053	145.740000
358.329529	145.840000
358.423035	145.840000
358.516449	145.560000
358.609955	145.760000
358.703400	146.660000
358.796906	147.120000
358.890350	146.600000
358.983826	147.300000
359.077271	146.600000
359.170776	146.160000
359.264221	145.740000
359.357727	146.000000
359.451172	146.000000
359.544647	146.280000
359.638123	146.200000
359.731598	146.780000
359.825073	147.040000
359.918549	146.700000
360.012024	147.180000
360.105499	146.660000
360.198975	146.420000
360.292450	146.320000
360.385925	146.080000
360.479401	145.140000
360.572876	145.660000
360.666351	145.860000
360.759857	145.760000
360.853302	146.340000
360.946808	146.320000
361.040253	146.220000
361.133759	145.760000
361.227203	146.160000
361.320709	145.700000
361.414154	146.060000
361.507660	146.340000
361.601105	146.600000
361.694641	146.620000
361.788086	146.540000
361.881592	147.220000
361.975067	146.760000
362.068542	147.380000
362.162018	147.260000
362.255524	146.800000
362.348999	146.380000
362.442474	146.440000
362.535950	145.480000
362.629456	145.080000
362.722931	145.400000
362.816406	145.600000
362.909882	146.060000
363.003387	145.760000
363.096863	146.420000
363.190338	146.600000
363.283875	146.420000
363.377319	146.280000
363.470825	147.300000
363.564301	146.420000
363.657806	146.740000
363.751282	146.440000
363.844788	147.040000
363.938232	146.220000
364.031769	147.300000
364.125214	147.200000
364.218750	147.720000
364.312225	146.420000
364.405731	146.920000
364.499207	146.320000
364.592712	145.960000
364.686188	145.520000
364.779694	145.920000
364.873169	145.780000
364.966675	145.400000
365.060150	145.580000
365.153656	146.200000
365.247131	146.100000
365.340637	146.180000
365.434143	146.720000
365.527618	146.700000
365.621155	145.700000
365.714600	145.860000
365.808136	145.680000
365.901611	144.820000
365.995117	144.860000
366.088593	145.100000
366.182129	145.140000
366.275604	145.360000
366.369110	145.760000
366.462585	145.540000
366.556122	146.080000
366.649567	146.120000
366.743103	146.260000
366.836609	145.860000
366.930115	145.920000
367.023590	146.120000
367.117096	145.620000
367.210602	145.440000
367.304108	146.500000
367.397614	147.040000
367.491119	146.860000
367.584595	147.460000
367.678101	147.840000
367.771606	147.100000
367.865112	146.640000
367.958649	145.900000
368.052124	145.760000
368.145660	145.320000
368.239136	146.060000
368.332672	146.120000
368.426147	146.740000
368.519684	146.600000
368.613159	146.860000
368.706696	146.400000
368.800171	146.380000
368.893707	146.160000
368.987183	146.020000
369.080719	145.960000
369.174225	145.640000
369.267731	145.940000
369.361237	145.720000
369.454742	145.640000
369.548248	145.780000
369.641754	145.800000
369.735260	145.440000
369.828766	145.120000
369.922272	145.820000
370.015808	145.420000
370.109314	145.400000
370.202820	145.360000
370.296356	146.440000
370.389832	146.280000
370.483368	146.020000
370.576874	145.920000
370.670410	146.240000
370.763885	145.040000
370.857422	144.640000
370.950928	144.840000
371.044464	145.620000
371.137939	145.620000
371.231476	146.360000
371.324982	146.980000
371.418518	147.240000
371.512024	146.900000
371.605560	146.460000
371.699066	146.440000
371.792572	145.680000
371.886108	145.820000
371.979614	145.560000
372.073120	146.280000
372.166656	146.240000
372.260162	146.860000
372.353668	146.460000
372.447205	146.240000
372.540710	145.820000
372.634277	145.660000
372.727753	145.400000
372.821320	145.680000
372.914795	146.040000
373.008362	145.600000
373.101837	145.840000
373.195404	145.860000
373.288879	145.580000
373.382446	146.260000
373.475922	146.700000
373.569489	147.360000
373.662964	147.820000
373.756531	147.980000
373.850037	147.640000
373.943573	147.260000
374.037109	145.960000
374.130615	145.780000
374.224152	145.780000
374.317657	145.500000
374.411194	146.480000
374.504730	146.600000
374.598236	146.320000
374.691772	145.900000
374.785309	146.080000
374.878815	145.160000
374.972351	145.560000
375.065887	145.400000
375.159454	146.400000
375.252930	146.100000
375.346497	146.440000
375.440002	147.020000
375.533569	147.340000
375.627045	146.640000
375.720612	146.560000
375.814117	146.700000
375.907684	146.080000
376.001160	145.500000
376.094727	144.900000
376.188232	145.820000
376.281799	146.120000
376.375336	146.380000
376.468872	147.300000
376.562408	147.900000
376.655914	147.260000
376.749451	146.940000
376.842987	146.900000
376.936523	146.500000
377.030060	146.600000
377.123596	146.820000
377.217133	146.220000
377.310669	146.300000
377.404205	146.400000
377.497772	146.920000
377.591278	146.620000
377.684845	147.580000
377.778351	147.840000
377.871918	147.500000
377.965424	146.320000
378.058990	146.120000
378.152496	145.780000
378.246063	145.820000
378.339569	146.180000
378.433136	146.420000
378.526642	146.380000
378.620209	146.300000
378.713745	145.380000
378.807312	145.660000
378.900848	146.040000
378.994385	146.660000
379.087921	146.060000
379.181458	146.580000
379.274994	145.660000
379.368530	145.720000
379.462097	145.340000
379.555634	146.120000
379.649170	145.500000
379.742706	145.720000
379.836273	145.620000
379.929810	145.440000
380.023376	145.020000
380.116882	145.400000
380.210449	145.580000
380.303986	145.260000
380.397552	144.860000
380.491058	145.080000
380.584656	145.100000
380.678162	145.220000
380.771729	145.240000
380.865265	146.240000
380.958832	146.360000
381.052368	146.440000
381.145935	146.640000
381.239471	146.880000
381.333008	146.480000
381.426575	146.160000
381.520111	146.440000
381.613647	146.620000
381.707214	146.620000
381.800751	146.140000
381.894318	146.600000
381.987854	146.160000
382.081421	145.760000
382.174988	145.860000
382.268524	145.880000
382.362091	145.580000
382.455627	146.280000
382.549194	146.040000
382.642731	145.360000
382.736298	145.380000
382.829834	145.160000
382.923401	145.240000
383.016937	145.720000
383.110504	146.520000
383.204041	146.780000
383.297607	147.200000
383.391174	146.640000
383.484741	147.200000
383.578278	146.820000
383.671844	146.560000
383.765411	145.780000
383.858948	146.100000
383.952515	145.620000
384.046051	145.860000
384.139618	146.380000
384.233185	146.840000
384.326721	146.520000
384.420288	146.720000
384.513855	146.680000
384.607422	146.580000
384.700989	146.780000
384.794525	146.380000
384.888123	146.120000
384.981659	146.300000
385.075226	146.160000
385.168762	145.940000
385.262360	146.060000
385.355896	145.060000
385.449463	144.880000
385.542999	144.740000
385.636597	145.320000
385.730164	145.860000
385.823730	146.420000
385.917267	145.680000
386.010834	145.820000
386.104401	145.720000
386.197968	145.860000
386.291534	145.820000
386.385101	146.760000
386.478668	147.200000
386.572235	146.860000
386.665802	146.020000
386.759338	146.340000
386.852905	145.700000
386.946472	145.160000
387.040070	145.340000
387.133606	145.500000
387.227203	145.020000
387.320740	145.380000
387.414337	145.240000
387.507874	145.020000
387.601471	145.060000
387.695007	145.020000
387.788605	144.600000
387.882141	144.820000
387.975739	144.900000
388.069275	144.860000
388.162872	145.300000
388.256439	145.580000
388.350037	145.440000
388.443604	145.200000
388.537170	145.300000
388.630737	145.780000
388.724304	146.060000
388.817871	146.120000
388.911438	146.440000
389.005005	146.760000
389.098602	146.840000
389.192169	146.580000
389.285736	147.300000
389.379333	147.240000
389.472870	146.700000
389.566467	146.120000
389.660034	146.140000
389.753632	145.440000
389.847168	145.700000
389.940765	146.180000
390.034332	146.300000
390.127930	145.840000
390.221466	146.040000
390.315063	145.780000
390.408630	145.000000
390.502228	144.380000
390.595795	144.860000
390.689362	144.780000
390.782959	144.940000
390.876526	145.800000
390.970093	145.920000
391.063690	146.460000
391.157257	146.660000
391.250824	146.700000
391.344421	146.240000
391.437988	146.840000
391.531555	146.720000
391.625153	146.600000
391.718750	146.560000
391.812317	146.620000
391.905914	146.140000
391.999481	145.980000
392.093079	145.900000
392.186615	146.200000
392.280243	146.300000
392.373779	146.460000
392.467407	146.800000
392.560944	146.580000
392.654572	146.240000
392.748108	146.080000
392.841736	146.320000
392.935303	145.540000
393.028900	145.640000
393.122467	145.840000
393.216064	145.480000
393.309631	144.780000
393.403229	144.740000
393.496796	144.560000
393.590393	144.160000
393.683990	145.100000
393.777557	145.760000
393.871155	146.320000
393.964722	146.900000
394.058350	147.040000
394.151917	146.540000
394.245514	146.380000
394.339081	146.460000
394.432678	146.580000
394.526245	146.400000
394.619873	146.020000
394.713409	146.060000
394.807037	145.640000
394.900604	145.520000
394.994202	145.660000
395.087769	146.300000
395.181396	146.000000
395.274994	146.840000
395.368561	146.400000
395.462158	146.740000
395.555756	146.280000
395.649353	146.720000
395.742920	145.920000
395.836517	146.400000
395.930115	145.640000
396.023712	146.040000
396.117279	146.080000
396.210876	145.920000
396.304474	146.020000
396.398071	146.480000
396.491669	146.740000
396.585266	146.320000
396.678833	146.220000
396.772461	145.820000
396.866028	145.540000
396.959656	145.440000
397.053223	146.000000
397.146851	146.100000
397.240417	146.520000
397.334015	147.400000
397.427582	147.240000
397.521210	147.760000
397.614807	148.460000
397.708405	148.960000
397.802002	149.160000
397.895599	150.820000
397.989197	151.240000
398.082794	152.560000
398.176392	154.200000
398.269989	156.100000
398.363586	157.660000
398.457184	161.020000
398.550781	163.800000
398.644379	165.960000
398.737976	168.840000
398.831573	172.360000
398.925201	174.680000
399.018768	178.160000
399.112396	181.620000
399.205963	185.180000
399.299591	188.620000
399.393158	192.780000
399.486786	197.620000
399.580353	203.060000
399.673981	209.140000
399.767578	216.180000
399.861206	223.840000
399.954773	232.180000
400.048401	241.040000
400.141998	248.640000
400.235596	256.660000
400.329193	263.000000
400.422791	267.620000
400.516418	270.680000
400.610016	274.640000
400.703613	275.880000
400.797211	275.540000
400.890808	273.600000
400.984436	270.800000
401.078033	264.120000
401.171631	256.460000
401.265259	248.180000
401.358826	239.680000
401.452484	229.680000
401.546051	220.540000
401.639679	210.700000
401.733246	201.660000
401.826904	192.140000
401.920471	184.000000
402.014099	176.760000
402.107697	171.120000
402.201324	166.220000
402.294891	162.760000
402.388550	160.100000
402.482147	157.660000
402.575745	155.280000
402.669373	153.240000
402.762970	151.540000
402.856567	150.160000
402.950195	149.420000
403.043793	148.660000
403.137390	148.760000
403.231018	147.540000
403.324615	147.760000
403.418243	147.100000
403.511841	147.280000
403.605469	146.920000
403.699066	147.960000
403.792694	147.660000
403.886292	147.900000
403.979919	147.540000
404.073517	147.320000
404.167145	147.140000
404.260712	146.980000
404.354370	146.600000
404.447937	146.640000
404.541595	146.620000
404.635162	146.900000
404.728821	146.960000
404.822418	146.920000
404.916046	146.700000
405.009644	147.220000
405.103271	147.140000
405.196899	146.940000
405.290497	146.980000
405.384125	147.020000
405.477722	146.160000
405.571350	145.420000
405.664948	145.500000
405.758575	145.380000
405.852203	145.120000
405.945801	145.660000
406.039429	146.000000
406.133057	145.520000
406.226654	145.400000
406.320312	145.460000
406.413879	145.500000
406.507538	145.440000
406.601135	145.580000
406.694763	146.440000
406.788361	146.520000
406.882019	146.080000
406.975586	146.520000
407.069244	147.040000
407.162872	146.940000
407.256470	146.960000
407.350098	146.740000
407.443726	146.120000
407.537323	145.580000
407.630951	145.540000
407.724579	145.380000
407.818207	145.820000
407.911804	145.880000
408.005432	145.920000
408.099060	146.060000
408.192688	146.400000
408.286285	146.220000
408.379913	146.000000
408.473572	146.080000
408.567169	145.480000
408.660828	145.640000
408.754395	145.700000
408.848053	145.780000
408.941650	146.080000
409.035309	145.780000
409.128906	145.600000
409.222565	145.780000
409.316132	146.140000
409.409790	146.000000
409.503387	146.040000
409.597046	146.100000
409.690674	146.040000
409.784302	145.760000
409.877930	145.380000
409.971558	145.540000
410.065186	145.420000
410.158783	145.100000
410.252411	145.280000
410.346039	145.720000
410.439667	145.760000
410.533295	145.900000
410.626923	146.140000
410.720551	146.040000
410.814209	146.560000
410.907806	146.420000
411.001465	145.820000
411.095062	146.180000
411.188721	146.160000
411.282318	145.360000
411.375977	145.440000
411.469574	145.840000
411.563232	145.320000
411.656830	145.440000
411.750488	145.360000
411.844086	145.060000
411.937744	145.420000
412.031372	145.300000
412.125000	145.060000
412.218628	145.300000
412.312256	146.160000
412.405884	146.260000
412.499512	146.420000
412.593170	146.780000
412.686798	147.140000
412.780426	146.800000
412.874054	146.880000
412.967682	147.100000
413.061310	147.180000
413.154968	146.840000
413.248566	146.680000
413.342224	146.320000
413.435852	146.380000
413.529510	145.940000
413.623108	145.440000
413.716766	145.400000
413.810364	145.840000
413.904022	145.380000
413.997650	145.280000
414.091309	146.260000
414.184906	146.380000
414.278564	145.980000
414.372192	146.420000
414.465851	146.920000
414.559479	146.120000
414.653107	146.980000
414.746735	146.920000
414.840393	147.060000
414.934021	147.200000
415.027649	147.500000
415.121277	146.980000
415.214935	147.640000
415.308563	147.700000
415.402191	147.100000
415.495850	146.940000
415.589478	146.760000
415.683136	145.900000
415.776733	145.880000
415.870422	146.540000
415.964020	146.180000
416.057678	146.140000
416.151306	146.500000
416.244965	146.260000
416.338562	145.880000
416.432251	146.780000
416.525848	147.500000
416.619507	147.880000
416.713165	148.240000
416.806793	148.220000
416.900421	148.020000
416.994080	147.060000
417.087708	146.600000
417.181366	145.920000
417.274994	146.100000
417.368622	146.020000
417.462280	146.640000
417.555908	146.540000
417.649567	146.540000
417.743195	146.440000
417.836853	146.280000
417.930481	146.140000
418.024170	146.440000
418.117767	147.420000
418.211426	147.740000
418.305054	148.120000
418.398712	147.820000
418.492340	147.740000
418.585999	147.420000
418.679626	147.060000
418.773285	146.920000
418.866913	147.120000
418.960571	147.420000
419.054230	147.280000
419.147858	147.440000
419.241516	147.820000
419.335144	147.580000
419.428802	147.100000
419.522461	146.920000
419.616089	146.500000
419.709747	146.160000
419.803375	146.440000
419.897034	146.420000
419.990662	146.220000
420.084320	147.000000
420.177979	147.320000
420.271606	147.200000
420.365295	147.480000
420.458893	147.580000
420.552582	147.640000
420.646210	147.640000
420.739868	147.540000
420.833496	147.120000
420.927155	146.960000
421.020782	146.380000
421.114471	145.720000
421.208069	145.940000
421.301758	146.340000
421.395386	146.720000
421.489044	146.660000
421.582703	146.620000
421.676361	147.040000
421.769989	146.560000
421.863647	146.700000
421.957306	146.980000
422.050934	147.100000
422.144592	146.700000
422.238251	146.420000
422.331909	146.160000
422.425537	145.820000
422.519196	145.740000
422.612854	145.240000
422.706543	145.220000
422.800140	145.220000
422.893829	145.180000
422.987457	145.360000
423.081146	145.480000
423.174744	146.340000
423.268433	145.900000
423.362061	145.800000
423.455750	145.560000
423.549347	145.780000
423.643036	145.080000
423.736664	145.960000
423.830353	145.980000
423.924011	146.480000
424.017639	145.920000
424.111298	145.940000
424.204956	145.300000
424.298615	145.480000
424.392273	145.200000
424.485931	145.560000
424.579559	145.840000
424.673218	146.020000
424.766876	146.200000
424.860535	145.660000
424.954193	145.440000
425.047882	145.700000
425.141510	145.640000
425.235199	145.560000
425.328796	145.680000
425.422485	145.840000
425.516113	145.020000
425.609802	145.040000
425.703430	145.060000
425.797119	144.880000
425.890747	145.140000
425.984436	145.800000
426.078064	145.600000
426.171753	145.500000
426.265411	145.540000
426.359070	145.800000
426.452728	145.680000
426.546356	145.980000
426.640015	145.700000
426.733673	145.840000
426.827332	145.020000
426.920990	145.740000
427.014648	145.540000
427.108307	145.720000
427.201965	146.320000
427.295624	146.700000
427.389282	145.680000
427.482941	145.680000
427.576630	145.600000
427.670258	144.880000
427.763947	144.620000
427.857574	145.000000
427.951263	144.860000
428.044922	144.960000
428.138611	145.280000
428.232239	145.880000
428.325928	146.380000
428.419556	147.140000
428.513245	146.660000
428.606903	146.740000
428.700562	146.160000
428.794220	145.080000
428.887878	144.280000
428.981537	144.640000
429.075195	144.700000
429.168854	145.000000
429.262512	145.460000
429.356201	145.560000
429.449860	145.400000
429.543518	145.180000
429.637177	145.360000
429.730835	145.340000
429.824493	145.460000
429.918182	146.040000
430.011810	145.600000
430.105530	145.100000
430.199158	145.440000
430.292847	145.340000
430.386475	145.140000
430.480164	145.480000
430.573792	145.380000
430.667511	145.000000
430.761139	144.980000
430.854828	145.280000
430.948456	145.440000
431.042145	146.020000
431.135834	146.020000
431.229492	146.340000
431.323151	146.460000
431.416809	146.420000
431.510468	146.180000
431.604156	146.040000
431.697815	145.880000
431.791473	144.880000
431.885132	144.740000
431.978821	145.100000
432.072479	145.500000
432.166138	146.080000
432.259827	146.300000
432.353485	146.480000
432.447174	146.920000
432.540802	146.640000
432.634491	146.460000
432.728149	146.920000
432.821838	147.380000
432.915466	146.520000
433.009186	146.720000
433.102814	145.980000
433.196503	145.600000
433.290131	145.140000
433.383850	145.400000
433.477509	145.300000
433.571167	146.080000
433.664856	146.720000
433.758514	147.100000
433.852173	147.220000
433.945862	147.000000
434.039520	146.880000
434.133179	146.160000
434.226868	145.600000
434.320526	144.940000
434.414185	145.500000
434.507874	145.080000
434.601562	145.560000
434.695221	145.620000
434.788910	146.020000
434.882538	145.800000
434.976257	145.540000
435.069885	145.600000
435.163574	145.780000
435.257233	145.560000
435.350922	145.540000
435.444580	145.380000
435.538269	145.120000
435.631897	145.420000
435.725616	145.800000
435.819275	146.140000
435.912964	146.860000
436.006622	147.200000
436.100311	147.080000
436.193970	146.560000
436.287628	146.060000
436.381317	145.900000
436.474976	145.440000
436.568665	145.020000
436.662323	145.400000
436.756012	145.620000
436.849670	145.360000
436.943390	145.220000
437.037018	145.260000
437.130737	145.140000
437.224365	144.960000
437.318085	145.020000
437.411713	145.380000
437.505432	145.680000
437.599060	146.420000
437.692780	147.080000
437.786407	147.360000
437.880127	147.240000
437.973755	147.220000
438.067474	146.380000
438.161133	145.920000
438.254822	146.200000
438.348480	146.160000
438.442169	146.660000
438.535828	147.100000
438.629517	146.800000
438.723175	145.960000
438.816864	146.300000
438.910553	145.740000
439.004211	145.620000
439.097900	145.620000
439.191559	146.340000
439.285248	145.700000
439.378906	146.060000
439.472626	145.600000
439.566284	145.660000
439.659973	145.600000
439.753632	145.860000
439.847321	146.120000
439.940979	146.460000
440.034698	146.480000
440.128326	146.060000
440.222046	145.820000
440.315674	144.860000
440.409393	144.840000
440.503082	144.720000
440.596741	144.980000
440.690430	145.100000
440.784088	145.260000
440.877777	144.840000
440.971466	145.040000
441.065125	144.540000
441.158813	144.860000
441.252502	145.040000
441.346161	145.500000
441.439850	145.920000
441.533539	145.940000
441.627197	145.760000
441.720886	145.700000
441.814606	145.640000
441.908234	145.600000
442.001953	145.820000
442.095612	146.020000
442.189301	146.380000
442.282959	146.920000
442.376678	145.960000
442.470306	146.680000
442.564026	146.700000
442.657684	146.560000
442.751404	146.000000
442.845032	147.260000
442.938751	146.320000
443.032440	146.180000
443.126099	145.820000
443.219788	146.340000
443.313477	145.700000
443.407166	146.220000
443.500824	146.060000
443.594513	146.200000
443.688202	145.720000
443.781891	145.080000
443.875549	144.620000
443.969238	144.720000
444.062927	144.800000
444.156647	144.700000
444.250275	145.520000
444.343994	145.560000
444.437653	145.820000
444.531372	145.640000
444.625031	145.440000
444.718719	145.120000
444.812378	145.400000
444.906097	145.120000
444.999756	144.880000
445.093445	145.160000
445.187103	145.080000
445.280823	145.480000
445.374512	145.280000
445.468201	145.480000
445.561859	145.600000
445.655548	145.960000
445.749237	145.260000
445.842926	145.360000
445.936615	145.800000
446.030304	145.500000
446.123962	145.420000
446.217651	145.400000
446.311340	145.680000
446.405029	145.080000
446.498749	145.000000
446.592407	144.820000
446.686096	145.100000
446.779755	144.920000
446.873474	145.420000
446.967133	145.600000
447.060852	145.300000
447.154510	145.240000
447.248230	145.360000
447.341858	145.320000
447.435577	144.960000
447.529236	145.080000
447.622955	144.920000
447.716644	144.740000
447.810333	144.960000
447.904022	145.560000
447.997711	145.560000
448.091400	146.080000
448.185059	146.160000
448.278748	145.660000
448.372437	145.380000
448.466125	145.740000
448.559814	145.360000
448.653503	145.920000
448.747192	146.400000
448.840912	146.720000
448.934570	146.540000
449.028290	146.780000
449.121948	146.020000
449.215637	145.720000
449.309296	145.560000
449.403015	145.640000
449.496674	145.660000
449.590393	146.100000
449.684052	145.920000
449.777771	146.380000
449.871429	146.060000
449.965149	145.880000
450.058838	145.940000
450.152527	146.560000
450.246216	146.240000
450.339905	146.120000
450.433594	145.760000
450.527283	146.480000
450.620972	145.940000
450.714661	145.940000
450.808350	146.280000
450.902039	146.780000
450.995728	146.120000
451.089417	145.860000
451.183105	145.760000
451.276794	146.160000
451.370514	145.480000
451.464172	144.760000
451.557892	145.020000
451.651550	145.020000
451.745270	144.580000
451.838928	144.660000
451.932648	144.740000
452.026306	145.060000
452.120026	144.680000
452.213684	144.780000
452.307404	144.920000
452.401062	145.060000
452.494781	145.420000
452.588470	145.960000
452.682159	145.680000
452.775848	145.880000
452.869537	145.760000
452.963226	145.000000
453.056915	144.900000
453.150604	144.960000
453.244293	145.320000
453.337982	146.040000
453.431671	146.260000
453.525360	146.820000
453.619049	146.720000
453.712769	146.380000
453.806427	145.940000
453.900146	145.780000
453.993805	145.160000
454.087555	145.800000
454.181213	145.780000
454.274933	145.560000
454.368591	145.520000
454.462311	145.400000
454.555969	144.960000
454.649689	145.800000
454.743347	145.780000
454.837067	146.420000
454.930756	147.140000
455.024445	147.420000
455.118134	146.800000
455.211853	147.120000
455.305542	146.540000
455.399231	146.040000
455.492920	146.020000
455.586609	146.140000
455.680298	146.140000
455.773987	145.820000
455.867676	145.780000
455.961365	145.640000
456.055084	145.300000
456.148773	145.280000
456.242493	145.620000
456.336151	145.560000
456.429871	145.980000
456.523529	146.420000
456.617249	145.980000
456.710907	146.420000
456.804626	146.520000
456.898315	145.880000
456.992035	145.680000
457.085693	145.700000
457.179413	145.000000
457.273102	145.540000
457.366791	145.740000
457.460480	146.100000
457.554199	146.960000
457.647888	147.180000
457.741577	146.780000
457.835266	147.100000
457.928955	146.800000
458.022644	146.680000
458.116364	146.960000
458.210052	146.720000
458.303741	146.400000
458.397461	145.660000
458.491119	144.740000
458.584839	144.700000
458.678528	144.620000
458.772247	144.320000
458.865906	144.700000
458.959625	145.740000
459.053284	145.440000
459.147003	145.220000
459.240692	146.060000
459.334412	146.240000
459.428070	145.520000
459.521790	145.540000
459.615479	145.660000
459.709198	145.780000
459.802887	145.520000
459.896576	145.520000
459.990265	145.700000
460.083954	145.780000
460.177673	145.100000
460.271362	145.340000
460.365051	145.480000
460.458740	145.240000
460.552429	145.100000
460.646149	145.220000
460.739838	144.880000
460.833527	145.060000
460.927246	145.140000
461.020905	144.800000
461.114655	144.600000
461.208313	144.840000
461.302032	144.160000
461.395691	144.420000
461.489441	144.680000
461.583099	144.660000
461.676819	144.480000
461.770477	145.080000
461.864197	144.740000
461.957916	145.220000
462.051605	144.560000
462.145294	145.440000
462.238983	145.220000
462.332703	145.720000
462.426392	145.920000
462.520081	146.580000
462.613770	145.780000
462.707489	146.140000
462.801178	145.780000
462.894867	145.220000
462.988556	145.460000
463.082275	145.840000
463.175964	145.160000
463.269684	145.260000
463.363342	145.280000
463.457092	144.760000
463.550751	144.900000
463.644470	145.560000
463.738129	145.260000
463.831879	145.500000
463.925537	146.380000
464.019257	146.180000
464.112946	146.160000
464.206665	146.340000
464.300323	146.260000
464.394043	146.040000
464.487762	145.880000
464.581451	145.980000
464.675140	145.840000
464.768829	146.000000
464.862549	145.600000
464.956238	146.020000
465.049927	146.020000
465.143646	146.320000
465.237335	146.100000
465.331024	146.540000
465.424713	146.160000
465.518433	145.740000
465.612152	145.340000
465.705811	145.260000
465.799561	144.720000
465.893219	144.600000
465.986938	144.680000
466.080597	144.860000
466.174347	145.360000
466.268005	145.620000
466.361725	145.700000
466.455414	145.920000
466.549133	145.760000
466.642792	145.640000
466.736542	145.380000
466.830231	145.580000
466.923920	145.520000
467.017609	145.660000
467.111328	145.060000
467.205017	145.100000
467.298706	145.160000
467.392426	144.960000
467.486115	145.320000
467.579803	145.360000
467.673523	145.680000
467.767212	145.460000
467.860901	145.780000
467.954651	145.640000
468.048309	146.080000
468.142029	146.300000
468.235718	146.440000
468.329437	146.080000
468.423096	146.280000
468.516846	145.880000
468.610504	145.260000
468.704224	145.020000
468.797913	144.880000
468.891632	144.700000
468.985291	144.760000
469.079010	145.060000
469.172729	144.720000
469.266418	145.240000
469.360107	144.880000
469.453827	144.800000
469.547516	144.700000
469.641205	145.120000
469.734924	144.980000
469.828613	145.680000
469.922302	146.020000
470.016022	146.060000
470.109711	145.920000
470.203430	145.680000
470.297150	144.660000
470.390808	144.880000
470.484558	144.520000
470.578217	145.160000
470.671936	145.720000
470.765625	146.740000
470.859344	146.100000
470.953003	146.540000
471.046753	146.160000
471.140411	145.420000
471.234131	145.320000
471.327820	146.200000
471.421539	146.460000
471.515228	146.180000
471.608948	146.420000
471.702637	145.480000
471.796326	144.760000
471.890045	144.480000
471.983734	144.520000
472.077423	144.000000
472.171143	144.760000
472.264832	144.940000
472.358521	144.780000
472.452240	144.560000
472.545929	145.820000
472.639648	145.760000
472.733337	146.040000
472.827057	146.320000
472.920746	146.480000
473.014465	146.280000
473.108124	146.360000
473.201874	146.340000
473.295532	146.120000
473.389252	146.620000
473.482941	146.520000
473.576660	146.220000
473.670319	145.900000
473.764069	146.320000
473.857727	145.980000
473.951477	146.160000
474.045166	146.760000
474.138855	146.880000
474.232574	146.460000
474.326263	146.760000
474.419952	146.740000
474.513672	146.720000
474.607361	146.500000
474.701050	146.680000
474.794769	147.060000
474.888458	147.200000
474.982178	146.960000
475.075867	147.280000
475.169586	147.280000
475.263275	146.820000
475.356995	146.560000
475.450653	146.120000
475.544403	145.720000
475.638062	146.240000
475.731812	145.920000
475.825470	145.540000
475.919189	146.040000
476.012878	146.360000
476.106598	145.480000
476.200256	145.800000
476.294006	145.660000
476.387695	145.520000
476.481384	145.200000
476.575104	145.740000
476.668793	145.340000
476.762512	144.980000
476.856201	145.300000
476.949890	145.240000
477.043610	144.500000
477.137299	144.700000
477.230988	145.280000
477.324707	144.940000
477.418396	145.520000
477.512146	145.940000
477.605804	146.080000
477.699524	146.240000
477.793213	146.040000
477.886932	145.820000
477.980591	145.740000
478.074341	145.360000
478.167999	144.600000
478.261749	144.760000
478.355408	144.620000
478.449127	144.820000
478.542816	145.700000
478.636536	146.820000
478.730225	146.980000
478.823944	147.560000
478.917633	147.340000
479.011322	147.120000
479.105042	146.920000
479.198730	147.060000
479.292450	146.260000
479.386139	146.540000
479.479828	146.380000
479.573547	146.340000
479.667267	146.340000
479.760925	146.620000
479.854675	146.760000
479.948334	146.780000
480.042084	146.340000
480.135742	146.420000
480.229462	145.720000
480.323151	145.540000
480.416870	145.000000
480.510529	145.260000
480.604279	144.540000
480.697937	145.180000
480.791656	144.780000
480.885345	144.580000
480.979065	144.420000
481.072754	145.280000
481.166473	145.880000
481.260132	146.060000
481.353882	146.580000
481.447540	146.640000
481.541260	146.460000
481.635010	145.760000
481.728668	145.600000
481.822388	145.480000
481.916077	145.700000
482.009796	145.240000
482.103485	145.600000
482.197205	146.140000
482.290863	146.340000
482.384613	145.840000
482.478271	145.680000
482.571991	145.700000
482.665680	145.380000
482.759399	146.220000
482.853058	146.660000
482.946808	146.740000
483.040466	146.480000
483.134216	146.500000
483.227875	145.500000
483.321594	145.820000
483.415283	145.980000
483.509003	145.900000
483.602661	145.700000
483.696411	146.120000
483.790070	145.720000
483.883789	145.880000
483.977478	146.200000
484.071198	146.400000
484.164917	145.940000
484.258606	145.540000
484.352325	145.680000
484.445984	145.780000
484.539734	145.680000
484.633392	145.300000
484.727142	146.060000
484.820801	145.660000
484.914520	145.360000
485.008209	145.640000
485.101929	146.180000
485.195587	145.440000
485.289337	145.600000
485.382996	145.580000
485.476715	145.320000
485.570404	145.880000
485.664124	146.160000
485.757782	146.540000
485.851532	146.460000
485.945190	146.380000
486.038910	146.040000
486.132599	146.200000
486.226318	145.460000
486.319977	145.220000
486.413727	145.600000
486.507446	145.000000
486.601105	144.720000
486.694855	144.720000
486.788513	144.800000
486.882233	144.620000
486.975922	145.120000
487.069641	145.140000
487.163300	145.120000
487.257050	146.360000
487.350708	145.920000
487.444427	145.200000
487.538116	145.100000
487.631836	145.160000
487.725494	144.440000
487.819214	145.160000
487.912903	145.640000
488.006622	146.220000
488.100281	146.500000
488.194031	146.420000
488.287689	146.220000
488.381409	146.820000
488.475098	146.340000
488.568817	146.400000
488.662476	145.920000
488.756226	145.500000
488.849945	144.480000
488.943604	144.580000
489.037354	144.620000
489.131012	145.000000
489.224731	145.160000
489.318390	145.040000
489.412140	145.000000
489.505798	144.820000
489.599518	144.420000
489.693207	144.840000
489.786926	145.320000
489.880585	145.300000
489.974335	145.500000
490.067993	146.680000
490.161713	146.600000
490.255371	147.220000
490.349121	147.340000
490.442780	147.060000
490.536499	146.040000
490.630188	145.840000
490.723907	145.100000
490.817566	145.140000
490.911285	145.300000
491.004974	145.240000
491.098694	144.960000
491.192413	145.660000
491.286102	145.540000
491.379822	145.700000
491.473480	146.000000
491.567200	146.300000
491.660889	145.520000
491.754608	145.900000
491.848267	145.420000
491.941986	145.520000
492.035675	145.500000
492.129395	146.060000
492.223053	145.380000
492.316772	146.060000
492.410461	145.660000
492.504181	145.480000
492.597839	145.020000
492.691559	145.520000
492.785248	145.220000
492.878967	145.420000
492.972626	145.080000
493.066345	145.160000
493.160034	144.580000
493.253754	144.440000
493.347412	144.080000
493.441132	144.500000
493.534882	144.900000
493.628540	145.400000
493.722260	145.740000
493.815918	146.200000
493.909668	147.000000
494.003326	147.420000
494.097046	147.100000
494.190704	146.580000
494.284454	146.480000
494.378113	145.980000
494.471832	145.160000
494.565491	145.360000
494.659210	145.640000
494.752899	145.500000
494.846619	145.080000
494.940277	145.480000
495.033997	145.440000
495.127686	145.260000
495.221405	145.320000
495.315063	145.700000
495.408783	145.760000
495.502441	145.500000
495.596191	145.760000
495.689850	145.440000
495.783569	145.700000
495.877228	145.680000
495.970947	145.980000
496.064697	146.060000
496.158356	147.160000
496.252075	146.980000
496.345734	146.720000
496.439453	147.260000
496.533142	147.240000
496.626862	146.880000
496.720520	146.620000
496.814240	146.860000
496.907898	146.380000
497.001617	146.240000
497.095306	145.760000
497.189026	145.860000
497.282684	145.840000
497.376404	146.240000
497.470062	146.020000
497.563782	146.180000
497.657471	146.160000
497.751190	145.760000
497.844849	145.540000
497.938568	146.080000
498.032227	146.080000
498.125946	146.120000
498.219635	146.000000
498.313354	146.180000
498.407074	145.640000
498.500732	146.160000
498.594452	146.340000
498.688110	146.400000
498.781830	145.660000
498.875519	145.760000
498.969238	145.120000
499.062897	144.580000
499.156616	145.140000
499.250275	145.580000
499.343994	145.420000
499.437653	145.720000
499.531372	146.220000
499.625061	146.660000
499.718781	146.860000
499.812439	147.100000
499.906158	146.880000
499.999817	146.600000
500.093536	145.720000
500.187195	145.640000
500.280914	145.660000
500.374573	145.660000
500.468323	145.660000
500.561981	146.060000
500.655701	145.240000
500.749420	145.220000
500.843079	145.500000
500.936798	145.680000
501.030457	146.220000
501.124176	146.880000
501.217834	146.800000
501.311554	146.340000
501.405212	145.860000
501.498962	144.780000
501.592621	144.700000
501.686340	144.980000
501.779999	145.380000
501.873718	146.060000
501.967377	146.460000
502.061096	146.680000
502.154755	146.040000
502.248474	146.080000
502.342133	145.900000
502.435852	145.800000
502.529510	146.080000
502.623230	147.020000
502.716888	146.860000
502.810608	146.620000
502.904266	146.860000
502.997986	146.560000
503.091705	146.000000
503.185364	145.700000
503.279083	145.860000
503.372772	145.620000
503.466492	145.220000
503.560150	145.180000
503.653870	145.360000
503.747528	145.340000
503.841248	145.340000
503.934906	145.660000
504.028625	145.440000
504.122284	145.840000
504.216003	146.340000
504.309662	146.120000
504.403381	146.380000
504.497040	146.640000
504.590759	146.160000
504.684418	146.080000
504.778137	146.740000
504.871796	146.720000
504.965515	146.600000
505.059174	146.800000
505.152893	146.020000
505.246521	145.240000
505.340240	144.700000
505.433899	144.780000
505.527618	144.840000
505.621338	145.460000
505.714996	145.520000
505.808716	145.560000
505.902374	146.140000
505.996094	146.120000
506.089752	145.700000
506.183472	146.020000
506.277130	146.480000
506.370850	146.260000
506.464508	146.060000
506.558228	146.220000
506.651886	145.840000
506.745605	145.700000
506.839264	145.540000
506.932983	145.800000
507.026611	145.880000
507.120331	146.500000
507.213989	145.880000
507.307709	145.780000
507.401367	146.000000
507.495087	146.920000
507.588745	146.140000
507.682465	147.340000
507.776123	147.480000
507.869843	147.200000
507.963531	146.340000
508.057190	147.080000
508.150909	146.060000
508.244568	146.180000
508.338287	146.120000
508.431946	145.740000
508.525665	145.280000
508.619324	145.280000
508.713013	145.140000
508.806671	145.380000
508.900391	146.540000
508.994049	146.640000
509.087769	146.500000
509.181427	146.580000
509.275146	146.260000
509.368774	145.060000
509.462494	145.240000
509.556152	145.740000
509.649872	145.860000
509.743530	146.040000
509.837250	146.400000
509.930878	146.180000
510.024597	145.940000
510.118256	145.660000
510.211975	145.560000
510.305695	145.160000
510.399353	145.820000
510.493042	146.160000
510.586700	146.380000
510.680420	146.920000
510.774078	147.100000
510.867798	146.860000
510.961426	146.520000
511.055145	146.520000
511.148804	146.280000
511.242523	146.660000
511.336151	146.640000
511.429871	146.780000
511.523529	146.380000
511.617249	145.600000
511.710876	145.460000
511.804596	145.200000
511.898254	145.140000
511.991974	145.740000
512.085632	145.940000
512.179321	145.860000
512.272949	146.060000
512.366699	146.240000
512.460327	146.140000
512.554077	146.900000
512.647766	146.780000
512.741394	146.640000
512.835144	147.240000
512.928772	146.540000
513.022461	146.460000
513.116150	146.600000
513.209839	147.020000
513.303467	146.280000
513.397217	146.220000
513.490845	145.940000
513.584595	145.660000
513.678223	145.040000
513.771912	144.600000
513.865601	144.880000
513.959290	144.580000
514.052917	144.520000
514.146667	145.140000
514.240295	145.640000
514.333984	146.040000
514.427673	145.920000
514.521362	146.600000
514.614990	145.780000
514.708740	146.040000
514.802368	145.980000
514.896057	146.240000
514.989746	146.800000
515.083435	147.040000
515.177124	146.980000
515.270752	146.680000
515.364502	146.720000
515.458130	146.380000
515.551819	146.440000
515.645508	146.240000
515.739197	146.440000
515.832825	146.320000
515.926575	145.620000
516.020203	145.920000
516.113892	146.400000
516.207520	146.180000
516.301270	146.360000
516.394897	146.700000
516.488586	147.080000
516.582275	146.820000
516.675964	146.280000
516.769592	146.200000
516.863281	146.560000
516.956970	146.380000
517.050659	146.360000
517.144287	146.700000
517.238037	146.840000
517.331665	145.900000
517.425354	145.360000
517.519043	144.800000
517.612732	145.100000
517.706421	145.060000
517.800049	145.400000
517.893738	145.180000
517.987427	145.280000
518.081116	144.900000
518.174744	144.540000
518.268433	144.820000
518.362122	145.840000
518.455811	146.060000
518.549438	146.960000
518.643127	147.940000
518.736816	147.960000
518.830505	147.060000
518.924133	146.800000
519.017822	146.560000
519.111511	146.120000
519.205200	146.160000
519.298828	146.280000
519.392517	146.100000
519.486206	146.360000
519.579895	146.260000
519.673523	145.740000
519.767212	145.500000
519.860901	146.460000
519.954590	146.000000
520.048279	145.520000
520.141907	145.740000
520.235596	146.640000
520.329224	146.440000
520.422974	146.440000
520.516602	146.580000
520.610291	146.500000
520.703918	146.140000
520.797607	145.720000
520.891296	145.580000
520.984985	145.840000
521.078613	146.480000
521.172302	146.220000
521.265930	147.240000
521.359680	147.760000
521.453308	147.580000
521.546997	147.220000
521.640625	147.000000
521.734314	146.080000
521.827942	145.840000
521.921692	146.120000
522.015320	146.080000
522.109009	146.120000
522.202698	145.960000
522.296326	145.700000
522.390015	146.060000
522.483704	146.160000
522.577393	146.120000
522.671021	146.440000
522.764709	145.900000
522.858337	145.760000
522.952026	145.640000
523.045654	146.220000
523.139404	146.540000
523.233032	147.260000
523.326721	146.700000
523.420349	146.420000
523.514038	146.020000
523.607666	145.780000
523.701355	145.220000
523.795044	145.300000
523.888733	145.560000
523.982361	145.860000
524.076050	145.600000
524.169678	146.080000
524.263367	145.920000
524.356995	145.440000
524.450684	145.000000
524.544373	144.740000
524.638062	144.800000
524.731750	145.020000
524.825378	145.100000
524.919067	144.800000
525.012695	145.000000
525.106384	144.740000
525.200012	144.820000
525.293701	144.580000
525.387329	145.340000
525.481018	145.740000
525.574646	145.880000
525.668396	145.800000
525.762024	146.660000
525.855713	146.540000
525.949341	145.960000
526.043030	146.140000
526.136658	146.140000
526.230347	145.800000
526.323975	145.880000
526.417664	145.860000
526.511292	146.040000
526.604980	146.280000
526.698608	146.080000
526.792297	145.900000
526.885925	146.040000
526.979614	146.080000
527.073303	145.580000
527.166931	145.700000
527.260620	145.900000
527.354309	146.400000
527.447998	145.880000
527.541626	145.760000
527.635315	146.040000
527.728943	146.400000
527.822632	146.000000
527.916260	146.080000
528.009949	146.640000
528.103577	146.260000
528.197266	145.220000
528.290894	145.460000
528.384583	145.500000
528.478210	145.480000
528.571899	145.800000
528.665527	146.400000
528.759216	146.280000
528.852844	146.740000
528.946533	146.380000
529.040161	146.180000
529.133850	145.920000
529.227478	146.000000
529.321167	146.000000
529.414856	146.620000
529.508484	146.960000
529.602173	146.880000
529.695801	146.800000
529.789490	146.440000
529.883057	146.020000
529.976746	146.460000
530.070374	146.920000
530.164062	147.000000
530.257690	147.280000
530.351379	147.420000
530.445007	146.800000
530.538696	146.240000
530.632324	146.500000
530.726013	146.400000
530.819641	146.480000
530.913330	146.360000
531.006958	146.660000
531.100647	146.540000
531.194275	146.320000
531.287964	146.000000
531.381592	146.000000
531.475220	145.920000
531.568848	145.900000
531.662537	145.740000
531.756226	146.200000
531.849854	146.180000
531.943542	146.340000
532.037170	145.900000
532.130859	146.240000
532.224487	145.800000
532.318176	145.660000
532.411804	145.820000
532.505432	146.020000
532.599060	145.620000
532.692749	145.720000
532.786377	146.220000
532.880066	145.440000
532.973694	145.080000
533.067383	145.420000
533.161011	145.300000
533.254639	145.000000
533.348267	145.060000
533.441956	145.420000
533.535583	145.340000
533.629272	145.660000
533.722900	145.320000
533.816589	145.540000
533.910156	145.920000
534.003845	145.420000
534.097534	145.700000
534.191162	146.240000
534.284851	146.420000
534.378479	146.060000
534.472107	146.560000
534.565735	146.160000
534.659424	146.140000
534.753052	146.320000
534.846741	146.180000
534.940369	146.520000
535.033997	146.400000
535.127625	146.300000
535.221313	146.420000
535.314941	146.460000
535.408630	145.880000
535.502197	146.500000
535.595886	146.260000
535.689514	145.900000
535.783203	146.260000
535.876831	146.620000
535.970459	146.160000
536.064087	146.100000
536.157776	146.340000
536.251404	146.220000
536.345093	146.140000
536.438721	145.840000
536.532349	146.020000
536.626038	145.440000
536.719666	145.640000
536.813293	145.460000
536.906921	145.600000
537.000610	146.120000
537.094238	146.660000
537.187866	146.440000
537.281494	146.160000
537.375183	146.340000
537.468811	145.760000
537.562439	145.580000
537.656067	145.400000
537.749756	145.880000
537.843384	146.420000
537.937012	146.620000
538.030640	146.600000
538.124329	146.760000
538.217896	146.940000
538.311584	146.460000
538.405212	146.340000
538.498901	146.680000
538.592468	147.240000
538.686157	146.640000
538.779785	146.040000
538.873413	145.960000
538.967102	145.460000
539.060730	144.840000
539.154358	145.020000
539.247986	145.600000
539.341675	145.700000
539.435242	145.840000
539.528931	146.120000
539.622559	145.780000
539.716187	146.140000
539.809814	145.980000
539.903503	145.960000
539.997070	145.500000
540.090759	145.780000
540.184387	145.340000
540.278015	145.900000
540.371643	146.020000
540.465332	146.160000
540.558899	145.900000
540.652588	145.740000
540.746216	145.280000
540.839844	145.400000
540.933472	145.720000
541.027100	145.960000
541.120728	146.100000
541.214417	146.340000
541.308044	146.640000
541.401672	146.180000
541.495300	145.840000
541.588928	145.940000
541.682617	145.680000
541.776184	145.220000
541.869873	145.320000
541.963440	145.800000
542.057129	146.020000
542.150757	146.120000
542.244385	145.920000
542.338013	145.760000
542.431641	145.600000
542.525269	145.340000
542.618958	145.660000
542.712524	145.960000
542.806213	145.860000
542.899780	146.120000
542.993469	145.660000
543.087036	145.140000
543.180725	144.500000
543.274292	144.720000
543.367981	144.800000
543.461548	145.420000
543.555237	145.400000
543.648926	146.240000
543.742493	146.900000
543.836182	146.620000
543.929749	146.340000
544.023437	146.680000
544.117004	146.500000
544.210693	145.980000
544.304260	146.240000
544.397949	146.060000
544.491516	146.300000
544.585205	146.100000
544.678772	146.040000
544.772461	146.140000
544.866028	146.160000
544.959717	145.860000
545.053284	145.660000
545.146973	146.040000
545.240540	145.700000
545.334229	146.260000
545.427795	146.380000
545.521423	146.580000
545.615051	146.320000
545.708679	146.980000
545.802307	146.760000
545.895935	146.920000
545.989624	147.640000
546.083191	147.300000
546.176880	146.900000
546.270447	146.420000
546.364136	146.660000
546.457703	145.980000
546.551331	146.280000
546.644958	146.320000
546.738586	146.760000
546.832214	146.260000
546.925842	146.180000
547.019409	146.200000
547.113098	145.900000
547.206665	145.420000
547.300354	145.400000
547.393921	145.720000
547.487549	145.980000
547.581177	145.860000
547.674805	145.940000
547.768433	145.260000
547.862061	145.040000
547.955627	144.320000
548.049316	144.780000
548.142883	145.160000
548.236572	145.920000
548.330139	146.320000
548.423767	146.500000
548.517456	146.460000
548.611023	146.760000
548.704651	146.280000
548.798279	146.100000
548.891907	146.720000
548.985474	146.500000
549.079163	146.300000
549.172729	146.100000
549.266357	145.620000
549.359985	145.300000
549.453613	144.840000
549.547180	144.440000
549.640869	145.240000
549.734436	145.340000
549.828064	145.420000
549.921631	145.760000
550.015320	145.500000
550.108887	145.520000
550.202515	145.580000
550.296143	145.100000
550.389771	145.300000
550.483337	145.720000
550.576965	145.220000
550.670593	145.440000
550.764221	145.860000
550.857849	145.520000
550.951477	145.200000
551.045105	145.260000
551.138672	145.060000
551.232300	144.580000
551.325928	145.060000
551.419556	145.380000
551.513123	145.460000
551.606750	145.620000
551.700378	145.880000
551.794006	145.800000
551.887573	145.720000
551.981201	146.240000
552.074768	145.920000
552.168457	145.960000
552.262024	146.880000
552.355652	147.040000
552.449219	147.180000
552.542847	147.520000
552.636475	147.180000
552.730103	145.720000
552.823669	145.400000
552.917297	144.500000
553.010864	144.660000
553.104553	145.000000
553.198181	145.020000
553.291748	145.400000
553.385376	145.900000
553.478943	145.740000
553.572571	146.040000
553.666199	146.660000
553.759827	146.300000
553.853394	145.800000
553.947021	145.860000
554.040588	145.640000
554.134216	145.540000
554.227783	146.300000
554.321411	147.140000
554.415039	146.680000
554.508667	146.680000
554.602234	146.740000
554.695862	146.000000
554.789429	145.780000
554.883057	146.100000
554.976624	146.000000
555.070251	145.740000
555.163818	145.680000
555.257507	145.540000
555.351074	145.540000
555.444702	146.400000
555.538330	146.280000
555.631897	146.540000
555.725525	146.340000
555.819092	146.160000
555.912720	145.400000
556.006287	145.920000
556.099915	145.700000
556.193481	145.760000
556.287109	146.000000
556.380676	145.940000
556.474304	146.060000
556.567871	146.620000
556.661499	146.260000
556.755066	146.180000
556.848694	146.160000
556.942261	145.880000
557.035889	145.920000
557.129517	146.420000
557.223145	146.880000
557.316711	147.120000
557.410339	147.060000
557.503906	146.520000
557.597473	146.660000
557.691040	146.260000
557.784668	146.300000
557.878296	146.280000
557.971863	146.560000
558.065491	146.300000
558.159058	145.860000
558.252686	146.420000
558.346252	147.140000
558.439880	146.580000
558.533447	146.220000
558.627075	146.460000
558.720642	145.700000
558.814270	145.120000
558.907837	145.400000
559.001465	145.560000
559.095032	146.080000
559.188660	146.360000
559.282227	146.040000
559.375854	146.980000
559.469360	146.680000
559.562988	146.820000
559.656555	146.640000
559.750183	146.940000
559.843750	146.640000
559.937378	147.180000
560.030945	147.060000
560.124573	0.000000
560.218140	0.000000
560.311707	0.000000
560.405334	0.000000
560.498901	0.000000
560.592529	0.000000
560.686096	0.000000
560.779724	0.000000
560.873291	0.000000
560.966858	0.000000
561.060425	0.000000
561.154053	0.000000
561.247620	0.000000
561.341248	0.000000
561.434814	0.000000
561.528381	0.000000
561.621948	0.000000
561.715576	0.000000
561.809143	0.000000
561.902771	0.000000
561.996277	0.000000
562.089905	0.000000
562.183472	0.000000
562.277100	0.000000
