Model Number: SPM-002-B   
Serial Number: 70087108
Firmware Version: 004.15.4
Exposure Time: 100000.000000us
Data Taken on: 11-12-2020 18:52:15.637
Wavelength	Amplitude
221.570786	0.000000
221.663406	0.000000
221.756027	0.000000
221.848648	0.000000
221.941269	0.000000
222.033905	0.000000
222.126526	0.000000
222.219162	0.000000
222.311798	0.000000
222.404419	0.000000
222.497055	0.000000
222.589676	0.000000
222.682312	0.000000
222.774933	0.000000
222.867569	0.000000
222.960205	0.000000
223.052841	0.000000
223.145462	0.000000
223.238098	0.000000
223.330734	0.000000
223.423386	0.000000
223.516022	0.000000
223.608658	0.000000
223.701309	0.000000
223.793945	0.000000
223.886581	0.000000
223.979218	0.000000
224.071869	0.000000
224.164505	0.000000
224.257156	0.000000
224.349792	0.000000
224.442444	0.000000
224.535095	0.000000
224.627747	0.000000
224.720398	0.000000
224.813034	0.000000
224.905685	0.000000
224.998337	146.120000
225.090988	145.540000
225.183640	145.620000
225.276291	145.460000
225.368942	145.800000
225.461594	146.140000
225.554245	146.560000
225.646912	146.740000
225.739578	146.900000
225.832230	147.040000
225.924896	146.080000
226.017548	146.380000
226.110199	146.940000
226.202866	146.180000
226.295532	146.060000
226.388184	146.160000
226.480850	145.460000
226.573517	145.000000
226.666168	145.800000
226.758835	145.960000
226.851501	146.620000
226.944183	146.780000
227.036850	146.240000
227.129517	145.780000
227.222183	145.700000
227.314850	145.720000
227.407516	146.120000
227.500198	147.080000
227.592865	146.940000
227.685532	146.540000
227.778214	146.000000
227.870880	146.240000
227.963562	146.460000
228.056229	147.140000
228.148926	147.000000
228.241592	147.700000
228.334274	147.180000
228.426956	146.780000
228.519638	146.740000
228.612305	146.820000
228.704987	146.460000
228.797668	146.500000
228.890350	146.180000
228.983032	145.360000
229.075714	146.240000
229.168396	146.040000
229.261108	145.860000
229.353790	145.920000
229.446472	146.500000
229.539169	145.980000
229.631851	145.680000
229.724533	146.000000
229.817230	146.100000
229.909912	146.800000
230.002609	146.340000
230.095306	146.500000
230.187988	146.500000
230.280685	146.300000
230.373383	145.180000
230.466095	145.360000
230.558792	145.660000
230.651474	145.340000
230.744171	145.240000
230.836868	145.400000
230.929581	145.580000
231.022278	145.540000
231.114975	145.960000
231.207672	145.920000
231.300369	146.580000
231.393082	146.780000
231.485779	146.540000
231.578506	146.480000
231.671204	146.720000
231.763916	146.240000
231.856613	146.320000
231.949326	146.560000
232.042023	146.400000
232.134735	146.200000
232.227448	146.080000
232.320160	146.000000
232.412872	145.980000
232.505585	146.700000
232.598297	146.920000
232.691010	146.720000
232.783722	146.420000
232.876450	147.000000
232.969162	146.260000
233.061874	145.980000
233.154587	145.820000
233.247314	146.180000
233.340027	145.380000
233.432739	145.740000
233.525467	145.660000
233.618179	146.400000
233.710907	146.100000
233.803635	146.860000
233.896347	146.600000
233.989090	147.520000
234.081818	147.200000
234.174545	147.480000
234.267258	146.460000
234.359985	146.720000
234.452713	146.200000
234.545441	145.720000
234.638168	145.300000
234.730896	145.920000
234.823639	145.680000
234.916367	146.280000
235.009094	146.620000
235.101822	146.600000
235.194580	146.500000
235.287308	146.560000
235.380051	145.400000
235.472778	145.580000
235.565521	146.160000
235.658249	145.800000
235.750992	145.760000
235.843719	146.040000
235.936462	146.500000
236.029205	145.980000
236.121948	145.940000
236.214691	146.180000
236.307449	147.000000
236.400192	146.260000
236.492935	146.080000
236.585678	146.220000
236.678421	146.420000
236.771164	146.020000
236.863907	146.540000
236.956665	146.840000
237.049408	148.520000
237.142151	147.660000
237.234909	148.060000
237.327652	147.960000
237.420410	147.660000
237.513153	146.480000
237.605927	146.680000
237.698669	146.220000
237.791428	145.840000
237.884186	146.340000
237.976944	145.820000
238.069702	146.120000
238.162445	145.680000
238.255203	145.560000
238.347961	145.960000
238.440720	146.080000
238.533478	145.840000
238.626266	145.960000
238.719025	146.600000
238.811783	146.340000
238.904541	146.540000
238.997314	146.420000
239.090073	146.100000
239.182831	145.900000
239.275604	146.320000
239.368362	145.800000
239.461136	146.000000
239.553909	145.940000
239.646667	145.940000
239.739441	145.460000
239.832214	145.920000
239.925003	146.060000
240.017761	146.900000
240.110535	147.180000
240.203308	146.600000
240.296082	146.720000
240.388855	146.420000
240.481628	146.100000
240.574417	146.060000
240.667191	146.360000
240.759964	146.020000
240.852737	146.160000
240.945526	145.920000
241.038315	145.660000
241.131088	145.800000
241.223877	146.260000
241.316650	146.200000
241.409439	146.640000
241.502228	146.420000
241.595001	146.960000
241.687790	146.480000
241.780579	146.540000
241.873367	146.640000
241.966141	147.260000
242.058929	146.340000
242.151718	146.640000
242.244507	146.940000
242.337311	146.220000
242.430099	146.360000
242.522903	146.700000
242.615692	146.360000
242.708481	146.200000
242.801270	146.920000
242.894073	146.440000
242.986862	146.500000
243.079651	146.880000
243.172455	146.640000
243.265244	146.720000
243.358063	146.200000
243.450867	146.460000
243.543655	146.300000
243.636459	146.380000
243.729263	146.380000
243.822067	147.040000
243.914856	147.300000
244.007660	147.540000
244.100464	147.720000
244.193268	147.360000
244.286072	147.220000
244.378876	146.700000
244.471680	146.520000
244.564499	146.500000
244.657318	147.220000
244.750122	147.480000
244.842926	146.620000
244.935745	146.680000
245.028549	146.420000
245.121368	145.420000
245.214172	145.220000
245.306992	146.060000
245.399796	145.760000
245.492615	145.900000
245.585434	146.120000
245.678253	146.020000
245.771072	145.840000
245.863892	146.180000
245.956711	146.260000
246.049530	146.160000
246.142349	145.920000
246.235168	145.940000
246.327988	146.180000
246.420807	145.800000
246.513626	145.780000
246.606445	145.300000
246.699280	145.640000
246.792099	145.180000
246.884918	145.060000
246.977753	145.000000
247.070587	145.480000
247.163422	145.220000
247.256241	145.560000
247.349075	146.080000
247.441895	146.300000
247.534729	146.420000
247.627563	145.920000
247.720383	146.180000
247.813217	145.920000
247.906052	145.540000
247.998886	145.580000
248.091736	146.060000
248.184570	145.600000
248.277405	145.840000
248.370239	146.800000
248.463074	147.520000
248.555908	147.780000
248.648743	147.620000
248.741592	147.640000
248.834427	146.700000
248.927261	145.720000
249.020111	145.620000
249.112946	146.460000
249.205795	146.020000
249.298630	146.360000
249.391495	146.600000
249.484344	146.340000
249.577179	145.780000
249.670029	146.040000
249.762878	146.620000
249.855728	146.600000
249.948563	146.620000
250.041412	146.240000
250.134262	146.220000
250.227112	145.960000
250.319962	145.940000
250.412827	145.840000
250.505692	145.620000
250.598541	145.600000
250.691391	145.100000
250.784241	145.100000
250.877106	145.520000
250.969955	145.380000
251.062805	145.800000
251.155670	146.700000
251.248520	146.700000
251.341385	146.720000
251.434235	146.740000
251.527100	146.340000
251.619965	145.740000
251.712814	146.140000
251.805695	146.140000
251.898560	146.780000
251.991425	147.240000
252.084290	147.120000
252.177155	146.680000
252.270020	146.180000
252.362885	146.020000
252.455750	145.720000
252.548615	145.440000
252.641479	145.420000
252.734360	145.620000
252.827240	145.620000
252.920105	145.820000
253.012970	145.680000
253.105850	145.780000
253.198715	145.520000
253.291595	145.300000
253.384460	144.960000
253.477341	145.280000
253.570221	145.460000
253.663086	145.340000
253.755966	146.200000
253.848846	146.480000
253.941727	146.920000
254.034592	146.580000
254.127472	146.280000
254.220367	146.060000
254.313248	146.140000
254.406128	145.680000
254.499008	145.920000
254.591904	146.960000
254.684784	147.360000
254.777664	147.420000
254.870544	147.140000
254.963440	147.160000
255.056335	147.260000
255.149216	146.740000
255.242111	146.860000
255.334991	147.560000
255.427887	147.720000
255.520767	147.360000
255.613663	147.580000
255.706558	146.980000
255.799438	146.760000
255.892334	146.100000
255.985229	146.080000
256.078125	145.940000
256.171021	146.320000
256.263916	146.580000
256.356812	147.260000
256.449707	147.220000
256.542603	146.620000
256.635498	146.920000
256.728394	146.500000
256.821289	146.080000
256.914215	146.300000
257.007080	146.880000
257.100006	146.880000
257.192932	147.740000
257.285828	148.340000
257.378723	148.060000
257.471619	147.860000
257.564545	147.080000
257.657440	146.640000
257.750336	146.480000
257.843262	146.160000
257.936157	147.180000
258.029053	147.780000
258.121979	147.700000
258.214874	147.460000
258.307800	147.820000
258.400696	146.300000
258.493622	145.920000
258.586517	145.200000
258.679443	145.400000
258.772339	144.980000
258.865265	145.280000
258.958160	144.900000
259.051086	146.000000
259.144012	145.980000
259.236938	147.000000
259.329834	147.060000
259.422791	147.220000
259.515717	146.180000
259.608612	145.920000
259.701538	145.280000
259.794464	145.460000
259.887390	145.560000
259.980316	145.620000
260.073212	145.640000
260.166138	145.180000
260.259064	145.440000
260.351990	146.120000
260.444916	146.440000
260.537842	147.000000
260.630768	147.980000
260.723694	147.600000
260.816620	147.120000
260.909546	147.080000
261.002472	146.340000
261.095398	145.640000
261.188354	145.780000
261.281281	145.320000
261.374207	145.380000
261.467133	146.320000
261.560089	146.500000
261.653015	146.080000
261.745972	147.320000
261.838867	147.640000
261.931824	147.560000
262.024780	147.100000
262.117706	147.320000
262.210663	147.000000
262.303589	146.760000
262.396515	146.220000
262.489471	147.200000
262.582397	147.380000
262.675354	146.760000
262.768280	146.880000
262.861237	147.120000
262.954163	146.800000
263.047119	146.980000
263.140045	147.060000
263.233002	146.860000
263.325958	147.160000
263.418884	146.760000
263.511841	146.540000
263.604797	146.280000
263.697723	146.260000
263.790680	145.840000
263.883636	146.480000
263.976593	146.160000
264.069550	146.500000
264.162476	146.220000
264.255463	146.080000
264.348419	145.440000
264.441376	146.300000
264.534332	145.780000
264.627289	145.920000
264.720245	146.800000
264.813202	146.680000
264.906158	146.360000
264.999115	147.000000
265.092072	147.120000
265.185028	146.860000
265.277985	147.380000
265.370941	147.380000
265.463898	147.140000
265.556854	147.040000
265.649811	145.940000
265.742798	145.900000
265.835754	145.660000
265.928711	146.080000
266.021667	146.120000
266.114655	146.840000
266.207611	146.960000
266.300568	146.460000
266.393585	146.020000
266.486511	146.160000
266.579498	145.360000
266.672485	145.240000
266.765442	145.360000
266.858429	145.760000
266.951385	145.400000
267.044342	145.800000
267.137329	145.460000
267.230316	146.060000
267.323273	145.660000
267.416260	146.560000
267.509216	146.620000
267.602203	146.560000
267.695160	146.860000
267.788147	147.000000
267.881134	146.380000
267.974091	146.580000
268.067078	146.660000
268.160065	146.120000
268.253052	145.920000
268.346008	145.900000
268.438995	145.680000
268.531982	145.940000
268.624969	145.880000
268.717987	146.140000
268.810944	146.120000
268.903961	146.160000
268.996948	145.740000
269.089905	146.380000
269.182892	146.480000
269.275879	146.640000
269.368866	146.480000
269.461853	147.100000
269.554871	146.580000
269.647858	146.500000
269.740845	146.760000
269.833832	147.160000
269.926819	146.820000
270.019806	146.820000
270.112793	146.400000
270.205811	146.420000
270.298798	145.880000
270.391785	146.440000
270.484772	146.240000
270.577789	146.760000
270.670776	146.380000
270.763763	146.820000
270.856750	146.540000
270.949768	146.660000
271.042786	146.520000
271.135773	146.700000
271.228790	146.700000
271.321808	146.160000
271.414795	145.660000
271.507782	145.420000
271.600800	145.100000
271.693817	145.020000
271.786804	145.720000
271.879822	146.320000
271.972809	146.580000
272.065826	146.940000
272.158844	146.560000
272.251831	146.820000
272.344849	146.840000
272.437866	146.340000
272.530853	146.600000
272.623871	146.880000
272.716888	145.520000
272.809906	145.580000
272.902893	145.780000
272.995911	144.820000
273.088928	144.800000
273.181946	145.560000
273.274963	145.260000
273.367981	145.120000
273.460999	145.640000
273.554047	145.900000
273.647003	146.500000
273.740051	146.600000
273.833069	146.780000
273.926086	147.140000
274.019135	146.900000
274.112152	146.400000
274.205170	146.660000
274.298187	147.260000
274.391205	146.620000
274.484222	146.740000
274.577240	146.680000
274.670258	146.100000
274.763306	145.480000
274.856323	145.960000
274.949341	145.840000
275.042358	146.240000
275.135406	146.500000
275.228424	146.760000
275.321442	146.600000
275.414490	146.440000
275.507507	146.500000
275.600525	147.040000
275.693573	146.560000
275.786591	146.140000
275.879669	146.360000
275.972656	145.840000
276.065735	145.080000
276.158752	145.620000
276.251801	146.480000
276.344818	146.680000
276.437866	147.220000
276.530884	147.120000
276.623932	146.340000
276.716980	146.520000
276.809998	146.380000
276.903046	146.000000
276.996094	147.180000
277.089111	148.040000
277.182159	147.980000
277.275208	147.940000
277.368256	147.780000
277.461304	147.200000
277.554321	146.220000
277.647369	146.160000
277.740417	146.040000
277.833466	146.040000
277.926514	145.800000
278.019562	146.940000
278.112610	146.300000
278.205688	146.540000
278.298706	146.700000
278.391785	146.460000
278.484833	145.840000
278.577881	145.840000
278.670929	146.060000
278.763977	146.260000
278.857025	146.960000
278.950073	147.080000
279.043121	146.980000
279.136169	146.680000
279.229248	146.260000
279.322296	146.100000
279.415344	145.820000
279.508392	146.060000
279.601440	146.000000
279.694519	146.120000
279.787567	146.000000
279.880615	146.160000
279.973694	145.980000
280.066742	145.920000
280.159790	145.940000
280.252869	145.480000
280.345917	145.560000
280.438995	145.620000
280.532074	145.680000
280.625122	146.220000
280.718201	146.860000
280.811279	146.780000
280.904327	146.840000
280.997406	147.040000
281.090454	146.620000
281.183533	146.080000
281.276581	146.160000
281.369659	145.860000
281.462738	145.820000
281.555786	145.860000
281.648865	146.040000
281.741943	145.860000
281.835022	146.640000
281.928070	146.300000
282.021149	146.380000
282.114227	146.460000
282.207306	146.660000
282.300385	146.460000
282.393433	146.900000
282.486511	146.460000
282.579590	146.840000
282.672668	147.000000
282.765747	146.480000
282.858856	146.020000
282.951904	146.320000
283.045013	146.220000
283.138062	146.280000
283.231171	146.880000
283.324249	147.080000
283.417328	147.420000
283.510406	147.240000
283.603485	146.960000
283.696564	146.380000
283.789642	146.340000
283.882751	145.580000
283.975830	145.800000
284.068909	145.840000
284.161987	146.640000
284.255066	146.240000
284.348175	146.660000
284.441254	146.500000
284.534332	146.700000
284.627441	146.100000
284.720520	146.240000
284.813599	146.180000
284.906708	146.080000
284.999786	145.240000
285.092896	145.100000
285.185974	146.120000
285.279053	145.700000
285.372192	145.760000
285.465240	146.880000
285.558380	146.780000
285.651459	146.160000
285.744568	147.280000
285.837677	147.140000
285.930756	146.760000
286.023865	147.080000
286.116943	146.940000
286.210052	146.680000
286.303162	146.780000
286.396240	146.880000
286.489349	146.440000
286.582458	146.860000
286.675568	146.240000
286.768646	146.200000
286.861755	146.660000
286.954865	147.720000
287.047974	147.000000
287.141083	147.000000
287.234161	146.920000
287.327271	146.340000
287.420380	146.240000
287.513519	146.340000
287.606598	146.580000
287.699738	146.920000
287.792816	146.760000
287.885956	146.520000
287.979034	146.580000
288.072174	146.560000
288.165283	146.200000
288.258392	146.760000
288.351501	146.140000
288.444611	146.420000
288.537720	146.800000
288.630859	146.780000
288.723969	146.780000
288.817078	147.200000
288.910187	147.040000
289.003296	146.280000
289.096436	146.060000
289.189545	145.920000
289.282654	145.680000
289.375763	146.140000
289.468903	146.620000
289.562012	146.960000
289.655121	146.840000
289.748260	146.960000
289.841400	147.080000
289.934509	147.120000
290.027649	147.200000
290.120728	147.120000
290.213898	147.080000
290.306976	146.460000
290.400146	146.620000
290.493256	146.340000
290.586395	146.520000
290.679535	146.860000
290.772644	146.980000
290.865784	146.060000
290.958893	146.100000
291.052032	146.120000
291.145172	146.000000
291.238281	145.980000
291.331421	146.500000
291.424561	146.820000
291.517670	146.460000
291.610809	146.200000
291.703949	145.800000
291.797089	145.800000
291.890228	145.360000
291.983337	145.160000
292.076477	145.160000
292.169617	145.600000
292.262756	145.680000
292.355927	145.800000
292.449036	146.000000
292.542206	146.220000
292.635315	146.280000
292.728485	146.480000
292.821625	146.380000
292.914764	147.240000
293.007904	147.520000
293.101044	147.500000
293.194183	147.240000
293.287323	147.440000
293.380463	146.580000
293.473602	145.980000
293.566742	146.380000
293.659882	147.020000
293.753021	147.120000
293.846191	147.280000
293.939331	147.120000
294.032471	146.400000
294.125610	145.900000
294.218781	146.120000
294.311920	146.660000
294.405060	146.980000
294.498230	147.080000
294.591370	147.360000
294.684540	146.660000
294.777679	145.840000
294.870850	146.260000
294.963959	146.240000
295.057159	145.640000
295.150299	146.140000
295.243469	146.260000
295.336609	145.380000
295.429779	145.600000
295.522919	145.880000
295.616089	145.840000
295.709229	146.560000
295.802399	146.960000
295.895569	146.600000
295.988708	146.380000
296.081879	146.340000
296.175018	145.780000
296.268188	145.800000
296.361359	146.640000
296.454529	146.760000
296.547668	146.560000
296.640839	146.740000
296.734009	146.600000
296.827179	146.140000
296.920319	146.600000
297.013519	146.620000
297.106659	146.520000
297.199860	146.700000
297.292999	146.440000
297.386200	145.880000
297.479309	145.580000
297.572510	145.380000
297.665680	144.880000
297.758850	145.140000
297.852020	145.180000
297.945190	145.640000
298.038361	145.460000
298.131531	146.520000
298.224701	146.340000
298.317871	146.160000
298.411072	145.400000
298.504242	145.300000
298.597412	144.760000
298.690582	144.980000
298.783752	144.700000
298.876923	145.700000
298.970093	145.800000
299.063293	145.880000
299.156464	146.380000
299.249634	146.880000
299.342834	146.820000
299.436005	147.200000
299.529205	147.080000
299.622345	146.800000
299.715576	146.480000
299.808716	145.880000
299.901917	145.960000
299.995117	146.380000
300.088287	146.260000
300.181488	146.120000
300.274658	146.140000
300.367828	145.940000
300.461029	145.600000
300.554199	145.620000
300.647400	145.700000
300.740601	146.320000
300.833771	146.120000
300.926971	146.180000
301.020142	145.500000
301.113342	145.700000
301.206512	145.320000
301.299713	145.780000
301.392914	146.020000
301.486084	146.380000
301.579285	146.280000
301.672516	146.720000
301.765686	146.360000
301.858887	146.080000
301.952057	146.420000
302.045288	146.620000
302.138458	146.420000
302.231659	146.220000
302.324860	146.160000
302.418060	146.180000
302.511261	146.160000
302.604462	146.380000
302.697662	146.560000
302.790863	146.780000
302.884064	146.320000
302.977264	146.100000
303.070465	145.820000
303.163666	146.400000
303.256866	146.380000
303.350067	146.820000
303.443268	147.060000
303.536469	147.400000
303.629669	146.760000
303.722870	146.700000
303.816071	146.280000
303.909271	146.380000
304.002472	145.600000
304.095673	145.420000
304.188934	144.840000
304.282104	145.520000
304.375336	145.380000
304.468506	145.880000
304.561768	145.960000
304.654968	146.720000
304.748169	146.320000
304.841370	146.200000
304.934601	146.420000
305.027802	146.200000
305.121002	145.620000
305.214233	145.400000
305.307434	145.740000
305.400665	146.000000
305.493866	146.240000
305.587097	146.720000
305.680298	146.620000
305.773499	146.940000
305.866730	146.680000
305.959930	147.120000
306.053162	147.380000
306.146393	147.500000
306.239594	146.640000
306.332825	146.520000
306.426025	146.700000
306.519287	145.820000
306.612488	146.060000
306.705719	146.260000
306.798920	145.940000
306.892181	145.280000
306.985352	145.420000
307.078613	144.720000
307.171844	145.140000
307.265045	145.100000
307.358276	144.940000
307.451508	145.380000
307.544739	146.040000
307.637970	145.640000
307.731201	145.740000
307.824402	146.420000
307.917633	146.440000
308.010864	146.760000
308.104095	147.240000
308.197327	147.140000
308.290558	146.980000
308.383789	146.780000
308.477020	146.280000
308.570251	145.340000
308.663483	145.160000
308.756714	144.860000
308.849976	144.960000
308.943176	145.500000
309.036438	145.540000
309.129639	145.480000
309.222900	145.720000
309.316101	145.580000
309.409393	144.980000
309.502625	145.120000
309.595856	145.220000
309.689087	145.120000
309.782318	145.240000
309.875580	145.620000
309.968811	145.820000
310.062042	145.640000
310.155273	145.700000
310.248535	145.880000
310.341766	145.480000
310.434998	145.160000
310.528259	145.500000
310.621490	145.900000
310.714722	145.120000
310.807983	145.140000
310.901215	145.700000
310.994476	145.780000
311.087708	145.220000
311.181000	146.080000
311.274200	145.800000
311.367462	145.600000
311.460693	145.460000
311.553986	146.280000
311.647186	146.160000
311.740479	147.140000
311.833710	146.740000
311.926971	146.520000
312.020203	145.620000
312.113464	145.340000
312.206726	144.440000
312.299957	144.780000
312.393219	145.360000
312.486481	145.720000
312.579712	145.660000
312.672974	145.760000
312.766235	145.460000
312.859497	145.260000
312.952759	144.840000
313.045990	145.740000
313.139252	145.400000
313.232513	145.760000
313.325775	145.820000
313.419037	145.820000
313.512299	144.800000
313.605530	145.500000
313.698822	145.500000
313.792053	145.500000
313.885345	145.600000
313.978577	145.820000
314.071869	145.600000
314.165131	145.820000
314.258392	146.240000
314.351654	145.960000
314.444916	145.400000
314.538177	145.940000
314.631439	146.060000
314.724701	145.560000
314.817993	145.740000
314.911255	146.240000
315.004517	145.400000
315.097778	145.280000
315.191040	145.880000
315.284302	146.260000
315.377594	146.260000
315.470856	146.320000
315.564117	145.980000
315.657379	144.960000
315.750671	144.520000
315.843933	144.880000
315.937195	144.820000
316.030518	144.300000
316.123749	144.500000
316.217041	145.340000
316.310303	145.120000
316.403595	145.260000
316.496857	146.020000
316.590149	146.280000
316.683411	145.660000
316.776703	145.640000
316.869965	145.520000
316.963257	145.200000
317.056519	144.720000
317.149811	144.520000
317.243073	144.340000
317.336365	144.760000
317.429626	145.360000
317.522919	146.140000
317.616180	146.480000
317.709473	146.200000
317.802765	145.940000
317.896027	145.620000
317.989319	145.500000
318.082611	145.320000
318.175873	145.460000
318.269165	145.600000
318.362488	145.580000
318.455750	145.240000
318.549042	145.560000
318.642303	145.880000
318.735626	145.720000
318.828888	145.660000
318.922211	145.500000
319.015472	145.840000
319.108765	145.400000
319.202057	145.200000
319.295349	145.540000
319.388641	145.620000
319.481934	145.320000
319.575226	145.600000
319.668518	145.840000
319.761810	145.640000
319.855103	145.700000
319.948395	145.640000
320.041687	145.740000
320.134979	145.840000
320.228271	145.520000
320.321564	145.400000
320.414856	145.260000
320.508148	144.600000
320.601440	144.480000
320.694763	144.600000
320.788025	145.200000
320.881348	145.380000
320.974640	145.820000
321.067963	145.540000
321.161224	145.940000
321.254547	145.460000
321.347839	145.920000
321.441162	145.720000
321.534454	146.000000
321.627747	145.580000
321.721069	146.180000
321.814362	145.880000
321.907654	146.060000
322.000946	145.900000
322.094269	146.680000
322.187561	146.200000
322.280884	146.440000
322.374176	146.600000
322.467468	147.320000
322.560791	146.960000
322.654083	147.240000
322.747406	147.080000
322.840698	147.520000
322.934021	147.700000
323.027344	147.700000
323.120636	147.560000
323.213959	147.200000
323.307251	146.340000
323.400574	145.860000
323.493866	145.540000
323.587219	145.840000
323.680511	146.540000
323.773834	146.960000
323.867157	146.880000
323.960449	147.200000
324.053772	146.680000
324.147095	146.180000
324.240387	146.580000
324.333710	146.780000
324.427032	146.700000
324.520355	146.780000
324.613647	146.800000
324.706970	146.580000
324.800293	146.100000
324.893616	146.220000
324.986938	146.620000
325.080231	146.400000
325.173553	146.600000
325.266876	147.200000
325.360199	147.360000
325.453522	147.060000
325.546875	146.740000
325.640167	146.620000
325.733521	146.620000
325.826813	146.720000
325.920166	146.600000
326.013489	146.900000
326.106812	146.040000
326.200134	145.640000
326.293457	145.020000
326.386780	144.800000
326.480103	144.640000
326.573425	145.160000
326.666748	145.160000
326.760071	145.660000
326.853424	146.100000
326.946747	146.320000
327.040070	146.940000
327.133392	146.840000
327.226715	146.320000
327.320068	145.640000
327.413391	146.180000
327.506714	145.520000
327.600037	145.720000
327.693390	145.800000
327.786713	146.400000
327.880066	145.980000
327.973358	146.220000
328.066742	146.560000
328.160034	146.700000
328.253418	147.060000
328.346710	146.920000
328.440063	146.560000
328.533417	146.400000
328.626740	146.720000
328.720093	146.080000
328.813416	146.220000
328.906769	146.080000
329.000092	146.120000
329.093445	146.060000
329.186768	145.960000
329.280121	146.180000
329.373444	146.840000
329.466797	146.460000
329.560120	146.360000
329.653473	146.720000
329.746796	146.300000
329.840149	146.060000
329.933502	146.360000
330.026825	146.000000
330.120178	145.740000
330.213562	145.500000
330.306854	145.320000
330.400238	144.960000
330.493561	144.940000
330.586945	145.800000
330.680237	146.180000
330.773621	146.580000
330.866974	146.700000
330.960327	147.080000
331.053680	146.380000
331.147003	146.260000
331.240356	146.060000
331.333710	146.360000
331.427063	146.100000
331.520416	146.300000
331.613770	146.460000
331.707123	146.440000
331.800476	146.160000
331.893829	147.120000
331.987152	147.100000
332.080505	147.000000
332.173859	147.040000
332.267212	147.040000
332.360565	146.380000
332.453918	146.000000
332.547333	145.920000
332.640656	145.880000
332.734039	145.960000
332.827362	145.560000
332.920746	146.100000
333.014069	146.340000
333.107452	146.760000
333.200806	146.680000
333.294159	147.100000
333.387543	146.800000
333.480896	146.620000
333.574249	146.400000
333.667603	146.180000
333.760956	145.900000
333.854340	145.880000
333.947693	146.000000
334.041046	145.900000
334.134430	146.520000
334.227783	146.300000
334.321136	146.400000
334.414520	146.020000
334.507874	146.240000
334.601227	146.260000
334.694611	146.380000
334.787964	146.080000
334.881348	146.480000
334.974701	146.180000
335.068085	145.700000
335.161438	146.120000
335.254822	146.400000
335.348175	146.240000
335.441559	145.900000
335.534943	146.500000
335.628296	146.020000
335.721680	145.880000
335.815033	146.200000
335.908417	146.760000
336.001770	146.620000
336.095154	146.840000
336.188538	146.500000
336.281891	145.800000
336.375275	145.060000
336.468658	144.660000
336.562012	144.660000
336.655396	145.280000
336.748779	145.900000
336.842133	146.320000
336.935516	146.700000
337.028900	146.100000
337.122284	145.980000
337.215637	146.280000
337.309021	146.280000
337.402435	146.060000
337.495789	146.400000
337.589203	146.100000
337.682526	145.560000
337.775940	145.820000
337.869324	145.620000
337.962708	145.740000
338.056091	146.180000
338.149475	145.980000
338.242859	145.820000
338.336243	145.780000
338.429626	145.820000
338.523010	145.580000
338.616394	145.420000
338.709778	145.580000
338.803162	145.920000
338.896545	146.280000
338.989929	145.800000
339.083313	146.400000
339.176697	146.160000
339.270081	145.560000
339.363464	145.520000
339.456848	146.220000
339.550232	145.300000
339.643616	145.040000
339.737030	145.500000
339.830383	145.060000
339.923828	145.140000
340.017181	145.660000
340.110596	145.680000
340.203949	145.560000
340.297363	145.460000
340.390778	145.280000
340.484161	145.320000
340.577545	145.560000
340.670959	145.680000
340.764343	145.700000
340.857727	145.540000
340.951111	145.060000
341.044525	145.360000
341.137909	144.960000
341.231293	145.080000
341.324707	144.820000
341.418091	145.880000
341.511505	145.720000
341.604889	146.360000
341.698303	146.620000
341.791687	146.940000
341.885071	146.240000
341.978485	146.040000
342.071899	145.840000
342.165283	145.920000
342.258698	146.260000
342.352081	146.540000
342.445496	147.180000
342.538879	147.140000
342.632324	146.480000
342.725708	146.020000
342.819122	145.880000
342.912506	145.120000
343.005920	145.140000
343.099335	146.380000
343.192719	146.140000
343.286133	146.020000
343.379547	146.460000
343.472931	146.380000
343.566345	145.640000
343.659760	146.060000
343.753143	145.800000
343.846558	145.440000
343.939972	145.460000
344.033386	145.860000
344.126770	145.500000
344.220184	145.860000
344.313599	146.180000
344.407043	146.420000
344.500427	145.700000
344.593872	146.440000
344.687225	146.120000
344.780670	145.860000
344.874054	145.260000
344.967499	145.900000
345.060913	145.920000
345.154327	146.300000
345.247742	146.140000
345.341156	146.480000
345.434570	145.920000
345.527985	145.680000
345.621399	145.840000
345.714813	145.720000
345.808228	145.880000
345.901642	145.900000
345.995056	145.320000
346.088470	145.180000
346.181885	145.460000
346.275299	145.160000
346.368713	145.020000
346.462128	145.040000
346.555573	144.860000
346.648987	145.200000
346.742401	145.180000
346.835815	145.820000
346.929260	145.740000
347.022644	145.860000
347.116119	146.080000
347.209503	146.540000
347.302948	147.000000
347.396362	147.560000
347.489807	147.760000
347.583221	147.940000
347.676636	147.340000
347.770050	146.320000
347.863495	146.060000
347.956909	145.900000
348.050323	145.320000
348.143768	145.360000
348.237183	145.140000
348.330597	145.600000
348.424042	145.880000
348.517456	146.180000
348.610901	146.280000
348.704315	146.420000
348.797760	145.480000
348.891174	144.820000
348.984619	144.140000
349.078033	144.380000
349.171448	145.020000
349.264923	145.180000
349.358337	145.380000
349.451782	145.640000
349.545197	145.220000
349.638641	144.740000
349.732086	144.540000
349.825500	144.920000
349.918945	144.640000
350.012390	145.400000
350.105804	145.760000
350.199249	146.140000
350.292664	146.540000
350.386108	146.880000
350.479553	147.200000
350.572968	147.120000
350.666412	147.260000
350.759857	146.520000
350.853302	146.920000
350.946716	146.240000
351.040161	146.260000
351.133606	146.080000
351.227081	146.340000
351.320465	146.680000
351.413940	146.620000
351.507355	146.720000
351.600830	146.780000
351.694244	146.440000
351.787720	146.200000
351.881104	146.080000
351.974579	145.460000
352.067993	146.280000
352.161469	146.740000
352.254883	146.020000
352.348358	146.020000
352.441803	146.460000
352.535248	145.900000
352.628693	146.040000
352.722137	146.000000
352.815582	146.200000
352.909027	146.180000
353.002472	145.920000
353.095917	145.760000
353.189362	146.260000
353.282806	146.040000
353.376251	146.060000
353.469696	145.920000
353.563141	146.060000
353.656586	145.640000
353.750061	145.500000
353.843475	145.240000
353.936981	145.980000
354.030396	145.480000
354.123871	145.680000
354.217285	146.680000
354.310760	147.200000
354.404175	146.920000
354.497681	146.980000
354.591095	146.860000
354.684570	145.440000
354.777985	144.720000
354.871490	144.520000
354.964935	145.020000
355.058380	145.260000
355.151855	145.520000
355.245300	146.380000
355.338745	146.680000
355.432220	146.520000
355.525665	146.040000
355.619110	146.600000
355.712585	146.180000
355.806030	145.740000
355.899475	145.360000
355.992950	146.000000
356.086426	146.000000
356.179871	145.920000
356.273346	146.100000
356.366791	146.300000
356.460266	146.500000
356.553711	146.300000
356.647186	146.260000
356.740631	146.260000
356.834106	146.140000
356.927551	145.620000
357.021027	145.780000
357.114471	145.960000
357.207947	146.120000
357.301422	146.420000
357.394867	146.560000
357.488342	146.840000
357.581818	146.860000
357.675262	147.140000
357.768738	146.220000
357.862213	145.560000
357.955658	145.300000
358.049133	145.020000
358.142609	144.820000
358.236053	145.220000
358.329529	145.520000
358.423035	145.860000
358.516449	145.800000
358.609955	146.180000
358.703400	146.940000
358.796906	147.320000
358.890350	146.460000
358.983826	146.840000
359.077271	145.960000
359.170776	145.220000
359.264221	145.020000
359.357727	145.580000
359.451172	145.640000
359.544647	146.060000
359.638123	146.080000
359.731598	146.400000
359.825073	146.540000
359.918549	146.600000
360.012024	146.520000
360.105499	146.320000
360.198975	146.280000
360.292450	146.200000
360.385925	146.080000
360.479401	145.980000
360.572876	146.360000
360.666351	146.600000
360.759857	146.580000
360.853302	146.440000
360.946808	145.920000
361.040253	146.140000
361.133759	145.500000
361.227203	145.600000
361.320709	145.380000
361.414154	146.140000
361.507660	146.440000
361.601105	147.080000
361.694641	147.100000
361.788086	147.100000
361.881592	147.560000
361.975067	147.040000
362.068542	147.200000
362.162018	147.380000
362.255524	146.920000
362.348999	146.340000
362.442474	146.520000
362.535950	145.620000
362.629456	145.440000
362.722931	145.860000
362.816406	146.040000
362.909882	146.200000
363.003387	146.360000
363.096863	146.300000
363.190338	146.540000
363.283875	146.420000
363.377319	146.300000
363.470825	146.880000
363.564301	146.580000
363.657806	146.420000
363.751282	146.180000
363.844788	147.060000
363.938232	146.420000
364.031769	147.100000
364.125214	147.280000
364.218750	147.860000
364.312225	146.360000
364.405731	146.560000
364.499207	145.800000
364.592712	145.480000
364.686188	145.080000
364.779694	145.660000
364.873169	145.980000
364.966675	145.900000
365.060150	145.960000
365.153656	146.340000
365.247131	146.060000
365.340637	145.920000
365.434143	146.720000
365.527618	146.900000
365.621155	146.180000
365.714600	146.200000
365.808136	146.200000
365.901611	144.960000
365.995117	144.940000
366.088593	145.060000
366.182129	145.020000
366.275604	144.900000
366.369110	145.580000
366.462585	145.380000
366.556122	145.940000
366.649567	146.380000
366.743103	146.560000
366.836609	146.400000
366.930115	146.820000
367.023590	146.760000
367.117096	146.400000
367.210602	146.240000
367.304108	146.880000
367.397614	147.380000
367.491119	147.480000
367.584595	147.700000
367.678101	147.760000
367.771606	147.420000
367.865112	146.900000
367.958649	146.240000
368.052124	146.200000
368.145660	146.260000
368.239136	146.700000
368.332672	146.800000
368.426147	147.180000
368.519684	146.860000
368.613159	147.160000
368.706696	146.660000
368.800171	146.540000
368.893707	146.620000
368.987183	146.840000
369.080719	146.800000
369.174225	146.440000
369.267731	146.760000
369.361237	146.560000
369.454742	146.640000
369.548248	146.680000
369.641754	146.840000
369.735260	146.360000
369.828766	145.640000
369.922272	146.180000
370.015808	145.720000
370.109314	145.540000
370.202820	145.500000
370.296356	146.860000
370.389832	146.240000
370.483368	145.980000
370.576874	146.020000
370.670410	146.360000
370.763885	145.300000
370.857422	145.320000
370.950928	145.180000
371.044464	145.680000
371.137939	145.720000
371.231476	146.180000
371.324982	146.980000
371.418518	147.540000
371.512024	147.460000
371.605560	147.100000
371.699066	147.260000
371.792572	146.300000
371.886108	146.360000
371.979614	146.320000
372.073120	146.780000
372.166656	146.480000
372.260162	146.920000
372.353668	146.580000
372.447205	146.440000
372.540710	146.120000
372.634277	146.000000
372.727753	146.160000
372.821320	146.240000
372.914795	146.320000
373.008362	146.260000
373.101837	146.600000
373.195404	146.140000
373.288879	146.400000
373.382446	146.920000
373.475922	146.840000
373.569489	147.220000
373.662964	147.540000
373.756531	147.340000
373.850037	147.420000
373.943573	147.580000
374.037109	146.460000
374.130615	146.420000
374.224152	146.780000
374.317657	146.580000
374.411194	147.260000
374.504730	147.640000
374.598236	147.280000
374.691772	146.940000
374.785309	146.560000
374.878815	145.420000
374.972351	145.780000
375.065887	146.080000
375.159454	146.720000
375.252930	146.520000
375.346497	147.040000
375.440002	147.200000
375.533569	146.920000
375.627045	146.160000
375.720612	146.080000
375.814117	146.300000
375.907684	146.100000
376.001160	145.940000
376.094727	145.860000
376.188232	146.780000
376.281799	146.800000
376.375336	146.720000
376.468872	147.360000
376.562408	147.340000
376.655914	146.620000
376.749451	146.340000
376.842987	146.400000
376.936523	146.040000
377.030060	146.220000
377.123596	146.460000
377.217133	146.000000
377.310669	146.040000
377.404205	146.440000
377.497772	146.940000
377.591278	146.620000
377.684845	147.700000
377.778351	147.760000
377.871918	147.340000
377.965424	146.440000
378.058990	146.560000
378.152496	145.980000
378.246063	146.260000
378.339569	146.320000
378.433136	146.740000
378.526642	146.540000
378.620209	146.660000
378.713745	146.060000
378.807312	146.500000
378.900848	146.520000
378.994385	147.000000
379.087921	146.160000
379.181458	146.720000
379.274994	145.940000
379.368530	145.620000
379.462097	145.860000
379.555634	146.580000
379.649170	145.760000
379.742706	145.700000
379.836273	146.140000
379.929810	145.420000
380.023376	145.000000
380.116882	145.300000
380.210449	145.120000
380.303986	144.680000
380.397552	144.440000
380.491058	144.840000
380.584656	144.860000
380.678162	145.540000
380.771729	145.560000
380.865265	146.480000
380.958832	146.380000
381.052368	146.460000
381.145935	146.620000
381.239471	147.260000
381.333008	146.800000
381.426575	146.920000
381.520111	147.000000
381.613647	147.100000
381.707214	146.720000
381.800751	146.440000
381.894318	146.220000
381.987854	145.780000
382.081421	145.480000
382.174988	145.420000
382.268524	145.320000
382.362091	145.620000
382.455627	146.260000
382.549194	146.020000
382.642731	145.660000
382.736298	145.580000
382.829834	145.440000
382.923401	145.840000
383.016937	146.240000
383.110504	146.640000
383.204041	147.100000
383.297607	147.260000
383.391174	146.480000
383.484741	146.820000
383.578278	146.600000
383.671844	146.260000
383.765411	145.280000
383.858948	145.440000
383.952515	145.160000
384.046051	145.560000
384.139618	145.940000
384.233185	146.840000
384.326721	146.880000
384.420288	147.260000
384.513855	146.960000
384.607422	147.200000
384.700989	147.300000
384.794525	147.000000
384.888123	146.500000
384.981659	146.660000
385.075226	146.100000
385.168762	145.800000
385.262360	145.880000
385.355896	145.400000
385.449463	145.360000
385.542999	145.420000
385.636597	146.100000
385.730164	146.340000
385.823730	146.080000
385.917267	145.760000
386.010834	146.020000
386.104401	145.520000
386.197968	145.620000
386.291534	146.260000
386.385101	146.360000
386.478668	146.800000
386.572235	146.700000
386.665802	146.260000
386.759338	146.300000
386.852905	146.160000
386.946472	145.500000
387.040070	145.940000
387.133606	146.180000
387.227203	145.680000
387.320740	146.220000
387.414337	146.360000
387.507874	145.840000
387.601471	146.120000
387.695007	146.280000
387.788605	145.740000
387.882141	145.580000
387.975739	145.580000
388.069275	144.980000
388.162872	145.120000
388.256439	145.440000
388.350037	145.520000
388.443604	145.460000
388.537170	145.580000
388.630737	146.280000
388.724304	146.340000
388.817871	146.020000
388.911438	145.920000
389.005005	146.220000
389.098602	146.200000
389.192169	145.660000
389.285736	146.260000
389.379333	146.740000
389.472870	146.260000
389.566467	146.160000
389.660034	146.420000
389.753632	145.760000
389.847168	145.700000
389.940765	146.120000
390.034332	146.060000
390.127930	146.140000
390.221466	146.340000
390.315063	146.040000
390.408630	145.380000
390.502228	144.460000
390.595795	144.660000
390.689362	144.960000
390.782959	145.420000
390.876526	146.100000
390.970093	146.240000
391.063690	146.580000
391.157257	146.480000
391.250824	146.480000
391.344421	146.320000
391.437988	146.900000
391.531555	147.000000
391.625153	146.940000
391.718750	147.040000
391.812317	146.980000
391.905914	146.760000
391.999481	146.280000
392.093079	146.380000
392.186615	146.220000
392.280243	146.180000
392.373779	146.240000
392.467407	146.960000
392.560944	146.980000
392.654572	146.600000
392.748108	146.560000
392.841736	146.800000
392.935303	146.220000
393.028900	146.160000
393.122467	146.460000
393.216064	146.040000
393.309631	145.280000
393.403229	144.480000
393.496796	144.360000
393.590393	143.720000
393.683990	144.020000
393.777557	144.960000
393.871155	145.520000
393.964722	145.960000
394.058350	146.560000
394.151917	146.700000
394.245514	145.660000
394.339081	146.280000
394.432678	146.200000
394.526245	145.840000
394.619873	145.380000
394.713409	145.800000
394.807037	145.080000
394.900604	145.020000
394.994202	145.400000
395.087769	145.740000
395.181396	145.380000
395.274994	146.460000
395.368561	145.820000
395.462158	145.860000
395.555756	145.580000
395.649353	146.240000
395.742920	145.260000
395.836517	146.120000
395.930115	145.280000
396.023712	145.660000
396.117279	145.840000
396.210876	145.360000
396.304474	144.920000
396.398071	145.660000
396.491669	145.840000
396.585266	145.340000
396.678833	145.700000
396.772461	145.960000
396.866028	145.680000
396.959656	146.040000
397.053223	146.360000
397.146851	146.240000
397.240417	146.220000
397.334015	146.900000
397.427582	146.880000
397.521210	147.280000
397.614807	147.980000
397.708405	148.540000
397.802002	148.660000
397.895599	149.780000
397.989197	150.640000
398.082794	151.800000
398.176392	153.440000
398.269989	155.760000
398.363586	157.720000
398.457184	161.000000
398.550781	164.320000
398.644379	167.100000
398.737976	170.000000
398.831573	173.640000
398.925201	176.500000
399.018768	179.440000
399.112396	182.820000
399.205963	186.680000
399.299591	189.980000
399.393158	194.320000
399.486786	200.200000
399.580353	206.380000
399.673981	213.060000
399.767578	221.080000
399.861206	229.280000
399.954773	237.840000
400.048401	246.920000
400.141998	254.680000
400.235596	263.040000
400.329193	269.400000
400.422791	274.420000
400.516418	278.040000
400.610016	282.160000
400.703613	283.780000
400.797211	283.860000
400.890808	282.280000
400.984436	279.280000
401.078033	272.800000
401.171631	265.060000
401.265259	256.740000
401.358826	248.200000
401.452484	238.320000
401.546051	229.160000
401.639679	218.560000
401.733246	208.840000
401.826904	198.480000
401.920471	189.020000
402.014099	181.120000
402.107697	174.800000
402.201324	169.200000
402.294891	165.040000
402.388550	161.660000
402.482147	158.400000
402.575745	155.800000
402.669373	152.980000
402.762970	150.960000
402.856567	149.860000
402.950195	149.040000
403.043793	147.980000
403.137390	148.540000
403.231018	147.420000
403.324615	147.280000
403.418243	146.400000
403.511841	146.560000
403.605469	145.920000
403.699066	146.280000
403.792694	146.140000
403.886292	146.560000
403.979919	146.620000
404.073517	146.340000
404.167145	146.980000
404.260712	146.960000
404.354370	146.880000
404.447937	146.920000
404.541595	147.400000
404.635162	147.340000
404.728821	147.820000
404.822418	147.480000
404.916046	147.120000
405.009644	147.160000
405.103271	147.380000
405.196899	146.800000
405.290497	146.940000
405.384125	147.700000
405.477722	147.020000
405.571350	146.280000
405.664948	146.260000
405.758575	145.800000
405.852203	144.940000
405.945801	145.140000
406.039429	145.000000
406.133057	144.840000
406.226654	145.080000
406.320312	145.320000
406.413879	145.780000
406.507538	146.360000
406.601135	146.000000
406.694763	146.620000
406.788361	146.180000
406.882019	145.640000
406.975586	145.940000
407.069244	146.800000
407.162872	146.640000
407.256470	146.780000
407.350098	147.120000
407.443726	146.580000
407.537323	146.100000
407.630951	146.160000
407.724579	145.740000
407.818207	146.100000
407.911804	145.960000
408.005432	145.820000
408.099060	145.720000
408.192688	146.420000
408.286285	145.740000
408.379913	145.600000
408.473572	145.580000
408.567169	145.080000
408.660828	145.200000
408.754395	145.460000
408.848053	145.380000
408.941650	145.680000
409.035309	145.580000
409.128906	145.400000
409.222565	145.460000
409.316132	145.880000
409.409790	145.540000
409.503387	145.800000
409.597046	145.800000
409.690674	145.980000
409.784302	145.940000
409.877930	145.920000
409.971558	145.920000
410.065186	145.840000
410.158783	145.460000
410.252411	145.440000
410.346039	145.880000
410.439667	145.860000
410.533295	145.940000
410.626923	146.500000
410.720551	146.220000
410.814209	146.600000
410.907806	146.900000
411.001465	146.440000
411.095062	145.860000
411.188721	146.160000
411.282318	145.700000
411.375977	145.200000
411.469574	145.760000
411.563232	145.900000
411.656830	145.740000
411.750488	145.760000
411.844086	145.820000
411.937744	145.740000
412.031372	145.680000
412.125000	145.880000
412.218628	145.580000
412.312256	146.320000
412.405884	147.040000
412.499512	146.880000
412.593170	147.020000
412.686798	147.440000
412.780426	146.700000
412.874054	146.420000
412.967682	146.780000
413.061310	147.040000
413.154968	146.960000
413.248566	147.620000
413.342224	147.320000
413.435852	147.500000
413.529510	146.900000
413.623108	146.540000
413.716766	146.160000
413.810364	146.480000
413.904022	146.140000
413.997650	146.300000
414.091309	147.180000
414.184906	147.020000
414.278564	146.800000
414.372192	147.000000
414.465851	146.980000
414.559479	146.320000
414.653107	147.240000
414.746735	146.760000
414.840393	146.660000
414.934021	146.920000
415.027649	146.700000
415.121277	145.880000
415.214935	146.600000
415.308563	146.600000
415.402191	145.760000
415.495850	145.820000
415.589478	146.140000
415.683136	145.540000
415.776733	145.840000
415.870422	146.600000
415.964020	146.260000
416.057678	146.160000
416.151306	146.300000
416.244965	146.000000
416.338562	145.780000
416.432251	146.620000
416.525848	147.180000
416.619507	147.260000
416.713165	147.600000
416.806793	147.600000
416.900421	147.320000
416.994080	146.500000
417.087708	146.500000
417.181366	145.900000
417.274994	145.940000
417.368622	146.360000
417.462280	147.000000
417.555908	146.880000
417.649567	146.900000
417.743195	146.800000
417.836853	146.320000
417.930481	146.480000
418.024170	146.520000
418.117767	146.860000
418.211426	147.380000
418.305054	147.620000
418.398712	146.940000
418.492340	147.120000
418.585999	147.500000
418.679626	147.220000
418.773285	147.180000
418.866913	147.860000
418.960571	147.940000
419.054230	147.620000
419.147858	147.620000
419.241516	147.500000
419.335144	146.880000
419.428802	146.680000
419.522461	146.340000
419.616089	145.960000
419.709747	146.500000
419.803375	146.520000
419.897034	146.680000
419.990662	146.780000
420.084320	147.260000
420.177979	147.020000
420.271606	147.320000
420.365295	147.460000
420.458893	147.760000
420.552582	148.020000
420.646210	147.740000
420.739868	147.220000
420.833496	146.960000
420.927155	146.500000
421.020782	145.940000
421.114471	145.500000
421.208069	145.800000
421.301758	145.800000
421.395386	146.240000
421.489044	146.260000
421.582703	146.740000
421.676361	146.940000
421.769989	146.720000
421.863647	146.900000
421.957306	146.980000
422.050934	146.840000
422.144592	146.660000
422.238251	146.760000
422.331909	146.200000
422.425537	146.040000
422.519196	146.240000
422.612854	145.860000
422.706543	145.580000
422.800140	146.080000
422.893829	145.520000
422.987457	145.140000
423.081146	145.400000
423.174744	146.040000
423.268433	145.780000
423.362061	146.040000
423.455750	146.040000
423.549347	146.180000
423.643036	145.320000
423.736664	145.400000
423.830353	145.700000
423.924011	146.220000
424.017639	145.900000
424.111298	145.980000
424.204956	145.820000
424.298615	145.820000
424.392273	145.480000
424.485931	145.820000
424.579559	146.120000
424.673218	146.080000
424.766876	146.440000
424.860535	146.180000
424.954193	145.940000
425.047882	146.360000
425.141510	146.500000
425.235199	146.340000
425.328796	146.120000
425.422485	145.740000
425.516113	144.760000
425.609802	144.660000
425.703430	144.360000
425.797119	144.540000
425.890747	144.940000
425.984436	145.460000
426.078064	145.500000
426.171753	145.580000
426.265411	145.340000
426.359070	145.180000
426.452728	145.240000
426.546356	144.760000
426.640015	144.740000
426.733673	144.940000
426.827332	144.680000
426.920990	145.500000
427.014648	145.820000
427.108307	145.940000
427.201965	146.600000
427.295624	147.360000
427.389282	146.420000
427.482941	146.580000
427.576630	146.480000
427.670258	145.520000
427.763947	145.180000
427.857574	145.580000
427.951263	145.500000
428.044922	145.500000
428.138611	145.980000
428.232239	146.500000
428.325928	146.540000
428.419556	147.280000
428.513245	147.180000
428.606903	147.380000
428.700562	146.660000
428.794220	145.920000
428.887878	144.980000
428.981537	145.260000
429.075195	145.260000
429.168854	145.780000
429.262512	146.340000
429.356201	146.580000
429.449860	146.400000
429.543518	146.380000
429.637177	146.460000
429.730835	146.200000
429.824493	146.160000
429.918182	146.500000
430.011810	146.240000
430.105530	145.640000
430.199158	146.160000
430.292847	146.160000
430.386475	145.940000
430.480164	145.760000
430.573792	145.540000
430.667511	145.080000
430.761139	144.640000
430.854828	145.140000
430.948456	145.140000
431.042145	145.600000
431.135834	145.660000
431.229492	146.280000
431.323151	145.900000
431.416809	146.180000
431.510468	146.160000
431.604156	145.940000
431.697815	145.740000
431.791473	145.160000
431.885132	144.720000
431.978821	145.120000
432.072479	145.600000
432.166138	146.040000
432.259827	146.360000
432.353485	147.000000
432.447174	146.760000
432.540802	146.640000
432.634491	146.620000
432.728149	146.940000
432.821838	147.520000
432.915466	147.400000
433.009186	147.440000
433.102814	146.580000
433.196503	146.320000
433.290131	145.880000
433.383850	145.900000
433.477509	145.900000
433.571167	146.960000
433.664856	147.520000
433.758514	147.680000
433.852173	147.520000
433.945862	147.220000
434.039520	147.140000
434.133179	146.200000
434.226868	145.820000
434.320526	145.400000
434.414185	145.980000
434.507874	145.600000
434.601562	146.060000
434.695221	146.080000
434.788910	146.540000
434.882538	146.420000
434.976257	146.040000
435.069885	146.140000
435.163574	146.000000
435.257233	145.500000
435.350922	145.140000
435.444580	145.240000
435.538269	144.820000
435.631897	145.340000
435.725616	146.240000
435.819275	146.840000
435.912964	147.340000
436.006622	147.880000
436.100311	147.340000
436.193970	146.540000
436.287628	146.080000
436.381317	145.500000
436.474976	144.900000
436.568665	144.740000
436.662323	144.920000
436.756012	144.920000
436.849670	144.820000
436.943390	145.140000
437.037018	145.200000
437.130737	145.460000
437.224365	145.340000
437.318085	145.800000
437.411713	145.740000
437.505432	146.240000
437.599060	146.540000
437.692780	147.300000
437.786407	147.060000
437.880127	146.900000
437.973755	146.460000
438.067474	145.960000
438.161133	145.400000
438.254822	146.020000
438.348480	146.080000
438.442169	146.740000
438.535828	147.000000
438.629517	146.740000
438.723175	145.740000
438.816864	146.300000
438.910553	145.640000
439.004211	145.320000
439.097900	145.120000
439.191559	145.300000
439.285248	144.460000
439.378906	144.740000
439.472626	144.580000
439.566284	144.540000
439.659973	145.160000
439.753632	145.280000
439.847321	145.700000
439.940979	146.140000
440.034698	146.560000
440.128326	145.720000
440.222046	145.720000
440.315674	144.540000
440.409393	144.540000
440.503082	144.080000
440.596741	144.500000
440.690430	144.680000
440.784088	144.920000
440.877777	144.380000
440.971466	144.680000
441.065125	144.680000
441.158813	144.460000
441.252502	145.020000
441.346161	145.460000
441.439850	145.480000
441.533539	145.220000
441.627197	145.720000
441.720886	145.140000
441.814606	145.620000
441.908234	146.380000
442.001953	146.460000
442.095612	146.440000
442.189301	146.880000
442.282959	146.860000
442.376678	145.640000
442.470306	146.520000
442.564026	146.360000
442.657684	146.500000
442.751404	146.320000
442.845032	147.400000
442.938751	146.980000
443.032440	146.880000
443.126099	146.300000
443.219788	146.340000
443.313477	146.020000
443.407166	145.760000
443.500824	145.740000
443.594513	145.980000
443.688202	145.880000
443.781891	145.440000
443.875549	145.580000
443.969238	145.820000
444.062927	146.080000
444.156647	146.140000
444.250275	146.380000
444.343994	146.220000
444.437653	146.220000
444.531372	145.760000
444.625031	145.280000
444.718719	145.120000
444.812378	145.140000
444.906097	145.100000
444.999756	144.860000
445.093445	145.060000
445.187103	145.120000
445.280823	145.700000
445.374512	144.960000
445.468201	145.520000
445.561859	145.240000
445.655548	145.140000
445.749237	144.200000
445.842926	144.880000
445.936615	145.260000
446.030304	145.460000
446.123962	145.860000
446.217651	145.920000
446.311340	146.100000
446.405029	145.280000
446.498749	145.080000
446.592407	144.440000
446.686096	144.880000
446.779755	144.820000
446.873474	145.100000
446.967133	145.400000
447.060852	145.600000
447.154510	145.660000
447.248230	145.640000
447.341858	145.720000
447.435577	145.580000
447.529236	145.540000
447.622955	145.280000
447.716644	145.240000
447.810333	145.680000
447.904022	146.040000
447.997711	146.000000
448.091400	146.420000
448.185059	146.220000
448.278748	146.000000
448.372437	145.620000
448.466125	145.740000
448.559814	145.560000
448.653503	146.140000
448.747192	146.420000
448.840912	146.860000
448.934570	147.200000
449.028290	147.100000
449.121948	146.180000
449.215637	145.520000
449.309296	145.100000
449.403015	145.040000
449.496674	145.100000
449.590393	145.380000
449.684052	145.480000
449.777771	146.160000
449.871429	145.440000
449.965149	145.300000
450.058838	145.720000
450.152527	146.200000
450.246216	145.880000
450.339905	146.140000
450.433594	145.820000
450.527283	146.280000
450.620972	145.920000
450.714661	145.900000
450.808350	146.000000
450.902039	146.680000
450.995728	146.040000
451.089417	145.720000
451.183105	145.860000
451.276794	146.220000
451.370514	145.320000
451.464172	144.840000
451.557892	144.700000
451.651550	144.740000
451.745270	144.320000
451.838928	144.460000
451.932648	145.060000
452.026306	145.720000
452.120026	144.980000
452.213684	145.420000
452.307404	145.760000
452.401062	145.800000
452.494781	146.040000
452.588470	146.460000
452.682159	146.120000
452.775848	146.040000
452.869537	145.220000
452.963226	144.820000
453.056915	144.780000
453.150604	145.320000
453.244293	145.560000
453.337982	146.700000
453.431671	147.000000
453.525360	147.480000
453.619049	147.240000
453.712769	147.060000
453.806427	146.400000
453.900146	145.720000
453.993805	145.660000
454.087555	145.940000
454.181213	146.060000
454.274933	146.000000
454.368591	146.320000
454.462311	145.760000
454.555969	145.340000
454.649689	146.100000
454.743347	145.960000
454.837067	146.660000
454.930756	147.180000
455.024445	147.380000
455.118134	146.920000
455.211853	147.300000
455.305542	146.460000
455.399231	146.400000
455.492920	146.280000
455.586609	146.100000
455.680298	146.000000
455.773987	145.960000
455.867676	145.780000
455.961365	146.060000
456.055084	145.860000
456.148773	145.840000
456.242493	145.960000
456.336151	145.940000
456.429871	145.980000
456.523529	146.500000
456.617249	146.060000
456.710907	146.640000
456.804626	146.360000
456.898315	145.940000
456.992035	145.560000
457.085693	145.820000
457.179413	144.760000
457.273102	145.940000
457.366791	146.060000
457.460480	146.320000
457.554199	146.820000
457.647888	147.200000
457.741577	146.540000
457.835266	146.580000
457.928955	146.640000
458.022644	146.660000
458.116364	147.280000
458.210052	146.880000
458.303741	147.100000
458.397461	146.600000
458.491119	145.860000
458.584839	145.400000
458.678528	145.340000
458.772247	144.840000
458.865906	145.060000
458.959625	146.180000
459.053284	146.120000
459.147003	146.000000
459.240692	146.800000
459.334412	146.700000
459.428070	146.080000
459.521790	146.040000
459.615479	146.220000
459.709198	146.080000
459.802887	145.940000
459.896576	145.940000
459.990265	145.980000
460.083954	146.020000
460.177673	145.340000
460.271362	145.660000
460.365051	145.500000
460.458740	145.480000
460.552429	145.000000
460.646149	145.060000
460.739838	144.780000
460.833527	144.840000
460.927246	144.600000
461.020905	144.900000
461.114655	144.980000
461.208313	145.200000
461.302032	144.840000
461.395691	145.320000
461.489441	145.240000
461.583099	145.200000
461.676819	144.940000
461.770477	145.540000
461.864197	145.280000
461.957916	145.200000
462.051605	144.880000
462.145294	145.780000
462.238983	145.340000
462.332703	145.720000
462.426392	146.460000
462.520081	146.560000
462.613770	145.640000
462.707489	145.780000
462.801178	145.420000
462.894867	144.940000
462.988556	145.140000
463.082275	145.360000
463.175964	144.860000
463.269684	145.340000
463.363342	145.620000
463.457092	145.220000
463.550751	145.680000
463.644470	146.120000
463.738129	145.580000
463.831879	145.720000
463.925537	146.580000
464.019257	146.240000
464.112946	146.420000
464.206665	146.480000
464.300323	146.380000
464.394043	145.920000
464.487762	145.700000
464.581451	145.900000
464.675140	145.860000
464.768829	145.760000
464.862549	146.000000
464.956238	146.340000
465.049927	146.060000
465.143646	146.240000
465.237335	146.080000
465.331024	146.320000
465.424713	146.220000
465.518433	146.440000
465.612152	146.340000
465.705811	146.460000
465.799561	146.120000
465.893219	145.720000
465.986938	145.640000
466.080597	145.540000
466.174347	145.480000
466.268005	145.580000
466.361725	145.860000
466.455414	145.620000
466.549133	145.280000
466.642792	145.680000
466.736542	145.180000
466.830231	145.020000
466.923920	145.020000
467.017609	145.240000
467.111328	144.600000
467.205017	144.820000
467.298706	144.940000
467.392426	145.080000
467.486115	145.500000
467.579803	145.360000
467.673523	145.740000
467.767212	146.040000
467.860901	145.940000
467.954651	145.780000
468.048309	146.360000
468.142029	145.820000
468.235718	145.700000
468.329437	145.840000
468.423096	145.880000
468.516846	145.720000
468.610504	145.940000
468.704224	145.640000
468.797913	145.600000
468.891632	145.720000
468.985291	145.620000
469.079010	145.800000
469.172729	145.320000
469.266418	145.560000
469.360107	145.620000
469.453827	145.360000
469.547516	145.280000
469.641205	145.920000
469.734924	146.080000
469.828613	146.440000
469.922302	147.140000
470.016022	147.020000
470.109711	146.940000
470.203430	146.120000
470.297150	145.200000
470.390808	145.340000
470.484558	145.380000
470.578217	145.900000
470.671936	146.420000
470.765625	147.180000
470.859344	146.220000
470.953003	146.300000
471.046753	145.820000
471.140411	145.260000
471.234131	145.060000
471.327820	146.020000
471.421539	146.140000
471.515228	145.740000
471.608948	146.380000
471.702637	146.020000
471.796326	145.340000
471.890045	145.320000
471.983734	145.740000
472.077423	145.220000
472.171143	145.380000
472.264832	145.720000
472.358521	145.460000
472.452240	145.240000
472.545929	145.940000
472.639648	146.340000
472.733337	146.500000
472.827057	147.060000
472.920746	147.120000
473.014465	147.340000
473.108124	147.120000
473.201874	146.820000
473.295532	146.540000
473.389252	147.040000
473.482941	146.720000
473.576660	146.200000
473.670319	146.220000
473.764069	146.140000
473.857727	145.940000
473.951477	146.020000
474.045166	146.780000
474.138855	146.840000
474.232574	146.940000
474.326263	146.820000
474.419952	146.940000
474.513672	146.700000
474.607361	146.460000
474.701050	146.760000
474.794769	147.140000
474.888458	146.960000
474.982178	147.100000
475.075867	147.200000
475.169586	146.520000
475.263275	146.380000
475.356995	146.300000
475.450653	145.920000
475.544403	145.700000
475.638062	146.600000
475.731812	146.420000
475.825470	146.260000
475.919189	146.480000
476.012878	146.680000
476.106598	146.040000
476.200256	146.180000
476.294006	145.880000
476.387695	146.100000
476.481384	146.060000
476.575104	146.020000
476.668793	145.620000
476.762512	145.800000
476.856201	145.840000
476.949890	145.680000
477.043610	145.500000
477.137299	145.660000
477.230988	146.180000
477.324707	145.920000
477.418396	146.140000
477.512146	146.380000
477.605804	146.240000
477.699524	146.260000
477.793213	146.320000
477.886932	146.240000
477.980591	145.920000
478.074341	145.760000
478.167999	145.140000
478.261749	144.720000
478.355408	144.700000
478.449127	145.080000
478.542816	146.160000
478.636536	146.880000
478.730225	147.060000
478.823944	147.480000
478.917633	147.500000
479.011322	147.260000
479.105042	146.840000
479.198730	147.040000
479.292450	146.720000
479.386139	146.900000
479.479828	146.440000
479.573547	146.760000
479.667267	146.700000
479.760925	147.000000
479.854675	146.960000
479.948334	147.220000
480.042084	146.600000
480.135742	146.920000
480.229462	146.080000
480.323151	146.060000
480.416870	145.160000
480.510529	145.220000
480.604279	144.400000
480.697937	145.260000
480.791656	145.000000
480.885345	145.540000
480.979065	145.540000
481.072754	146.520000
481.166473	146.540000
481.260132	146.520000
481.353882	146.480000
481.447540	146.740000
481.541260	146.320000
481.635010	145.780000
481.728668	145.520000
481.822388	145.720000
481.916077	145.780000
482.009796	145.680000
482.103485	146.100000
482.197205	146.580000
482.290863	146.540000
482.384613	146.340000
482.478271	146.160000
482.571991	146.020000
482.665680	145.620000
482.759399	146.140000
482.853058	146.440000
482.946808	146.700000
483.040466	146.740000
483.134216	146.860000
483.227875	146.260000
483.321594	146.480000
483.415283	146.400000
483.509003	146.400000
483.602661	146.260000
483.696411	146.680000
483.790070	146.520000
483.883789	146.580000
483.977478	146.640000
484.071198	146.800000
484.164917	146.080000
484.258606	145.560000
484.352325	145.520000
484.445984	145.500000
484.539734	145.720000
484.633392	145.600000
484.727142	146.000000
484.820801	145.800000
484.914520	145.640000
485.008209	145.620000
485.101929	146.260000
485.195587	146.120000
485.289337	146.300000
485.382996	146.580000
485.476715	146.660000
485.570404	146.840000
485.664124	146.860000
485.757782	147.440000
485.851532	146.760000
485.945190	146.620000
486.038910	146.800000
486.132599	147.020000
486.226318	146.380000
486.319977	146.760000
486.413727	146.980000
486.507446	146.180000
486.601105	145.580000
486.694855	145.520000
486.788513	145.160000
486.882233	145.160000
486.975922	145.380000
487.069641	145.740000
487.163300	145.780000
487.257050	147.140000
487.350708	146.920000
487.444427	146.640000
487.538116	146.380000
487.631836	146.380000
487.725494	145.940000
487.819214	145.860000
487.912903	145.860000
488.006622	146.220000
488.100281	146.560000
488.194031	146.400000
488.287689	146.880000
488.381409	147.620000
488.475098	147.780000
488.568817	147.820000
488.662476	147.200000
488.756226	146.440000
488.849945	145.800000
488.943604	145.380000
489.037354	145.380000
489.131012	145.780000
489.224731	145.820000
489.318390	145.980000
489.412140	146.100000
489.505798	145.780000
489.599518	145.240000
489.693207	145.600000
489.786926	145.180000
489.880585	145.020000
489.974335	145.260000
490.067993	146.360000
490.161713	146.380000
490.255371	147.440000
490.349121	147.580000
490.442780	147.260000
490.536499	146.420000
490.630188	146.460000
490.723907	145.560000
490.817566	145.720000
490.911285	145.560000
491.004974	145.520000
491.098694	145.060000
491.192413	145.860000
491.286102	145.560000
491.379822	146.140000
491.473480	146.440000
491.567200	146.680000
491.660889	145.800000
491.754608	145.860000
491.848267	145.260000
491.941986	145.180000
492.035675	144.980000
492.129395	145.600000
492.223053	145.600000
492.316772	146.240000
492.410461	146.100000
492.504181	146.280000
492.597839	145.920000
492.691559	146.180000
492.785248	145.780000
492.878967	146.000000
492.972626	145.860000
493.066345	145.980000
493.160034	145.600000
493.253754	145.780000
493.347412	145.340000
493.441132	145.660000
493.534882	146.060000
493.628540	146.400000
493.722260	146.640000
493.815918	147.120000
493.909668	147.540000
494.003326	147.720000
494.097046	147.520000
494.190704	147.160000
494.284454	147.000000
494.378113	147.000000
494.471832	146.620000
494.565491	146.300000
494.659210	146.540000
494.752899	146.560000
494.846619	145.940000
494.940277	146.100000
495.033997	146.320000
495.127686	145.740000
495.221405	145.660000
495.315063	146.000000
495.408783	145.860000
495.502441	145.960000
495.596191	146.140000
495.689850	145.880000
495.783569	145.940000
495.877228	145.780000
495.970947	145.600000
496.064697	145.660000
496.158356	146.560000
496.252075	146.580000
496.345734	146.540000
496.439453	147.400000
496.533142	147.520000
496.626862	147.320000
496.720520	147.160000
496.814240	147.340000
496.907898	146.600000
497.001617	146.800000
497.095306	146.280000
497.189026	146.200000
497.282684	146.280000
497.376404	146.800000
497.470062	146.380000
497.563782	146.580000
497.657471	146.400000
497.751190	146.080000
497.844849	145.880000
497.938568	146.460000
498.032227	146.540000
498.125946	146.660000
498.219635	146.560000
498.313354	146.820000
498.407074	146.380000
498.500732	146.220000
498.594452	146.320000
498.688110	146.080000
498.781830	145.420000
498.875519	145.160000
498.969238	145.020000
499.062897	144.880000
499.156616	145.680000
499.250275	146.020000
499.343994	145.740000
499.437653	146.140000
499.531372	146.400000
499.625061	146.600000
499.718781	146.780000
499.812439	147.580000
499.906158	147.120000
499.999817	146.700000
500.093536	146.000000
500.187195	145.860000
500.280914	145.520000
500.374573	145.780000
500.468323	145.340000
500.561981	145.520000
500.655701	145.080000
500.749420	144.880000
500.843079	145.340000
500.936798	146.120000
501.030457	146.460000
501.124176	146.940000
501.217834	147.120000
501.311554	146.380000
501.405212	146.020000
501.498962	145.320000
501.592621	144.720000
501.686340	145.080000
501.779999	145.540000
501.873718	145.840000
501.967377	146.200000
502.061096	146.820000
502.154755	146.160000
502.248474	145.900000
502.342133	145.880000
502.435852	145.700000
502.529510	146.220000
502.623230	146.820000
502.716888	146.360000
502.810608	146.700000
502.904266	147.260000
502.997986	146.460000
503.091705	146.220000
503.185364	146.580000
503.279083	145.920000
503.372772	145.500000
503.466492	145.460000
503.560150	145.300000
503.653870	145.600000
503.747528	145.880000
503.841248	145.860000
503.934906	146.160000
504.028625	146.140000
504.122284	146.160000
504.216003	146.980000
504.309662	146.580000
504.403381	146.820000
504.497040	147.080000
504.590759	146.940000
504.684418	146.680000
504.778137	147.600000
504.871796	147.760000
504.965515	147.300000
505.059174	147.420000
505.152893	146.520000
505.246521	145.700000
505.340240	145.000000
505.433899	145.500000
505.527618	145.240000
505.621338	145.740000
505.714996	145.740000
505.808716	145.920000
505.902374	146.160000
505.996094	146.380000
506.089752	146.120000
506.183472	146.620000
506.277130	146.420000
506.370850	146.080000
506.464508	145.760000
506.558228	145.880000
506.651886	145.300000
506.745605	145.740000
506.839264	145.740000
506.932983	145.960000
507.026611	145.800000
507.120331	146.440000
507.213989	145.440000
507.307709	145.560000
507.401367	145.900000
507.495087	146.920000
507.588745	146.440000
507.682465	147.640000
507.776123	147.340000
507.869843	147.060000
507.963531	146.420000
508.057190	146.940000
508.150909	146.140000
508.244568	146.480000
508.338287	146.100000
508.431946	145.920000
508.525665	145.740000
508.619324	145.760000
508.713013	145.700000
508.806671	146.160000
508.900391	146.640000
508.994049	146.500000
509.087769	146.460000
509.181427	146.520000
509.275146	146.100000
509.368774	145.420000
509.462494	145.040000
509.556152	145.040000
509.649872	145.180000
509.743530	145.520000
509.837250	145.900000
509.930878	146.260000
510.024597	146.380000
510.118256	146.300000
510.211975	146.080000
510.305695	145.680000
510.399353	146.000000
510.493042	146.680000
510.586700	146.560000
510.680420	147.460000
510.774078	147.600000
510.867798	147.580000
510.961426	146.620000
511.055145	146.780000
511.148804	146.180000
511.242523	146.440000
511.336151	146.460000
511.429871	147.020000
511.523529	146.760000
511.617249	146.340000
511.710876	145.840000
511.804596	145.180000
511.898254	144.600000
511.991974	144.760000
512.085632	144.760000
512.179321	144.960000
512.272949	145.740000
512.366699	146.500000
512.460327	146.300000
512.554077	146.920000
512.647766	146.960000
512.741394	146.320000
512.835144	146.340000
512.928772	146.180000
513.022461	146.080000
513.116150	145.720000
513.209839	146.380000
513.303467	145.880000
513.397217	145.700000
513.490845	145.360000
513.584595	145.560000
513.678223	144.940000
513.771912	144.620000
513.865601	145.060000
513.959290	145.140000
514.052917	145.080000
514.146667	145.720000
514.240295	146.320000
514.333984	146.300000
514.427673	146.280000
514.521362	146.840000
514.614990	146.080000
514.708740	145.980000
514.802368	146.040000
514.896057	145.980000
514.989746	146.640000
515.083435	146.960000
515.177124	147.340000
515.270752	147.140000
515.364502	147.260000
515.458130	146.840000
515.551819	146.480000
515.645508	146.120000
515.739197	146.220000
515.832825	146.240000
515.926575	145.280000
516.020203	145.700000
516.113892	146.280000
516.207520	146.120000
516.301270	146.340000
516.394897	146.720000
516.488586	146.740000
516.582275	146.300000
516.675964	146.020000
516.769592	145.680000
516.863281	146.400000
516.956970	146.680000
517.050659	146.440000
517.144287	146.780000
517.238037	146.820000
517.331665	145.880000
517.425354	145.500000
517.519043	145.380000
517.612732	145.260000
517.706421	145.200000
517.800049	145.380000
517.893738	145.180000
517.987427	145.220000
518.081116	145.340000
518.174744	144.880000
518.268433	145.100000
518.362122	145.940000
518.455811	145.740000
518.549438	146.460000
518.643127	147.560000
518.736816	147.300000
518.830505	146.460000
518.924133	146.640000
519.017822	146.380000
519.111511	145.820000
519.205200	146.320000
519.298828	146.400000
519.392517	146.200000
519.486206	146.060000
519.579895	146.060000
519.673523	145.740000
519.767212	145.860000
519.860901	146.480000
519.954590	146.380000
520.048279	146.160000
520.141907	146.020000
520.235596	146.900000
520.329224	147.080000
520.422974	146.820000
520.516602	146.980000
520.610291	146.720000
520.703918	146.060000
520.797607	145.400000
520.891296	145.400000
520.984985	145.560000
521.078613	146.380000
521.172302	146.000000
521.265930	146.880000
521.359680	147.380000
521.453308	147.180000
521.546997	146.720000
521.640625	147.220000
521.734314	146.660000
521.827942	146.600000
521.921692	146.920000
522.015320	147.060000
522.109009	146.280000
522.202698	146.160000
522.296326	145.960000
522.390015	146.080000
522.483704	146.220000
522.577393	146.500000
522.671021	146.380000
522.764709	145.860000
522.858337	146.080000
522.952026	145.660000
523.045654	146.240000
523.139404	146.780000
523.233032	147.100000
523.326721	146.520000
523.420349	146.680000
523.514038	146.100000
523.607666	146.460000
523.701355	146.300000
523.795044	146.320000
523.888733	146.400000
523.982361	146.600000
524.076050	145.840000
524.169678	146.620000
524.263367	146.340000
524.356995	145.900000
524.450684	145.960000
524.544373	145.740000
524.638062	145.160000
524.731750	145.420000
524.825378	145.820000
524.919067	145.220000
525.012695	145.340000
525.106384	145.100000
525.200012	145.140000
525.293701	145.240000
525.387329	145.640000
525.481018	145.940000
525.574646	146.440000
525.668396	146.440000
525.762024	146.440000
525.855713	147.080000
525.949341	146.720000
526.043030	146.620000
526.136658	146.560000
526.230347	146.400000
526.323975	145.440000
526.417664	145.680000
526.511292	145.740000
526.604980	145.840000
526.698608	145.840000
526.792297	146.140000
526.885925	145.960000
526.979614	146.180000
527.073303	145.980000
527.166931	146.040000
527.260620	146.500000
527.354309	147.160000
527.447998	147.000000
527.541626	147.120000
527.635315	147.140000
527.728943	147.200000
527.822632	147.020000
527.916260	147.020000
528.009949	147.020000
528.103577	146.760000
528.197266	146.280000
528.290894	146.100000
528.384583	145.700000
528.478210	145.700000
528.571899	145.920000
528.665527	146.520000
528.759216	146.560000
528.852844	147.200000
528.946533	147.340000
529.040161	147.400000
529.133850	146.660000
529.227478	146.960000
529.321167	147.080000
529.414856	146.920000
529.508484	147.260000
529.602173	147.260000
529.695801	146.600000
529.789490	146.300000
529.883057	146.340000
529.976746	145.980000
530.070374	146.500000
530.164062	146.880000
530.257690	147.100000
530.351379	147.120000
530.445007	147.240000
530.538696	146.340000
530.632324	146.540000
530.726013	146.300000
530.819641	146.340000
530.913330	146.420000
531.006958	146.960000
531.100647	146.620000
531.194275	146.540000
531.287964	146.320000
531.381592	145.920000
531.475220	145.740000
531.568848	145.480000
531.662537	145.080000
531.756226	145.460000
531.849854	145.680000
531.943542	145.840000
532.037170	145.420000
532.130859	146.000000
532.224487	145.600000
532.318176	145.220000
532.411804	145.600000
532.505432	146.320000
532.599060	145.980000
532.692749	146.240000
532.786377	146.680000
532.880066	146.060000
532.973694	145.460000
533.067383	145.600000
533.161011	145.220000
533.254639	145.080000
533.348267	144.880000
533.441956	145.480000
533.535583	145.320000
533.629272	145.700000
533.722900	145.100000
533.816589	145.520000
533.910156	145.580000
534.003845	145.340000
534.097534	145.640000
534.191162	146.620000
534.284851	146.600000
534.378479	146.380000
534.472107	146.260000
534.565735	145.940000
534.659424	145.640000
534.753052	145.820000
534.846741	145.380000
534.940369	146.500000
535.033997	146.320000
535.127625	146.400000
535.221313	146.480000
535.314941	146.580000
535.408630	145.600000
535.502197	146.100000
535.595886	145.720000
535.689514	145.660000
535.783203	146.300000
535.876831	146.660000
535.970459	146.340000
536.064087	146.440000
536.157776	146.300000
536.251404	146.240000
536.345093	145.940000
536.438721	146.020000
536.532349	146.340000
536.626038	146.100000
536.719666	146.340000
536.813293	146.620000
536.906921	146.600000
537.000610	146.460000
537.094238	146.800000
537.187866	146.660000
537.281494	146.320000
537.375183	146.460000
537.468811	146.300000
537.562439	146.220000
537.656067	145.860000
537.749756	146.180000
537.843384	146.300000
537.937012	146.600000
538.030640	146.400000
538.124329	146.340000
538.217896	146.560000
538.311584	146.660000
538.405212	146.060000
538.498901	146.480000
538.592468	147.160000
538.686157	146.380000
538.779785	145.260000
538.873413	145.560000
538.967102	145.060000
539.060730	144.600000
539.154358	145.400000
539.247986	146.220000
539.341675	146.340000
539.435242	146.420000
539.528931	146.400000
539.622559	145.800000
539.716187	146.260000
539.809814	146.020000
539.903503	146.080000
539.997070	146.060000
540.090759	146.420000
540.184387	145.780000
540.278015	146.200000
540.371643	146.440000
540.465332	146.660000
540.558899	146.420000
540.652588	146.840000
540.746216	146.460000
540.839844	146.620000
540.933472	146.100000
541.027100	145.880000
541.120728	145.540000
541.214417	145.880000
541.308044	146.040000
541.401672	146.200000
541.495300	146.360000
541.588928	146.500000
541.682617	146.300000
541.776184	145.720000
541.869873	146.160000
541.963440	146.160000
542.057129	146.000000
542.150757	145.940000
542.244385	146.020000
542.338013	145.440000
542.431641	145.640000
542.525269	145.720000
542.618958	146.320000
542.712524	146.480000
542.806213	146.580000
542.899780	146.620000
542.993469	146.540000
543.087036	146.000000
543.180725	145.680000
543.274292	145.980000
543.367981	146.360000
543.461548	146.660000
543.555237	146.600000
543.648926	147.120000
543.742493	147.400000
543.836182	146.980000
543.929749	146.660000
544.023437	146.700000
544.117004	146.580000
544.210693	146.640000
544.304260	146.900000
544.397949	146.820000
544.491516	147.120000
544.585205	146.820000
544.678772	146.380000
544.772461	146.380000
544.866028	146.260000
544.959717	146.260000
545.053284	146.420000
545.146973	146.500000
545.240540	146.520000
545.334229	147.380000
545.427795	147.460000
545.521423	147.420000
545.615051	147.160000
545.708679	147.060000
545.802307	146.500000
545.895935	146.440000
545.989624	147.060000
546.083191	147.240000
546.176880	147.420000
546.270447	147.060000
546.364136	147.360000
546.457703	146.800000
546.551331	146.740000
546.644958	146.700000
546.738586	147.120000
546.832214	146.480000
546.925842	146.400000
547.019409	146.560000
547.113098	146.000000
547.206665	145.640000
547.300354	145.760000
547.393921	145.780000
547.487549	145.980000
547.581177	146.160000
547.674805	146.120000
547.768433	145.680000
547.862061	145.900000
547.955627	145.040000
548.049316	145.480000
548.142883	145.560000
548.236572	146.080000
548.330139	146.120000
548.423767	146.520000
548.517456	146.180000
548.611023	146.720000
548.704651	145.940000
548.798279	145.580000
548.891907	146.160000
548.985474	145.800000
549.079163	145.600000
549.172729	146.000000
549.266357	145.960000
549.359985	145.480000
549.453613	145.460000
549.547180	145.300000
549.640869	145.520000
549.734436	145.340000
549.828064	145.740000
549.921631	145.660000
550.015320	145.380000
550.108887	145.620000
550.202515	145.700000
550.296143	145.360000
550.389771	146.000000
550.483337	146.080000
550.576965	146.180000
550.670593	146.620000
550.764221	146.880000
550.857849	146.620000
550.951477	146.460000
551.045105	146.080000
551.138672	145.940000
551.232300	145.380000
551.325928	145.600000
551.419556	146.180000
551.513123	146.140000
551.606750	146.020000
551.700378	146.360000
551.794006	146.300000
551.887573	145.880000
551.981201	146.400000
552.074768	146.240000
552.168457	146.140000
552.262024	147.040000
552.355652	147.340000
552.449219	147.540000
552.542847	147.700000
552.636475	147.420000
552.730103	146.140000
552.823669	145.840000
552.917297	145.220000
553.010864	145.180000
553.104553	145.380000
553.198181	145.500000
553.291748	145.780000
553.385376	146.160000
553.478943	146.140000
553.572571	146.300000
553.666199	146.580000
553.759827	146.560000
553.853394	145.900000
553.947021	145.900000
554.040588	145.880000
554.134216	145.980000
554.227783	146.480000
554.321411	147.200000
554.415039	146.780000
554.508667	146.640000
554.602234	146.680000
554.695862	145.600000
554.789429	145.420000
554.883057	145.920000
554.976624	146.020000
555.070251	145.660000
555.163818	146.040000
555.257507	146.300000
555.351074	146.260000
555.444702	147.320000
555.538330	147.240000
555.631897	147.640000
555.725525	147.340000
555.819092	147.120000
555.912720	145.780000
556.006287	146.400000
556.099915	145.920000
556.193481	146.220000
556.287109	146.560000
556.380676	146.560000
556.474304	146.500000
556.567871	146.900000
556.661499	146.260000
556.755066	146.160000
556.848694	146.700000
556.942261	146.320000
557.035889	146.280000
557.129517	146.400000
557.223145	146.740000
557.316711	146.340000
557.410339	146.580000
557.503906	146.220000
557.597473	146.840000
557.691040	146.940000
557.784668	147.120000
557.878296	147.000000
557.971863	147.160000
558.065491	146.760000
558.159058	146.200000
558.252686	146.600000
558.346252	147.120000
558.439880	146.880000
558.533447	146.460000
558.627075	146.260000
558.720642	146.000000
558.814270	145.460000
558.907837	145.300000
559.001465	145.380000
559.095032	146.380000
559.188660	146.080000
559.282227	145.720000
559.375854	146.560000
559.469360	146.500000
559.562988	146.220000
559.656555	146.460000
559.750183	146.980000
559.843750	146.860000
559.937378	147.240000
560.030945	147.260000
560.124573	0.000000
560.218140	0.000000
560.311707	0.000000
560.405334	0.000000
560.498901	0.000000
560.592529	0.000000
560.686096	0.000000
560.779724	0.000000
560.873291	0.000000
560.966858	0.000000
561.060425	0.000000
561.154053	0.000000
561.247620	0.000000
561.341248	0.000000
561.434814	0.000000
561.528381	0.000000
561.621948	0.000000
561.715576	0.000000
561.809143	0.000000
561.902771	0.000000
561.996277	0.000000
562.089905	0.000000
562.183472	0.000000
562.277100	0.000000
