Model Number: SPM-002-B   
Serial Number: 70087108
Firmware Version: 004.15.4
Exposure Time: 100000.000000us
Data Taken on: 11-12-2020 18:52:25.515
Wavelength	Amplitude
221.570786	0.000000
221.663406	0.000000
221.756027	0.000000
221.848648	0.000000
221.941269	0.000000
222.033905	0.000000
222.126526	0.000000
222.219162	0.000000
222.311798	0.000000
222.404419	0.000000
222.497055	0.000000
222.589676	0.000000
222.682312	0.000000
222.774933	0.000000
222.867569	0.000000
222.960205	0.000000
223.052841	0.000000
223.145462	0.000000
223.238098	0.000000
223.330734	0.000000
223.423386	0.000000
223.516022	0.000000
223.608658	0.000000
223.701309	0.000000
223.793945	0.000000
223.886581	0.000000
223.979218	0.000000
224.071869	0.000000
224.164505	0.000000
224.257156	0.000000
224.349792	0.000000
224.442444	0.000000
224.535095	0.000000
224.627747	0.000000
224.720398	0.000000
224.813034	0.000000
224.905685	0.000000
224.998337	145.620000
225.090988	145.260000
225.183640	145.460000
225.276291	145.220000
225.368942	145.620000
225.461594	145.940000
225.554245	146.460000
225.646912	146.420000
225.739578	147.000000
225.832230	147.200000
225.924896	146.500000
226.017548	146.820000
226.110199	147.160000
226.202866	146.320000
226.295532	146.180000
226.388184	146.700000
226.480850	146.020000
226.573517	145.560000
226.666168	145.920000
226.758835	146.200000
226.851501	146.300000
226.944183	146.640000
227.036850	146.440000
227.129517	146.260000
227.222183	146.500000
227.314850	146.180000
227.407516	146.160000
227.500198	146.900000
227.592865	146.720000
227.685532	146.300000
227.778214	146.200000
227.870880	146.520000
227.963562	146.720000
228.056229	147.380000
228.148926	147.300000
228.241592	147.920000
228.334274	147.300000
228.426956	146.940000
228.519638	146.620000
228.612305	146.320000
228.704987	146.340000
228.797668	146.700000
228.890350	146.280000
228.983032	145.700000
229.075714	146.100000
229.168396	145.760000
229.261108	145.140000
229.353790	145.160000
229.446472	145.860000
229.539169	145.940000
229.631851	145.660000
229.724533	146.140000
229.817230	146.260000
229.909912	147.180000
230.002609	147.200000
230.095306	147.260000
230.187988	147.320000
230.280685	147.500000
230.373383	145.980000
230.466095	145.860000
230.558792	146.540000
230.651474	146.440000
230.744171	146.200000
230.836868	146.500000
230.929581	146.640000
231.022278	146.360000
231.114975	146.560000
231.207672	146.320000
231.300369	146.540000
231.393082	146.940000
231.485779	146.360000
231.578506	146.040000
231.671204	146.160000
231.763916	145.980000
231.856613	145.600000
231.949326	146.080000
232.042023	146.040000
232.134735	146.140000
232.227448	146.020000
232.320160	146.080000
232.412872	145.740000
232.505585	146.720000
232.598297	147.180000
232.691010	147.160000
232.783722	146.820000
232.876450	147.620000
232.969162	146.580000
233.061874	146.120000
233.154587	145.880000
233.247314	146.200000
233.340027	145.400000
233.432739	146.080000
233.525467	145.900000
233.618179	146.440000
233.710907	146.200000
233.803635	146.900000
233.896347	146.460000
233.989090	147.120000
234.081818	146.940000
234.174545	147.120000
234.267258	146.320000
234.359985	146.620000
234.452713	146.460000
234.545441	146.140000
234.638168	146.020000
234.730896	146.580000
234.823639	146.320000
234.916367	146.540000
235.009094	146.880000
235.101822	146.780000
235.194580	146.500000
235.287308	146.580000
235.380051	145.980000
235.472778	146.480000
235.565521	146.840000
235.658249	146.440000
235.750992	146.580000
235.843719	146.760000
235.936462	146.560000
236.029205	146.060000
236.121948	146.000000
236.214691	146.180000
236.307449	146.620000
236.400192	146.380000
236.492935	146.280000
236.585678	146.720000
236.678421	146.520000
236.771164	146.400000
236.863907	146.680000
236.956665	147.340000
237.049408	148.640000
237.142151	148.240000
237.234909	148.900000
237.327652	148.680000
237.420410	148.220000
237.513153	147.300000
237.605927	147.160000
237.698669	146.300000
237.791428	145.840000
237.884186	146.100000
237.976944	145.320000
238.069702	145.940000
238.162445	145.540000
238.255203	145.880000
238.347961	146.200000
238.440720	146.640000
238.533478	146.360000
238.626266	146.460000
238.719025	146.520000
238.811783	146.100000
238.904541	146.060000
238.997314	145.780000
239.090073	145.600000
239.182831	145.900000
239.275604	146.700000
239.368362	146.640000
239.461136	146.920000
239.553909	147.040000
239.646667	146.900000
239.739441	146.400000
239.832214	146.760000
239.925003	146.920000
240.017761	147.480000
240.110535	147.740000
240.203308	147.180000
240.296082	147.080000
240.388855	146.940000
240.481628	147.140000
240.574417	147.200000
240.667191	147.480000
240.759964	147.160000
240.852737	147.440000
240.945526	146.680000
241.038315	146.480000
241.131088	146.680000
241.223877	146.860000
241.316650	146.360000
241.409439	146.580000
241.502228	146.080000
241.595001	146.360000
241.687790	146.380000
241.780579	146.460000
241.873367	146.880000
241.966141	147.420000
242.058929	146.940000
242.151718	147.020000
242.244507	147.580000
242.337311	146.580000
242.430099	146.720000
242.522903	146.880000
242.615692	146.320000
242.708481	145.960000
242.801270	146.800000
242.894073	146.780000
242.986862	146.740000
243.079651	147.440000
243.172455	147.240000
243.265244	147.180000
243.358063	146.420000
243.450867	146.420000
243.543655	146.240000
243.636459	146.200000
243.729263	146.380000
243.822067	146.840000
243.914856	147.180000
244.007660	147.440000
244.100464	147.480000
244.193268	147.120000
244.286072	147.020000
244.378876	146.400000
244.471680	145.840000
244.564499	146.280000
244.657318	147.000000
244.750122	147.320000
244.842926	146.940000
244.935745	147.340000
245.028549	146.860000
245.121368	146.300000
245.214172	145.980000
245.306992	146.880000
245.399796	146.480000
245.492615	146.400000
245.585434	146.140000
245.678253	146.120000
245.771072	145.840000
245.863892	146.320000
245.956711	146.780000
246.049530	146.640000
246.142349	146.240000
246.235168	146.240000
246.327988	146.620000
246.420807	146.180000
246.513626	146.320000
246.606445	146.520000
246.699280	146.480000
246.792099	145.800000
246.884918	145.640000
246.977753	145.480000
247.070587	145.960000
247.163422	146.160000
247.256241	146.300000
247.349075	146.860000
247.441895	147.000000
247.534729	146.700000
247.627563	146.460000
247.720383	147.140000
247.813217	147.120000
247.906052	147.020000
247.998886	146.960000
248.091736	146.960000
248.184570	146.380000
248.277405	146.380000
248.370239	147.320000
248.463074	148.100000
248.555908	148.340000
248.648743	148.060000
248.741592	147.940000
248.834427	147.040000
248.927261	145.980000
249.020111	146.200000
249.112946	146.960000
249.205795	146.460000
249.298630	146.700000
249.391495	146.980000
249.484344	146.520000
249.577179	146.240000
249.670029	146.820000
249.762878	147.120000
249.855728	147.320000
249.948563	147.320000
250.041412	146.780000
250.134262	147.100000
250.227112	147.160000
250.319962	147.040000
250.412827	147.100000
250.505692	146.980000
250.598541	146.420000
250.691391	146.020000
250.784241	145.880000
250.877106	146.180000
250.969955	146.020000
251.062805	146.620000
251.155670	147.240000
251.248520	147.060000
251.341385	147.060000
251.434235	147.380000
251.527100	146.780000
251.619965	146.040000
251.712814	147.060000
251.805695	146.680000
251.898560	146.580000
251.991425	147.060000
252.084290	147.280000
252.177155	146.300000
252.270020	146.240000
252.362885	146.320000
252.455750	145.880000
252.548615	145.520000
252.641479	145.680000
252.734360	145.700000
252.827240	145.520000
252.920105	145.820000
253.012970	145.980000
253.105850	145.980000
253.198715	145.700000
253.291595	146.080000
253.384460	145.860000
253.477341	145.880000
253.570221	146.300000
253.663086	146.520000
253.755966	146.940000
253.848846	146.840000
253.941727	147.200000
254.034592	146.840000
254.127472	146.340000
254.220367	146.100000
254.313248	146.300000
254.406128	145.600000
254.499008	146.080000
254.591904	147.000000
254.684784	147.340000
254.777664	147.280000
254.870544	147.400000
254.963440	146.780000
255.056335	146.620000
255.149216	146.040000
255.242111	146.580000
255.334991	146.920000
255.427887	147.100000
255.520767	147.140000
255.613663	147.500000
255.706558	146.700000
255.799438	146.340000
255.892334	146.080000
255.985229	145.800000
256.078125	145.380000
256.171021	145.920000
256.263916	146.200000
256.356812	146.420000
256.449707	146.600000
256.542603	146.360000
256.635498	146.380000
256.728394	146.500000
256.821289	146.140000
256.914215	146.140000
257.007080	146.840000
257.100006	146.920000
257.192932	147.520000
257.285828	147.940000
257.378723	147.920000
257.471619	147.480000
257.564545	146.940000
257.657440	146.580000
257.750336	146.960000
257.843262	146.680000
257.936157	148.020000
258.029053	148.340000
258.121979	148.360000
258.214874	147.960000
258.307800	147.660000
258.400696	146.140000
258.493622	145.880000
258.586517	144.980000
258.679443	145.420000
258.772339	145.280000
258.865265	145.180000
258.958160	144.880000
259.051086	145.760000
259.144012	145.060000
259.236938	146.000000
259.329834	146.200000
259.422791	146.140000
259.515717	145.560000
259.608612	145.640000
259.701538	145.920000
259.794464	146.200000
259.887390	146.340000
259.980316	146.420000
260.073212	146.340000
260.166138	144.960000
260.259064	144.980000
260.351990	145.400000
260.444916	145.480000
260.537842	145.880000
260.630768	147.100000
260.723694	146.760000
260.816620	146.740000
260.909546	146.640000
261.002472	146.180000
261.095398	145.280000
261.188354	145.540000
261.281281	145.100000
261.374207	145.260000
261.467133	145.920000
261.560089	146.540000
261.653015	146.040000
261.745972	146.820000
261.838867	147.060000
261.931824	147.260000
262.024780	146.560000
262.117706	147.000000
262.210663	146.920000
262.303589	146.580000
262.396515	146.480000
262.489471	147.600000
262.582397	147.720000
262.675354	147.180000
262.768280	147.560000
262.861237	147.420000
262.954163	147.000000
263.047119	147.000000
263.140045	146.780000
263.233002	146.320000
263.325958	145.880000
263.418884	145.600000
263.511841	145.380000
263.604797	145.600000
263.697723	145.920000
263.790680	146.000000
263.883636	146.600000
263.976593	146.540000
264.069550	146.600000
264.162476	146.240000
264.255463	146.620000
264.348419	145.880000
264.441376	146.140000
264.534332	146.060000
264.627289	146.000000
264.720245	146.540000
264.813202	146.380000
264.906158	146.540000
264.999115	146.780000
265.092072	147.000000
265.185028	146.820000
265.277985	147.260000
265.370941	146.920000
265.463898	146.880000
265.556854	146.740000
265.649811	145.740000
265.742798	145.300000
265.835754	145.520000
265.928711	145.680000
266.021667	145.580000
266.114655	146.080000
266.207611	146.580000
266.300568	145.900000
266.393585	145.160000
266.486511	145.720000
266.579498	145.080000
266.672485	144.800000
266.765442	144.860000
266.858429	145.860000
266.951385	145.380000
267.044342	145.880000
267.137329	145.820000
267.230316	146.360000
267.323273	145.580000
267.416260	146.160000
267.509216	145.860000
267.602203	146.000000
267.695160	146.400000
267.788147	146.660000
267.881134	146.180000
267.974091	146.760000
268.067078	146.600000
268.160065	146.360000
268.253052	146.160000
268.346008	146.180000
268.438995	145.640000
268.531982	145.980000
268.624969	145.580000
268.717987	146.000000
268.810944	146.000000
268.903961	146.460000
268.996948	146.120000
269.089905	146.660000
269.182892	146.480000
269.275879	146.820000
269.368866	146.180000
269.461853	146.440000
269.554871	146.180000
269.647858	146.500000
269.740845	146.480000
269.833832	147.160000
269.926819	146.980000
270.019806	147.140000
270.112793	146.240000
270.205811	146.220000
270.298798	145.820000
270.391785	146.600000
270.484772	145.820000
270.577789	146.460000
270.670776	145.900000
270.763763	145.680000
270.856750	145.240000
270.949768	145.400000
271.042786	145.120000
271.135773	145.340000
271.228790	146.020000
271.321808	145.520000
271.414795	145.360000
271.507782	145.240000
271.600800	145.080000
271.693817	144.820000
271.786804	145.280000
271.879822	145.380000
271.972809	145.440000
272.065826	145.900000
272.158844	145.460000
272.251831	146.040000
272.344849	146.100000
272.437866	145.820000
272.530853	145.600000
272.623871	145.960000
272.716888	144.900000
272.809906	145.620000
272.902893	146.080000
272.995911	145.720000
273.088928	145.880000
273.181946	146.280000
273.274963	145.560000
273.367981	145.460000
273.460999	145.720000
273.554047	146.180000
273.647003	146.620000
273.740051	146.980000
273.833069	147.360000
273.926086	147.780000
274.019135	147.000000
274.112152	146.360000
274.205170	146.340000
274.298187	146.420000
274.391205	145.600000
274.484222	145.860000
274.577240	146.140000
274.670258	145.800000
274.763306	145.360000
274.856323	146.000000
274.949341	146.120000
275.042358	146.340000
275.135406	146.340000
275.228424	146.300000
275.321442	146.140000
275.414490	145.700000
275.507507	146.020000
275.600525	146.660000
275.693573	146.660000
275.786591	146.300000
275.879669	146.540000
275.972656	145.940000
276.065735	145.600000
276.158752	146.120000
276.251801	147.200000
276.344818	147.340000
276.437866	147.240000
276.530884	147.260000
276.623932	146.540000
276.716980	146.400000
276.809998	146.380000
276.903046	146.820000
276.996094	147.480000
277.089111	148.280000
277.182159	148.400000
277.275208	147.880000
277.368256	147.700000
277.461304	147.060000
277.554321	146.340000
277.647369	145.860000
277.740417	146.280000
277.833466	146.140000
277.926514	146.240000
278.019562	146.900000
278.112610	146.500000
278.205688	146.340000
278.298706	146.420000
278.391785	146.020000
278.484833	145.480000
278.577881	145.320000
278.670929	145.680000
278.763977	145.880000
278.857025	146.600000
278.950073	146.860000
279.043121	147.320000
279.136169	147.080000
279.229248	146.560000
279.322296	146.280000
279.415344	145.960000
279.508392	145.620000
279.601440	145.700000
279.694519	145.680000
279.787567	145.560000
279.880615	145.680000
279.973694	145.720000
280.066742	145.920000
280.159790	146.180000
280.252869	145.920000
280.345917	146.100000
280.438995	146.100000
280.532074	145.640000
280.625122	145.760000
280.718201	146.680000
280.811279	146.460000
280.904327	146.580000
280.997406	147.040000
281.090454	146.900000
281.183533	146.020000
281.276581	146.040000
281.369659	146.020000
281.462738	146.040000
281.555786	146.180000
281.648865	146.420000
281.741943	146.360000
281.835022	146.940000
281.928070	146.300000
282.021149	146.140000
282.114227	145.860000
282.207306	145.920000
282.300385	145.980000
282.393433	146.700000
282.486511	146.820000
282.579590	147.300000
282.672668	147.780000
282.765747	147.100000
282.858856	146.540000
282.951904	146.540000
283.045013	146.660000
283.138062	146.360000
283.231171	146.760000
283.324249	147.440000
283.417328	147.480000
283.510406	147.200000
283.603485	147.020000
283.696564	146.560000
283.789642	146.120000
283.882751	146.020000
283.975830	146.540000
284.068909	146.880000
284.161987	147.620000
284.255066	147.360000
284.348175	147.520000
284.441254	146.820000
284.534332	147.000000
284.627441	146.800000
284.720520	146.500000
284.813599	146.260000
284.906708	146.640000
284.999786	146.000000
285.092896	145.280000
285.185974	146.460000
285.279053	146.320000
285.372192	146.200000
285.465240	146.940000
285.558380	147.180000
285.651459	146.580000
285.744568	147.360000
285.837677	146.940000
285.930756	146.660000
286.023865	146.780000
286.116943	146.740000
286.210052	146.580000
286.303162	146.840000
286.396240	146.740000
286.489349	146.580000
286.582458	146.720000
286.675568	146.280000
286.768646	146.180000
286.861755	146.460000
286.954865	147.260000
287.047974	146.860000
287.141083	146.740000
287.234161	146.780000
287.327271	146.440000
287.420380	146.260000
287.513519	146.120000
287.606598	146.380000
287.699738	146.540000
287.792816	146.460000
287.885956	146.140000
287.979034	146.400000
288.072174	146.340000
288.165283	146.360000
288.258392	146.840000
288.351501	146.380000
288.444611	146.540000
288.537720	147.020000
288.630859	146.820000
288.723969	146.560000
288.817078	147.260000
288.910187	147.060000
289.003296	146.220000
289.096436	145.960000
289.189545	145.480000
289.282654	145.140000
289.375763	145.600000
289.468903	146.180000
289.562012	146.440000
289.655121	146.620000
289.748260	146.440000
289.841400	146.540000
289.934509	146.260000
290.027649	146.560000
290.120728	146.500000
290.213898	146.760000
290.306976	146.020000
290.400146	146.160000
290.493256	145.720000
290.586395	146.200000
290.679535	146.260000
290.772644	146.280000
290.865784	145.580000
290.958893	145.580000
291.052032	145.140000
291.145172	144.720000
291.238281	144.640000
291.331421	144.880000
291.424561	145.180000
291.517670	145.080000
291.610809	145.720000
291.703949	145.940000
291.797089	146.240000
291.890228	146.180000
291.983337	146.280000
292.076477	145.640000
292.169617	145.960000
292.262756	145.960000
292.355927	145.380000
292.449036	145.300000
292.542206	145.440000
292.635315	145.420000
292.728485	145.600000
292.821625	145.760000
292.914764	146.720000
293.007904	147.060000
293.101044	146.900000
293.194183	146.860000
293.287323	146.980000
293.380463	146.120000
293.473602	145.640000
293.566742	146.220000
293.659882	146.540000
293.753021	146.740000
293.846191	146.960000
293.939331	146.940000
294.032471	146.600000
294.125610	146.160000
294.218781	146.660000
294.311920	146.900000
294.405060	147.140000
294.498230	146.920000
294.591370	147.020000
294.684540	146.240000
294.777679	145.860000
294.870850	146.280000
294.963959	146.140000
295.057159	145.800000
295.150299	146.140000
295.243469	146.280000
295.336609	145.320000
295.429779	145.500000
295.522919	146.300000
295.616089	146.480000
295.709229	146.860000
295.802399	147.620000
295.895569	147.280000
295.988708	146.600000
296.081879	146.360000
296.175018	145.580000
296.268188	145.420000
296.361359	146.060000
296.454529	146.360000
296.547668	146.340000
296.640839	146.840000
296.734009	146.300000
296.827179	146.080000
296.920319	146.280000
297.013519	146.020000
297.106659	146.060000
297.199860	146.620000
297.292999	146.420000
297.386200	146.140000
297.479309	146.100000
297.572510	145.900000
297.665680	145.380000
297.758850	145.480000
297.852020	145.360000
297.945190	145.400000
298.038361	145.000000
298.131531	146.100000
298.224701	145.980000
298.317871	145.580000
298.411072	145.280000
298.504242	145.260000
298.597412	144.460000
298.690582	144.640000
298.783752	145.020000
298.876923	145.820000
298.970093	145.960000
299.063293	146.460000
299.156464	146.940000
299.249634	146.860000
299.342834	146.840000
299.436005	147.300000
299.529205	147.160000
299.622345	146.860000
299.715576	146.500000
299.808716	146.120000
299.901917	145.840000
299.995117	146.060000
300.088287	146.060000
300.181488	145.800000
300.274658	145.820000
300.367828	145.940000
300.461029	145.520000
300.554199	145.860000
300.647400	146.460000
300.740601	146.980000
300.833771	146.840000
300.926971	147.580000
301.020142	146.860000
301.113342	146.920000
301.206512	146.820000
301.299713	146.980000
301.392914	146.480000
301.486084	146.960000
301.579285	146.820000
301.672516	147.180000
301.765686	146.980000
301.858887	146.740000
301.952057	146.580000
302.045288	146.540000
302.138458	146.080000
302.231659	145.960000
302.324860	145.860000
302.418060	145.740000
302.511261	145.740000
302.604462	145.920000
302.697662	145.960000
302.790863	146.220000
302.884064	146.080000
302.977264	146.280000
303.070465	146.200000
303.163666	146.540000
303.256866	146.660000
303.350067	146.820000
303.443268	146.640000
303.536469	146.740000
303.629669	146.460000
303.722870	146.600000
303.816071	146.340000
303.909271	146.580000
304.002472	145.800000
304.095673	145.760000
304.188934	144.800000
304.282104	145.600000
304.375336	145.420000
304.468506	145.720000
304.561768	145.600000
304.654968	146.480000
304.748169	145.880000
304.841370	145.520000
304.934601	145.660000
305.027802	145.400000
305.121002	144.780000
305.214233	145.040000
305.307434	145.340000
305.400665	146.020000
305.493866	146.340000
305.587097	147.120000
305.680298	146.680000
305.773499	147.300000
305.866730	146.940000
305.959930	147.260000
306.053162	147.240000
306.146393	147.100000
306.239594	146.260000
306.332825	145.800000
306.426025	146.120000
306.519287	145.440000
306.612488	145.720000
306.705719	146.040000
306.798920	146.360000
306.892181	145.660000
306.985352	145.660000
307.078613	145.200000
307.171844	145.580000
307.265045	145.160000
307.358276	144.940000
307.451508	145.620000
307.544739	146.420000
307.637970	145.920000
307.731201	145.920000
307.824402	146.580000
307.917633	146.200000
308.010864	146.320000
308.104095	146.700000
308.197327	147.120000
308.290558	147.000000
308.383789	146.740000
308.477020	146.160000
308.570251	145.420000
308.663483	145.000000
308.756714	144.900000
308.849976	145.300000
308.943176	146.120000
309.036438	146.120000
309.129639	145.960000
309.222900	146.300000
309.316101	146.040000
309.409393	144.820000
309.502625	145.040000
309.595856	145.160000
309.689087	145.020000
309.782318	144.920000
309.875580	145.700000
309.968811	145.980000
310.062042	146.120000
310.155273	145.820000
310.248535	146.460000
310.341766	146.240000
310.434998	145.860000
310.528259	145.740000
310.621490	146.400000
310.714722	145.600000
310.807983	145.780000
310.901215	145.800000
310.994476	145.980000
311.087708	145.380000
311.181000	145.820000
311.274200	145.480000
311.367462	145.500000
311.460693	145.280000
311.553986	145.980000
311.647186	146.240000
311.740479	146.820000
311.833710	146.660000
311.926971	146.720000
312.020203	145.840000
312.113464	145.520000
312.206726	144.880000
312.299957	145.440000
312.393219	145.960000
312.486481	146.340000
312.579712	146.100000
312.672974	146.280000
312.766235	146.160000
312.859497	145.840000
312.952759	145.800000
313.045990	146.700000
313.139252	146.360000
313.232513	146.640000
313.325775	146.680000
313.419037	146.420000
313.512299	145.580000
313.605530	146.260000
313.698822	146.260000
313.792053	146.340000
313.885345	146.260000
313.978577	146.440000
314.071869	145.760000
314.165131	145.560000
314.258392	145.980000
314.351654	146.000000
314.444916	145.500000
314.538177	146.300000
314.631439	146.440000
314.724701	146.000000
314.817993	146.140000
314.911255	146.380000
315.004517	145.920000
315.097778	145.720000
315.191040	146.300000
315.284302	146.560000
315.377594	146.820000
315.470856	146.960000
315.564117	146.720000
315.657379	146.020000
315.750671	145.600000
315.843933	145.860000
315.937195	145.120000
316.030518	145.060000
316.123749	144.940000
316.217041	145.780000
316.310303	145.520000
316.403595	146.160000
316.496857	146.400000
316.590149	146.720000
316.683411	145.900000
316.776703	145.720000
316.869965	145.720000
316.963257	145.460000
317.056519	144.780000
317.149811	144.760000
317.243073	144.820000
317.336365	144.920000
317.429626	145.540000
317.522919	146.300000
317.616180	146.340000
317.709473	145.840000
317.802765	145.400000
317.896027	145.140000
317.989319	145.260000
318.082611	145.340000
318.175873	145.760000
318.269165	146.020000
318.362488	145.880000
318.455750	145.620000
318.549042	145.900000
318.642303	146.500000
318.735626	146.100000
318.828888	146.140000
318.922211	145.640000
319.015472	146.020000
319.108765	144.920000
319.202057	144.720000
319.295349	145.100000
319.388641	145.280000
319.481934	144.880000
319.575226	145.380000
319.668518	145.980000
319.761810	145.960000
319.855103	146.260000
319.948395	146.280000
320.041687	146.560000
320.134979	146.560000
320.228271	146.240000
320.321564	146.160000
320.414856	146.200000
320.508148	145.600000
320.601440	145.460000
320.694763	145.340000
320.788025	146.100000
320.881348	145.980000
320.974640	146.340000
321.067963	146.020000
321.161224	146.140000
321.254547	145.360000
321.347839	146.000000
321.441162	145.460000
321.534454	145.620000
321.627747	145.480000
321.721069	145.800000
321.814362	145.500000
321.907654	145.840000
322.000946	145.920000
322.094269	146.720000
322.187561	146.260000
322.280884	146.460000
322.374176	146.660000
322.467468	147.200000
322.560791	146.660000
322.654083	147.400000
322.747406	147.060000
322.840698	147.440000
322.934021	147.500000
323.027344	147.940000
323.120636	147.640000
323.213959	147.680000
323.307251	146.680000
323.400574	146.140000
323.493866	145.520000
323.587219	145.440000
323.680511	145.760000
323.773834	146.240000
323.867157	146.380000
323.960449	146.460000
324.053772	146.440000
324.147095	146.200000
324.240387	146.660000
324.333710	146.720000
324.427032	146.820000
324.520355	146.620000
324.613647	146.300000
324.706970	146.000000
324.800293	145.860000
324.893616	146.040000
324.986938	146.180000
325.080231	145.920000
325.173553	146.260000
325.266876	146.980000
325.360199	147.000000
325.453522	146.560000
325.546875	146.460000
325.640167	146.380000
325.733521	146.300000
325.826813	146.380000
325.920166	146.560000
326.013489	146.780000
326.106812	146.160000
326.200134	145.740000
326.293457	145.180000
326.386780	145.400000
326.480103	145.320000
326.573425	145.560000
326.666748	145.420000
326.760071	145.940000
326.853424	145.980000
326.946747	146.040000
327.040070	146.480000
327.133392	146.220000
327.226715	145.500000
327.320068	144.840000
327.413391	145.380000
327.506714	144.700000
327.600037	144.900000
327.693390	145.420000
327.786713	145.780000
327.880066	145.360000
327.973358	145.880000
328.066742	146.280000
328.160034	146.420000
328.253418	146.640000
328.346710	146.580000
328.440063	146.300000
328.533417	145.900000
328.626740	145.960000
328.720093	146.040000
328.813416	146.080000
328.906769	146.160000
329.000092	146.340000
329.093445	145.920000
329.186768	145.360000
329.280121	145.720000
329.373444	145.900000
329.466797	145.880000
329.560120	146.040000
329.653473	146.520000
329.746796	146.240000
329.840149	145.940000
329.933502	145.840000
330.026825	145.600000
330.120178	145.360000
330.213562	145.520000
330.306854	145.560000
330.400238	145.580000
330.493561	145.520000
330.586945	146.340000
330.680237	146.280000
330.773621	146.420000
330.866974	146.520000
330.960327	147.060000
331.053680	146.080000
331.147003	146.120000
331.240356	146.360000
331.333710	146.680000
331.427063	146.360000
331.520416	146.660000
331.613770	146.560000
331.707123	146.320000
331.800476	146.000000
331.893829	146.800000
331.987152	147.000000
332.080505	147.040000
332.173859	146.880000
332.267212	146.540000
332.360565	145.620000
332.453918	145.320000
332.547333	145.220000
332.640656	145.280000
332.734039	145.540000
332.827362	145.540000
332.920746	146.000000
333.014069	146.320000
333.107452	146.940000
333.200806	146.940000
333.294159	147.340000
333.387543	146.800000
333.480896	145.940000
333.574249	145.620000
333.667603	145.380000
333.760956	145.340000
333.854340	145.400000
333.947693	145.840000
334.041046	145.900000
334.134430	146.440000
334.227783	146.120000
334.321136	146.040000
334.414520	145.900000
334.507874	145.800000
334.601227	145.540000
334.694611	145.700000
334.787964	146.080000
334.881348	146.540000
334.974701	146.680000
335.068085	146.480000
335.161438	146.620000
335.254822	146.540000
335.348175	146.460000
335.441559	145.760000
335.534943	146.380000
335.628296	146.180000
335.721680	146.140000
335.815033	146.060000
335.908417	146.620000
336.001770	146.400000
336.095154	146.340000
336.188538	145.860000
336.281891	145.440000
336.375275	145.040000
336.468658	144.620000
336.562012	144.800000
336.655396	145.360000
336.748779	145.700000
336.842133	145.780000
336.935516	146.260000
337.028900	145.760000
337.122284	145.560000
337.215637	145.560000
337.309021	145.640000
337.402435	145.120000
337.495789	145.400000
337.589203	145.360000
337.682526	145.180000
337.775940	145.200000
337.869324	145.620000
337.962708	145.620000
338.056091	146.160000
338.149475	145.980000
338.242859	146.080000
338.336243	145.620000
338.429626	145.680000
338.523010	145.200000
338.616394	145.320000
338.709778	145.220000
338.803162	145.700000
338.896545	145.840000
338.989929	145.720000
339.083313	145.960000
339.176697	145.860000
339.270081	145.460000
339.363464	145.520000
339.456848	145.980000
339.550232	145.580000
339.643616	145.880000
339.737030	146.000000
339.830383	145.680000
339.923828	145.360000
340.017181	145.720000
340.110596	145.620000
340.203949	145.540000
340.297363	145.620000
340.390778	145.600000
340.484161	145.440000
340.577545	145.320000
340.670959	145.500000
340.764343	145.500000
340.857727	145.620000
340.951111	145.300000
341.044525	145.600000
341.137909	145.400000
341.231293	145.400000
341.324707	144.980000
341.418091	146.060000
341.511505	145.900000
341.604889	146.120000
341.698303	146.520000
341.791687	146.820000
341.885071	146.000000
341.978485	145.680000
342.071899	145.820000
342.165283	145.840000
342.258698	146.240000
342.352081	146.580000
342.445496	147.660000
342.538879	147.400000
342.632324	146.920000
342.725708	146.340000
342.819122	145.820000
342.912506	145.080000
343.005920	145.140000
343.099335	145.880000
343.192719	146.060000
343.286133	146.420000
343.379547	146.720000
343.472931	146.840000
343.566345	146.200000
343.659760	146.680000
343.753143	146.260000
343.846558	145.640000
343.939972	145.440000
344.033386	146.040000
344.126770	145.360000
344.220184	145.840000
344.313599	146.400000
344.407043	146.640000
344.500427	145.620000
344.593872	146.220000
344.687225	145.940000
344.780670	145.520000
344.874054	145.060000
344.967499	145.840000
345.060913	145.920000
345.154327	145.860000
345.247742	145.580000
345.341156	145.820000
345.434570	145.260000
345.527985	145.140000
345.621399	145.460000
345.714813	145.640000
345.808228	145.960000
345.901642	145.700000
345.995056	145.120000
346.088470	145.220000
346.181885	145.520000
346.275299	145.040000
346.368713	145.220000
346.462128	145.340000
346.555573	145.340000
346.648987	145.260000
346.742401	145.200000
346.835815	145.920000
346.929260	145.740000
347.022644	145.740000
347.116119	145.940000
347.209503	146.420000
347.302948	147.040000
347.396362	147.780000
347.489807	147.700000
347.583221	148.180000
347.676636	147.700000
347.770050	146.380000
347.863495	145.920000
347.956909	145.860000
348.050323	145.080000
348.143768	145.300000
348.237183	145.480000
348.330597	145.760000
348.424042	146.300000
348.517456	146.760000
348.610901	147.000000
348.704315	147.020000
348.797760	146.460000
348.891174	145.580000
348.984619	145.040000
349.078033	145.420000
349.171448	146.060000
349.264923	146.100000
349.358337	146.060000
349.451782	146.180000
349.545197	145.320000
349.638641	144.340000
349.732086	144.340000
349.825500	145.120000
349.918945	144.640000
350.012390	145.220000
350.105804	145.980000
350.199249	146.120000
350.292664	146.200000
350.386108	146.760000
350.479553	147.100000
350.572968	146.720000
350.666412	146.880000
350.759857	146.420000
350.853302	146.560000
350.946716	145.860000
351.040161	146.120000
351.133606	145.980000
351.227081	145.900000
351.320465	146.320000
351.413940	146.520000
351.507355	146.660000
351.600830	146.820000
351.694244	146.540000
351.787720	146.480000
351.881104	146.260000
351.974579	145.960000
352.067993	146.920000
352.161469	147.240000
352.254883	146.380000
352.348358	146.420000
352.441803	146.320000
352.535248	145.580000
352.628693	145.900000
352.722137	146.140000
352.815582	146.520000
352.909027	146.760000
353.002472	146.640000
353.095917	146.300000
353.189362	146.580000
353.282806	146.220000
353.376251	146.300000
353.469696	145.860000
353.563141	146.660000
353.656586	146.360000
353.750061	145.700000
353.843475	145.340000
353.936981	145.980000
354.030396	145.120000
354.123871	145.040000
354.217285	146.220000
354.310760	146.820000
354.404175	146.460000
354.497681	146.400000
354.591095	146.600000
354.684570	145.860000
354.777985	145.140000
354.871490	145.060000
354.964935	145.280000
355.058380	145.300000
355.151855	145.260000
355.245300	145.920000
355.338745	146.180000
355.432220	146.300000
355.525665	146.000000
355.619110	146.660000
355.712585	146.380000
355.806030	145.960000
355.899475	145.480000
355.992950	145.940000
356.086426	145.880000
356.179871	145.780000
356.273346	146.160000
356.366791	146.600000
356.460266	146.680000
356.553711	146.360000
356.647186	146.500000
356.740631	146.220000
356.834106	145.600000
356.927551	145.620000
357.021027	145.640000
357.114471	145.600000
357.207947	145.660000
357.301422	146.040000
357.394867	145.940000
357.488342	146.180000
357.581818	146.260000
357.675262	146.540000
357.768738	146.660000
357.862213	146.040000
357.955658	146.040000
358.049133	146.000000
358.142609	146.100000
358.236053	145.660000
358.329529	145.900000
358.423035	145.920000
358.516449	145.480000
358.609955	145.660000
358.703400	146.480000
358.796906	146.600000
358.890350	146.080000
358.983826	146.420000
359.077271	145.640000
359.170776	145.100000
359.264221	145.080000
359.357727	145.300000
359.451172	145.360000
359.544647	145.840000
359.638123	146.240000
359.731598	146.640000
359.825073	146.820000
359.918549	146.860000
360.012024	146.880000
360.105499	146.140000
360.198975	145.820000
360.292450	145.840000
360.385925	145.820000
360.479401	145.400000
360.572876	145.920000
360.666351	146.300000
360.759857	146.200000
360.853302	146.120000
360.946808	146.080000
361.040253	145.860000
361.133759	145.440000
361.227203	145.580000
361.320709	145.460000
361.414154	145.760000
361.507660	146.340000
361.601105	146.840000
361.694641	147.240000
361.788086	147.060000
361.881592	147.440000
361.975067	146.700000
362.068542	146.780000
362.162018	146.460000
362.255524	146.160000
362.348999	145.860000
362.442474	146.440000
362.535950	145.860000
362.629456	145.800000
362.722931	146.200000
362.816406	146.440000
362.909882	146.540000
363.003387	146.300000
363.096863	146.540000
363.190338	146.620000
363.283875	146.600000
363.377319	146.220000
363.470825	146.760000
363.564301	146.120000
363.657806	146.080000
363.751282	145.380000
363.844788	146.040000
363.938232	145.860000
364.031769	146.580000
364.125214	146.700000
364.218750	147.520000
364.312225	146.720000
364.405731	146.840000
364.499207	146.420000
364.592712	146.160000
364.686188	146.040000
364.779694	146.280000
364.873169	146.180000
364.966675	146.300000
365.060150	146.440000
365.153656	146.580000
365.247131	146.740000
365.340637	146.960000
365.434143	147.100000
365.527618	147.340000
365.621155	146.300000
365.714600	146.180000
365.808136	146.200000
365.901611	145.180000
365.995117	144.820000
366.088593	145.400000
366.182129	145.200000
366.275604	145.160000
366.369110	145.760000
366.462585	145.660000
366.556122	146.400000
366.649567	146.500000
366.743103	146.720000
366.836609	146.480000
366.930115	146.860000
367.023590	146.400000
367.117096	146.180000
367.210602	145.760000
367.304108	146.700000
367.397614	146.840000
367.491119	146.660000
367.584595	147.100000
367.678101	147.380000
367.771606	146.600000
367.865112	146.360000
367.958649	145.980000
368.052124	145.520000
368.145660	145.080000
368.239136	145.560000
368.332672	145.900000
368.426147	146.340000
368.519684	146.300000
368.613159	147.020000
368.706696	146.480000
368.800171	146.040000
368.893707	145.880000
368.987183	146.400000
369.080719	146.300000
369.174225	146.300000
369.267731	146.600000
369.361237	146.640000
369.454742	146.520000
369.548248	146.420000
369.641754	146.260000
369.735260	145.780000
369.828766	145.140000
369.922272	145.600000
370.015808	145.420000
370.109314	145.240000
370.202820	145.220000
370.296356	146.420000
370.389832	145.680000
370.483368	145.260000
370.576874	145.600000
370.670410	145.960000
370.763885	145.120000
370.857422	145.100000
370.950928	145.040000
371.044464	145.580000
371.137939	145.940000
371.231476	146.460000
371.324982	147.180000
371.418518	147.460000
371.512024	147.240000
371.605560	146.640000
371.699066	146.620000
371.792572	145.920000
371.886108	146.320000
371.979614	146.260000
372.073120	146.580000
372.166656	146.240000
372.260162	146.700000
372.353668	146.600000
372.447205	146.380000
372.540710	146.180000
372.634277	146.180000
372.727753	146.300000
372.821320	146.120000
372.914795	146.240000
373.008362	146.300000
373.101837	146.740000
373.195404	146.460000
373.288879	146.420000
373.382446	147.200000
373.475922	147.100000
373.569489	147.560000
373.662964	147.900000
373.756531	148.020000
373.850037	147.620000
373.943573	147.700000
374.037109	146.360000
374.130615	146.220000
374.224152	146.420000
374.317657	146.120000
374.411194	146.820000
374.504730	147.200000
374.598236	146.920000
374.691772	146.360000
374.785309	146.580000
374.878815	145.480000
374.972351	145.840000
375.065887	145.640000
375.159454	146.500000
375.252930	146.040000
375.346497	146.640000
375.440002	146.920000
375.533569	147.060000
375.627045	146.340000
375.720612	146.320000
375.814117	146.220000
375.907684	145.700000
376.001160	145.660000
376.094727	145.380000
376.188232	146.080000
376.281799	146.320000
376.375336	146.500000
376.468872	146.940000
376.562408	147.220000
376.655914	146.500000
376.749451	146.380000
376.842987	146.360000
376.936523	146.120000
377.030060	146.240000
377.123596	146.780000
377.217133	146.320000
377.310669	146.380000
377.404205	146.640000
377.497772	147.000000
377.591278	146.520000
377.684845	147.240000
377.778351	147.400000
377.871918	147.000000
377.965424	146.260000
378.058990	146.460000
378.152496	146.060000
378.246063	146.140000
378.339569	146.200000
378.433136	146.160000
378.526642	146.420000
378.620209	146.260000
378.713745	145.820000
378.807312	146.420000
378.900848	146.740000
378.994385	146.640000
379.087921	146.300000
379.181458	146.340000
379.274994	145.480000
379.368530	145.180000
379.462097	145.240000
379.555634	145.740000
379.649170	145.160000
379.742706	145.160000
379.836273	145.380000
379.929810	144.920000
380.023376	144.580000
380.116882	145.300000
380.210449	145.440000
380.303986	145.080000
380.397552	145.260000
380.491058	145.700000
380.584656	145.140000
380.678162	145.360000
380.771729	145.540000
380.865265	145.960000
380.958832	145.940000
381.052368	146.520000
381.145935	146.780000
381.239471	147.360000
381.333008	147.180000
381.426575	147.020000
381.520111	147.320000
381.613647	147.320000
381.707214	146.780000
381.800751	146.280000
381.894318	146.680000
381.987854	145.780000
382.081421	145.660000
382.174988	145.760000
382.268524	145.880000
382.362091	145.680000
382.455627	146.820000
382.549194	146.680000
382.642731	146.500000
382.736298	146.420000
382.829834	146.100000
382.923401	146.060000
383.016937	146.040000
383.110504	146.440000
383.204041	146.680000
383.297607	147.060000
383.391174	146.180000
383.484741	146.960000
383.578278	146.360000
383.671844	145.960000
383.765411	145.400000
383.858948	146.020000
383.952515	145.220000
384.046051	145.980000
384.139618	146.720000
384.233185	147.000000
384.326721	146.660000
384.420288	147.640000
384.513855	147.360000
384.607422	147.400000
384.700989	147.740000
384.794525	147.700000
384.888123	146.860000
384.981659	146.920000
385.075226	146.320000
385.168762	145.800000
385.262360	145.940000
385.355896	145.500000
385.449463	145.420000
385.542999	145.680000
385.636597	146.560000
385.730164	146.680000
385.823730	146.640000
385.917267	146.320000
386.010834	146.500000
386.104401	146.200000
386.197968	146.160000
386.291534	146.780000
386.385101	147.040000
386.478668	147.000000
386.572235	146.640000
386.665802	146.300000
386.759338	145.700000
386.852905	145.400000
386.946472	145.160000
387.040070	145.660000
387.133606	145.780000
387.227203	145.620000
387.320740	146.220000
387.414337	146.120000
387.507874	145.940000
387.601471	146.100000
387.695007	146.240000
387.788605	145.700000
387.882141	145.780000
387.975739	145.880000
388.069275	145.420000
388.162872	145.840000
388.256439	145.900000
388.350037	145.960000
388.443604	145.600000
388.537170	145.940000
388.630737	146.440000
388.724304	146.600000
388.817871	146.660000
388.911438	146.740000
389.005005	147.120000
389.098602	146.940000
389.192169	146.860000
389.285736	147.120000
389.379333	147.100000
389.472870	146.480000
389.566467	146.180000
389.660034	146.200000
389.753632	145.680000
389.847168	146.040000
389.940765	146.320000
390.034332	146.700000
390.127930	146.340000
390.221466	146.580000
390.315063	146.200000
390.408630	145.520000
390.502228	144.520000
390.595795	145.100000
390.689362	145.340000
390.782959	145.560000
390.876526	146.340000
390.970093	146.440000
391.063690	146.560000
391.157257	146.320000
391.250824	146.520000
391.344421	146.160000
391.437988	146.840000
391.531555	147.000000
391.625153	147.220000
391.718750	147.160000
391.812317	147.220000
391.905914	146.860000
391.999481	146.860000
392.093079	146.780000
392.186615	147.040000
392.280243	146.920000
392.373779	147.000000
392.467407	147.280000
392.560944	147.100000
392.654572	146.260000
392.748108	146.320000
392.841736	146.640000
392.935303	145.960000
393.028900	145.860000
393.122467	146.100000
393.216064	145.880000
393.309631	145.260000
393.403229	144.840000
393.496796	145.000000
393.590393	144.400000
393.683990	144.820000
393.777557	145.620000
393.871155	146.020000
393.964722	146.320000
394.058350	146.940000
394.151917	147.000000
394.245514	146.300000
394.339081	146.760000
394.432678	146.860000
394.526245	146.620000
394.619873	146.040000
394.713409	146.480000
394.807037	145.760000
394.900604	145.720000
394.994202	146.060000
395.087769	146.520000
395.181396	145.860000
395.274994	146.780000
395.368561	145.780000
395.462158	146.100000
395.555756	145.980000
395.649353	146.800000
395.742920	146.080000
395.836517	147.220000
395.930115	146.640000
396.023712	146.900000
396.117279	146.700000
396.210876	146.680000
396.304474	146.340000
396.398071	146.640000
396.491669	146.620000
396.585266	146.360000
396.678833	146.200000
396.772461	146.580000
396.866028	146.360000
396.959656	146.520000
397.053223	146.880000
397.146851	146.980000
397.240417	146.720000
397.334015	147.480000
397.427582	147.400000
397.521210	147.740000
397.614807	148.400000
397.708405	148.860000
397.802002	148.860000
397.895599	150.240000
397.989197	150.760000
398.082794	152.080000
398.176392	153.500000
398.269989	155.480000
398.363586	157.260000
398.457184	160.240000
398.550781	162.560000
398.644379	164.840000
398.737976	167.320000
398.831573	169.920000
398.925201	171.880000
399.018768	174.160000
399.112396	176.480000
399.205963	179.180000
399.299591	181.620000
399.393158	184.640000
399.486786	188.280000
399.580353	192.120000
399.673981	195.900000
399.767578	200.880000
399.861206	207.040000
399.954773	213.400000
400.048401	220.280000
400.141998	226.360000
400.235596	232.400000
400.329193	236.600000
400.422791	241.040000
400.516418	244.240000
400.610016	247.980000
400.703613	250.420000
400.797211	250.960000
400.890808	249.580000
400.984436	247.480000
401.078033	242.700000
401.171631	236.920000
401.265259	230.840000
401.358826	224.640000
401.452484	217.000000
401.546051	209.740000
401.639679	201.400000
401.733246	194.060000
401.826904	186.300000
401.920471	179.260000
402.014099	173.260000
402.107697	168.200000
402.201324	163.900000
402.294891	160.620000
402.388550	157.960000
402.482147	155.940000
402.575745	154.220000
402.669373	152.060000
402.762970	150.380000
402.856567	149.720000
402.950195	149.040000
403.043793	148.160000
403.137390	148.860000
403.231018	147.840000
403.324615	147.980000
403.418243	147.280000
403.511841	147.460000
403.605469	146.680000
403.699066	147.520000
403.792694	147.040000
403.886292	147.260000
403.979919	147.360000
404.073517	147.260000
404.167145	147.400000
404.260712	147.500000
404.354370	147.500000
404.447937	147.580000
404.541595	147.260000
404.635162	147.260000
404.728821	147.540000
404.822418	147.180000
404.916046	146.800000
405.009644	147.600000
405.103271	147.520000
405.196899	146.780000
405.290497	146.940000
405.384125	147.260000
405.477722	146.320000
405.571350	145.820000
405.664948	146.100000
405.758575	145.740000
405.852203	145.420000
405.945801	145.960000
406.039429	145.940000
406.133057	145.600000
406.226654	145.800000
406.320312	145.860000
406.413879	145.760000
406.507538	146.200000
406.601135	146.100000
406.694763	146.500000
406.788361	146.400000
406.882019	146.240000
406.975586	146.520000
407.069244	147.280000
407.162872	146.880000
407.256470	146.780000
407.350098	146.960000
407.443726	146.180000
407.537323	145.580000
407.630951	145.800000
407.724579	145.600000
407.818207	145.920000
407.911804	146.320000
408.005432	146.440000
408.099060	146.600000
408.192688	147.080000
408.286285	146.780000
408.379913	146.380000
408.473572	146.640000
408.567169	145.980000
408.660828	145.560000
408.754395	145.440000
408.848053	145.320000
408.941650	145.280000
409.035309	145.040000
409.128906	145.060000
409.222565	144.920000
409.316132	145.280000
409.409790	144.860000
409.503387	145.280000
409.597046	145.640000
409.690674	145.980000
409.784302	145.760000
409.877930	145.900000
409.971558	146.060000
410.065186	145.740000
410.158783	145.380000
410.252411	145.520000
410.346039	145.740000
410.439667	145.700000
410.533295	146.140000
410.626923	146.600000
410.720551	146.480000
410.814209	147.040000
410.907806	147.180000
411.001465	146.680000
411.095062	146.640000
411.188721	146.740000
411.282318	146.140000
411.375977	145.700000
411.469574	145.880000
411.563232	145.800000
411.656830	145.900000
411.750488	145.540000
411.844086	145.660000
411.937744	145.880000
412.031372	145.500000
412.125000	145.320000
412.218628	145.560000
412.312256	146.020000
412.405884	146.400000
412.499512	146.480000
412.593170	146.520000
412.686798	146.820000
412.780426	146.460000
412.874054	146.120000
412.967682	146.120000
413.061310	146.920000
413.154968	146.760000
413.248566	146.780000
413.342224	146.820000
413.435852	147.080000
413.529510	146.420000
413.623108	145.800000
413.716766	145.580000
413.810364	145.700000
413.904022	145.620000
413.997650	145.500000
414.091309	146.660000
414.184906	146.780000
414.278564	146.280000
414.372192	146.540000
414.465851	146.780000
414.559479	146.040000
414.653107	146.700000
414.746735	146.700000
414.840393	146.460000
414.934021	146.760000
415.027649	146.520000
415.121277	146.100000
415.214935	146.400000
415.308563	146.420000
415.402191	145.640000
415.495850	145.940000
415.589478	145.580000
415.683136	145.340000
415.776733	145.540000
415.870422	146.100000
415.964020	145.420000
416.057678	145.740000
416.151306	145.700000
416.244965	145.340000
416.338562	145.360000
416.432251	146.340000
416.525848	146.940000
416.619507	147.280000
416.713165	147.500000
416.806793	146.960000
416.900421	146.840000
416.994080	145.880000
417.087708	145.560000
417.181366	145.380000
417.274994	145.600000
417.368622	145.620000
417.462280	146.260000
417.555908	146.300000
417.649567	146.160000
417.743195	146.240000
417.836853	146.040000
417.930481	145.960000
418.024170	146.200000
418.117767	146.640000
418.211426	146.940000
418.305054	147.300000
418.398712	147.020000
418.492340	146.940000
418.585999	147.440000
418.679626	147.200000
418.773285	147.040000
418.866913	147.580000
418.960571	147.680000
419.054230	147.180000
419.147858	147.360000
419.241516	147.580000
419.335144	146.920000
419.428802	146.940000
419.522461	146.540000
419.616089	146.100000
419.709747	145.980000
419.803375	146.140000
419.897034	145.660000
419.990662	145.900000
420.084320	146.580000
420.177979	146.660000
420.271606	146.960000
420.365295	147.660000
420.458893	147.900000
420.552582	147.920000
420.646210	147.960000
420.739868	147.460000
420.833496	147.100000
420.927155	146.360000
421.020782	145.940000
421.114471	145.460000
421.208069	145.560000
421.301758	145.720000
421.395386	146.420000
421.489044	146.260000
421.582703	146.520000
421.676361	147.180000
421.769989	146.740000
421.863647	147.040000
421.957306	147.220000
422.050934	147.280000
422.144592	146.740000
422.238251	146.840000
422.331909	146.140000
422.425537	145.780000
422.519196	145.960000
422.612854	145.780000
422.706543	145.480000
422.800140	146.000000
422.893829	146.140000
422.987457	145.620000
423.081146	145.720000
423.174744	146.540000
423.268433	146.160000
423.362061	146.260000
423.455750	146.260000
423.549347	146.400000
423.643036	145.620000
423.736664	145.940000
423.830353	146.000000
423.924011	146.740000
424.017639	146.500000
424.111298	146.620000
424.204956	146.440000
424.298615	146.200000
424.392273	145.660000
424.485931	146.060000
424.579559	146.280000
424.673218	146.220000
424.766876	146.380000
424.860535	145.980000
424.954193	145.600000
425.047882	145.920000
425.141510	145.920000
425.235199	145.880000
425.328796	145.940000
425.422485	145.780000
425.516113	145.220000
425.609802	144.980000
425.703430	144.960000
425.797119	144.960000
425.890747	145.320000
425.984436	145.380000
426.078064	145.660000
426.171753	145.920000
426.265411	145.760000
426.359070	145.920000
426.452728	146.080000
426.546356	145.920000
426.640015	145.520000
426.733673	145.720000
426.827332	145.180000
426.920990	145.660000
427.014648	145.440000
427.108307	145.960000
427.201965	146.520000
427.295624	146.920000
427.389282	146.320000
427.482941	146.740000
427.576630	146.500000
427.670258	145.660000
427.763947	145.360000
427.857574	145.300000
427.951263	145.120000
428.044922	144.820000
428.138611	144.980000
428.232239	145.580000
428.325928	146.060000
428.419556	146.500000
428.513245	146.260000
428.606903	146.380000
428.700562	145.780000
428.794220	145.040000
428.887878	144.460000
428.981537	144.940000
429.075195	145.420000
429.168854	145.600000
429.262512	146.080000
429.356201	146.460000
429.449860	146.200000
429.543518	145.960000
429.637177	146.380000
429.730835	146.220000
429.824493	145.860000
429.918182	146.100000
430.011810	145.580000
430.105530	144.760000
430.199158	144.760000
430.292847	145.120000
430.386475	144.760000
430.480164	144.700000
430.573792	144.700000
430.667511	144.800000
430.761139	144.540000
430.854828	145.240000
430.948456	145.760000
431.042145	146.400000
431.135834	146.220000
431.229492	146.280000
431.323151	146.280000
431.416809	146.200000
431.510468	145.840000
431.604156	145.760000
431.697815	145.840000
431.791473	145.180000
431.885132	145.160000
431.978821	145.780000
432.072479	146.240000
432.166138	146.480000
432.259827	146.580000
432.353485	146.960000
432.447174	146.660000
432.540802	146.600000
432.634491	146.640000
432.728149	146.720000
432.821838	147.060000
432.915466	146.860000
433.009186	146.680000
433.102814	146.100000
433.196503	146.240000
433.290131	145.260000
433.383850	145.840000
433.477509	145.740000
433.571167	146.520000
433.664856	146.760000
433.758514	147.800000
433.852173	147.100000
433.945862	146.920000
434.039520	146.620000
434.133179	146.000000
434.226868	145.340000
434.320526	144.980000
434.414185	145.760000
434.507874	145.320000
434.601562	145.840000
434.695221	145.700000
434.788910	146.200000
434.882538	146.120000
434.976257	145.960000
435.069885	145.860000
435.163574	146.220000
435.257233	145.840000
435.350922	145.480000
435.444580	145.400000
435.538269	145.200000
435.631897	145.200000
435.725616	145.780000
435.819275	146.200000
435.912964	146.760000
436.006622	147.380000
436.100311	147.080000
436.193970	146.420000
436.287628	145.880000
436.381317	145.520000
436.474976	145.000000
436.568665	145.040000
436.662323	145.420000
436.756012	145.880000
436.849670	145.880000
436.943390	145.900000
437.037018	145.740000
437.130737	145.800000
437.224365	145.480000
437.318085	145.640000
437.411713	145.840000
437.505432	146.060000
437.599060	146.540000
437.692780	147.420000
437.786407	147.600000
437.880127	147.420000
437.973755	147.240000
438.067474	146.760000
438.161133	146.040000
438.254822	146.360000
438.348480	146.080000
438.442169	146.700000
438.535828	146.940000
438.629517	146.520000
438.723175	145.540000
438.816864	146.040000
438.910553	145.420000
439.004211	145.240000
439.097900	145.380000
439.191559	145.640000
439.285248	145.220000
439.378906	145.460000
439.472626	145.040000
439.566284	144.960000
439.659973	145.400000
439.753632	145.220000
439.847321	145.600000
439.940979	146.080000
440.034698	146.220000
440.128326	145.660000
440.222046	145.740000
440.315674	144.900000
440.409393	145.040000
440.503082	145.140000
440.596741	145.640000
440.690430	145.880000
440.784088	145.980000
440.877777	145.340000
440.971466	145.120000
441.065125	144.820000
441.158813	144.300000
441.252502	144.280000
441.346161	144.600000
441.439850	145.040000
441.533539	144.800000
441.627197	145.480000
441.720886	145.440000
441.814606	146.020000
441.908234	146.260000
442.001953	146.400000
442.095612	146.240000
442.189301	146.660000
442.282959	146.140000
442.376678	145.080000
442.470306	145.880000
442.564026	145.620000
442.657684	145.620000
442.751404	145.960000
442.845032	147.080000
442.938751	146.280000
443.032440	146.580000
443.126099	145.960000
443.219788	146.040000
443.313477	145.980000
443.407166	146.300000
443.500824	146.260000
443.594513	146.800000
443.688202	146.500000
443.781891	145.620000
443.875549	145.520000
443.969238	145.400000
444.062927	145.500000
444.156647	145.320000
444.250275	146.040000
444.343994	146.000000
444.437653	146.200000
444.531372	146.020000
444.625031	146.180000
444.718719	145.800000
444.812378	145.640000
444.906097	145.400000
444.999756	145.380000
445.093445	145.080000
445.187103	144.940000
445.280823	145.880000
445.374512	145.360000
445.468201	145.220000
445.561859	145.360000
445.655548	145.540000
445.749237	144.420000
445.842926	145.080000
445.936615	145.280000
446.030304	144.960000
446.123962	145.120000
446.217651	145.320000
446.311340	145.140000
446.405029	144.620000
446.498749	144.580000
446.592407	144.180000
446.686096	144.620000
446.779755	144.700000
446.873474	145.280000
446.967133	145.900000
447.060852	145.920000
447.154510	145.500000
447.248230	145.800000
447.341858	145.700000
447.435577	145.140000
447.529236	144.760000
447.622955	144.780000
447.716644	144.880000
447.810333	145.000000
447.904022	145.780000
447.997711	146.240000
448.091400	146.760000
448.185059	146.340000
448.278748	146.440000
448.372437	146.000000
448.466125	146.320000
448.559814	145.660000
448.653503	146.340000
448.747192	146.440000
448.840912	146.660000
448.934570	146.540000
449.028290	146.980000
449.121948	146.180000
449.215637	145.780000
449.309296	145.460000
449.403015	145.360000
449.496674	145.280000
449.590393	145.520000
449.684052	145.320000
449.777771	146.120000
449.871429	145.720000
449.965149	145.520000
450.058838	145.980000
450.152527	146.580000
450.246216	146.040000
450.339905	146.240000
450.433594	146.100000
450.527283	146.280000
450.620972	145.900000
450.714661	145.680000
450.808350	145.960000
450.902039	146.400000
450.995728	146.000000
451.089417	145.720000
451.183105	145.680000
451.276794	145.920000
451.370514	145.220000
451.464172	144.540000
451.557892	144.480000
451.651550	144.860000
451.745270	144.180000
451.838928	144.080000
451.932648	144.520000
452.026306	145.060000
452.120026	144.620000
452.213684	145.140000
452.307404	145.600000
452.401062	145.860000
452.494781	146.060000
452.588470	146.380000
452.682159	145.740000
452.775848	145.760000
452.869537	145.420000
452.963226	145.000000
453.056915	144.920000
453.150604	145.560000
453.244293	146.060000
453.337982	146.920000
453.431671	146.980000
453.525360	147.540000
453.619049	147.340000
453.712769	147.060000
453.806427	146.260000
453.900146	146.060000
453.993805	145.520000
454.087555	145.960000
454.181213	145.960000
454.274933	145.720000
454.368591	146.000000
454.462311	145.880000
454.555969	145.420000
454.649689	146.220000
454.743347	146.160000
454.837067	146.720000
454.930756	146.920000
455.024445	147.040000
455.118134	146.400000
455.211853	146.720000
455.305542	146.060000
455.399231	145.920000
455.492920	145.920000
455.586609	145.560000
455.680298	145.840000
455.773987	145.740000
455.867676	145.920000
455.961365	145.920000
456.055084	145.880000
456.148773	145.440000
456.242493	145.700000
456.336151	145.560000
456.429871	145.780000
456.523529	146.380000
456.617249	146.140000
456.710907	146.320000
456.804626	146.180000
456.898315	145.600000
456.992035	145.360000
457.085693	145.300000
457.179413	144.620000
457.273102	145.660000
457.366791	145.880000
457.460480	146.100000
457.554199	147.020000
457.647888	147.280000
457.741577	146.560000
457.835266	146.460000
457.928955	146.420000
458.022644	146.140000
458.116364	146.400000
458.210052	146.120000
458.303741	146.540000
458.397461	145.900000
458.491119	145.340000
458.584839	145.460000
458.678528	145.320000
458.772247	144.960000
458.865906	145.220000
458.959625	146.200000
459.053284	145.940000
459.147003	145.780000
459.240692	146.580000
459.334412	146.740000
459.428070	146.320000
459.521790	145.860000
459.615479	146.080000
459.709198	145.960000
459.802887	145.660000
459.896576	145.520000
459.990265	146.400000
460.083954	146.640000
460.177673	145.900000
460.271362	146.000000
460.365051	145.960000
460.458740	145.500000
460.552429	145.060000
460.646149	145.040000
460.739838	145.020000
460.833527	145.100000
460.927246	144.920000
461.020905	145.180000
461.114655	145.240000
461.208313	145.640000
461.302032	145.200000
461.395691	145.340000
461.489441	145.320000
461.583099	145.360000
461.676819	144.660000
461.770477	145.000000
461.864197	144.800000
461.957916	144.840000
462.051605	144.160000
462.145294	145.320000
462.238983	144.920000
462.332703	145.620000
462.426392	146.140000
462.520081	146.620000
462.613770	145.860000
462.707489	146.520000
462.801178	145.980000
462.894867	145.500000
462.988556	145.760000
463.082275	145.840000
463.175964	145.100000
463.269684	145.520000
463.363342	145.620000
463.457092	145.020000
463.550751	145.360000
463.644470	145.920000
463.738129	145.380000
463.831879	145.360000
463.925537	146.440000
464.019257	146.100000
464.112946	146.240000
464.206665	146.340000
464.300323	146.240000
464.394043	145.820000
464.487762	146.080000
464.581451	146.240000
464.675140	146.260000
464.768829	146.380000
464.862549	146.560000
464.956238	146.700000
465.049927	146.500000
465.143646	146.820000
465.237335	146.660000
465.331024	147.120000
465.424713	146.820000
465.518433	146.780000
465.612152	146.300000
465.705811	146.380000
465.799561	145.820000
465.893219	145.740000
465.986938	145.680000
466.080597	145.600000
466.174347	145.780000
466.268005	145.840000
466.361725	145.880000
466.455414	145.820000
466.549133	145.680000
466.642792	145.880000
466.736542	145.400000
466.830231	145.380000
466.923920	145.420000
467.017609	145.820000
467.111328	145.220000
467.205017	145.420000
467.298706	145.520000
467.392426	145.540000
467.486115	145.740000
467.579803	145.760000
467.673523	145.940000
467.767212	146.060000
467.860901	146.100000
467.954651	146.320000
468.048309	146.840000
468.142029	146.740000
468.235718	146.600000
468.329437	146.420000
468.423096	146.200000
468.516846	145.680000
468.610504	145.480000
468.704224	145.080000
468.797913	144.980000
468.891632	144.920000
468.985291	144.900000
469.079010	145.000000
469.172729	144.880000
469.266418	145.720000
469.360107	145.680000
469.453827	145.860000
469.547516	146.080000
469.641205	146.760000
469.734924	146.440000
469.828613	146.840000
469.922302	147.100000
470.016022	147.040000
470.109711	146.520000
470.203430	146.000000
470.297150	145.440000
470.390808	145.440000
470.484558	145.300000
470.578217	146.000000
470.671936	146.520000
470.765625	146.980000
470.859344	146.800000
470.953003	146.840000
471.046753	146.280000
471.140411	145.580000
471.234131	145.680000
471.327820	146.140000
471.421539	146.280000
471.515228	145.940000
471.608948	146.280000
471.702637	145.540000
471.796326	144.660000
471.890045	144.780000
471.983734	145.180000
472.077423	144.840000
472.171143	145.280000
472.264832	145.700000
472.358521	145.420000
472.452240	145.120000
472.545929	146.160000
472.639648	146.400000
472.733337	146.720000
472.827057	146.740000
472.920746	146.940000
473.014465	146.640000
473.108124	146.720000
473.201874	146.440000
473.295532	146.380000
473.389252	146.740000
473.482941	146.620000
473.576660	145.880000
473.670319	145.920000
473.764069	146.160000
473.857727	146.200000
473.951477	146.580000
474.045166	147.220000
474.138855	147.080000
474.232574	147.140000
474.326263	146.900000
474.419952	146.760000
474.513672	146.580000
474.607361	146.560000
474.701050	146.660000
474.794769	147.160000
474.888458	147.200000
474.982178	147.300000
475.075867	147.640000
475.169586	147.460000
475.263275	146.760000
475.356995	146.340000
475.450653	145.920000
475.544403	145.260000
475.638062	146.140000
475.731812	145.980000
475.825470	145.960000
475.919189	146.380000
476.012878	146.800000
476.106598	145.680000
476.200256	145.980000
476.294006	145.840000
476.387695	145.660000
476.481384	145.660000
476.575104	145.780000
476.668793	145.700000
476.762512	145.580000
476.856201	146.160000
476.949890	145.960000
477.043610	145.540000
477.137299	145.280000
477.230988	145.920000
477.324707	145.180000
477.418396	145.540000
477.512146	145.800000
477.605804	146.180000
477.699524	145.820000
477.793213	145.960000
477.886932	145.640000
477.980591	145.440000
478.074341	145.300000
478.167999	144.920000
478.261749	144.900000
478.355408	144.640000
478.449127	145.480000
478.542816	146.040000
478.636536	146.800000
478.730225	146.900000
478.823944	147.300000
478.917633	146.880000
479.011322	146.880000
479.105042	146.580000
479.198730	146.800000
479.292450	146.560000
479.386139	146.740000
479.479828	146.680000
479.573547	147.120000
479.667267	146.880000
479.760925	146.840000
479.854675	146.920000
479.948334	146.800000
480.042084	145.940000
480.135742	146.300000
480.229462	146.160000
480.323151	146.020000
480.416870	145.320000
480.510529	145.620000
480.604279	144.920000
480.697937	145.180000
480.791656	144.880000
480.885345	144.940000
480.979065	144.860000
481.072754	145.300000
481.166473	145.680000
481.260132	145.540000
481.353882	145.780000
481.447540	145.500000
481.541260	145.180000
481.635010	144.440000
481.728668	144.460000
481.822388	144.260000
481.916077	144.620000
482.009796	144.560000
482.103485	145.440000
482.197205	145.460000
482.290863	145.760000
482.384613	145.440000
482.478271	145.200000
482.571991	144.860000
482.665680	145.180000
482.759399	146.040000
482.853058	146.800000
482.946808	147.200000
483.040466	147.080000
483.134216	146.780000
483.227875	145.980000
483.321594	145.980000
483.415283	145.900000
483.509003	145.900000
483.602661	145.840000
483.696411	145.980000
483.790070	145.700000
483.883789	145.640000
483.977478	146.000000
484.071198	145.920000
484.164917	145.600000
484.258606	145.460000
484.352325	145.840000
484.445984	145.740000
484.539734	145.800000
484.633392	145.300000
484.727142	145.620000
484.820801	145.600000
484.914520	145.640000
485.008209	145.860000
485.101929	146.820000
485.195587	146.460000
485.289337	146.360000
485.382996	146.160000
485.476715	146.580000
485.570404	146.560000
485.664124	146.620000
485.757782	146.900000
485.851532	146.520000
485.945190	145.960000
486.038910	145.940000
486.132599	146.220000
486.226318	145.700000
486.319977	145.900000
486.413727	146.620000
486.507446	146.340000
486.601105	145.640000
486.694855	145.640000
486.788513	145.500000
486.882233	145.200000
486.975922	145.120000
487.069641	145.080000
487.163300	145.020000
487.257050	146.000000
487.350708	145.480000
487.444427	145.440000
487.538116	145.500000
487.631836	145.680000
487.725494	145.260000
487.819214	145.200000
487.912903	145.040000
488.006622	145.740000
488.100281	146.140000
488.194031	145.840000
488.287689	146.680000
488.381409	147.440000
488.475098	147.200000
488.568817	146.960000
488.662476	146.660000
488.756226	145.880000
488.849945	144.900000
488.943604	144.760000
489.037354	145.000000
489.131012	145.120000
489.224731	145.080000
489.318390	145.320000
489.412140	145.260000
489.505798	144.780000
489.599518	144.540000
489.693207	144.960000
489.786926	144.740000
489.880585	144.900000
489.974335	145.420000
490.067993	146.700000
490.161713	147.060000
490.255371	147.980000
490.349121	148.260000
490.442780	147.720000
490.536499	146.760000
490.630188	146.480000
490.723907	145.680000
490.817566	145.240000
490.911285	145.240000
491.004974	145.220000
491.098694	144.880000
491.192413	145.820000
491.286102	145.880000
491.379822	146.360000
491.473480	146.600000
491.567200	146.620000
491.660889	145.900000
491.754608	146.020000
491.848267	145.500000
491.941986	145.220000
492.035675	145.460000
492.129395	145.680000
492.223053	145.440000
492.316772	145.620000
492.410461	145.420000
492.504181	145.300000
492.597839	145.200000
492.691559	145.420000
492.785248	145.700000
492.878967	146.180000
492.972626	145.920000
493.066345	145.740000
493.160034	145.280000
493.253754	145.220000
493.347412	144.780000
493.441132	144.940000
493.534882	145.420000
493.628540	146.000000
493.722260	146.100000
493.815918	146.320000
493.909668	146.920000
494.003326	147.360000
494.097046	147.000000
494.190704	146.700000
494.284454	146.820000
494.378113	146.560000
494.471832	146.240000
494.565491	146.140000
494.659210	146.040000
494.752899	146.000000
494.846619	145.680000
494.940277	145.660000
495.033997	145.980000
495.127686	145.720000
495.221405	145.240000
495.315063	145.600000
495.408783	145.440000
495.502441	145.680000
495.596191	145.980000
495.689850	146.080000
495.783569	146.280000
495.877228	146.440000
495.970947	145.800000
496.064697	145.740000
496.158356	146.780000
496.252075	146.260000
496.345734	145.760000
496.439453	146.700000
496.533142	146.860000
496.626862	146.780000
496.720520	146.820000
496.814240	147.040000
496.907898	146.500000
497.001617	146.440000
497.095306	145.360000
497.189026	145.620000
497.282684	145.620000
497.376404	145.880000
497.470062	145.860000
497.563782	146.440000
497.657471	146.300000
497.751190	145.880000
497.844849	145.640000
497.938568	145.860000
498.032227	146.120000
498.125946	145.840000
498.219635	145.900000
498.313354	145.880000
498.407074	145.440000
498.500732	145.340000
498.594452	145.660000
498.688110	145.880000
498.781830	145.520000
498.875519	145.540000
498.969238	145.380000
499.062897	145.140000
499.156616	145.460000
499.250275	145.680000
499.343994	145.280000
499.437653	145.420000
499.531372	145.800000
499.625061	146.200000
499.718781	146.640000
499.812439	147.540000
499.906158	147.140000
499.999817	146.800000
500.093536	146.240000
500.187195	146.120000
500.280914	145.900000
500.374573	145.940000
500.468323	145.740000
500.561981	145.880000
500.655701	145.320000
500.749420	145.220000
500.843079	145.360000
500.936798	145.680000
501.030457	145.860000
501.124176	146.420000
501.217834	146.220000
501.311554	146.180000
501.405212	145.840000
501.498962	145.100000
501.592621	144.700000
501.686340	145.420000
501.779999	145.500000
501.873718	145.720000
501.967377	146.200000
502.061096	146.680000
502.154755	145.920000
502.248474	146.160000
502.342133	146.280000
502.435852	145.980000
502.529510	146.140000
502.623230	146.940000
502.716888	146.160000
502.810608	146.520000
502.904266	146.940000
502.997986	146.440000
503.091705	145.420000
503.185364	145.700000
503.279083	145.240000
503.372772	145.020000
503.466492	144.600000
503.560150	144.960000
503.653870	145.160000
503.747528	145.340000
503.841248	145.160000
503.934906	145.800000
504.028625	145.620000
504.122284	145.900000
504.216003	146.500000
504.309662	146.240000
504.403381	146.060000
504.497040	146.120000
504.590759	145.560000
504.684418	145.300000
504.778137	145.960000
504.871796	146.500000
504.965515	146.480000
505.059174	146.720000
505.152893	145.920000
505.246521	145.500000
505.340240	145.000000
505.433899	144.920000
505.527618	144.920000
505.621338	145.280000
505.714996	145.400000
505.808716	145.200000
505.902374	145.920000
505.996094	146.040000
506.089752	145.960000
506.183472	145.980000
506.277130	146.360000
506.370850	145.880000
506.464508	145.700000
506.558228	145.660000
506.651886	145.380000
506.745605	145.220000
506.839264	145.700000
506.932983	145.780000
507.026611	145.820000
507.120331	146.540000
507.213989	146.120000
507.307709	146.000000
507.401367	146.260000
507.495087	147.040000
507.588745	146.320000
507.682465	147.360000
507.776123	147.040000
507.869843	146.740000
507.963531	146.300000
508.057190	146.980000
508.150909	145.920000
508.244568	146.280000
508.338287	146.040000
508.431946	145.800000
508.525665	145.380000
508.619324	145.480000
508.713013	145.460000
508.806671	146.220000
508.900391	146.900000
508.994049	147.100000
509.087769	147.020000
509.181427	146.960000
509.275146	146.580000
509.368774	145.700000
509.462494	145.460000
509.556152	145.440000
509.649872	145.680000
509.743530	145.720000
509.837250	146.140000
509.930878	146.140000
510.024597	146.240000
510.118256	145.840000
510.211975	145.600000
510.305695	145.340000
510.399353	145.740000
510.493042	146.420000
510.586700	146.520000
510.680420	147.320000
510.774078	147.400000
510.867798	147.260000
510.961426	146.640000
511.055145	146.620000
511.148804	145.880000
511.242523	146.160000
511.336151	146.040000
511.429871	146.380000
511.523529	146.120000
511.617249	146.200000
511.710876	145.860000
511.804596	145.760000
511.898254	145.680000
511.991974	146.260000
512.085632	145.960000
512.179321	146.080000
512.272949	146.380000
512.366699	146.720000
512.460327	146.440000
512.554077	147.700000
512.647766	147.420000
512.741394	147.360000
512.835144	147.460000
512.928772	147.160000
513.022461	146.640000
513.116150	146.660000
513.209839	146.860000
513.303467	146.160000
513.397217	146.020000
513.490845	145.540000
513.584595	145.560000
513.678223	144.980000
513.771912	144.700000
513.865601	145.040000
513.959290	144.840000
514.052917	144.960000
514.146667	145.640000
514.240295	145.880000
514.333984	146.280000
514.427673	146.560000
514.521362	146.780000
514.614990	146.080000
514.708740	146.520000
514.802368	146.220000
514.896057	146.340000
514.989746	146.660000
515.083435	146.880000
515.177124	147.080000
515.270752	147.100000
515.364502	147.040000
515.458130	146.920000
515.551819	146.900000
515.645508	146.300000
515.739197	145.920000
515.832825	146.100000
515.926575	145.800000
516.020203	145.880000
516.113892	146.500000
516.207520	146.560000
516.301270	146.400000
516.394897	146.400000
516.488586	146.860000
516.582275	146.440000
516.675964	146.240000
516.769592	146.060000
516.863281	146.560000
516.956970	146.560000
517.050659	146.680000
517.144287	147.000000
517.238037	147.280000
517.331665	146.780000
517.425354	146.200000
517.519043	146.300000
517.612732	146.500000
517.706421	146.140000
517.800049	145.920000
517.893738	145.960000
517.987427	145.640000
518.081116	145.600000
518.174744	145.440000
518.268433	145.960000
518.362122	146.600000
518.455811	146.740000
518.549438	147.040000
518.643127	147.940000
518.736816	147.400000
518.830505	146.780000
518.924133	146.500000
519.017822	146.300000
519.111511	145.980000
519.205200	146.480000
519.298828	146.540000
519.392517	146.440000
519.486206	146.380000
519.579895	146.200000
519.673523	145.880000
519.767212	145.880000
519.860901	146.460000
519.954590	146.380000
520.048279	146.140000
520.141907	145.840000
520.235596	146.540000
520.329224	146.640000
520.422974	146.620000
520.516602	146.740000
520.610291	146.700000
520.703918	146.240000
520.797607	145.800000
520.891296	145.680000
520.984985	145.580000
521.078613	146.200000
521.172302	145.580000
521.265930	146.640000
521.359680	147.000000
521.453308	146.880000
521.546997	146.620000
521.640625	146.820000
521.734314	145.920000
521.827942	145.760000
521.921692	146.340000
522.015320	146.300000
522.109009	145.980000
522.202698	146.020000
522.296326	146.220000
522.390015	146.300000
522.483704	146.560000
522.577393	146.720000
522.671021	146.500000
522.764709	145.680000
522.858337	145.880000
522.952026	145.660000
523.045654	146.460000
523.139404	147.180000
523.233032	147.840000
523.326721	147.460000
523.420349	147.340000
523.514038	146.780000
523.607666	146.780000
523.701355	146.540000
523.795044	146.460000
523.888733	147.060000
523.982361	147.380000
524.076050	146.560000
524.169678	146.940000
524.263367	146.860000
524.356995	146.300000
524.450684	146.280000
524.544373	146.640000
524.638062	146.520000
524.731750	146.460000
524.825378	146.540000
524.919067	146.000000
525.012695	146.060000
525.106384	145.580000
525.200012	145.960000
525.293701	145.760000
525.387329	146.320000
525.481018	146.240000
525.574646	146.780000
525.668396	146.300000
525.762024	146.560000
525.855713	146.300000
525.949341	145.680000
526.043030	145.540000
526.136658	145.520000
526.230347	145.440000
526.323975	145.040000
526.417664	145.560000
526.511292	145.880000
526.604980	146.060000
526.698608	146.060000
526.792297	146.580000
526.885925	146.600000
526.979614	146.260000
527.073303	146.220000
527.166931	146.040000
527.260620	146.220000
527.354309	146.660000
527.447998	146.600000
527.541626	146.280000
527.635315	146.680000
527.728943	147.060000
527.822632	146.840000
527.916260	147.020000
528.009949	147.560000
528.103577	147.180000
528.197266	146.480000
528.290894	146.460000
528.384583	146.320000
528.478210	146.060000
528.571899	146.260000
528.665527	146.580000
528.759216	146.800000
528.852844	147.100000
528.946533	147.180000
529.040161	147.160000
529.133850	146.800000
529.227478	147.040000
529.321167	147.280000
529.414856	147.460000
529.508484	147.740000
529.602173	147.480000
529.695801	146.940000
529.789490	146.440000
529.883057	146.220000
529.976746	146.300000
530.070374	146.680000
530.164062	146.780000
530.257690	146.860000
530.351379	147.240000
530.445007	147.020000
530.538696	146.600000
530.632324	146.720000
530.726013	146.920000
530.819641	146.640000
530.913330	146.800000
531.006958	146.780000
531.100647	146.680000
531.194275	146.500000
531.287964	146.240000
531.381592	145.900000
531.475220	146.280000
531.568848	146.120000
531.662537	145.640000
531.756226	146.040000
531.849854	146.180000
531.943542	146.080000
532.037170	145.540000
532.130859	146.380000
532.224487	145.920000
532.318176	145.540000
532.411804	146.120000
532.505432	146.560000
532.599060	145.660000
532.692749	145.840000
532.786377	146.360000
532.880066	145.300000
532.973694	145.000000
533.067383	145.260000
533.161011	145.380000
533.254639	145.160000
533.348267	145.420000
533.441956	145.660000
533.535583	145.500000
533.629272	145.460000
533.722900	144.780000
533.816589	144.900000
533.910156	145.060000
534.003845	144.960000
534.097534	145.280000
534.191162	146.220000
534.284851	146.280000
534.378479	146.080000
534.472107	146.160000
534.565735	145.740000
534.659424	145.760000
534.753052	145.860000
534.846741	145.580000
534.940369	146.260000
535.033997	146.180000
535.127625	146.000000
535.221313	146.600000
535.314941	146.780000
535.408630	146.080000
535.502197	146.620000
535.595886	146.200000
535.689514	145.500000
535.783203	145.860000
535.876831	146.600000
535.970459	146.540000
536.064087	146.720000
536.157776	146.780000
536.251404	146.820000
536.345093	146.460000
536.438721	145.940000
536.532349	145.840000
536.626038	145.740000
536.719666	145.940000
536.813293	145.520000
536.906921	145.640000
537.000610	146.360000
537.094238	146.420000
537.187866	146.140000
537.281494	146.400000
537.375183	146.620000
537.468811	146.180000
537.562439	145.940000
537.656067	145.840000
537.749756	146.000000
537.843384	146.420000
537.937012	146.640000
538.030640	147.000000
538.124329	147.200000
538.217896	147.580000
538.311584	147.400000
538.405212	147.140000
538.498901	147.260000
538.592468	147.760000
538.686157	146.900000
538.779785	146.040000
538.873413	146.020000
538.967102	145.660000
539.060730	144.840000
539.154358	145.520000
539.247986	145.840000
539.341675	145.820000
539.435242	146.000000
539.528931	146.160000
539.622559	145.460000
539.716187	146.120000
539.809814	146.060000
539.903503	145.860000
539.997070	145.940000
540.090759	146.200000
540.184387	145.800000
540.278015	146.660000
540.371643	147.180000
540.465332	147.360000
540.558899	147.400000
540.652588	147.580000
540.746216	146.680000
540.839844	146.620000
540.933472	146.580000
541.027100	146.380000
541.120728	146.320000
541.214417	146.620000
541.308044	146.900000
541.401672	146.480000
541.495300	146.320000
541.588928	146.160000
541.682617	145.820000
541.776184	145.220000
541.869873	145.660000
541.963440	146.080000
542.057129	146.140000
542.150757	146.320000
542.244385	146.300000
542.338013	145.840000
542.431641	145.740000
542.525269	145.760000
542.618958	146.300000
542.712524	146.580000
542.806213	146.420000
542.899780	146.760000
542.993469	146.220000
543.087036	145.580000
543.180725	145.100000
543.274292	145.460000
543.367981	145.460000
543.461548	146.100000
543.555237	146.180000
543.648926	146.460000
543.742493	146.960000
543.836182	146.760000
543.929749	146.680000
544.023437	146.720000
544.117004	146.960000
544.210693	146.900000
544.304260	147.000000
544.397949	146.760000
544.491516	147.160000
544.585205	147.060000
544.678772	146.700000
544.772461	147.040000
544.866028	146.900000
544.959717	146.740000
545.053284	146.540000
545.146973	146.880000
545.240540	146.580000
545.334229	147.220000
545.427795	147.160000
545.521423	147.120000
545.615051	146.980000
545.708679	147.340000
545.802307	147.140000
545.895935	147.480000
545.989624	148.180000
546.083191	148.140000
546.176880	147.800000
546.270447	147.460000
546.364136	147.620000
546.457703	146.880000
546.551331	146.700000
546.644958	146.860000
546.738586	147.260000
546.832214	146.900000
546.925842	146.960000
547.019409	147.220000
547.113098	146.600000
547.206665	146.220000
547.300354	145.940000
547.393921	146.360000
547.487549	146.380000
547.581177	146.520000
547.674805	146.480000
547.768433	146.040000
547.862061	145.820000
547.955627	145.140000
548.049316	145.660000
548.142883	145.940000
548.236572	146.540000
548.330139	146.680000
548.423767	146.940000
548.517456	147.000000
548.611023	147.160000
548.704651	146.500000
548.798279	146.420000
548.891907	147.040000
548.985474	146.620000
549.079163	146.700000
549.172729	146.700000
549.266357	146.040000
549.359985	145.740000
549.453613	145.360000
549.547180	145.120000
549.640869	145.860000
549.734436	146.140000
549.828064	146.660000
549.921631	146.820000
550.015320	146.380000
550.108887	146.540000
550.202515	146.600000
550.296143	145.560000
550.389771	146.020000
550.483337	146.080000
550.576965	145.840000
550.670593	146.320000
550.764221	146.560000
550.857849	146.100000
550.951477	146.020000
551.045105	145.760000
551.138672	145.500000
551.232300	145.440000
551.325928	146.000000
551.419556	146.400000
551.513123	146.540000
551.606750	146.120000
551.700378	146.060000
551.794006	145.840000
551.887573	145.700000
551.981201	145.960000
552.074768	146.120000
552.168457	146.020000
552.262024	146.680000
552.355652	146.380000
552.449219	146.380000
552.542847	146.560000
552.636475	146.460000
552.730103	145.580000
552.823669	145.800000
552.917297	145.560000
553.010864	145.340000
553.104553	145.860000
553.198181	145.740000
553.291748	146.160000
553.385376	146.420000
553.478943	146.460000
553.572571	146.100000
553.666199	146.400000
553.759827	146.200000
553.853394	145.620000
553.947021	145.660000
554.040588	146.040000
554.134216	145.960000
554.227783	146.500000
554.321411	147.460000
554.415039	147.180000
554.508667	147.040000
554.602234	147.260000
554.695862	146.480000
554.789429	146.260000
554.883057	146.400000
554.976624	146.280000
555.070251	146.340000
555.163818	146.300000
555.257507	145.720000
555.351074	146.000000
555.444702	146.980000
555.538330	146.400000
555.631897	147.100000
555.725525	146.920000
555.819092	146.640000
555.912720	145.520000
556.006287	146.280000
556.099915	145.840000
556.193481	146.220000
556.287109	146.660000
556.380676	146.660000
556.474304	146.400000
556.567871	146.760000
556.661499	146.340000
556.755066	146.120000
556.848694	146.620000
556.942261	146.380000
557.035889	146.500000
557.129517	146.980000
557.223145	147.460000
557.316711	147.380000
557.410339	147.520000
557.503906	146.960000
557.597473	147.020000
557.691040	146.840000
557.784668	146.660000
557.878296	146.580000
557.971863	146.840000
558.065491	146.800000
558.159058	146.180000
558.252686	146.740000
558.346252	147.360000
558.439880	146.640000
558.533447	146.420000
558.627075	146.540000
558.720642	145.840000
558.814270	145.400000
558.907837	145.560000
559.001465	145.120000
559.095032	145.940000
559.188660	146.340000
559.282227	146.080000
559.375854	146.760000
559.469360	146.820000
559.562988	146.820000
559.656555	146.580000
559.750183	146.900000
559.843750	146.820000
559.937378	147.220000
560.030945	146.860000
560.124573	0.000000
560.218140	0.000000
560.311707	0.000000
560.405334	0.000000
560.498901	0.000000
560.592529	0.000000
560.686096	0.000000
560.779724	0.000000
560.873291	0.000000
560.966858	0.000000
561.060425	0.000000
561.154053	0.000000
561.247620	0.000000
561.341248	0.000000
561.434814	0.000000
561.528381	0.000000
561.621948	0.000000
561.715576	0.000000
561.809143	0.000000
561.902771	0.000000
561.996277	0.000000
562.089905	0.000000
562.183472	0.000000
562.277100	0.000000
