Model Number: SPM-002-B   
Serial Number: 70087108
Firmware Version: 004.15.4
Exposure Time: 100000.000000us
Data Taken on: 11-12-2020 18:52:30.651
Wavelength	Amplitude
221.570786	0.000000
221.663406	0.000000
221.756027	0.000000
221.848648	0.000000
221.941269	0.000000
222.033905	0.000000
222.126526	0.000000
222.219162	0.000000
222.311798	0.000000
222.404419	0.000000
222.497055	0.000000
222.589676	0.000000
222.682312	0.000000
222.774933	0.000000
222.867569	0.000000
222.960205	0.000000
223.052841	0.000000
223.145462	0.000000
223.238098	0.000000
223.330734	0.000000
223.423386	0.000000
223.516022	0.000000
223.608658	0.000000
223.701309	0.000000
223.793945	0.000000
223.886581	0.000000
223.979218	0.000000
224.071869	0.000000
224.164505	0.000000
224.257156	0.000000
224.349792	0.000000
224.442444	0.000000
224.535095	0.000000
224.627747	0.000000
224.720398	0.000000
224.813034	0.000000
224.905685	0.000000
224.998337	145.920000
225.090988	145.580000
225.183640	145.520000
225.276291	145.140000
225.368942	145.380000
225.461594	145.540000
225.554245	145.780000
225.646912	146.020000
225.739578	146.520000
225.832230	146.580000
225.924896	146.000000
226.017548	146.200000
226.110199	146.560000
226.202866	145.880000
226.295532	145.760000
226.388184	145.920000
226.480850	145.500000
226.573517	144.900000
226.666168	145.400000
226.758835	145.780000
226.851501	146.220000
226.944183	146.720000
227.036850	146.460000
227.129517	146.180000
227.222183	146.100000
227.314850	145.860000
227.407516	146.100000
227.500198	146.900000
227.592865	146.740000
227.685532	146.360000
227.778214	146.180000
227.870880	146.000000
227.963562	146.400000
228.056229	146.760000
228.148926	146.780000
228.241592	147.560000
228.334274	147.240000
228.426956	146.560000
228.519638	146.740000
228.612305	146.440000
228.704987	146.260000
228.797668	146.180000
228.890350	146.260000
228.983032	145.520000
229.075714	146.020000
229.168396	145.520000
229.261108	145.260000
229.353790	144.980000
229.446472	145.340000
229.539169	145.260000
229.631851	145.040000
229.724533	145.580000
229.817230	146.000000
229.909912	147.200000
230.002609	147.140000
230.095306	147.220000
230.187988	147.100000
230.280685	146.900000
230.373383	145.700000
230.466095	145.780000
230.558792	146.300000
230.651474	146.180000
230.744171	145.760000
230.836868	145.840000
230.929581	145.660000
231.022278	145.360000
231.114975	145.680000
231.207672	145.880000
231.300369	146.340000
231.393082	146.480000
231.485779	146.260000
231.578506	146.020000
231.671204	146.180000
231.763916	145.900000
231.856613	145.900000
231.949326	146.320000
232.042023	146.300000
232.134735	146.060000
232.227448	145.800000
232.320160	145.780000
232.412872	145.600000
232.505585	146.320000
232.598297	146.980000
232.691010	146.840000
232.783722	146.760000
232.876450	147.540000
232.969162	146.740000
233.061874	146.140000
233.154587	146.060000
233.247314	146.440000
233.340027	145.640000
233.432739	146.240000
233.525467	146.080000
233.618179	146.460000
233.710907	145.960000
233.803635	146.480000
233.896347	146.140000
233.989090	146.940000
234.081818	147.020000
234.174545	147.340000
234.267258	146.560000
234.359985	146.420000
234.452713	146.380000
234.545441	146.180000
234.638168	146.160000
234.730896	146.840000
234.823639	146.860000
234.916367	146.960000
235.009094	147.200000
235.101822	147.220000
235.194580	146.740000
235.287308	146.980000
235.380051	146.320000
235.472778	146.280000
235.565521	146.220000
235.658249	146.220000
235.750992	146.300000
235.843719	146.100000
235.936462	146.420000
236.029205	146.260000
236.121948	146.080000
236.214691	146.340000
236.307449	147.140000
236.400192	146.620000
236.492935	146.320000
236.585678	146.460000
236.678421	146.120000
236.771164	145.900000
236.863907	146.300000
236.956665	146.740000
237.049408	148.180000
237.142151	147.820000
237.234909	148.280000
237.327652	148.260000
237.420410	148.180000
237.513153	147.140000
237.605927	147.240000
237.698669	146.560000
237.791428	145.960000
237.884186	146.480000
237.976944	146.180000
238.069702	146.480000
238.162445	146.160000
238.255203	146.640000
238.347961	146.600000
238.440720	146.560000
238.533478	146.460000
238.626266	146.600000
238.719025	146.520000
238.811783	146.180000
238.904541	146.220000
238.997314	146.060000
239.090073	145.700000
239.182831	146.000000
239.275604	146.560000
239.368362	146.180000
239.461136	146.240000
239.553909	146.460000
239.646667	145.980000
239.739441	145.600000
239.832214	146.220000
239.925003	146.620000
240.017761	147.220000
240.110535	147.600000
240.203308	147.220000
240.296082	147.440000
240.388855	146.860000
240.481628	146.820000
240.574417	146.920000
240.667191	146.840000
240.759964	146.220000
240.852737	146.220000
240.945526	145.720000
241.038315	145.520000
241.131088	145.660000
241.223877	146.100000
241.316650	145.900000
241.409439	146.640000
241.502228	146.160000
241.595001	146.820000
241.687790	146.820000
241.780579	147.060000
241.873367	146.980000
241.966141	147.620000
242.058929	146.860000
242.151718	146.880000
242.244507	147.480000
242.337311	146.840000
242.430099	147.040000
242.522903	147.380000
242.615692	146.740000
242.708481	146.420000
242.801270	146.800000
242.894073	146.560000
242.986862	146.560000
243.079651	147.480000
243.172455	147.120000
243.265244	147.080000
243.358063	146.420000
243.450867	146.500000
243.543655	146.140000
243.636459	146.620000
243.729263	147.100000
243.822067	147.740000
243.914856	148.080000
244.007660	148.100000
244.100464	147.600000
244.193268	146.900000
244.286072	146.580000
244.378876	145.940000
244.471680	145.580000
244.564499	145.900000
244.657318	146.780000
244.750122	146.900000
244.842926	146.500000
244.935745	147.120000
245.028549	146.940000
245.121368	146.380000
245.214172	146.260000
245.306992	146.880000
245.399796	146.140000
245.492615	146.180000
245.585434	145.620000
245.678253	145.660000
245.771072	145.520000
245.863892	146.060000
245.956711	146.360000
246.049530	146.540000
246.142349	146.260000
246.235168	146.260000
246.327988	146.880000
246.420807	146.600000
246.513626	146.740000
246.606445	146.760000
246.699280	146.580000
246.792099	145.420000
246.884918	145.140000
246.977753	145.040000
247.070587	145.400000
247.163422	145.540000
247.256241	145.920000
247.349075	146.540000
247.441895	146.800000
247.534729	146.700000
247.627563	146.520000
247.720383	146.980000
247.813217	146.520000
247.906052	146.220000
247.998886	146.260000
248.091736	146.540000
248.184570	146.020000
248.277405	146.260000
248.370239	147.040000
248.463074	147.920000
248.555908	148.200000
248.648743	148.120000
248.741592	148.080000
248.834427	147.280000
248.927261	146.180000
249.020111	146.300000
249.112946	147.200000
249.205795	146.880000
249.298630	147.040000
249.391495	147.260000
249.484344	146.860000
249.577179	146.340000
249.670029	146.800000
249.762878	147.360000
249.855728	147.440000
249.948563	147.520000
250.041412	147.020000
250.134262	146.840000
250.227112	146.680000
250.319962	146.580000
250.412827	146.360000
250.505692	146.080000
250.598541	146.020000
250.691391	145.400000
250.784241	145.640000
250.877106	145.660000
250.969955	145.420000
251.062805	145.700000
251.155670	146.380000
251.248520	145.780000
251.341385	146.040000
251.434235	146.580000
251.527100	146.400000
251.619965	145.860000
251.712814	146.900000
251.805695	146.680000
251.898560	146.940000
251.991425	147.140000
252.084290	147.640000
252.177155	146.740000
252.270020	146.640000
252.362885	146.640000
252.455750	146.500000
252.548615	146.060000
252.641479	146.380000
252.734360	146.460000
252.827240	146.200000
252.920105	146.480000
253.012970	146.300000
253.105850	145.940000
253.198715	145.880000
253.291595	145.980000
253.384460	145.400000
253.477341	145.420000
253.570221	145.720000
253.663086	145.520000
253.755966	146.020000
253.848846	146.020000
253.941727	146.700000
254.034592	146.680000
254.127472	146.520000
254.220367	146.280000
254.313248	146.560000
254.406128	145.840000
254.499008	145.920000
254.591904	146.500000
254.684784	147.000000
254.777664	147.100000
254.870544	146.880000
254.963440	146.760000
255.056335	146.700000
255.149216	146.060000
255.242111	146.340000
255.334991	146.740000
255.427887	147.080000
255.520767	147.100000
255.613663	147.240000
255.706558	146.560000
255.799438	146.240000
255.892334	145.880000
255.985229	145.820000
256.078125	145.560000
256.171021	145.760000
256.263916	146.540000
256.356812	146.700000
256.449707	146.840000
256.542603	146.660000
256.635498	147.080000
256.728394	146.680000
256.821289	146.460000
256.914215	146.520000
257.007080	146.920000
257.100006	146.820000
257.192932	147.020000
257.285828	147.460000
257.378723	147.060000
257.471619	146.980000
257.564545	146.500000
257.657440	146.680000
257.750336	146.780000
257.843262	146.800000
257.936157	147.820000
258.029053	148.520000
258.121979	148.420000
258.214874	148.140000
258.307800	148.320000
258.400696	147.260000
258.493622	146.900000
258.586517	145.940000
258.679443	146.300000
258.772339	146.180000
258.865265	146.200000
258.958160	145.760000
259.051086	146.960000
259.144012	146.420000
259.236938	146.980000
259.329834	147.200000
259.422791	147.380000
259.515717	146.700000
259.608612	146.560000
259.701538	146.500000
259.794464	146.220000
259.887390	146.240000
259.980316	146.220000
260.073212	146.320000
260.166138	145.500000
260.259064	145.820000
260.351990	146.560000
260.444916	146.720000
260.537842	146.900000
260.630768	147.680000
260.723694	147.480000
260.816620	146.760000
260.909546	146.680000
261.002472	146.300000
261.095398	145.520000
261.188354	145.180000
261.281281	144.780000
261.374207	144.960000
261.467133	145.820000
261.560089	146.360000
261.653015	146.520000
261.745972	147.560000
261.838867	147.720000
261.931824	147.480000
262.024780	147.000000
262.117706	147.280000
262.210663	146.880000
262.303589	146.560000
262.396515	146.460000
262.489471	147.400000
262.582397	147.040000
262.675354	146.820000
262.768280	146.960000
262.861237	147.020000
262.954163	146.660000
263.047119	146.860000
263.140045	146.820000
263.233002	146.620000
263.325958	146.680000
263.418884	145.840000
263.511841	145.900000
263.604797	145.980000
263.697723	146.540000
263.790680	146.100000
263.883636	147.000000
263.976593	146.820000
264.069550	146.680000
264.162476	146.020000
264.255463	146.260000
264.348419	146.000000
264.441376	146.340000
264.534332	145.880000
264.627289	146.000000
264.720245	146.300000
264.813202	145.800000
264.906158	145.780000
264.999115	146.500000
265.092072	146.480000
265.185028	146.740000
265.277985	147.080000
265.370941	146.880000
265.463898	146.700000
265.556854	146.800000
265.649811	145.980000
265.742798	146.220000
265.835754	146.480000
265.928711	146.840000
266.021667	146.920000
266.114655	147.120000
266.207611	147.160000
266.300568	146.700000
266.393585	146.360000
266.486511	146.580000
266.579498	145.940000
266.672485	145.820000
266.765442	145.840000
266.858429	146.440000
266.951385	146.060000
267.044342	146.560000
267.137329	146.380000
267.230316	146.620000
267.323273	145.720000
267.416260	146.220000
267.509216	145.940000
267.602203	146.060000
267.695160	146.500000
267.788147	146.780000
267.881134	146.240000
267.974091	146.800000
268.067078	146.620000
268.160065	146.300000
268.253052	146.180000
268.346008	146.280000
268.438995	145.880000
268.531982	146.000000
268.624969	145.580000
268.717987	146.000000
268.810944	145.980000
268.903961	146.160000
268.996948	145.840000
269.089905	146.340000
269.182892	146.260000
269.275879	146.560000
269.368866	146.320000
269.461853	146.800000
269.554871	146.700000
269.647858	146.780000
269.740845	147.060000
269.833832	147.540000
269.926819	147.260000
270.019806	147.360000
270.112793	146.800000
270.205811	146.580000
270.298798	145.960000
270.391785	146.880000
270.484772	146.300000
270.577789	146.580000
270.670776	146.120000
270.763763	146.480000
270.856750	145.600000
270.949768	145.440000
271.042786	145.720000
271.135773	146.040000
271.228790	146.400000
271.321808	146.400000
271.414795	146.480000
271.507782	146.060000
271.600800	145.760000
271.693817	145.580000
271.786804	145.920000
271.879822	146.180000
271.972809	146.080000
272.065826	146.540000
272.158844	146.080000
272.251831	146.420000
272.344849	146.600000
272.437866	146.540000
272.530853	146.580000
272.623871	146.980000
272.716888	146.040000
272.809906	146.180000
272.902893	146.560000
272.995911	146.020000
273.088928	145.760000
273.181946	146.020000
273.274963	145.660000
273.367981	145.620000
273.460999	145.820000
273.554047	146.160000
273.647003	146.760000
273.740051	146.820000
273.833069	147.060000
273.926086	147.120000
274.019135	146.980000
274.112152	146.680000
274.205170	146.820000
274.298187	146.960000
274.391205	146.680000
274.484222	146.820000
274.577240	146.680000
274.670258	146.200000
274.763306	145.540000
274.856323	145.980000
274.949341	145.860000
275.042358	146.460000
275.135406	146.840000
275.228424	146.880000
275.321442	147.140000
275.414490	146.760000
275.507507	146.740000
275.600525	147.140000
275.693573	147.160000
275.786591	146.320000
275.879669	146.660000
275.972656	146.100000
276.065735	145.900000
276.158752	146.640000
276.251801	147.460000
276.344818	147.460000
276.437866	147.620000
276.530884	147.240000
276.623932	146.120000
276.716980	146.280000
276.809998	146.320000
276.903046	146.480000
276.996094	147.140000
277.089111	148.040000
277.182159	147.960000
277.275208	147.960000
277.368256	147.720000
277.461304	147.080000
277.554321	146.260000
277.647369	146.400000
277.740417	146.320000
277.833466	146.160000
277.926514	146.420000
278.019562	147.320000
278.112610	146.520000
278.205688	146.820000
278.298706	146.900000
278.391785	146.800000
278.484833	146.100000
278.577881	146.020000
278.670929	146.100000
278.763977	146.260000
278.857025	146.600000
278.950073	146.840000
279.043121	146.880000
279.136169	146.620000
279.229248	146.520000
279.322296	146.460000
279.415344	146.260000
279.508392	146.480000
279.601440	146.340000
279.694519	145.940000
279.787567	145.700000
279.880615	145.880000
279.973694	145.740000
280.066742	145.700000
280.159790	146.080000
280.252869	145.840000
280.345917	145.880000
280.438995	145.840000
280.532074	145.900000
280.625122	146.000000
280.718201	147.140000
280.811279	147.160000
280.904327	147.340000
280.997406	147.700000
281.090454	147.740000
281.183533	146.800000
281.276581	146.500000
281.369659	146.100000
281.462738	146.080000
281.555786	146.000000
281.648865	145.840000
281.741943	145.980000
281.835022	146.700000
281.928070	146.600000
282.021149	146.460000
282.114227	146.760000
282.207306	146.740000
282.300385	146.900000
282.393433	146.880000
282.486511	147.040000
282.579590	147.360000
282.672668	148.000000
282.765747	147.200000
282.858856	146.900000
282.951904	146.620000
283.045013	146.500000
283.138062	146.340000
283.231171	146.780000
283.324249	147.480000
283.417328	148.040000
283.510406	147.660000
283.603485	147.480000
283.696564	147.340000
283.789642	147.080000
283.882751	146.340000
283.975830	146.980000
284.068909	146.520000
284.161987	147.080000
284.255066	146.520000
284.348175	147.000000
284.441254	146.700000
284.534332	147.420000
284.627441	146.940000
284.720520	146.660000
284.813599	146.760000
284.906708	146.800000
284.999786	146.000000
285.092896	145.580000
285.185974	146.900000
285.279053	146.400000
285.372192	146.560000
285.465240	147.340000
285.558380	147.560000
285.651459	146.680000
285.744568	147.620000
285.837677	147.140000
285.930756	147.200000
286.023865	147.580000
286.116943	147.520000
286.210052	147.380000
286.303162	147.340000
286.396240	146.860000
286.489349	146.420000
286.582458	146.880000
286.675568	146.360000
286.768646	146.540000
286.861755	146.940000
286.954865	147.660000
287.047974	147.200000
287.141083	147.280000
287.234161	146.840000
287.327271	146.460000
287.420380	146.560000
287.513519	146.700000
287.606598	146.840000
287.699738	147.240000
287.792816	146.940000
287.885956	146.540000
287.979034	146.500000
288.072174	146.200000
288.165283	146.180000
288.258392	146.700000
288.351501	146.200000
288.444611	146.340000
288.537720	147.020000
288.630859	146.860000
288.723969	146.820000
288.817078	147.180000
288.910187	146.980000
289.003296	146.180000
289.096436	146.060000
289.189545	145.680000
289.282654	145.440000
289.375763	146.100000
289.468903	146.480000
289.562012	146.600000
289.655121	147.200000
289.748260	147.080000
289.841400	147.000000
289.934509	147.000000
290.027649	147.260000
290.120728	146.680000
290.213898	146.720000
290.306976	146.020000
290.400146	145.880000
290.493256	145.580000
290.586395	145.860000
290.679535	146.320000
290.772644	146.560000
290.865784	146.000000
290.958893	145.800000
291.052032	145.500000
291.145172	145.200000
291.238281	144.840000
291.331421	145.160000
291.424561	145.920000
291.517670	146.040000
291.610809	146.420000
291.703949	146.380000
291.797089	146.660000
291.890228	146.040000
291.983337	145.980000
292.076477	145.600000
292.169617	146.140000
292.262756	145.940000
292.355927	145.960000
292.449036	145.640000
292.542206	145.840000
292.635315	146.020000
292.728485	146.420000
292.821625	146.200000
292.914764	147.560000
293.007904	147.480000
293.101044	147.060000
293.194183	146.900000
293.287323	147.260000
293.380463	146.400000
293.473602	145.980000
293.566742	146.300000
293.659882	146.500000
293.753021	146.660000
293.846191	146.640000
293.939331	146.380000
294.032471	146.140000
294.125610	145.980000
294.218781	146.160000
294.311920	146.480000
294.405060	147.140000
294.498230	146.980000
294.591370	146.860000
294.684540	146.140000
294.777679	145.620000
294.870850	145.920000
294.963959	145.920000
295.057159	145.620000
295.150299	146.200000
295.243469	146.440000
295.336609	145.540000
295.429779	145.500000
295.522919	146.140000
295.616089	146.000000
295.709229	146.440000
295.802399	146.880000
295.895569	146.800000
295.988708	146.500000
296.081879	146.540000
296.175018	146.020000
296.268188	145.800000
296.361359	146.180000
296.454529	146.340000
296.547668	146.200000
296.640839	146.360000
296.734009	146.440000
296.827179	146.740000
296.920319	146.860000
297.013519	146.540000
297.106659	146.500000
297.199860	146.700000
297.292999	146.500000
297.386200	146.100000
297.479309	146.380000
297.572510	146.300000
297.665680	145.840000
297.758850	145.780000
297.852020	145.680000
297.945190	145.580000
298.038361	145.140000
298.131531	146.180000
298.224701	145.860000
298.317871	145.820000
298.411072	145.280000
298.504242	145.520000
298.597412	144.880000
298.690582	145.200000
298.783752	145.340000
298.876923	146.240000
298.970093	146.120000
299.063293	146.440000
299.156464	146.660000
299.249634	147.200000
299.342834	147.100000
299.436005	147.840000
299.529205	147.400000
299.622345	147.500000
299.715576	146.640000
299.808716	146.200000
299.901917	145.940000
299.995117	146.200000
300.088287	146.220000
300.181488	146.540000
300.274658	146.820000
300.367828	146.580000
300.461029	146.700000
300.554199	146.640000
300.647400	146.640000
300.740601	147.260000
300.833771	147.180000
300.926971	147.260000
301.020142	146.880000
301.113342	146.840000
301.206512	146.160000
301.299713	146.480000
301.392914	146.600000
301.486084	146.980000
301.579285	146.780000
301.672516	147.440000
301.765686	147.160000
301.858887	146.880000
301.952057	146.800000
302.045288	147.180000
302.138458	146.480000
302.231659	146.260000
302.324860	146.280000
302.418060	146.080000
302.511261	145.880000
302.604462	146.240000
302.697662	146.400000
302.790863	146.060000
302.884064	145.460000
302.977264	145.560000
303.070465	145.640000
303.163666	146.160000
303.256866	146.600000
303.350067	146.840000
303.443268	146.860000
303.536469	146.720000
303.629669	146.300000
303.722870	146.380000
303.816071	146.620000
303.909271	146.440000
304.002472	146.120000
304.095673	146.080000
304.188934	145.360000
304.282104	146.080000
304.375336	146.160000
304.468506	146.180000
304.561768	145.640000
304.654968	146.440000
304.748169	145.560000
304.841370	145.240000
304.934601	145.640000
305.027802	146.020000
305.121002	145.420000
305.214233	145.640000
305.307434	145.880000
305.400665	146.380000
305.493866	145.900000
305.587097	146.140000
305.680298	146.180000
305.773499	146.320000
305.866730	145.640000
305.959930	146.440000
306.053162	146.680000
306.146393	146.320000
306.239594	145.640000
306.332825	145.620000
306.426025	145.800000
306.519287	145.220000
306.612488	145.680000
306.705719	146.020000
306.798920	146.020000
306.892181	145.520000
306.985352	145.620000
307.078613	144.840000
307.171844	145.340000
307.265045	145.200000
307.358276	144.840000
307.451508	145.260000
307.544739	146.140000
307.637970	145.700000
307.731201	145.780000
307.824402	146.560000
307.917633	146.380000
308.010864	146.540000
308.104095	147.020000
308.197327	147.100000
308.290558	146.940000
308.383789	146.760000
308.477020	146.120000
308.570251	145.420000
308.663483	145.300000
308.756714	145.400000
308.849976	145.580000
308.943176	146.480000
309.036438	146.620000
309.129639	146.240000
309.222900	146.040000
309.316101	145.800000
309.409393	145.000000
309.502625	144.800000
309.595856	144.980000
309.689087	145.100000
309.782318	145.220000
309.875580	145.340000
309.968811	145.620000
310.062042	145.440000
310.155273	145.300000
310.248535	145.840000
310.341766	145.940000
310.434998	145.960000
310.528259	146.040000
310.621490	146.500000
310.714722	145.480000
310.807983	145.540000
310.901215	145.540000
310.994476	145.840000
311.087708	145.340000
311.181000	145.920000
311.274200	145.420000
311.367462	145.400000
311.460693	144.960000
311.553986	145.960000
311.647186	146.200000
311.740479	146.860000
311.833710	146.700000
311.926971	147.020000
312.020203	146.080000
312.113464	145.880000
312.206726	144.960000
312.299957	145.420000
312.393219	146.000000
312.486481	146.220000
312.579712	146.100000
312.672974	146.680000
312.766235	146.540000
312.859497	146.220000
312.952759	145.920000
313.045990	146.760000
313.139252	146.200000
313.232513	146.320000
313.325775	146.120000
313.419037	145.900000
313.512299	145.080000
313.605530	146.000000
313.698822	146.020000
313.792053	146.160000
313.885345	145.900000
313.978577	145.920000
314.071869	145.240000
314.165131	145.300000
314.258392	145.860000
314.351654	146.320000
314.444916	146.040000
314.538177	146.720000
314.631439	146.940000
314.724701	146.240000
314.817993	146.420000
314.911255	146.420000
315.004517	145.600000
315.097778	145.300000
315.191040	146.020000
315.284302	146.260000
315.377594	146.520000
315.470856	146.860000
315.564117	146.420000
315.657379	145.680000
315.750671	144.920000
315.843933	145.180000
315.937195	144.980000
316.030518	145.180000
316.123749	145.240000
316.217041	146.380000
316.310303	146.320000
316.403595	146.740000
316.496857	146.840000
316.590149	147.300000
316.683411	146.460000
316.776703	146.200000
316.869965	146.220000
316.963257	145.940000
317.056519	145.400000
317.149811	145.400000
317.243073	145.660000
317.336365	145.540000
317.429626	146.140000
317.522919	146.700000
317.616180	146.720000
317.709473	146.340000
317.802765	146.040000
317.896027	145.980000
317.989319	145.880000
318.082611	145.980000
318.175873	146.100000
318.269165	146.140000
318.362488	145.780000
318.455750	145.380000
318.549042	145.620000
318.642303	146.040000
318.735626	146.080000
318.828888	146.620000
318.922211	146.380000
319.015472	146.880000
319.108765	146.140000
319.202057	145.860000
319.295349	145.880000
319.388641	146.220000
319.481934	145.720000
319.575226	145.680000
319.668518	146.340000
319.761810	146.300000
319.855103	146.240000
319.948395	146.160000
320.041687	146.480000
320.134979	146.320000
320.228271	145.880000
320.321564	145.580000
320.414856	145.620000
320.508148	145.180000
320.601440	144.840000
320.694763	144.560000
320.788025	145.700000
320.881348	145.700000
320.974640	146.080000
321.067963	146.000000
321.161224	146.280000
321.254547	145.340000
321.347839	145.800000
321.441162	145.580000
321.534454	145.700000
321.627747	145.600000
321.721069	146.280000
321.814362	146.140000
321.907654	146.400000
322.000946	146.260000
322.094269	146.940000
322.187561	146.420000
322.280884	146.420000
322.374176	146.540000
322.467468	146.940000
322.560791	146.920000
322.654083	147.320000
322.747406	147.480000
322.840698	147.460000
322.934021	147.800000
323.027344	147.600000
323.120636	147.040000
323.213959	146.840000
323.307251	146.480000
323.400574	145.920000
323.493866	145.540000
323.587219	145.880000
323.680511	146.020000
323.773834	146.220000
323.867157	146.520000
323.960449	146.640000
324.053772	146.560000
324.147095	146.440000
324.240387	146.780000
324.333710	146.660000
324.427032	146.780000
324.520355	146.880000
324.613647	146.360000
324.706970	146.240000
324.800293	146.100000
324.893616	146.160000
324.986938	146.240000
325.080231	145.960000
325.173553	146.620000
325.266876	147.180000
325.360199	147.040000
325.453522	146.420000
325.546875	146.400000
325.640167	145.960000
325.733521	146.040000
325.826813	146.440000
325.920166	146.480000
326.013489	146.920000
326.106812	145.880000
326.200134	145.240000
326.293457	144.480000
326.386780	144.740000
326.480103	144.620000
326.573425	144.760000
326.666748	144.900000
326.760071	145.100000
326.853424	145.180000
326.946747	145.280000
327.040070	146.580000
327.133392	146.280000
327.226715	146.060000
327.320068	145.640000
327.413391	146.120000
327.506714	145.180000
327.600037	145.440000
327.693390	145.760000
327.786713	145.940000
327.880066	145.580000
327.973358	146.020000
328.066742	146.500000
328.160034	146.620000
328.253418	146.960000
328.346710	146.820000
328.440063	146.460000
328.533417	146.100000
328.626740	146.200000
328.720093	145.940000
328.813416	145.900000
328.906769	146.060000
329.000092	146.260000
329.093445	146.140000
329.186768	146.020000
329.280121	146.360000
329.373444	146.420000
329.466797	146.340000
329.560120	146.420000
329.653473	146.740000
329.746796	146.240000
329.840149	146.120000
329.933502	145.900000
330.026825	145.680000
330.120178	145.320000
330.213562	145.620000
330.306854	145.640000
330.400238	145.820000
330.493561	145.680000
330.586945	146.680000
330.680237	146.780000
330.773621	146.880000
330.866974	146.900000
330.960327	147.400000
331.053680	146.620000
331.147003	146.740000
331.240356	146.760000
331.333710	146.440000
331.427063	145.800000
331.520416	145.860000
331.613770	145.580000
331.707123	145.380000
331.800476	145.720000
331.893829	146.880000
331.987152	147.220000
332.080505	147.160000
332.173859	147.020000
332.267212	146.660000
332.360565	146.020000
332.453918	145.380000
332.547333	145.400000
332.640656	145.700000
332.734039	145.920000
332.827362	145.900000
332.920746	146.260000
333.014069	146.460000
333.107452	146.800000
333.200806	146.940000
333.294159	147.000000
333.387543	146.700000
333.480896	146.140000
333.574249	145.900000
333.667603	145.400000
333.760956	145.420000
333.854340	145.480000
333.947693	146.000000
334.041046	146.100000
334.134430	146.620000
334.227783	146.100000
334.321136	146.120000
334.414520	145.860000
334.507874	146.060000
334.601227	146.120000
334.694611	146.200000
334.787964	146.300000
334.881348	146.740000
334.974701	146.560000
335.068085	146.280000
335.161438	146.720000
335.254822	146.920000
335.348175	146.580000
335.441559	146.300000
335.534943	146.720000
335.628296	146.260000
335.721680	145.880000
335.815033	146.160000
335.908417	146.200000
336.001770	146.040000
336.095154	146.260000
336.188538	146.160000
336.281891	145.760000
336.375275	145.640000
336.468658	145.320000
336.562012	145.280000
336.655396	145.760000
336.748779	146.040000
336.842133	146.320000
336.935516	146.760000
337.028900	146.480000
337.122284	146.200000
337.215637	146.580000
337.309021	146.280000
337.402435	145.780000
337.495789	145.740000
337.589203	145.740000
337.682526	145.100000
337.775940	145.440000
337.869324	145.760000
337.962708	145.800000
338.056091	146.280000
338.149475	146.020000
338.242859	146.000000
338.336243	145.660000
338.429626	145.900000
338.523010	145.520000
338.616394	145.920000
338.709778	145.900000
338.803162	146.040000
338.896545	146.160000
338.989929	145.760000
339.083313	145.700000
339.176697	145.460000
339.270081	145.240000
339.363464	145.380000
339.456848	145.920000
339.550232	145.420000
339.643616	145.520000
339.737030	145.520000
339.830383	145.400000
339.923828	145.620000
340.017181	146.060000
340.110596	145.980000
340.203949	146.000000
340.297363	145.620000
340.390778	145.320000
340.484161	145.240000
340.577545	145.400000
340.670959	145.780000
340.764343	145.880000
340.857727	145.780000
340.951111	145.220000
341.044525	145.360000
341.137909	144.880000
341.231293	144.680000
341.324707	144.440000
341.418091	145.520000
341.511505	145.380000
341.604889	145.680000
341.698303	146.040000
341.791687	146.360000
341.885071	145.580000
341.978485	145.220000
342.071899	145.180000
342.165283	145.360000
342.258698	145.540000
342.352081	146.240000
342.445496	146.980000
342.538879	146.940000
342.632324	146.760000
342.725708	146.460000
342.819122	145.840000
342.912506	145.420000
343.005920	145.460000
343.099335	146.060000
343.192719	146.080000
343.286133	146.400000
343.379547	146.500000
343.472931	146.320000
343.566345	145.740000
343.659760	145.940000
343.753143	145.660000
343.846558	145.180000
343.939972	145.540000
344.033386	145.980000
344.126770	146.020000
344.220184	146.280000
344.313599	146.840000
344.407043	146.840000
344.500427	146.120000
344.593872	146.320000
344.687225	146.020000
344.780670	145.580000
344.874054	145.260000
344.967499	145.660000
345.060913	145.560000
345.154327	145.580000
345.247742	145.320000
345.341156	145.140000
345.434570	145.040000
345.527985	144.840000
345.621399	145.140000
345.714813	145.320000
345.808228	145.680000
345.901642	145.160000
345.995056	144.880000
346.088470	144.780000
346.181885	145.060000
346.275299	144.780000
346.368713	144.820000
346.462128	144.420000
346.555573	144.460000
346.648987	144.580000
346.742401	144.440000
346.835815	145.040000
346.929260	145.020000
347.022644	145.220000
347.116119	145.320000
347.209503	145.760000
347.302948	146.440000
347.396362	147.300000
347.489807	147.380000
347.583221	147.680000
347.676636	147.020000
347.770050	145.800000
347.863495	145.440000
347.956909	145.200000
348.050323	144.680000
348.143768	145.140000
348.237183	145.320000
348.330597	145.740000
348.424042	146.160000
348.517456	146.320000
348.610901	146.540000
348.704315	146.400000
348.797760	145.600000
348.891174	144.720000
348.984619	144.140000
349.078033	144.260000
349.171448	144.940000
349.264923	145.120000
349.358337	145.420000
349.451782	145.720000
349.545197	145.360000
349.638641	144.620000
349.732086	144.200000
349.825500	144.760000
349.918945	144.480000
350.012390	144.840000
350.105804	145.360000
350.199249	145.940000
350.292664	145.980000
350.386108	146.420000
350.479553	146.560000
350.572968	146.540000
350.666412	146.640000
350.759857	146.380000
350.853302	146.800000
350.946716	146.420000
351.040161	146.400000
351.133606	146.420000
351.227081	146.240000
351.320465	146.520000
351.413940	146.720000
351.507355	146.740000
351.600830	146.880000
351.694244	146.560000
351.787720	146.340000
351.881104	146.400000
351.974579	146.140000
352.067993	146.880000
352.161469	147.280000
352.254883	146.520000
352.348358	146.140000
352.441803	146.220000
352.535248	145.460000
352.628693	145.780000
352.722137	145.980000
352.815582	146.100000
352.909027	146.180000
353.002472	145.980000
353.095917	145.460000
353.189362	145.720000
353.282806	145.680000
353.376251	145.400000
353.469696	145.120000
353.563141	145.680000
353.656586	145.320000
353.750061	145.060000
353.843475	145.140000
353.936981	145.660000
354.030396	144.960000
354.123871	145.040000
354.217285	146.020000
354.310760	146.700000
354.404175	146.500000
354.497681	146.360000
354.591095	146.300000
354.684570	145.140000
354.777985	144.400000
354.871490	144.000000
354.964935	144.520000
355.058380	144.720000
355.151855	144.820000
355.245300	145.320000
355.338745	146.060000
355.432220	145.920000
355.525665	145.560000
355.619110	146.200000
355.712585	145.940000
355.806030	145.540000
355.899475	145.200000
355.992950	145.580000
356.086426	145.980000
356.179871	146.000000
356.273346	145.940000
356.366791	146.380000
356.460266	146.740000
356.553711	146.000000
356.647186	146.160000
356.740631	145.980000
356.834106	145.920000
356.927551	145.800000
357.021027	145.960000
357.114471	145.860000
357.207947	146.440000
357.301422	146.460000
357.394867	146.360000
357.488342	146.460000
357.581818	146.660000
357.675262	146.460000
357.768738	146.140000
357.862213	145.680000
357.955658	145.700000
358.049133	145.380000
358.142609	145.660000
358.236053	145.880000
358.329529	145.880000
358.423035	145.960000
358.516449	145.500000
358.609955	145.680000
358.703400	146.060000
358.796906	146.300000
358.890350	145.560000
358.983826	146.160000
359.077271	145.360000
359.170776	145.000000
359.264221	144.640000
359.357727	145.080000
359.451172	145.140000
359.544647	145.380000
359.638123	145.280000
359.731598	145.660000
359.825073	145.860000
359.918549	145.820000
360.012024	146.020000
360.105499	145.880000
360.198975	145.880000
360.292450	145.820000
360.385925	145.880000
360.479401	145.760000
360.572876	145.920000
360.666351	146.260000
360.759857	146.620000
360.853302	146.720000
360.946808	146.180000
361.040253	146.180000
361.133759	145.620000
361.227203	145.540000
361.320709	144.940000
361.414154	145.720000
361.507660	145.980000
361.601105	146.640000
361.694641	146.800000
361.788086	147.000000
361.881592	147.120000
361.975067	146.820000
362.068542	146.820000
362.162018	146.540000
362.255524	146.380000
362.348999	146.280000
362.442474	146.560000
362.535950	145.960000
362.629456	145.800000
362.722931	145.900000
362.816406	146.100000
362.909882	146.140000
363.003387	145.700000
363.096863	146.020000
363.190338	146.120000
363.283875	145.600000
363.377319	145.660000
363.470825	146.220000
363.564301	145.880000
363.657806	146.020000
363.751282	145.840000
363.844788	146.520000
363.938232	146.460000
364.031769	146.860000
364.125214	147.120000
364.218750	147.680000
364.312225	146.320000
364.405731	146.360000
364.499207	145.880000
364.592712	145.400000
364.686188	145.120000
364.779694	145.640000
364.873169	145.640000
364.966675	145.400000
365.060150	145.340000
365.153656	145.740000
365.247131	145.600000
365.340637	145.720000
365.434143	146.360000
365.527618	146.580000
365.621155	145.900000
365.714600	146.000000
365.808136	146.000000
365.901611	145.020000
365.995117	144.520000
366.088593	144.240000
366.182129	143.920000
366.275604	143.960000
366.369110	144.500000
366.462585	144.620000
366.556122	145.660000
366.649567	146.080000
366.743103	146.180000
366.836609	146.080000
366.930115	146.780000
367.023590	146.300000
367.117096	145.760000
367.210602	145.580000
367.304108	146.240000
367.397614	146.240000
367.491119	146.600000
367.584595	147.360000
367.678101	147.780000
367.771606	147.240000
367.865112	146.840000
367.958649	146.240000
368.052124	145.700000
368.145660	145.400000
368.239136	146.040000
368.332672	146.080000
368.426147	146.340000
368.519684	146.400000
368.613159	146.620000
368.706696	145.860000
368.800171	145.920000
368.893707	145.840000
368.987183	145.980000
369.080719	145.760000
369.174225	145.920000
369.267731	146.160000
369.361237	146.080000
369.454742	145.720000
369.548248	146.420000
369.641754	146.220000
369.735260	145.720000
369.828766	145.000000
369.922272	145.800000
370.015808	144.960000
370.109314	144.920000
370.202820	144.940000
370.296356	146.460000
370.389832	146.040000
370.483368	146.000000
370.576874	146.140000
370.670410	146.620000
370.763885	145.540000
370.857422	145.300000
370.950928	145.300000
371.044464	145.680000
371.137939	145.500000
371.231476	146.060000
371.324982	146.940000
371.418518	147.040000
371.512024	147.100000
371.605560	146.820000
371.699066	146.760000
371.792572	146.000000
371.886108	146.360000
371.979614	145.920000
372.073120	146.220000
372.166656	146.200000
372.260162	146.600000
372.353668	145.860000
372.447205	145.900000
372.540710	145.940000
372.634277	145.760000
372.727753	145.500000
372.821320	145.780000
372.914795	145.720000
373.008362	145.660000
373.101837	145.660000
373.195404	145.420000
373.288879	145.620000
373.382446	146.260000
373.475922	146.320000
373.569489	147.040000
373.662964	147.660000
373.756531	147.420000
373.850037	147.300000
373.943573	147.080000
374.037109	145.880000
374.130615	145.860000
374.224152	146.220000
374.317657	145.720000
374.411194	146.480000
374.504730	147.040000
374.598236	146.680000
374.691772	146.420000
374.785309	146.660000
374.878815	145.760000
374.972351	145.940000
375.065887	145.760000
375.159454	146.240000
375.252930	146.160000
375.346497	146.460000
375.440002	146.960000
375.533569	147.200000
375.627045	146.400000
375.720612	146.660000
375.814117	146.860000
375.907684	146.260000
376.001160	145.920000
376.094727	145.900000
376.188232	146.300000
376.281799	146.060000
376.375336	145.920000
376.468872	146.640000
376.562408	147.160000
376.655914	146.600000
376.749451	146.780000
376.842987	147.040000
376.936523	146.420000
377.030060	146.340000
377.123596	146.460000
377.217133	146.060000
377.310669	145.980000
377.404205	146.720000
377.497772	147.020000
377.591278	147.000000
377.684845	147.700000
377.778351	147.880000
377.871918	147.000000
377.965424	145.960000
378.058990	145.620000
378.152496	145.160000
378.246063	145.240000
378.339569	145.960000
378.433136	146.380000
378.526642	146.520000
378.620209	146.560000
378.713745	145.940000
378.807312	146.120000
378.900848	146.160000
378.994385	146.320000
379.087921	145.760000
379.181458	146.000000
379.274994	145.180000
379.368530	145.180000
379.462097	145.580000
379.555634	146.420000
379.649170	146.000000
379.742706	146.240000
379.836273	146.520000
379.929810	145.900000
380.023376	145.580000
380.116882	145.640000
380.210449	145.460000
380.303986	145.040000
380.397552	144.760000
380.491058	145.040000
380.584656	145.200000
380.678162	145.480000
380.771729	145.800000
380.865265	146.880000
380.958832	146.720000
381.052368	147.020000
381.145935	147.200000
381.239471	147.500000
381.333008	146.980000
381.426575	146.660000
381.520111	146.860000
381.613647	147.160000
381.707214	146.400000
381.800751	145.700000
381.894318	146.120000
381.987854	145.580000
382.081421	145.260000
382.174988	145.800000
382.268524	146.000000
382.362091	146.080000
382.455627	146.700000
382.549194	146.460000
382.642731	145.860000
382.736298	145.900000
382.829834	145.280000
382.923401	145.680000
383.016937	145.960000
383.110504	146.500000
383.204041	146.660000
383.297607	147.240000
383.391174	146.520000
383.484741	147.120000
383.578278	146.860000
383.671844	146.340000
383.765411	145.940000
383.858948	146.200000
383.952515	145.740000
384.046051	146.240000
384.139618	147.040000
384.233185	147.280000
384.326721	147.100000
384.420288	147.280000
384.513855	147.020000
384.607422	147.000000
384.700989	147.220000
384.794525	147.060000
384.888123	146.840000
384.981659	147.020000
385.075226	146.520000
385.168762	146.060000
385.262360	145.980000
385.355896	145.180000
385.449463	144.660000
385.542999	144.940000
385.636597	145.880000
385.730164	146.240000
385.823730	146.440000
385.917267	146.340000
386.010834	146.520000
386.104401	146.040000
386.197968	146.160000
386.291534	146.520000
386.385101	147.000000
386.478668	147.220000
386.572235	147.040000
386.665802	146.580000
386.759338	146.160000
386.852905	145.860000
386.946472	145.520000
387.040070	145.640000
387.133606	145.840000
387.227203	145.600000
387.320740	145.920000
387.414337	145.620000
387.507874	145.480000
387.601471	145.180000
387.695007	145.580000
387.788605	145.360000
387.882141	145.600000
387.975739	145.440000
388.069275	145.540000
388.162872	145.700000
388.256439	145.460000
388.350037	144.920000
388.443604	144.940000
388.537170	145.080000
388.630737	145.740000
388.724304	146.100000
388.817871	146.440000
388.911438	146.360000
389.005005	146.500000
389.098602	146.440000
389.192169	146.140000
389.285736	146.580000
389.379333	146.660000
389.472870	146.240000
389.566467	145.800000
389.660034	146.280000
389.753632	145.500000
389.847168	145.720000
389.940765	146.280000
390.034332	146.500000
390.127930	146.020000
390.221466	146.300000
390.315063	145.760000
390.408630	145.040000
390.502228	144.120000
390.595795	144.320000
390.689362	144.540000
390.782959	145.100000
390.876526	145.520000
390.970093	145.600000
391.063690	146.080000
391.157257	146.160000
391.250824	146.400000
391.344421	146.280000
391.437988	146.880000
391.531555	146.960000
391.625153	146.860000
391.718750	146.900000
391.812317	146.640000
391.905914	146.320000
391.999481	146.120000
392.093079	146.360000
392.186615	146.400000
392.280243	146.820000
392.373779	146.980000
392.467407	147.260000
392.560944	147.180000
392.654572	146.660000
392.748108	146.640000
392.841736	146.660000
392.935303	145.980000
393.028900	145.680000
393.122467	145.840000
393.216064	145.560000
393.309631	145.060000
393.403229	144.920000
393.496796	144.960000
393.590393	144.500000
393.683990	144.760000
393.777557	145.140000
393.871155	145.460000
393.964722	145.860000
394.058350	146.200000
394.151917	145.900000
394.245514	145.960000
394.339081	146.300000
394.432678	146.440000
394.526245	146.640000
394.619873	146.520000
394.713409	146.460000
394.807037	146.060000
394.900604	145.960000
394.994202	146.040000
395.087769	146.480000
395.181396	146.160000
395.274994	146.780000
395.368561	146.260000
395.462158	146.200000
395.555756	146.000000
395.649353	146.520000
395.742920	145.840000
395.836517	146.340000
395.930115	145.440000
396.023712	145.560000
396.117279	145.760000
396.210876	145.640000
396.304474	145.540000
396.398071	146.160000
396.491669	146.440000
396.585266	146.200000
396.678833	146.040000
396.772461	146.240000
396.866028	146.260000
396.959656	146.420000
397.053223	146.640000
397.146851	147.060000
397.240417	147.200000
397.334015	147.780000
397.427582	147.640000
397.521210	148.060000
397.614807	148.440000
397.708405	148.760000
397.802002	149.060000
397.895599	150.380000
397.989197	151.240000
398.082794	152.320000
398.176392	153.860000
398.269989	155.580000
398.363586	157.380000
398.457184	159.980000
398.550781	162.920000
398.644379	165.180000
398.737976	167.860000
398.831573	170.740000
398.925201	172.780000
399.018768	175.320000
399.112396	178.140000
399.205963	181.380000
399.299591	184.240000
399.393158	187.700000
399.486786	191.800000
399.580353	196.140000
399.673981	200.580000
399.767578	206.460000
399.861206	213.780000
399.954773	220.960000
400.048401	229.020000
400.141998	236.020000
400.235596	242.860000
400.329193	247.540000
400.422791	252.340000
400.516418	255.180000
400.610016	258.600000
400.703613	260.360000
400.797211	259.980000
400.890808	257.260000
400.984436	253.920000
401.078033	248.000000
401.171631	240.760000
401.265259	233.640000
401.358826	226.440000
401.452484	218.520000
401.546051	210.960000
401.639679	202.500000
401.733246	195.200000
401.826904	187.400000
401.920471	179.980000
402.014099	173.720000
402.107697	168.820000
402.201324	164.200000
402.294891	161.180000
402.388550	158.520000
402.482147	156.220000
402.575745	154.060000
402.669373	152.020000
402.762970	150.580000
402.856567	149.720000
402.950195	149.220000
403.043793	148.840000
403.137390	149.240000
403.231018	147.960000
403.324615	148.360000
403.418243	147.480000
403.511841	147.300000
403.605469	146.920000
403.699066	147.620000
403.792694	147.300000
403.886292	147.720000
403.979919	147.580000
404.073517	147.340000
404.167145	147.380000
404.260712	147.240000
404.354370	147.100000
404.447937	147.360000
404.541595	147.780000
404.635162	147.960000
404.728821	148.120000
404.822418	147.500000
404.916046	147.120000
405.009644	146.940000
405.103271	146.760000
405.196899	146.240000
405.290497	146.500000
405.384125	146.980000
405.477722	146.700000
405.571350	146.540000
405.664948	146.800000
405.758575	146.800000
405.852203	146.080000
405.945801	146.180000
406.039429	146.200000
406.133057	145.840000
406.226654	145.840000
406.320312	146.200000
406.413879	146.240000
406.507538	146.360000
406.601135	146.220000
406.694763	146.780000
406.788361	146.440000
406.882019	146.140000
406.975586	146.400000
407.069244	147.140000
407.162872	146.740000
407.256470	146.820000
407.350098	146.820000
407.443726	146.000000
407.537323	145.500000
407.630951	145.700000
407.724579	145.440000
407.818207	145.800000
407.911804	145.860000
408.005432	145.620000
408.099060	145.480000
408.192688	145.940000
408.286285	145.760000
408.379913	145.680000
408.473572	146.080000
408.567169	145.420000
408.660828	145.340000
408.754395	145.200000
408.848053	145.260000
408.941650	145.240000
409.035309	145.440000
409.128906	145.500000
409.222565	145.660000
409.316132	145.980000
409.409790	145.520000
409.503387	145.940000
409.597046	145.740000
409.690674	145.700000
409.784302	145.620000
409.877930	145.840000
409.971558	145.720000
410.065186	145.760000
410.158783	145.800000
410.252411	145.680000
410.346039	145.980000
410.439667	146.040000
410.533295	146.160000
410.626923	146.500000
410.720551	146.480000
410.814209	146.760000
410.907806	146.660000
411.001465	146.140000
411.095062	146.220000
411.188721	146.560000
411.282318	145.980000
411.375977	145.840000
411.469574	146.340000
411.563232	145.680000
411.656830	145.180000
411.750488	145.040000
411.844086	144.640000
411.937744	144.860000
412.031372	145.340000
412.125000	145.500000
412.218628	145.540000
412.312256	146.680000
412.405884	146.920000
412.499512	146.400000
412.593170	146.520000
412.686798	146.820000
412.780426	146.000000
412.874054	145.880000
412.967682	146.100000
413.061310	146.700000
413.154968	147.040000
413.248566	147.680000
413.342224	147.400000
413.435852	147.200000
413.529510	146.760000
413.623108	145.900000
413.716766	145.540000
413.810364	146.100000
413.904022	146.060000
413.997650	145.520000
414.091309	146.400000
414.184906	146.160000
414.278564	145.540000
414.372192	146.080000
414.465851	146.640000
414.559479	146.420000
414.653107	147.220000
414.746735	146.920000
414.840393	146.700000
414.934021	146.720000
415.027649	146.400000
415.121277	146.160000
415.214935	146.900000
415.308563	147.060000
415.402191	146.460000
415.495850	146.600000
415.589478	146.020000
415.683136	145.620000
415.776733	146.140000
415.870422	146.640000
415.964020	146.000000
416.057678	146.300000
416.151306	146.320000
416.244965	145.880000
416.338562	145.880000
416.432251	146.880000
416.525848	147.380000
416.619507	147.560000
416.713165	147.700000
416.806793	147.700000
416.900421	147.640000
416.994080	146.960000
417.087708	146.980000
417.181366	146.440000
417.274994	146.380000
417.368622	146.300000
417.462280	147.100000
417.555908	147.080000
417.649567	147.260000
417.743195	147.480000
417.836853	147.380000
417.930481	147.240000
418.024170	147.160000
418.117767	147.380000
418.211426	147.580000
418.305054	147.600000
418.398712	146.760000
418.492340	146.680000
418.585999	147.160000
418.679626	147.140000
418.773285	147.440000
418.866913	148.280000
418.960571	148.540000
419.054230	147.900000
419.147858	147.980000
419.241516	147.720000
419.335144	147.260000
419.428802	147.280000
419.522461	147.220000
419.616089	146.440000
419.709747	146.720000
419.803375	146.900000
419.897034	146.580000
419.990662	146.560000
420.084320	147.460000
420.177979	147.340000
420.271606	147.480000
420.365295	147.940000
420.458893	148.040000
420.552582	147.880000
420.646210	147.760000
420.739868	147.440000
420.833496	147.240000
420.927155	147.000000
421.020782	146.420000
421.114471	145.740000
421.208069	145.560000
421.301758	145.620000
421.395386	145.660000
421.489044	145.660000
421.582703	146.320000
421.676361	147.000000
421.769989	146.720000
421.863647	147.260000
421.957306	147.400000
422.050934	147.420000
422.144592	147.040000
422.238251	146.780000
422.331909	146.440000
422.425537	146.420000
422.519196	146.200000
422.612854	146.080000
422.706543	145.860000
422.800140	146.020000
422.893829	145.620000
422.987457	145.420000
423.081146	145.480000
423.174744	146.440000
423.268433	146.160000
423.362061	146.520000
423.455750	146.440000
423.549347	146.440000
423.643036	145.520000
423.736664	146.060000
423.830353	146.180000
423.924011	146.780000
424.017639	146.240000
424.111298	146.380000
424.204956	146.000000
424.298615	145.900000
424.392273	145.420000
424.485931	145.700000
424.579559	145.940000
424.673218	145.540000
424.766876	145.620000
424.860535	145.560000
424.954193	145.340000
425.047882	145.620000
425.141510	146.060000
425.235199	146.200000
425.328796	146.260000
425.422485	146.300000
425.516113	145.560000
425.609802	145.400000
425.703430	145.240000
425.797119	145.200000
425.890747	145.480000
425.984436	146.020000
426.078064	145.880000
426.171753	146.000000
426.265411	145.800000
426.359070	145.940000
426.452728	145.600000
426.546356	145.460000
426.640015	144.960000
426.733673	145.120000
426.827332	144.780000
426.920990	145.640000
427.014648	145.380000
427.108307	145.920000
427.201965	146.560000
427.295624	147.020000
427.389282	146.140000
427.482941	146.720000
427.576630	146.320000
427.670258	145.260000
427.763947	144.900000
427.857574	145.280000
427.951263	145.080000
428.044922	145.000000
428.138611	145.580000
428.232239	146.100000
428.325928	146.400000
428.419556	146.960000
428.513245	146.760000
428.606903	146.740000
428.700562	146.080000
428.794220	145.180000
428.887878	144.440000
428.981537	145.040000
429.075195	145.280000
429.168854	145.700000
429.262512	145.920000
429.356201	146.340000
429.449860	145.980000
429.543518	145.540000
429.637177	145.620000
429.730835	145.780000
429.824493	145.780000
429.918182	145.980000
430.011810	145.820000
430.105530	145.320000
430.199158	145.540000
430.292847	145.200000
430.386475	144.980000
430.480164	144.980000
430.573792	144.860000
430.667511	144.620000
430.761139	144.820000
430.854828	145.180000
430.948456	145.420000
431.042145	145.780000
431.135834	145.660000
431.229492	145.460000
431.323151	145.580000
431.416809	145.360000
431.510468	145.360000
431.604156	145.180000
431.697815	145.600000
431.791473	145.180000
431.885132	145.200000
431.978821	145.540000
432.072479	146.140000
432.166138	146.260000
432.259827	146.240000
432.353485	146.700000
432.447174	146.740000
432.540802	146.280000
432.634491	146.480000
432.728149	146.760000
432.821838	146.900000
432.915466	146.280000
433.009186	146.380000
433.102814	145.240000
433.196503	144.940000
433.290131	144.840000
433.383850	145.220000
433.477509	145.500000
433.571167	146.760000
433.664856	147.300000
433.758514	147.380000
433.852173	147.620000
433.945862	147.520000
434.039520	147.100000
434.133179	146.420000
434.226868	145.880000
434.320526	145.080000
434.414185	145.680000
434.507874	145.500000
434.601562	145.860000
434.695221	146.040000
434.788910	146.480000
434.882538	146.160000
434.976257	145.760000
435.069885	145.860000
435.163574	146.160000
435.257233	145.620000
435.350922	145.580000
435.444580	145.600000
435.538269	145.520000
435.631897	145.620000
435.725616	146.700000
435.819275	147.140000
435.912964	147.960000
436.006622	148.020000
436.100311	147.800000
436.193970	146.720000
436.287628	145.820000
436.381317	145.240000
436.474976	145.080000
436.568665	144.740000
436.662323	145.140000
436.756012	145.180000
436.849670	144.820000
436.943390	144.640000
437.037018	144.800000
437.130737	144.860000
437.224365	145.100000
437.318085	145.620000
437.411713	145.700000
437.505432	146.140000
437.599060	146.580000
437.692780	146.980000
437.786407	146.900000
437.880127	146.900000
437.973755	146.480000
438.067474	145.880000
438.161133	145.580000
438.254822	145.800000
438.348480	146.100000
438.442169	146.800000
438.535828	147.380000
438.629517	146.880000
438.723175	146.340000
438.816864	146.480000
438.910553	145.580000
439.004211	144.980000
439.097900	145.260000
439.191559	145.680000
439.285248	145.060000
439.378906	145.580000
439.472626	145.760000
439.566284	145.660000
439.659973	145.800000
439.753632	145.760000
439.847321	145.860000
439.940979	145.980000
440.034698	146.060000
440.128326	145.800000
440.222046	145.740000
440.315674	145.220000
440.409393	145.160000
440.503082	145.140000
440.596741	145.160000
440.690430	145.620000
440.784088	145.580000
440.877777	145.200000
440.971466	145.040000
441.065125	144.780000
441.158813	144.420000
441.252502	144.560000
441.346161	145.020000
441.439850	145.480000
441.533539	145.460000
441.627197	146.020000
441.720886	145.840000
441.814606	146.080000
441.908234	146.380000
442.001953	146.500000
442.095612	146.340000
442.189301	146.640000
442.282959	146.320000
442.376678	145.440000
442.470306	146.000000
442.564026	145.660000
442.657684	145.860000
442.751404	145.940000
442.845032	147.100000
442.938751	146.480000
443.032440	146.720000
443.126099	146.240000
443.219788	146.440000
443.313477	145.860000
443.407166	146.300000
443.500824	146.460000
443.594513	146.860000
443.688202	146.840000
443.781891	146.360000
443.875549	145.760000
443.969238	145.500000
444.062927	145.280000
444.156647	145.200000
444.250275	145.560000
444.343994	146.000000
444.437653	146.140000
444.531372	146.260000
444.625031	146.000000
444.718719	145.740000
444.812378	145.660000
444.906097	145.620000
444.999756	145.060000
445.093445	145.340000
445.187103	145.580000
445.280823	146.240000
445.374512	145.860000
445.468201	145.980000
445.561859	145.620000
445.655548	145.660000
445.749237	144.540000
445.842926	144.680000
445.936615	145.400000
446.030304	145.140000
446.123962	145.320000
446.217651	145.400000
446.311340	145.660000
446.405029	145.020000
446.498749	144.920000
446.592407	144.620000
446.686096	145.040000
446.779755	145.060000
446.873474	145.380000
446.967133	146.000000
447.060852	145.740000
447.154510	145.300000
447.248230	145.240000
447.341858	145.160000
447.435577	144.940000
447.529236	144.960000
447.622955	145.240000
447.716644	145.420000
447.810333	145.620000
447.904022	146.080000
447.997711	146.220000
448.091400	146.620000
448.185059	146.140000
448.278748	146.160000
448.372437	145.780000
448.466125	146.320000
448.559814	146.100000
448.653503	146.680000
448.747192	147.180000
448.840912	147.420000
448.934570	146.840000
449.028290	147.260000
449.121948	146.800000
449.215637	145.920000
449.309296	145.480000
449.403015	145.760000
449.496674	145.620000
449.590393	145.900000
449.684052	146.000000
449.777771	146.900000
449.871429	146.180000
449.965149	146.000000
450.058838	146.120000
450.152527	146.520000
450.246216	145.980000
450.339905	146.520000
450.433594	146.160000
450.527283	146.460000
450.620972	146.120000
450.714661	145.980000
450.808350	145.880000
450.902039	146.300000
450.995728	146.100000
451.089417	145.600000
451.183105	145.620000
451.276794	146.260000
451.370514	145.780000
451.464172	144.960000
451.557892	145.220000
451.651550	145.520000
451.745270	144.980000
451.838928	144.880000
451.932648	145.540000
452.026306	146.320000
452.120026	146.100000
452.213684	146.280000
452.307404	146.660000
452.401062	146.800000
452.494781	146.400000
452.588470	146.400000
452.682159	145.920000
452.775848	145.940000
452.869537	145.240000
452.963226	144.900000
453.056915	144.880000
453.150604	145.140000
453.244293	145.260000
453.337982	146.160000
453.431671	146.620000
453.525360	147.040000
453.619049	146.780000
453.712769	146.480000
453.806427	145.980000
453.900146	146.000000
453.993805	145.580000
454.087555	146.300000
454.181213	146.300000
454.274933	146.300000
454.368591	146.160000
454.462311	146.200000
454.555969	145.700000
454.649689	146.860000
454.743347	146.760000
454.837067	147.540000
454.930756	148.140000
455.024445	148.340000
455.118134	147.580000
455.211853	147.620000
455.305542	146.280000
455.399231	145.960000
455.492920	145.900000
455.586609	145.720000
455.680298	146.020000
455.773987	146.420000
455.867676	146.060000
455.961365	146.220000
456.055084	146.000000
456.148773	145.660000
456.242493	145.880000
456.336151	145.700000
456.429871	146.100000
456.523529	146.780000
456.617249	146.640000
456.710907	147.000000
456.804626	147.120000
456.898315	146.220000
456.992035	145.820000
457.085693	145.520000
457.179413	144.800000
457.273102	145.740000
457.366791	145.820000
457.460480	146.180000
457.554199	147.080000
457.647888	147.140000
457.741577	146.500000
457.835266	146.580000
457.928955	146.400000
458.022644	146.400000
458.116364	146.600000
458.210052	146.440000
458.303741	146.660000
458.397461	145.900000
458.491119	145.140000
458.584839	145.280000
458.678528	145.020000
458.772247	144.900000
458.865906	145.440000
458.959625	146.660000
459.053284	146.460000
459.147003	146.120000
459.240692	146.580000
459.334412	146.380000
459.428070	145.620000
459.521790	145.460000
459.615479	145.900000
459.709198	145.940000
459.802887	145.880000
459.896576	145.660000
459.990265	145.920000
460.083954	146.200000
460.177673	145.620000
460.271362	145.760000
460.365051	145.780000
460.458740	145.460000
460.552429	144.980000
460.646149	145.060000
460.739838	144.700000
460.833527	144.900000
460.927246	144.680000
461.020905	144.700000
461.114655	144.660000
461.208313	145.200000
461.302032	144.520000
461.395691	145.120000
461.489441	145.220000
461.583099	145.340000
461.676819	144.860000
461.770477	145.640000
461.864197	145.160000
461.957916	145.160000
462.051605	144.420000
462.145294	145.340000
462.238983	144.940000
462.332703	145.340000
462.426392	146.020000
462.520081	146.500000
462.613770	145.780000
462.707489	145.980000
462.801178	145.760000
462.894867	145.120000
462.988556	145.440000
463.082275	145.700000
463.175964	145.260000
463.269684	145.560000
463.363342	145.540000
463.457092	145.020000
463.550751	145.060000
463.644470	145.480000
463.738129	145.280000
463.831879	145.700000
463.925537	146.380000
464.019257	146.420000
464.112946	146.240000
464.206665	146.180000
464.300323	145.840000
464.394043	145.540000
464.487762	145.460000
464.581451	145.920000
464.675140	145.940000
464.768829	146.260000
464.862549	146.180000
464.956238	146.220000
465.049927	146.260000
465.143646	146.340000
465.237335	146.000000
465.331024	146.460000
465.424713	146.420000
465.518433	146.320000
465.612152	146.220000
465.705811	146.180000
465.799561	145.660000
465.893219	145.440000
465.986938	145.260000
466.080597	145.220000
466.174347	145.640000
466.268005	145.960000
466.361725	146.020000
466.455414	146.120000
466.549133	146.020000
466.642792	145.960000
466.736542	145.560000
466.830231	145.940000
466.923920	145.740000
467.017609	145.900000
467.111328	145.620000
467.205017	145.960000
467.298706	145.800000
467.392426	146.060000
467.486115	146.220000
467.579803	145.740000
467.673523	145.940000
467.767212	145.720000
467.860901	145.420000
467.954651	145.420000
468.048309	145.980000
468.142029	145.760000
468.235718	146.040000
468.329437	145.860000
468.423096	145.780000
468.516846	145.680000
468.610504	145.320000
468.704224	144.720000
468.797913	144.840000
468.891632	145.040000
468.985291	144.740000
469.079010	145.240000
469.172729	145.400000
469.266418	146.040000
469.360107	145.620000
469.453827	145.800000
469.547516	145.680000
469.641205	146.220000
469.734924	146.120000
469.828613	146.940000
469.922302	147.220000
470.016022	147.200000
470.109711	146.820000
470.203430	146.300000
470.297150	145.140000
470.390808	145.220000
470.484558	145.140000
470.578217	145.780000
470.671936	146.160000
470.765625	147.360000
470.859344	146.980000
470.953003	147.380000
471.046753	146.820000
471.140411	146.300000
471.234131	145.900000
471.327820	146.240000
471.421539	145.860000
471.515228	145.220000
471.608948	145.600000
471.702637	145.040000
471.796326	144.680000
471.890045	145.220000
471.983734	145.840000
472.077423	145.400000
472.171143	145.760000
472.264832	145.960000
472.358521	145.300000
472.452240	145.160000
472.545929	145.960000
472.639648	145.880000
472.733337	146.240000
472.827057	146.300000
472.920746	146.280000
473.014465	146.420000
473.108124	146.640000
473.201874	146.580000
473.295532	146.380000
473.389252	146.580000
473.482941	146.160000
473.576660	145.720000
473.670319	145.440000
473.764069	145.800000
473.857727	145.860000
473.951477	146.180000
474.045166	146.980000
474.138855	146.860000
474.232574	146.760000
474.326263	146.640000
474.419952	146.760000
474.513672	146.300000
474.607361	146.220000
474.701050	146.520000
474.794769	146.980000
474.888458	146.920000
474.982178	147.280000
475.075867	147.600000
475.169586	146.920000
475.263275	146.580000
475.356995	146.440000
475.450653	145.900000
475.544403	145.640000
475.638062	147.020000
475.731812	146.620000
475.825470	146.140000
475.919189	146.360000
476.012878	146.580000
476.106598	145.800000
476.200256	146.220000
476.294006	146.460000
476.387695	146.560000
476.481384	146.360000
476.575104	146.280000
476.668793	145.840000
476.762512	145.320000
476.856201	145.640000
476.949890	145.580000
477.043610	144.860000
477.137299	145.200000
477.230988	145.740000
477.324707	144.940000
477.418396	145.520000
477.512146	146.120000
477.605804	145.920000
477.699524	146.200000
477.793213	146.380000
477.886932	146.240000
477.980591	145.820000
478.074341	145.800000
478.167999	145.140000
478.261749	145.480000
478.355408	145.100000
478.449127	145.780000
478.542816	146.800000
478.636536	147.640000
478.730225	147.380000
478.823944	147.840000
478.917633	147.500000
479.011322	147.080000
479.105042	146.560000
479.198730	147.120000
479.292450	146.620000
479.386139	146.900000
479.479828	146.940000
479.573547	147.280000
479.667267	146.860000
479.760925	146.980000
479.854675	146.940000
479.948334	146.880000
480.042084	146.200000
480.135742	146.500000
480.229462	146.160000
480.323151	146.100000
480.416870	145.220000
480.510529	145.640000
480.604279	144.820000
480.697937	145.740000
480.791656	145.220000
480.885345	145.520000
480.979065	145.380000
481.072754	146.380000
481.166473	146.460000
481.260132	146.920000
481.353882	147.060000
481.447540	146.880000
481.541260	146.300000
481.635010	145.380000
481.728668	145.440000
481.822388	145.340000
481.916077	145.760000
482.009796	145.860000
482.103485	146.560000
482.197205	146.400000
482.290863	146.620000
482.384613	146.340000
482.478271	146.080000
482.571991	145.740000
482.665680	145.640000
482.759399	146.220000
482.853058	146.780000
482.946808	146.960000
483.040466	146.840000
483.134216	146.980000
483.227875	146.260000
483.321594	146.460000
483.415283	146.440000
483.509003	146.400000
483.602661	146.080000
483.696411	146.400000
483.790070	145.980000
483.883789	145.880000
483.977478	146.380000
484.071198	146.620000
484.164917	146.460000
484.258606	146.140000
484.352325	146.520000
484.445984	146.160000
484.539734	146.040000
484.633392	145.260000
484.727142	145.320000
484.820801	145.080000
484.914520	145.220000
485.008209	145.440000
485.101929	146.260000
485.195587	146.340000
485.289337	146.300000
485.382996	146.120000
485.476715	146.060000
485.570404	146.480000
485.664124	146.000000
485.757782	146.620000
485.851532	146.520000
485.945190	146.460000
486.038910	146.460000
486.132599	147.280000
486.226318	146.500000
486.319977	146.440000
486.413727	146.940000
486.507446	146.240000
486.601105	145.720000
486.694855	145.860000
486.788513	145.620000
486.882233	145.220000
486.975922	145.420000
487.069641	145.400000
487.163300	145.140000
487.257050	146.680000
487.350708	146.440000
487.444427	146.160000
487.538116	146.120000
487.631836	146.160000
487.725494	145.100000
487.819214	145.280000
487.912903	145.020000
488.006622	145.660000
488.100281	146.020000
488.194031	146.000000
488.287689	146.340000
488.381409	147.540000
488.475098	147.020000
488.568817	146.960000
488.662476	146.760000
488.756226	146.120000
488.849945	144.860000
488.943604	144.940000
489.037354	145.160000
489.131012	145.220000
489.224731	145.240000
489.318390	145.440000
489.412140	145.460000
489.505798	145.080000
489.599518	144.800000
489.693207	145.320000
489.786926	145.700000
489.880585	145.600000
489.974335	145.980000
490.067993	147.040000
490.161713	147.080000
490.255371	147.620000
490.349121	147.700000
490.442780	147.420000
490.536499	146.420000
490.630188	146.200000
490.723907	145.620000
490.817566	145.600000
490.911285	145.820000
491.004974	145.660000
491.098694	145.340000
491.192413	145.960000
491.286102	145.900000
491.379822	145.900000
491.473480	146.580000
491.567200	146.740000
491.660889	145.820000
491.754608	145.880000
491.848267	145.500000
491.941986	145.320000
492.035675	145.480000
492.129395	146.120000
492.223053	145.820000
492.316772	146.140000
492.410461	145.880000
492.504181	145.900000
492.597839	145.520000
492.691559	146.000000
492.785248	145.960000
492.878967	146.120000
492.972626	146.120000
493.066345	146.100000
493.160034	145.600000
493.253754	145.560000
493.347412	145.160000
493.441132	145.040000
493.534882	145.620000
493.628540	145.940000
493.722260	146.040000
493.815918	146.660000
493.909668	147.140000
494.003326	147.080000
494.097046	146.940000
494.190704	146.680000
494.284454	146.380000
494.378113	146.120000
494.471832	145.760000
494.565491	145.720000
494.659210	145.660000
494.752899	145.620000
494.846619	145.200000
494.940277	145.360000
495.033997	145.360000
495.127686	145.200000
495.221405	145.240000
495.315063	145.540000
495.408783	145.640000
495.502441	145.960000
495.596191	146.380000
495.689850	146.180000
495.783569	146.340000
495.877228	146.260000
495.970947	145.760000
496.064697	145.600000
496.158356	146.500000
496.252075	146.240000
496.345734	145.880000
496.439453	146.740000
496.533142	146.860000
496.626862	146.780000
496.720520	146.900000
496.814240	147.240000
496.907898	146.720000
497.001617	146.600000
497.095306	145.740000
497.189026	145.560000
497.282684	145.380000
497.376404	145.700000
497.470062	145.380000
497.563782	145.800000
497.657471	145.840000
497.751190	145.500000
497.844849	145.300000
497.938568	145.860000
498.032227	145.520000
498.125946	145.560000
498.219635	145.780000
498.313354	145.780000
498.407074	145.360000
498.500732	145.940000
498.594452	146.480000
498.688110	146.240000
498.781830	145.860000
498.875519	146.080000
498.969238	145.720000
499.062897	144.800000
499.156616	145.220000
499.250275	145.380000
499.343994	144.820000
499.437653	144.940000
499.531372	145.320000
499.625061	146.100000
499.718781	146.220000
499.812439	146.900000
499.906158	146.660000
499.999817	146.660000
500.093536	145.660000
500.187195	145.640000
500.280914	145.600000
500.374573	145.820000
500.468323	145.380000
500.561981	145.580000
500.655701	145.380000
500.749420	145.080000
500.843079	145.060000
500.936798	145.300000
501.030457	145.700000
501.124176	145.860000
501.217834	145.980000
501.311554	145.700000
501.405212	145.600000
501.498962	144.820000
501.592621	144.780000
501.686340	144.840000
501.779999	144.940000
501.873718	145.260000
501.967377	145.620000
502.061096	145.820000
502.154755	145.460000
502.248474	145.800000
502.342133	145.980000
502.435852	146.140000
502.529510	146.620000
502.623230	147.600000
502.716888	147.040000
502.810608	147.020000
502.904266	147.060000
502.997986	146.600000
503.091705	145.680000
503.185364	145.940000
503.279083	145.700000
503.372772	145.780000
503.466492	145.320000
503.560150	145.780000
503.653870	146.080000
503.747528	146.180000
503.841248	145.900000
503.934906	145.980000
504.028625	145.560000
504.122284	145.680000
504.216003	146.140000
504.309662	145.840000
504.403381	146.240000
504.497040	146.340000
504.590759	145.860000
504.684418	145.820000
504.778137	146.380000
504.871796	146.640000
504.965515	146.700000
505.059174	146.640000
505.152893	145.900000
505.246521	145.500000
505.340240	145.160000
505.433899	145.420000
505.527618	145.920000
505.621338	146.520000
505.714996	146.380000
505.808716	146.240000
505.902374	146.660000
505.996094	146.420000
506.089752	146.080000
506.183472	146.240000
506.277130	146.500000
506.370850	146.020000
506.464508	145.660000
506.558228	145.780000
506.651886	145.700000
506.745605	145.500000
506.839264	145.620000
506.932983	146.020000
507.026611	146.100000
507.120331	146.500000
507.213989	146.160000
507.307709	145.980000
507.401367	146.280000
507.495087	146.940000
507.588745	146.500000
507.682465	147.500000
507.776123	147.540000
507.869843	147.280000
507.963531	146.880000
508.057190	147.460000
508.150909	146.260000
508.244568	146.340000
508.338287	146.280000
508.431946	145.860000
508.525665	145.260000
508.619324	145.540000
508.713013	145.600000
508.806671	145.920000
508.900391	146.700000
508.994049	146.840000
509.087769	147.080000
509.181427	147.100000
509.275146	146.580000
509.368774	145.620000
509.462494	145.600000
509.556152	145.420000
509.649872	145.620000
509.743530	145.820000
509.837250	145.940000
509.930878	145.960000
510.024597	146.240000
510.118256	145.740000
510.211975	145.720000
510.305695	145.680000
510.399353	145.920000
510.493042	145.980000
510.586700	146.300000
510.680420	146.520000
510.774078	146.600000
510.867798	146.800000
510.961426	146.260000
511.055145	146.000000
511.148804	145.620000
511.242523	145.800000
511.336151	145.580000
511.429871	145.960000
511.523529	145.700000
511.617249	145.420000
511.710876	145.220000
511.804596	144.660000
511.898254	144.580000
511.991974	145.220000
512.085632	145.240000
512.179321	145.640000
512.272949	146.340000
512.366699	146.880000
512.460327	146.560000
512.554077	147.700000
512.647766	147.220000
512.741394	147.020000
512.835144	147.140000
512.928772	146.880000
513.022461	146.420000
513.116150	146.380000
513.209839	146.580000
513.303467	146.100000
513.397217	146.080000
513.490845	145.560000
513.584595	145.720000
513.678223	145.220000
513.771912	144.660000
513.865601	145.060000
513.959290	145.060000
514.052917	145.260000
514.146667	146.220000
514.240295	146.700000
514.333984	146.640000
514.427673	146.780000
514.521362	147.160000
514.614990	146.280000
514.708740	146.300000
514.802368	146.320000
514.896057	146.520000
514.989746	147.000000
515.083435	146.940000
515.177124	147.240000
515.270752	147.140000
515.364502	147.220000
515.458130	146.440000
515.551819	146.840000
515.645508	146.560000
515.739197	146.700000
515.832825	146.500000
515.926575	146.260000
516.020203	146.140000
516.113892	146.480000
516.207520	146.340000
516.301270	146.260000
516.394897	146.460000
516.488586	146.580000
516.582275	146.460000
516.675964	145.700000
516.769592	145.980000
516.863281	146.640000
516.956970	146.880000
517.050659	146.500000
517.144287	147.020000
517.238037	146.840000
517.331665	145.960000
517.425354	145.520000
517.519043	145.320000
517.612732	145.620000
517.706421	145.620000
517.800049	145.620000
517.893738	145.360000
517.987427	145.740000
518.081116	145.460000
518.174744	145.120000
518.268433	145.500000
518.362122	146.180000
518.455811	146.160000
518.549438	146.580000
518.643127	147.620000
518.736816	147.280000
518.830505	147.080000
518.924133	146.620000
519.017822	146.680000
519.111511	146.060000
519.205200	146.620000
519.298828	146.380000
519.392517	146.420000
519.486206	146.560000
519.579895	146.700000
519.673523	146.220000
519.767212	146.220000
519.860901	147.000000
519.954590	146.780000
520.048279	146.420000
520.141907	146.460000
520.235596	147.420000
520.329224	147.280000
520.422974	147.060000
520.516602	147.140000
520.610291	146.580000
520.703918	145.940000
520.797607	145.460000
520.891296	145.560000
520.984985	145.700000
521.078613	146.540000
521.172302	146.040000
521.265930	147.060000
521.359680	147.560000
521.453308	147.160000
521.546997	146.740000
521.640625	147.100000
521.734314	146.140000
521.827942	145.700000
521.921692	146.160000
522.015320	146.500000
522.109009	145.940000
522.202698	145.900000
522.296326	145.840000
522.390015	145.920000
522.483704	145.920000
522.577393	146.100000
522.671021	146.240000
522.764709	145.800000
522.858337	145.960000
522.952026	145.860000
523.045654	146.560000
523.139404	147.120000
523.233032	147.520000
523.326721	147.220000
523.420349	147.060000
523.514038	146.380000
523.607666	146.360000
523.701355	145.800000
523.795044	145.800000
523.888733	146.100000
523.982361	146.640000
524.076050	146.040000
524.169678	146.880000
524.263367	146.560000
524.356995	146.000000
524.450684	145.620000
524.544373	145.540000
524.638062	145.200000
524.731750	145.380000
524.825378	145.500000
524.919067	145.220000
525.012695	145.400000
525.106384	145.200000
525.200012	145.400000
525.293701	145.440000
525.387329	146.040000
525.481018	145.940000
525.574646	146.320000
525.668396	146.240000
525.762024	146.560000
525.855713	146.780000
525.949341	146.580000
526.043030	146.540000
526.136658	146.240000
526.230347	146.100000
526.323975	145.400000
526.417664	145.540000
526.511292	145.680000
526.604980	146.120000
526.698608	145.720000
526.792297	145.800000
526.885925	146.100000
526.979614	146.000000
527.073303	145.840000
527.166931	146.140000
527.260620	146.360000
527.354309	146.700000
527.447998	146.640000
527.541626	146.480000
527.635315	146.820000
527.728943	147.280000
527.822632	146.880000
527.916260	146.900000
528.009949	147.140000
528.103577	146.540000
528.197266	145.600000
528.290894	145.520000
528.384583	145.040000
528.478210	145.100000
528.571899	145.420000
528.665527	145.960000
528.759216	146.240000
528.852844	146.920000
528.946533	146.560000
529.040161	146.280000
529.133850	146.060000
529.227478	146.200000
529.321167	146.280000
529.414856	147.080000
529.508484	147.460000
529.602173	147.160000
529.695801	146.840000
529.789490	146.420000
529.883057	145.720000
529.976746	146.080000
530.070374	146.640000
530.164062	146.520000
530.257690	147.100000
530.351379	147.240000
530.445007	146.680000
530.538696	145.920000
530.632324	146.260000
530.726013	146.180000
530.819641	146.180000
530.913330	146.220000
531.006958	146.820000
531.100647	146.920000
531.194275	146.340000
531.287964	146.380000
531.381592	146.560000
531.475220	146.680000
531.568848	146.360000
531.662537	146.400000
531.756226	146.440000
531.849854	146.280000
531.943542	146.080000
532.037170	145.200000
532.130859	145.580000
532.224487	145.260000
532.318176	144.840000
532.411804	145.420000
532.505432	146.080000
532.599060	145.540000
532.692749	145.640000
532.786377	146.280000
532.880066	145.600000
532.973694	145.400000
533.067383	145.520000
533.161011	145.580000
533.254639	145.380000
533.348267	145.220000
533.441956	145.620000
533.535583	145.560000
533.629272	145.560000
533.722900	145.160000
533.816589	145.420000
533.910156	145.800000
534.003845	145.500000
534.097534	145.900000
534.191162	146.540000
534.284851	146.640000
534.378479	146.140000
534.472107	146.340000
534.565735	145.560000
534.659424	145.660000
534.753052	145.660000
534.846741	145.420000
534.940369	146.460000
535.033997	146.720000
535.127625	146.500000
535.221313	147.100000
535.314941	147.220000
535.408630	146.160000
535.502197	146.480000
535.595886	146.240000
535.689514	145.500000
535.783203	146.060000
535.876831	146.680000
535.970459	146.740000
536.064087	146.580000
536.157776	146.740000
536.251404	146.640000
536.345093	146.320000
536.438721	146.040000
536.532349	146.440000
536.626038	146.160000
536.719666	146.380000
536.813293	146.040000
536.906921	146.240000
537.000610	146.320000
537.094238	146.500000
537.187866	146.240000
537.281494	146.560000
537.375183	146.660000
537.468811	146.460000
537.562439	146.440000
537.656067	146.160000
537.749756	146.120000
537.843384	146.480000
537.937012	146.660000
538.030640	146.500000
538.124329	146.640000
538.217896	147.020000
538.311584	146.800000
538.405212	146.480000
538.498901	146.720000
538.592468	147.240000
538.686157	146.440000
538.779785	145.440000
538.873413	145.660000
538.967102	145.280000
539.060730	144.300000
539.154358	144.940000
539.247986	145.760000
539.341675	145.740000
539.435242	145.860000
539.528931	146.580000
539.622559	145.900000
539.716187	146.280000
539.809814	145.900000
539.903503	146.000000
539.997070	145.740000
540.090759	146.180000
540.184387	145.760000
540.278015	146.720000
540.371643	146.740000
540.465332	146.860000
540.558899	146.600000
540.652588	146.480000
540.746216	145.960000
540.839844	146.000000
540.933472	145.980000
541.027100	146.200000
541.120728	146.500000
541.214417	146.500000
541.308044	146.760000
541.401672	146.480000
541.495300	146.200000
541.588928	145.600000
541.682617	145.480000
541.776184	145.080000
541.869873	145.360000
541.963440	145.860000
542.057129	146.160000
542.150757	146.020000
542.244385	145.960000
542.338013	145.720000
542.431641	145.640000
542.525269	145.360000
542.618958	145.660000
542.712524	146.040000
542.806213	145.620000
542.899780	145.740000
542.993469	145.540000
543.087036	145.440000
543.180725	144.760000
543.274292	145.540000
543.367981	145.740000
543.461548	146.560000
543.555237	146.200000
543.648926	147.040000
543.742493	147.580000
543.836182	147.200000
543.929749	146.800000
544.023437	147.180000
544.117004	146.880000
544.210693	146.240000
544.304260	146.360000
544.397949	146.400000
544.491516	146.600000
544.585205	146.580000
544.678772	146.120000
544.772461	145.980000
544.866028	145.820000
544.959717	145.700000
545.053284	145.600000
545.146973	145.980000
545.240540	145.980000
545.334229	146.660000
545.427795	146.900000
545.521423	147.000000
545.615051	147.060000
545.708679	147.620000
545.802307	147.260000
545.895935	147.240000
545.989624	147.820000
546.083191	147.460000
546.176880	146.900000
546.270447	146.740000
546.364136	146.900000
546.457703	146.140000
546.551331	146.160000
546.644958	146.720000
546.738586	146.840000
546.832214	146.280000
546.925842	146.420000
547.019409	146.580000
547.113098	145.800000
547.206665	145.700000
547.300354	145.900000
547.393921	146.300000
547.487549	146.520000
547.581177	146.600000
547.674805	146.340000
547.768433	145.860000
547.862061	145.660000
547.955627	145.020000
548.049316	145.660000
548.142883	146.040000
548.236572	146.620000
548.330139	146.800000
548.423767	146.880000
548.517456	146.680000
548.611023	146.680000
548.704651	145.880000
548.798279	145.360000
548.891907	145.980000
548.985474	145.700000
549.079163	145.660000
549.172729	145.720000
549.266357	145.660000
549.359985	145.540000
549.453613	145.120000
549.547180	145.180000
549.640869	145.680000
549.734436	145.540000
549.828064	145.560000
549.921631	145.700000
550.015320	145.300000
550.108887	145.960000
550.202515	146.160000
550.296143	145.840000
550.389771	146.040000
550.483337	146.340000
550.576965	145.480000
550.670593	145.760000
550.764221	145.960000
550.857849	145.480000
550.951477	144.880000
551.045105	144.740000
551.138672	144.600000
551.232300	144.120000
551.325928	145.000000
551.419556	145.460000
551.513123	145.780000
551.606750	145.620000
551.700378	146.280000
551.794006	145.740000
551.887573	145.700000
551.981201	145.900000
552.074768	145.840000
552.168457	145.400000
552.262024	146.320000
552.355652	146.200000
552.449219	146.600000
552.542847	146.880000
552.636475	146.600000
552.730103	145.520000
552.823669	145.400000
552.917297	144.680000
553.010864	144.140000
553.104553	144.660000
553.198181	144.740000
553.291748	145.340000
553.385376	145.460000
553.478943	145.840000
553.572571	145.840000
553.666199	146.200000
553.759827	145.800000
553.853394	145.540000
553.947021	145.560000
554.040588	145.300000
554.134216	144.960000
554.227783	145.620000
554.321411	146.180000
554.415039	145.860000
554.508667	145.840000
554.602234	146.400000
554.695862	145.780000
554.789429	145.460000
554.883057	145.580000
554.976624	145.720000
555.070251	145.460000
555.163818	145.280000
555.257507	145.300000
555.351074	145.480000
555.444702	146.620000
555.538330	146.260000
555.631897	147.000000
555.725525	147.200000
555.819092	147.180000
555.912720	145.940000
556.006287	146.600000
556.099915	146.120000
556.193481	146.280000
556.287109	146.680000
556.380676	146.700000
556.474304	146.640000
556.567871	146.880000
556.661499	146.140000
556.755066	146.040000
556.848694	146.500000
556.942261	146.020000
557.035889	146.280000
557.129517	146.800000
557.223145	146.900000
557.316711	146.400000
557.410339	146.720000
557.503906	146.100000
557.597473	146.220000
557.691040	146.140000
557.784668	146.540000
557.878296	146.420000
557.971863	146.720000
558.065491	146.620000
558.159058	146.020000
558.252686	146.340000
558.346252	146.900000
558.439880	146.380000
558.533447	145.920000
558.627075	146.240000
558.720642	145.520000
558.814270	145.280000
558.907837	145.720000
559.001465	145.900000
559.095032	146.380000
559.188660	146.800000
559.282227	146.100000
559.375854	146.580000
559.469360	146.480000
559.562988	146.380000
559.656555	146.220000
559.750183	146.980000
559.843750	146.700000
559.937378	146.920000
560.030945	146.820000
560.124573	0.000000
560.218140	0.000000
560.311707	0.000000
560.405334	0.000000
560.498901	0.000000
560.592529	0.000000
560.686096	0.000000
560.779724	0.000000
560.873291	0.000000
560.966858	0.000000
561.060425	0.000000
561.154053	0.000000
561.247620	0.000000
561.341248	0.000000
561.434814	0.000000
561.528381	0.000000
561.621948	0.000000
561.715576	0.000000
561.809143	0.000000
561.902771	0.000000
561.996277	0.000000
562.089905	0.000000
562.183472	0.000000
562.277100	0.000000
