Model Number: SPM-002-B   
Serial Number: 70087108
Firmware Version: 004.15.4
Exposure Time: 100000.000000us
Data Taken on: 11-12-2020 18:52:35.897
Wavelength	Amplitude
221.570786	0.000000
221.663406	0.000000
221.756027	0.000000
221.848648	0.000000
221.941269	0.000000
222.033905	0.000000
222.126526	0.000000
222.219162	0.000000
222.311798	0.000000
222.404419	0.000000
222.497055	0.000000
222.589676	0.000000
222.682312	0.000000
222.774933	0.000000
222.867569	0.000000
222.960205	0.000000
223.052841	0.000000
223.145462	0.000000
223.238098	0.000000
223.330734	0.000000
223.423386	0.000000
223.516022	0.000000
223.608658	0.000000
223.701309	0.000000
223.793945	0.000000
223.886581	0.000000
223.979218	0.000000
224.071869	0.000000
224.164505	0.000000
224.257156	0.000000
224.349792	0.000000
224.442444	0.000000
224.535095	0.000000
224.627747	0.000000
224.720398	0.000000
224.813034	0.000000
224.905685	0.000000
224.998337	145.340000
225.090988	145.260000
225.183640	145.400000
225.276291	145.260000
225.368942	145.340000
225.461594	145.680000
225.554245	145.880000
225.646912	145.780000
225.739578	146.360000
225.832230	147.020000
225.924896	146.440000
226.017548	146.520000
226.110199	147.260000
226.202866	146.280000
226.295532	145.900000
226.388184	145.760000
226.480850	145.480000
226.573517	144.900000
226.666168	145.400000
226.758835	145.600000
226.851501	146.580000
226.944183	146.640000
227.036850	146.260000
227.129517	146.140000
227.222183	146.200000
227.314850	145.960000
227.407516	146.180000
227.500198	147.060000
227.592865	146.720000
227.685532	146.340000
227.778214	145.820000
227.870880	145.900000
227.963562	145.940000
228.056229	146.700000
228.148926	146.600000
228.241592	147.460000
228.334274	147.140000
228.426956	146.760000
228.519638	146.460000
228.612305	146.180000
228.704987	145.880000
228.797668	145.960000
228.890350	146.040000
228.983032	145.660000
229.075714	146.660000
229.168396	146.320000
229.261108	146.280000
229.353790	146.100000
229.446472	146.160000
229.539169	145.720000
229.631851	145.500000
229.724533	145.600000
229.817230	145.740000
229.909912	146.800000
230.002609	146.840000
230.095306	147.000000
230.187988	146.980000
230.280685	146.800000
230.373383	145.740000
230.466095	145.540000
230.558792	145.680000
230.651474	145.500000
230.744171	145.560000
230.836868	145.460000
230.929581	145.800000
231.022278	146.000000
231.114975	146.000000
231.207672	145.800000
231.300369	146.460000
231.393082	146.280000
231.485779	146.100000
231.578506	146.280000
231.671204	146.320000
231.763916	145.780000
231.856613	145.680000
231.949326	145.720000
232.042023	145.580000
232.134735	145.900000
232.227448	145.720000
232.320160	146.240000
232.412872	146.360000
232.505585	147.200000
232.598297	147.480000
232.691010	147.620000
232.783722	146.900000
232.876450	147.280000
232.969162	146.600000
233.061874	145.840000
233.154587	145.740000
233.247314	146.040000
233.340027	145.500000
233.432739	145.980000
233.525467	145.920000
233.618179	146.420000
233.710907	146.020000
233.803635	146.180000
233.896347	145.640000
233.989090	146.460000
234.081818	146.160000
234.174545	146.320000
234.267258	145.820000
234.359985	146.040000
234.452713	145.740000
234.545441	145.780000
234.638168	145.920000
234.730896	146.720000
234.823639	146.660000
234.916367	146.980000
235.009094	147.080000
235.101822	147.120000
235.194580	146.880000
235.287308	147.060000
235.380051	146.340000
235.472778	146.360000
235.565521	146.400000
235.658249	145.760000
235.750992	145.420000
235.843719	145.380000
235.936462	145.640000
236.029205	145.380000
236.121948	145.380000
236.214691	146.060000
236.307449	147.040000
236.400192	146.580000
236.492935	146.540000
236.585678	146.900000
236.678421	146.480000
236.771164	146.060000
236.863907	146.420000
236.956665	146.820000
237.049408	148.360000
237.142151	148.120000
237.234909	148.600000
237.327652	148.560000
237.420410	148.220000
237.513153	147.080000
237.605927	146.780000
237.698669	146.280000
237.791428	145.600000
237.884186	146.120000
237.976944	145.580000
238.069702	146.320000
238.162445	145.720000
238.255203	145.820000
238.347961	145.900000
238.440720	146.100000
238.533478	145.580000
238.626266	145.620000
238.719025	146.120000
238.811783	145.800000
238.904541	145.580000
238.997314	145.780000
239.090073	145.480000
239.182831	145.480000
239.275604	146.140000
239.368362	146.180000
239.461136	145.880000
239.553909	146.180000
239.646667	145.880000
239.739441	145.340000
239.832214	145.720000
239.925003	146.080000
240.017761	146.520000
240.110535	147.180000
240.203308	146.800000
240.296082	146.700000
240.388855	146.820000
240.481628	147.220000
240.574417	147.240000
240.667191	147.500000
240.759964	147.200000
240.852737	147.240000
240.945526	146.500000
241.038315	146.000000
241.131088	145.900000
241.223877	146.040000
241.316650	145.240000
241.409439	145.480000
241.502228	145.400000
241.595001	145.920000
241.687790	146.260000
241.780579	146.740000
241.873367	147.080000
241.966141	147.320000
242.058929	146.520000
242.151718	146.300000
242.244507	146.440000
242.337311	145.440000
242.430099	145.620000
242.522903	146.120000
242.615692	145.840000
242.708481	145.640000
242.801270	146.160000
242.894073	146.000000
242.986862	145.980000
243.079651	146.520000
243.172455	146.420000
243.265244	146.900000
243.358063	146.360000
243.450867	146.560000
243.543655	146.420000
243.636459	146.440000
243.729263	146.520000
243.822067	146.920000
243.914856	147.080000
244.007660	146.980000
244.100464	147.080000
244.193268	146.480000
244.286072	146.500000
244.378876	146.020000
244.471680	145.800000
244.564499	146.140000
244.657318	146.860000
244.750122	147.140000
244.842926	146.620000
244.935745	146.960000
245.028549	146.360000
245.121368	146.080000
245.214172	145.720000
245.306992	146.300000
245.399796	145.960000
245.492615	146.140000
245.585434	145.740000
245.678253	145.880000
245.771072	145.740000
245.863892	145.840000
245.956711	146.120000
246.049530	145.840000
246.142349	145.500000
246.235168	145.440000
246.327988	145.760000
246.420807	145.520000
246.513626	146.060000
246.606445	146.040000
246.699280	145.940000
246.792099	145.700000
246.884918	145.280000
246.977753	144.740000
247.070587	145.240000
247.163422	145.460000
247.256241	145.680000
247.349075	146.260000
247.441895	146.140000
247.534729	145.820000
247.627563	145.780000
247.720383	146.200000
247.813217	146.040000
247.906052	146.360000
247.998886	146.420000
248.091736	146.340000
248.184570	146.020000
248.277405	146.120000
248.370239	146.840000
248.463074	147.380000
248.555908	147.800000
248.648743	147.480000
248.741592	147.580000
248.834427	146.640000
248.927261	145.800000
249.020111	145.920000
249.112946	146.600000
249.205795	146.220000
249.298630	146.740000
249.391495	146.960000
249.484344	146.440000
249.577179	146.100000
249.670029	146.420000
249.762878	146.880000
249.855728	147.040000
249.948563	147.440000
250.041412	146.880000
250.134262	147.080000
250.227112	146.740000
250.319962	146.740000
250.412827	146.500000
250.505692	146.200000
250.598541	145.800000
250.691391	145.540000
250.784241	145.600000
250.877106	145.700000
250.969955	145.780000
251.062805	146.600000
251.155670	147.140000
251.248520	146.800000
251.341385	146.820000
251.434235	147.140000
251.527100	146.580000
251.619965	146.340000
251.712814	147.180000
251.805695	147.060000
251.898560	147.060000
251.991425	147.040000
252.084290	146.760000
252.177155	145.760000
252.270020	145.320000
252.362885	145.520000
252.455750	145.660000
252.548615	145.520000
252.641479	145.780000
252.734360	146.180000
252.827240	145.940000
252.920105	145.740000
253.012970	145.760000
253.105850	145.480000
253.198715	145.220000
253.291595	145.200000
253.384460	144.980000
253.477341	144.860000
253.570221	145.320000
253.663086	145.220000
253.755966	146.000000
253.848846	145.920000
253.941727	146.440000
254.034592	146.380000
254.127472	145.900000
254.220367	145.580000
254.313248	146.040000
254.406128	145.700000
254.499008	145.640000
254.591904	146.760000
254.684784	147.260000
254.777664	147.280000
254.870544	146.920000
254.963440	146.940000
255.056335	146.700000
255.149216	145.780000
255.242111	146.040000
255.334991	146.520000
255.427887	146.640000
255.520767	146.600000
255.613663	147.140000
255.706558	146.620000
255.799438	146.340000
255.892334	146.000000
255.985229	146.060000
256.078125	145.680000
256.171021	145.680000
256.263916	146.360000
256.356812	146.860000
256.449707	146.560000
256.542603	146.300000
256.635498	146.860000
256.728394	146.560000
256.821289	146.320000
256.914215	146.760000
257.007080	147.240000
257.100006	147.040000
257.192932	147.140000
257.285828	147.240000
257.378723	146.800000
257.471619	146.580000
257.564545	146.120000
257.657440	146.180000
257.750336	146.520000
257.843262	146.300000
257.936157	147.540000
258.029053	147.900000
258.121979	147.820000
258.214874	147.440000
258.307800	147.340000
258.400696	145.780000
258.493622	145.560000
258.586517	144.980000
258.679443	145.460000
258.772339	145.420000
258.865265	145.440000
258.958160	145.000000
259.051086	145.920000
259.144012	145.460000
259.236938	146.480000
259.329834	146.760000
259.422791	146.840000
259.515717	145.720000
259.608612	145.500000
259.701538	145.500000
259.794464	145.760000
259.887390	145.860000
259.980316	146.180000
260.073212	146.220000
260.166138	145.100000
260.259064	145.140000
260.351990	146.140000
260.444916	146.560000
260.537842	147.060000
260.630768	147.900000
260.723694	147.460000
260.816620	146.800000
260.909546	146.280000
261.002472	145.820000
261.095398	145.400000
261.188354	145.560000
261.281281	145.240000
261.374207	145.360000
261.467133	145.920000
261.560089	145.920000
261.653015	145.700000
261.745972	146.220000
261.838867	146.960000
261.931824	146.720000
262.024780	146.340000
262.117706	146.900000
262.210663	147.040000
262.303589	146.500000
262.396515	146.440000
262.489471	147.460000
262.582397	147.020000
262.675354	146.420000
262.768280	146.780000
262.861237	146.860000
262.954163	146.500000
263.047119	146.680000
263.140045	146.520000
263.233002	146.360000
263.325958	146.180000
263.418884	145.800000
263.511841	145.940000
263.604797	146.120000
263.697723	145.980000
263.790680	145.880000
263.883636	146.400000
263.976593	146.140000
264.069550	146.340000
264.162476	145.880000
264.255463	145.960000
264.348419	145.540000
264.441376	145.520000
264.534332	145.460000
264.627289	145.960000
264.720245	146.360000
264.813202	145.920000
264.906158	146.340000
264.999115	146.780000
265.092072	146.700000
265.185028	147.000000
265.277985	147.500000
265.370941	147.400000
265.463898	147.060000
265.556854	146.720000
265.649811	145.620000
265.742798	145.780000
265.835754	145.700000
265.928711	145.880000
266.021667	145.800000
266.114655	146.500000
266.207611	146.740000
266.300568	146.140000
266.393585	145.840000
266.486511	146.300000
266.579498	145.440000
266.672485	145.160000
266.765442	145.240000
266.858429	145.680000
266.951385	145.400000
267.044342	145.800000
267.137329	145.820000
267.230316	146.260000
267.323273	145.840000
267.416260	146.440000
267.509216	146.220000
267.602203	146.360000
267.695160	146.360000
267.788147	146.240000
267.881134	145.640000
267.974091	145.980000
268.067078	145.520000
268.160065	145.360000
268.253052	145.020000
268.346008	145.200000
268.438995	144.820000
268.531982	145.160000
268.624969	145.100000
268.717987	145.700000
268.810944	145.620000
268.903961	145.980000
268.996948	145.460000
269.089905	145.820000
269.182892	145.520000
269.275879	146.000000
269.368866	145.600000
269.461853	145.920000
269.554871	145.700000
269.647858	145.960000
269.740845	145.800000
269.833832	146.600000
269.926819	146.580000
270.019806	146.520000
270.112793	146.180000
270.205811	146.160000
270.298798	145.760000
270.391785	146.560000
270.484772	146.680000
270.577789	146.620000
270.670776	146.360000
270.763763	146.360000
270.856750	145.600000
270.949768	145.160000
271.042786	145.740000
271.135773	145.960000
271.228790	146.180000
271.321808	146.160000
271.414795	146.160000
271.507782	145.740000
271.600800	145.380000
271.693817	145.340000
271.786804	145.640000
271.879822	146.100000
271.972809	145.980000
272.065826	146.600000
272.158844	146.040000
272.251831	146.320000
272.344849	146.160000
272.437866	145.840000
272.530853	145.520000
272.623871	145.960000
272.716888	144.940000
272.809906	145.360000
272.902893	145.700000
272.995911	145.280000
273.088928	145.140000
273.181946	145.560000
273.274963	145.020000
273.367981	145.120000
273.460999	145.240000
273.554047	145.860000
273.647003	146.340000
273.740051	146.300000
273.833069	146.360000
273.926086	146.860000
274.019135	145.960000
274.112152	145.680000
274.205170	145.980000
274.298187	146.420000
274.391205	145.800000
274.484222	146.160000
274.577240	146.180000
274.670258	145.920000
274.763306	145.440000
274.856323	146.360000
274.949341	146.340000
275.042358	146.400000
275.135406	146.260000
275.228424	146.720000
275.321442	146.120000
275.414490	145.780000
275.507507	146.100000
275.600525	146.620000
275.693573	146.040000
275.786591	145.800000
275.879669	146.120000
275.972656	145.680000
276.065735	145.560000
276.158752	146.280000
276.251801	147.140000
276.344818	147.400000
276.437866	147.640000
276.530884	147.460000
276.623932	146.520000
276.716980	146.240000
276.809998	146.080000
276.903046	146.120000
276.996094	146.720000
277.089111	147.300000
277.182159	147.400000
277.275208	147.100000
277.368256	146.680000
277.461304	146.140000
277.554321	145.600000
277.647369	145.580000
277.740417	145.980000
277.833466	146.100000
277.926514	146.080000
278.019562	146.720000
278.112610	146.040000
278.205688	145.760000
278.298706	146.040000
278.391785	145.860000
278.484833	145.320000
278.577881	145.480000
278.670929	145.940000
278.763977	145.660000
278.857025	146.280000
278.950073	146.520000
279.043121	146.320000
279.136169	146.160000
279.229248	146.180000
279.322296	146.020000
279.415344	145.940000
279.508392	146.020000
279.601440	145.680000
279.694519	145.720000
279.787567	145.300000
279.880615	144.940000
279.973694	145.020000
280.066742	145.340000
280.159790	145.460000
280.252869	145.460000
280.345917	145.900000
280.438995	145.960000
280.532074	145.820000
280.625122	145.900000
280.718201	146.860000
280.811279	147.060000
280.904327	146.960000
280.997406	146.980000
281.090454	146.880000
281.183533	146.040000
281.276581	145.660000
281.369659	145.520000
281.462738	145.460000
281.555786	145.660000
281.648865	145.820000
281.741943	145.960000
281.835022	146.660000
281.928070	146.620000
282.021149	146.480000
282.114227	146.160000
282.207306	146.340000
282.300385	146.440000
282.393433	146.620000
282.486511	146.580000
282.579590	147.420000
282.672668	147.600000
282.765747	146.840000
282.858856	146.640000
282.951904	146.680000
283.045013	146.780000
283.138062	146.800000
283.231171	147.220000
283.324249	147.880000
283.417328	148.080000
283.510406	147.220000
283.603485	147.020000
283.696564	146.900000
283.789642	146.500000
283.882751	145.960000
283.975830	146.640000
284.068909	146.300000
284.161987	146.780000
284.255066	146.120000
284.348175	146.460000
284.441254	146.180000
284.534332	146.680000
284.627441	146.200000
284.720520	146.320000
284.813599	146.360000
284.906708	146.240000
284.999786	145.520000
285.092896	145.260000
285.185974	146.160000
285.279053	145.660000
285.372192	145.660000
285.465240	146.260000
285.558380	146.580000
285.651459	146.120000
285.744568	147.000000
285.837677	146.660000
285.930756	146.720000
286.023865	146.500000
286.116943	146.040000
286.210052	145.940000
286.303162	146.240000
286.396240	146.000000
286.489349	145.740000
286.582458	146.180000
286.675568	145.760000
286.768646	145.800000
286.861755	145.880000
286.954865	146.880000
287.047974	146.520000
287.141083	146.280000
287.234161	145.960000
287.327271	145.840000
287.420380	145.620000
287.513519	145.560000
287.606598	145.720000
287.699738	146.080000
287.792816	145.940000
287.885956	145.560000
287.979034	145.600000
288.072174	145.840000
288.165283	145.560000
288.258392	146.240000
288.351501	145.580000
288.444611	146.040000
288.537720	146.300000
288.630859	146.540000
288.723969	146.280000
288.817078	147.080000
288.910187	146.980000
289.003296	146.320000
289.096436	145.720000
289.189545	145.380000
289.282654	145.000000
289.375763	145.220000
289.468903	145.860000
289.562012	146.240000
289.655121	146.340000
289.748260	146.500000
289.841400	146.620000
289.934509	146.160000
290.027649	146.240000
290.120728	146.080000
290.213898	146.220000
290.306976	146.060000
290.400146	146.240000
290.493256	145.940000
290.586395	146.520000
290.679535	146.740000
290.772644	146.380000
290.865784	145.440000
290.958893	145.800000
291.052032	145.240000
291.145172	145.060000
291.238281	144.760000
291.331421	145.480000
291.424561	145.780000
291.517670	145.740000
291.610809	145.880000
291.703949	145.920000
291.797089	146.080000
291.890228	145.460000
291.983337	145.480000
292.076477	145.100000
292.169617	145.420000
292.262756	145.380000
292.355927	145.620000
292.449036	145.480000
292.542206	145.680000
292.635315	145.880000
292.728485	146.120000
292.821625	145.720000
292.914764	146.860000
293.007904	146.940000
293.101044	146.860000
293.194183	146.520000
293.287323	146.820000
293.380463	145.980000
293.473602	145.860000
293.566742	145.960000
293.659882	146.500000
293.753021	146.600000
293.846191	146.480000
293.939331	146.080000
294.032471	145.660000
294.125610	145.380000
294.218781	145.720000
294.311920	145.740000
294.405060	145.940000
294.498230	146.160000
294.591370	146.200000
294.684540	145.600000
294.777679	145.420000
294.870850	145.800000
294.963959	145.760000
295.057159	145.460000
295.150299	145.920000
295.243469	146.120000
295.336609	145.420000
295.429779	145.540000
295.522919	145.920000
295.616089	145.780000
295.709229	146.200000
295.802399	146.560000
295.895569	146.460000
295.988708	146.200000
296.081879	146.340000
296.175018	145.760000
296.268188	145.740000
296.361359	145.880000
296.454529	146.000000
296.547668	145.540000
296.640839	146.100000
296.734009	145.760000
296.827179	145.900000
296.920319	146.120000
297.013519	146.080000
297.106659	145.840000
297.199860	146.060000
297.292999	146.080000
297.386200	145.740000
297.479309	145.500000
297.572510	145.340000
297.665680	145.200000
297.758850	145.080000
297.852020	144.940000
297.945190	144.940000
298.038361	144.820000
298.131531	146.000000
298.224701	146.020000
298.317871	145.840000
298.411072	145.620000
298.504242	145.600000
298.597412	144.560000
298.690582	144.640000
298.783752	144.560000
298.876923	145.520000
298.970093	145.880000
299.063293	146.540000
299.156464	146.700000
299.249634	147.060000
299.342834	146.760000
299.436005	147.100000
299.529205	146.460000
299.622345	146.480000
299.715576	145.900000
299.808716	145.800000
299.901917	145.560000
299.995117	146.240000
300.088287	146.160000
300.181488	146.320000
300.274658	146.280000
300.367828	146.280000
300.461029	145.960000
300.554199	145.980000
300.647400	146.140000
300.740601	146.860000
300.833771	146.660000
300.926971	147.020000
301.020142	146.480000
301.113342	146.380000
301.206512	146.060000
301.299713	146.240000
301.392914	145.920000
301.486084	146.600000
301.579285	146.760000
301.672516	146.740000
301.765686	146.260000
301.858887	146.260000
301.952057	145.840000
302.045288	145.760000
302.138458	145.720000
302.231659	146.000000
302.324860	145.820000
302.418060	145.640000
302.511261	145.860000
302.604462	146.160000
302.697662	145.880000
302.790863	145.700000
302.884064	145.300000
302.977264	145.320000
303.070465	145.080000
303.163666	145.740000
303.256866	146.360000
303.350067	146.640000
303.443268	146.240000
303.536469	146.340000
303.629669	145.540000
303.722870	145.300000
303.816071	145.360000
303.909271	145.620000
304.002472	145.100000
304.095673	145.240000
304.188934	144.380000
304.282104	145.340000
304.375336	145.420000
304.468506	145.580000
304.561768	145.440000
304.654968	146.260000
304.748169	145.500000
304.841370	145.140000
304.934601	145.380000
305.027802	145.440000
305.121002	145.100000
305.214233	145.200000
305.307434	145.520000
305.400665	146.000000
305.493866	145.960000
305.587097	146.600000
305.680298	146.480000
305.773499	146.560000
305.866730	145.960000
305.959930	146.840000
306.053162	146.600000
306.146393	146.360000
306.239594	145.840000
306.332825	146.060000
306.426025	145.980000
306.519287	145.740000
306.612488	146.240000
306.705719	146.540000
306.798920	146.300000
306.892181	145.780000
306.985352	145.600000
307.078613	144.740000
307.171844	145.080000
307.265045	144.820000
307.358276	144.500000
307.451508	144.660000
307.544739	145.560000
307.637970	145.000000
307.731201	145.260000
307.824402	146.000000
307.917633	146.480000
308.010864	146.720000
308.104095	147.180000
308.197327	147.320000
308.290558	146.920000
308.383789	146.420000
308.477020	145.840000
308.570251	145.340000
308.663483	145.100000
308.756714	144.740000
308.849976	144.880000
308.943176	145.320000
309.036438	145.400000
309.129639	145.160000
309.222900	145.680000
309.316101	145.440000
309.409393	144.720000
309.502625	144.520000
309.595856	144.660000
309.689087	144.540000
309.782318	144.820000
309.875580	144.960000
309.968811	145.260000
310.062042	145.180000
310.155273	145.220000
310.248535	145.560000
310.341766	145.520000
310.434998	145.300000
310.528259	145.160000
310.621490	145.200000
310.714722	144.560000
310.807983	144.740000
310.901215	144.900000
310.994476	145.420000
311.087708	145.120000
311.181000	145.420000
311.274200	145.240000
311.367462	145.140000
311.460693	144.640000
311.553986	145.620000
311.647186	145.740000
311.740479	146.380000
311.833710	146.340000
311.926971	146.480000
312.020203	145.340000
312.113464	145.260000
312.206726	144.440000
312.299957	145.040000
312.393219	145.540000
312.486481	145.940000
312.579712	145.660000
312.672974	146.280000
312.766235	146.060000
312.859497	145.820000
312.952759	145.940000
313.045990	146.800000
313.139252	146.120000
313.232513	146.220000
313.325775	146.300000
313.419037	146.040000
313.512299	145.060000
313.605530	145.440000
313.698822	145.400000
313.792053	145.320000
313.885345	145.060000
313.978577	145.340000
314.071869	145.060000
314.165131	145.400000
314.258392	145.480000
314.351654	145.780000
314.444916	145.280000
314.538177	145.780000
314.631439	145.860000
314.724701	145.860000
314.817993	145.680000
314.911255	146.120000
315.004517	145.660000
315.097778	145.180000
315.191040	145.580000
315.284302	146.060000
315.377594	145.800000
315.470856	146.020000
315.564117	145.800000
315.657379	145.020000
315.750671	144.640000
315.843933	145.140000
315.937195	144.840000
316.030518	144.700000
316.123749	144.880000
316.217041	145.700000
316.310303	145.820000
316.403595	146.180000
316.496857	146.640000
316.590149	147.160000
316.683411	146.200000
316.776703	145.820000
316.869965	145.880000
316.963257	145.500000
317.056519	144.560000
317.149811	144.700000
317.243073	144.700000
317.336365	144.720000
317.429626	144.820000
317.522919	145.600000
317.616180	145.640000
317.709473	145.460000
317.802765	145.340000
317.896027	145.540000
317.989319	145.820000
318.082611	145.680000
318.175873	145.640000
318.269165	145.680000
318.362488	145.480000
318.455750	144.840000
318.549042	145.320000
318.642303	145.860000
318.735626	145.660000
318.828888	145.920000
318.922211	145.660000
319.015472	145.880000
319.108765	145.400000
319.202057	145.100000
319.295349	145.280000
319.388641	145.520000
319.481934	145.420000
319.575226	145.380000
319.668518	146.020000
319.761810	146.100000
319.855103	146.220000
319.948395	146.000000
320.041687	146.100000
320.134979	145.900000
320.228271	145.340000
320.321564	145.360000
320.414856	145.160000
320.508148	145.000000
320.601440	144.780000
320.694763	144.880000
320.788025	145.440000
320.881348	145.800000
320.974640	146.080000
321.067963	146.020000
321.161224	146.100000
321.254547	145.280000
321.347839	145.380000
321.441162	145.000000
321.534454	145.380000
321.627747	145.520000
321.721069	146.040000
321.814362	145.940000
321.907654	146.120000
322.000946	146.200000
322.094269	146.580000
322.187561	146.420000
322.280884	146.700000
322.374176	146.900000
322.467468	147.140000
322.560791	147.100000
322.654083	147.440000
322.747406	147.640000
322.840698	147.740000
322.934021	147.840000
323.027344	147.920000
323.120636	147.340000
323.213959	146.920000
323.307251	146.580000
323.400574	146.060000
323.493866	145.320000
323.587219	145.760000
323.680511	145.940000
323.773834	146.120000
323.867157	146.180000
323.960449	146.460000
324.053772	146.440000
324.147095	146.000000
324.240387	146.580000
324.333710	146.640000
324.427032	147.100000
324.520355	146.760000
324.613647	146.740000
324.706970	146.300000
324.800293	146.500000
324.893616	146.480000
324.986938	146.820000
325.080231	146.580000
325.173553	146.880000
325.266876	147.140000
325.360199	147.040000
325.453522	146.640000
325.546875	146.940000
325.640167	146.680000
325.733521	146.640000
325.826813	146.780000
325.920166	146.640000
326.013489	146.700000
326.106812	145.940000
326.200134	145.300000
326.293457	144.380000
326.386780	144.480000
326.480103	144.360000
326.573425	144.840000
326.666748	144.800000
326.760071	145.500000
326.853424	145.800000
326.946747	145.880000
327.040070	146.600000
327.133392	146.580000
327.226715	146.000000
327.320068	145.600000
327.413391	146.040000
327.506714	145.140000
327.600037	145.620000
327.693390	146.040000
327.786713	146.400000
327.880066	146.080000
327.973358	146.320000
328.066742	146.420000
328.160034	146.680000
328.253418	146.800000
328.346710	146.420000
328.440063	146.060000
328.533417	145.680000
328.626740	145.520000
328.720093	145.100000
328.813416	145.180000
328.906769	145.440000
329.000092	145.740000
329.093445	145.520000
329.186768	145.640000
329.280121	146.260000
329.373444	146.640000
329.466797	146.420000
329.560120	146.600000
329.653473	146.760000
329.746796	146.160000
329.840149	146.000000
329.933502	145.960000
330.026825	145.500000
330.120178	145.160000
330.213562	145.260000
330.306854	145.060000
330.400238	144.800000
330.493561	144.840000
330.586945	145.520000
330.680237	145.880000
330.773621	145.960000
330.866974	146.240000
330.960327	146.540000
331.053680	146.000000
331.147003	146.060000
331.240356	146.280000
331.333710	146.500000
331.427063	146.380000
331.520416	146.480000
331.613770	146.000000
331.707123	146.160000
331.800476	146.160000
331.893829	146.900000
331.987152	146.940000
332.080505	147.040000
332.173859	146.720000
332.267212	146.240000
332.360565	145.480000
332.453918	145.300000
332.547333	145.280000
332.640656	145.440000
332.734039	145.500000
332.827362	145.580000
332.920746	145.940000
333.014069	146.460000
333.107452	146.700000
333.200806	146.960000
333.294159	147.280000
333.387543	146.940000
333.480896	146.200000
333.574249	145.820000
333.667603	145.620000
333.760956	145.440000
333.854340	145.300000
333.947693	145.600000
334.041046	145.800000
334.134430	146.100000
334.227783	145.880000
334.321136	145.900000
334.414520	145.640000
334.507874	145.540000
334.601227	145.440000
334.694611	145.760000
334.787964	146.000000
334.881348	146.500000
334.974701	146.440000
335.068085	146.100000
335.161438	146.140000
335.254822	145.940000
335.348175	145.540000
335.441559	145.220000
335.534943	145.980000
335.628296	145.680000
335.721680	145.540000
335.815033	145.880000
335.908417	146.280000
336.001770	145.740000
336.095154	145.480000
336.188538	145.460000
336.281891	144.880000
336.375275	144.360000
336.468658	144.140000
336.562012	144.300000
336.655396	144.740000
336.748779	145.440000
336.842133	146.200000
336.935516	146.600000
337.028900	146.660000
337.122284	146.600000
337.215637	146.420000
337.309021	146.000000
337.402435	145.520000
337.495789	145.300000
337.589203	145.300000
337.682526	144.900000
337.775940	145.100000
337.869324	145.600000
337.962708	145.460000
338.056091	145.900000
338.149475	145.840000
338.242859	145.680000
338.336243	145.540000
338.429626	145.840000
338.523010	145.180000
338.616394	145.120000
338.709778	145.220000
338.803162	145.340000
338.896545	145.300000
338.989929	145.160000
339.083313	145.500000
339.176697	145.200000
339.270081	145.120000
339.363464	145.400000
339.456848	145.980000
339.550232	145.360000
339.643616	145.500000
339.737030	145.300000
339.830383	145.300000
339.923828	145.300000
340.017181	145.800000
340.110596	145.840000
340.203949	145.780000
340.297363	145.380000
340.390778	145.120000
340.484161	145.080000
340.577545	145.280000
340.670959	145.460000
340.764343	145.900000
340.857727	145.980000
340.951111	145.500000
341.044525	145.380000
341.137909	144.760000
341.231293	144.520000
341.324707	144.080000
341.418091	145.040000
341.511505	145.400000
341.604889	146.160000
341.698303	146.300000
341.791687	146.720000
341.885071	146.220000
341.978485	145.600000
342.071899	145.620000
342.165283	145.880000
342.258698	146.100000
342.352081	146.680000
342.445496	147.640000
342.538879	147.340000
342.632324	146.840000
342.725708	146.360000
342.819122	145.780000
342.912506	145.100000
343.005920	145.120000
343.099335	145.940000
343.192719	146.100000
343.286133	145.900000
343.379547	146.120000
343.472931	146.360000
343.566345	145.620000
343.659760	145.840000
343.753143	145.880000
343.846558	145.460000
343.939972	145.560000
344.033386	146.400000
344.126770	146.260000
344.220184	146.420000
344.313599	146.880000
344.407043	146.620000
344.500427	145.620000
344.593872	145.900000
344.687225	145.680000
344.780670	145.080000
344.874054	144.900000
344.967499	145.360000
345.060913	145.320000
345.154327	145.540000
345.247742	145.320000
345.341156	145.480000
345.434570	145.060000
345.527985	144.900000
345.621399	144.780000
345.714813	145.060000
345.808228	145.460000
345.901642	145.480000
345.995056	145.200000
346.088470	145.580000
346.181885	145.840000
346.275299	145.280000
346.368713	145.440000
346.462128	145.340000
346.555573	145.120000
346.648987	145.400000
346.742401	145.480000
346.835815	145.800000
346.929260	145.560000
347.022644	145.660000
347.116119	145.820000
347.209503	146.120000
347.302948	146.600000
347.396362	147.520000
347.489807	147.600000
347.583221	147.620000
347.676636	147.140000
347.770050	146.060000
347.863495	145.460000
347.956909	145.380000
348.050323	144.800000
348.143768	145.060000
348.237183	145.280000
348.330597	145.640000
348.424042	145.680000
348.517456	146.000000
348.610901	146.420000
348.704315	146.260000
348.797760	145.840000
348.891174	145.260000
348.984619	144.580000
349.078033	144.480000
349.171448	145.160000
349.264923	144.960000
349.358337	145.200000
349.451782	145.780000
349.545197	145.240000
349.638641	144.560000
349.732086	144.440000
349.825500	145.080000
349.918945	144.520000
350.012390	145.060000
350.105804	145.520000
350.199249	145.900000
350.292664	146.000000
350.386108	146.240000
350.479553	146.540000
350.572968	146.240000
350.666412	146.360000
350.759857	146.220000
350.853302	146.840000
350.946716	146.360000
351.040161	146.580000
351.133606	146.720000
351.227081	146.300000
351.320465	146.720000
351.413940	146.720000
351.507355	146.720000
351.600830	146.660000
351.694244	146.640000
351.787720	145.800000
351.881104	145.840000
351.974579	145.580000
352.067993	146.060000
352.161469	146.020000
352.254883	145.780000
352.348358	145.740000
352.441803	146.160000
352.535248	145.760000
352.628693	146.420000
352.722137	146.660000
352.815582	146.660000
352.909027	146.660000
353.002472	146.440000
353.095917	145.980000
353.189362	146.040000
353.282806	146.180000
353.376251	145.740000
353.469696	145.420000
353.563141	145.880000
353.656586	145.680000
353.750061	145.020000
353.843475	145.060000
353.936981	145.820000
354.030396	144.940000
354.123871	145.060000
354.217285	146.140000
354.310760	146.700000
354.404175	146.600000
354.497681	146.780000
354.591095	146.940000
354.684570	145.840000
354.777985	145.260000
354.871490	144.740000
354.964935	145.000000
355.058380	145.080000
355.151855	145.340000
355.245300	145.840000
355.338745	146.100000
355.432220	146.080000
355.525665	145.580000
355.619110	146.160000
355.712585	145.780000
355.806030	145.820000
355.899475	145.460000
355.992950	145.860000
356.086426	145.960000
356.179871	146.060000
356.273346	146.260000
356.366791	146.660000
356.460266	146.940000
356.553711	146.240000
356.647186	146.040000
356.740631	145.500000
356.834106	145.040000
356.927551	144.980000
357.021027	145.040000
357.114471	145.360000
357.207947	145.900000
357.301422	146.440000
357.394867	146.000000
357.488342	146.480000
357.581818	146.160000
357.675262	146.240000
357.768738	146.140000
357.862213	145.980000
357.955658	145.760000
358.049133	146.120000
358.142609	146.280000
358.236053	145.940000
358.329529	146.040000
358.423035	146.320000
358.516449	146.020000
358.609955	146.200000
358.703400	146.900000
358.796906	147.220000
358.890350	146.700000
358.983826	146.880000
359.077271	146.000000
359.170776	145.420000
359.264221	144.980000
359.357727	144.980000
359.451172	145.300000
359.544647	145.520000
359.638123	145.260000
359.731598	145.800000
359.825073	146.280000
359.918549	146.020000
360.012024	146.360000
360.105499	146.300000
360.198975	146.420000
360.292450	146.180000
360.385925	146.160000
360.479401	145.640000
360.572876	145.920000
360.666351	145.900000
360.759857	145.900000
360.853302	145.860000
360.946808	145.460000
361.040253	145.680000
361.133759	145.180000
361.227203	145.560000
361.320709	145.300000
361.414154	145.960000
361.507660	146.580000
361.601105	146.960000
361.694641	147.120000
361.788086	147.220000
361.881592	147.580000
361.975067	146.460000
362.068542	146.800000
362.162018	146.400000
362.255524	146.120000
362.348999	145.540000
362.442474	146.360000
362.535950	145.620000
362.629456	145.360000
362.722931	145.580000
362.816406	146.480000
362.909882	146.340000
363.003387	146.560000
363.096863	146.960000
363.190338	146.900000
363.283875	146.260000
363.377319	146.160000
363.470825	146.540000
363.564301	146.040000
363.657806	146.460000
363.751282	146.260000
363.844788	147.180000
363.938232	146.500000
364.031769	147.360000
364.125214	147.340000
364.218750	147.880000
364.312225	146.700000
364.405731	147.100000
364.499207	146.560000
364.592712	145.820000
364.686188	145.440000
364.779694	145.540000
364.873169	145.060000
364.966675	144.780000
365.060150	145.280000
365.153656	145.540000
365.247131	145.560000
365.340637	146.360000
365.434143	146.820000
365.527618	146.960000
365.621155	146.300000
365.714600	146.480000
365.808136	146.120000
365.901611	145.140000
365.995117	144.740000
366.088593	144.960000
366.182129	145.060000
366.275604	145.080000
366.369110	145.480000
366.462585	145.600000
366.556122	146.220000
366.649567	145.880000
366.743103	145.820000
366.836609	145.940000
366.930115	146.140000
367.023590	145.800000
367.117096	145.760000
367.210602	145.760000
367.304108	146.140000
367.397614	146.380000
367.491119	146.500000
367.584595	146.680000
367.678101	146.980000
367.771606	146.680000
367.865112	146.320000
367.958649	145.820000
368.052124	145.780000
368.145660	145.480000
368.239136	146.260000
368.332672	146.300000
368.426147	146.540000
368.519684	146.240000
368.613159	146.340000
368.706696	145.520000
368.800171	145.760000
368.893707	145.700000
368.987183	145.760000
369.080719	145.980000
369.174225	145.940000
369.267731	146.060000
369.361237	146.200000
369.454742	146.180000
369.548248	146.360000
369.641754	146.140000
369.735260	145.620000
369.828766	144.740000
369.922272	145.540000
370.015808	145.060000
370.109314	145.000000
370.202820	144.980000
370.296356	146.260000
370.389832	145.760000
370.483368	145.620000
370.576874	145.780000
370.670410	145.940000
370.763885	145.040000
370.857422	144.880000
370.950928	144.800000
371.044464	145.540000
371.137939	145.620000
371.231476	146.180000
371.324982	146.700000
371.418518	147.140000
371.512024	146.980000
371.605560	146.580000
371.699066	146.340000
371.792572	146.020000
371.886108	146.120000
371.979614	145.820000
372.073120	146.560000
372.166656	146.620000
372.260162	146.980000
372.353668	146.640000
372.447205	146.640000
372.540710	146.220000
372.634277	146.080000
372.727753	145.560000
372.821320	145.500000
372.914795	145.380000
373.008362	145.300000
373.101837	145.500000
373.195404	145.280000
373.288879	145.200000
373.382446	145.840000
373.475922	145.980000
373.569489	146.540000
373.662964	147.060000
373.756531	147.280000
373.850037	147.260000
373.943573	146.820000
374.037109	145.720000
374.130615	146.060000
374.224152	146.200000
374.317657	145.680000
374.411194	146.920000
374.504730	147.000000
374.598236	146.400000
374.691772	146.200000
374.785309	146.120000
374.878815	144.880000
374.972351	145.600000
375.065887	145.420000
375.159454	145.980000
375.252930	145.920000
375.346497	146.420000
375.440002	146.820000
375.533569	146.880000
375.627045	146.160000
375.720612	146.160000
375.814117	146.060000
375.907684	145.380000
376.001160	145.360000
376.094727	145.040000
376.188232	145.920000
376.281799	146.300000
376.375336	146.340000
376.468872	147.100000
376.562408	147.700000
376.655914	147.060000
376.749451	146.740000
376.842987	146.920000
376.936523	146.340000
377.030060	146.260000
377.123596	146.320000
377.217133	146.060000
377.310669	145.940000
377.404205	146.260000
377.497772	146.720000
377.591278	146.400000
377.684845	147.240000
377.778351	147.620000
377.871918	147.260000
377.965424	146.440000
378.058990	146.160000
378.152496	145.840000
378.246063	145.620000
378.339569	146.040000
378.433136	146.360000
378.526642	147.000000
378.620209	146.800000
378.713745	146.420000
378.807312	146.620000
378.900848	146.340000
378.994385	146.320000
379.087921	145.520000
379.181458	145.920000
379.274994	145.100000
379.368530	145.060000
379.462097	145.240000
379.555634	145.960000
379.649170	145.500000
379.742706	145.340000
379.836273	145.720000
379.929810	145.100000
380.023376	144.700000
380.116882	144.800000
380.210449	145.480000
380.303986	144.900000
380.397552	144.780000
380.491058	145.400000
380.584656	145.260000
380.678162	145.180000
380.771729	145.400000
380.865265	146.120000
380.958832	146.140000
381.052368	146.640000
381.145935	146.860000
381.239471	147.560000
381.333008	147.160000
381.426575	147.180000
381.520111	147.160000
381.613647	147.100000
381.707214	146.300000
381.800751	145.860000
381.894318	145.860000
381.987854	145.280000
382.081421	144.740000
382.174988	145.040000
382.268524	145.120000
382.362091	145.080000
382.455627	145.760000
382.549194	146.000000
382.642731	145.440000
382.736298	145.640000
382.829834	145.260000
382.923401	145.480000
383.016937	145.380000
383.110504	146.100000
383.204041	146.100000
383.297607	146.660000
383.391174	145.800000
383.484741	146.620000
383.578278	146.200000
383.671844	146.020000
383.765411	145.100000
383.858948	145.720000
383.952515	145.160000
384.046051	145.780000
384.139618	146.320000
384.233185	146.760000
384.326721	146.620000
384.420288	147.040000
384.513855	146.520000
384.607422	146.520000
384.700989	146.880000
384.794525	146.360000
384.888123	146.000000
384.981659	146.300000
385.075226	145.760000
385.168762	145.240000
385.262360	145.760000
385.355896	145.120000
385.449463	144.960000
385.542999	145.120000
385.636597	145.680000
385.730164	145.720000
385.823730	145.500000
385.917267	145.140000
386.010834	145.240000
386.104401	145.060000
386.197968	144.980000
386.291534	145.760000
386.385101	146.020000
386.478668	146.400000
386.572235	146.040000
386.665802	145.680000
386.759338	145.180000
386.852905	145.040000
386.946472	144.480000
387.040070	144.900000
387.133606	145.040000
387.227203	145.220000
387.320740	145.640000
387.414337	145.420000
387.507874	145.080000
387.601471	145.080000
387.695007	144.920000
387.788605	144.440000
387.882141	144.980000
387.975739	145.340000
388.069275	145.040000
388.162872	145.420000
388.256439	145.440000
388.350037	144.980000
388.443604	144.600000
388.537170	144.760000
388.630737	145.020000
388.724304	145.420000
388.817871	145.200000
388.911438	145.400000
389.005005	145.820000
389.098602	145.940000
389.192169	145.420000
389.285736	146.180000
389.379333	145.940000
389.472870	145.220000
389.566467	144.840000
389.660034	145.240000
389.753632	144.720000
389.847168	145.060000
389.940765	145.460000
390.034332	145.600000
390.127930	145.120000
390.221466	145.020000
390.315063	144.620000
390.408630	144.180000
390.502228	143.360000
390.595795	143.760000
390.689362	144.160000
390.782959	144.460000
390.876526	145.120000
390.970093	145.580000
391.063690	146.100000
391.157257	146.080000
391.250824	146.300000
391.344421	146.000000
391.437988	146.320000
391.531555	146.100000
391.625153	146.340000
391.718750	146.460000
391.812317	146.540000
391.905914	146.120000
391.999481	146.020000
392.093079	146.020000
392.186615	146.060000
392.280243	146.160000
392.373779	146.380000
392.467407	147.000000
392.560944	146.760000
392.654572	146.500000
392.748108	146.260000
392.841736	146.620000
392.935303	145.980000
393.028900	146.120000
393.122467	146.080000
393.216064	145.880000
393.309631	145.020000
393.403229	144.680000
393.496796	144.440000
393.590393	143.780000
393.683990	144.280000
393.777557	144.840000
393.871155	145.180000
393.964722	145.700000
394.058350	146.280000
394.151917	146.100000
394.245514	145.920000
394.339081	146.100000
394.432678	146.140000
394.526245	146.120000
394.619873	145.540000
394.713409	145.640000
394.807037	145.220000
394.900604	145.240000
394.994202	145.280000
395.087769	145.600000
395.181396	145.360000
395.274994	146.260000
395.368561	145.340000
395.462158	145.500000
395.555756	145.300000
395.649353	145.840000
395.742920	144.900000
395.836517	145.880000
395.930115	145.320000
396.023712	145.960000
396.117279	145.820000
396.210876	145.780000
396.304474	145.380000
396.398071	145.640000
396.491669	145.780000
396.585266	145.400000
396.678833	145.320000
396.772461	145.520000
396.866028	145.540000
396.959656	145.600000
397.053223	146.220000
397.146851	146.180000
397.240417	146.340000
397.334015	147.040000
397.427582	146.940000
397.521210	146.860000
397.614807	147.620000
397.708405	148.180000
397.802002	148.420000
397.895599	149.640000
397.989197	150.600000
398.082794	151.700000
398.176392	153.140000
398.269989	154.740000
398.363586	156.480000
398.457184	159.500000
398.550781	162.120000
398.644379	164.420000
398.737976	167.140000
398.831573	170.000000
398.925201	171.980000
399.018768	174.960000
399.112396	177.720000
399.205963	180.920000
399.299591	183.640000
399.393158	186.680000
399.486786	190.000000
399.580353	193.880000
399.673981	198.500000
399.767578	204.280000
399.861206	211.800000
399.954773	219.320000
400.048401	227.340000
400.141998	234.180000
400.235596	241.220000
400.329193	245.860000
400.422791	250.980000
400.516418	254.240000
400.610016	258.040000
400.703613	260.160000
400.797211	260.480000
400.890808	258.900000
400.984436	256.580000
401.078033	251.420000
401.171631	245.480000
401.265259	238.960000
401.358826	231.400000
401.452484	223.260000
401.546051	215.620000
401.639679	206.360000
401.733246	198.580000
401.826904	190.260000
401.920471	182.100000
402.014099	175.120000
402.107697	169.780000
402.201324	164.760000
402.294891	161.360000
402.388550	158.900000
402.482147	156.480000
402.575745	154.220000
402.669373	152.180000
402.762970	150.700000
402.856567	149.540000
402.950195	148.920000
403.043793	147.860000
403.137390	148.140000
403.231018	146.920000
403.324615	147.100000
403.418243	146.340000
403.511841	146.840000
403.605469	146.320000
403.699066	147.040000
403.792694	146.800000
403.886292	146.980000
403.979919	146.960000
404.073517	146.640000
404.167145	146.720000
404.260712	146.600000
404.354370	146.480000
404.447937	146.540000
404.541595	146.600000
404.635162	146.700000
404.728821	146.980000
404.822418	146.500000
404.916046	146.200000
405.009644	146.560000
405.103271	146.640000
405.196899	146.520000
405.290497	146.780000
405.384125	147.060000
405.477722	146.500000
405.571350	145.800000
405.664948	145.760000
405.758575	145.580000
405.852203	144.960000
405.945801	145.120000
406.039429	145.000000
406.133057	144.660000
406.226654	144.520000
406.320312	144.640000
406.413879	144.940000
406.507538	145.420000
406.601135	145.120000
406.694763	145.740000
406.788361	145.480000
406.882019	145.160000
406.975586	145.540000
407.069244	146.480000
407.162872	146.340000
407.256470	146.620000
407.350098	146.460000
407.443726	146.000000
407.537323	145.020000
407.630951	144.960000
407.724579	144.700000
407.818207	145.300000
407.911804	144.980000
408.005432	145.360000
408.099060	145.500000
408.192688	145.800000
408.286285	145.480000
408.379913	145.520000
408.473572	145.720000
408.567169	145.200000
408.660828	145.180000
408.754395	145.000000
408.848053	144.840000
408.941650	144.820000
409.035309	144.860000
409.128906	144.840000
409.222565	144.980000
409.316132	145.320000
409.409790	145.080000
409.503387	145.240000
409.597046	145.560000
409.690674	145.640000
409.784302	145.760000
409.877930	145.700000
409.971558	145.800000
410.065186	145.320000
410.158783	145.160000
410.252411	145.140000
410.346039	145.560000
410.439667	145.240000
410.533295	145.700000
410.626923	146.200000
410.720551	145.940000
410.814209	146.220000
410.907806	146.860000
411.001465	146.380000
411.095062	146.420000
411.188721	146.740000
411.282318	146.500000
411.375977	146.140000
411.469574	146.380000
411.563232	145.960000
411.656830	145.680000
411.750488	145.180000
411.844086	144.760000
411.937744	145.000000
412.031372	144.900000
412.125000	144.900000
412.218628	145.080000
412.312256	145.860000
412.405884	146.100000
412.499512	146.140000
412.593170	146.080000
412.686798	146.260000
412.780426	145.660000
412.874054	145.720000
412.967682	145.740000
413.061310	146.560000
413.154968	146.820000
413.248566	147.280000
413.342224	146.920000
413.435852	146.860000
413.529510	146.140000
413.623108	145.480000
413.716766	145.220000
413.810364	145.460000
413.904022	145.260000
413.997650	145.000000
414.091309	146.040000
414.184906	146.140000
414.278564	145.600000
414.372192	146.220000
414.465851	146.720000
414.559479	145.700000
414.653107	146.280000
414.746735	146.140000
414.840393	145.620000
414.934021	145.660000
415.027649	145.420000
415.121277	145.280000
415.214935	145.920000
415.308563	146.140000
415.402191	145.640000
415.495850	146.160000
415.589478	145.700000
415.683136	145.200000
415.776733	145.280000
415.870422	145.900000
415.964020	145.440000
416.057678	145.320000
416.151306	145.600000
416.244965	145.380000
416.338562	145.280000
416.432251	146.020000
416.525848	146.880000
416.619507	147.120000
416.713165	147.560000
416.806793	147.700000
416.900421	147.420000
416.994080	146.380000
417.087708	146.020000
417.181366	145.400000
417.274994	145.020000
417.368622	145.280000
417.462280	146.040000
417.555908	146.180000
417.649567	146.400000
417.743195	146.660000
417.836853	146.480000
417.930481	146.440000
418.024170	146.340000
418.117767	146.820000
418.211426	146.880000
418.305054	147.040000
418.398712	146.540000
418.492340	146.680000
418.585999	146.820000
418.679626	146.800000
418.773285	146.520000
418.866913	147.080000
418.960571	147.280000
419.054230	146.940000
419.147858	146.820000
419.241516	146.960000
419.335144	146.240000
419.428802	146.100000
419.522461	145.820000
419.616089	145.640000
419.709747	145.800000
419.803375	146.260000
419.897034	145.980000
419.990662	146.220000
420.084320	146.560000
420.177979	146.760000
420.271606	146.720000
420.365295	147.100000
420.458893	147.040000
420.552582	147.140000
420.646210	146.820000
420.739868	146.780000
420.833496	146.380000
420.927155	146.100000
421.020782	145.700000
421.114471	145.240000
421.208069	145.400000
421.301758	145.860000
421.395386	146.080000
421.489044	146.000000
421.582703	146.400000
421.676361	146.560000
421.769989	146.140000
421.863647	146.480000
421.957306	146.480000
422.050934	146.600000
422.144592	146.240000
422.238251	145.820000
422.331909	145.380000
422.425537	145.560000
422.519196	145.400000
422.612854	145.000000
422.706543	145.180000
422.800140	145.340000
422.893829	145.100000
422.987457	145.120000
423.081146	145.400000
423.174744	145.740000
423.268433	145.320000
423.362061	145.120000
423.455750	144.740000
423.549347	144.760000
423.643036	143.980000
423.736664	144.700000
423.830353	145.100000
423.924011	145.840000
424.017639	145.640000
424.111298	146.200000
424.204956	145.960000
424.298615	145.920000
424.392273	145.240000
424.485931	145.480000
424.579559	145.760000
424.673218	145.340000
424.766876	145.420000
424.860535	145.480000
424.954193	145.280000
425.047882	145.460000
425.141510	145.880000
425.235199	145.800000
425.328796	145.660000
425.422485	145.580000
425.516113	144.940000
425.609802	144.860000
425.703430	144.980000
425.797119	144.820000
425.890747	145.140000
425.984436	145.540000
426.078064	145.600000
426.171753	145.420000
426.265411	145.580000
426.359070	145.540000
426.452728	145.440000
426.546356	145.400000
426.640015	145.500000
426.733673	145.780000
426.827332	145.520000
426.920990	146.100000
427.014648	145.380000
427.108307	145.180000
427.201965	145.400000
427.295624	145.780000
427.389282	145.020000
427.482941	145.700000
427.576630	145.680000
427.670258	144.900000
427.763947	144.440000
427.857574	144.620000
427.951263	144.520000
428.044922	144.500000
428.138611	144.980000
428.232239	145.400000
428.325928	145.780000
428.419556	146.120000
428.513245	146.060000
428.606903	146.400000
428.700562	146.100000
428.794220	145.360000
428.887878	144.880000
428.981537	145.220000
429.075195	144.980000
429.168854	145.500000
429.262512	145.760000
429.356201	145.940000
429.449860	145.880000
429.543518	145.560000
429.637177	145.420000
429.730835	145.320000
429.824493	145.420000
429.918182	145.460000
430.011810	145.280000
430.105530	144.660000
430.199158	145.040000
430.292847	144.880000
430.386475	144.680000
430.480164	145.120000
430.573792	145.200000
430.667511	145.140000
430.761139	145.320000
430.854828	145.760000
430.948456	145.660000
431.042145	146.320000
431.135834	145.980000
431.229492	145.780000
431.323151	145.660000
431.416809	145.560000
431.510468	145.320000
431.604156	145.360000
431.697815	145.320000
431.791473	144.820000
431.885132	144.580000
431.978821	144.760000
432.072479	145.300000
432.166138	145.640000
432.259827	145.840000
432.353485	146.120000
432.447174	146.080000
432.540802	145.540000
432.634491	145.660000
432.728149	146.060000
432.821838	146.460000
432.915466	146.100000
433.009186	146.220000
433.102814	145.560000
433.196503	145.060000
433.290131	144.940000
433.383850	145.040000
433.477509	144.940000
433.571167	145.720000
433.664856	146.240000
433.758514	146.700000
433.852173	146.800000
433.945862	147.140000
434.039520	147.060000
434.133179	146.660000
434.226868	146.220000
434.320526	145.700000
434.414185	146.080000
434.507874	145.900000
434.601562	146.020000
434.695221	145.740000
434.788910	146.360000
434.882538	146.040000
434.976257	145.600000
435.069885	145.480000
435.163574	145.660000
435.257233	144.880000
435.350922	144.660000
435.444580	144.760000
435.538269	144.540000
435.631897	144.800000
435.725616	145.560000
435.819275	145.760000
435.912964	146.360000
436.006622	146.980000
436.100311	146.700000
436.193970	145.960000
436.287628	145.860000
436.381317	145.160000
436.474976	144.840000
436.568665	144.640000
436.662323	145.200000
436.756012	145.360000
436.849670	145.280000
436.943390	145.280000
437.037018	145.160000
437.130737	144.920000
437.224365	144.820000
437.318085	145.120000
437.411713	145.040000
437.505432	145.500000
437.599060	146.160000
437.692780	146.380000
437.786407	146.120000
437.880127	146.080000
437.973755	145.600000
438.067474	145.060000
438.161133	145.040000
438.254822	145.520000
438.348480	145.420000
438.442169	146.280000
438.535828	146.280000
438.629517	145.820000
438.723175	145.240000
438.816864	145.840000
438.910553	145.200000
439.004211	145.360000
439.097900	145.280000
439.191559	145.640000
439.285248	144.840000
439.378906	145.180000
439.472626	145.160000
439.566284	145.280000
439.659973	145.540000
439.753632	145.660000
439.847321	145.980000
439.940979	145.980000
440.034698	146.000000
440.128326	145.420000
440.222046	145.340000
440.315674	144.420000
440.409393	144.600000
440.503082	144.440000
440.596741	144.800000
440.690430	145.080000
440.784088	145.220000
440.877777	144.420000
440.971466	144.720000
441.065125	144.540000
441.158813	144.420000
441.252502	144.440000
441.346161	145.080000
441.439850	145.240000
441.533539	145.080000
441.627197	145.320000
441.720886	145.460000
441.814606	145.680000
441.908234	145.660000
442.001953	145.640000
442.095612	145.760000
442.189301	145.940000
442.282959	145.660000
442.376678	145.020000
442.470306	145.860000
442.564026	145.400000
442.657684	145.440000
442.751404	145.480000
442.845032	146.600000
442.938751	145.940000
443.032440	146.100000
443.126099	145.860000
443.219788	146.160000
443.313477	145.680000
443.407166	145.840000
443.500824	145.880000
443.594513	146.080000
443.688202	145.780000
443.781891	145.060000
443.875549	144.400000
443.969238	144.380000
444.062927	144.200000
444.156647	144.380000
444.250275	145.140000
444.343994	145.900000
444.437653	145.920000
444.531372	145.660000
444.625031	145.300000
444.718719	144.980000
444.812378	144.800000
444.906097	144.660000
444.999756	144.820000
445.093445	145.020000
445.187103	145.140000
445.280823	145.540000
445.374512	145.240000
445.468201	145.200000
445.561859	145.160000
445.655548	144.960000
445.749237	144.200000
445.842926	144.480000
445.936615	144.760000
446.030304	144.500000
446.123962	144.960000
446.217651	144.900000
446.311340	144.940000
446.405029	144.660000
446.498749	144.600000
446.592407	144.320000
446.686096	144.980000
446.779755	145.120000
446.873474	145.420000
446.967133	145.760000
447.060852	145.400000
447.154510	145.120000
447.248230	145.220000
447.341858	145.020000
447.435577	144.520000
447.529236	144.460000
447.622955	144.380000
447.716644	144.680000
447.810333	144.920000
447.904022	145.860000
447.997711	145.940000
448.091400	146.300000
448.185059	145.920000
448.278748	145.840000
448.372437	145.240000
448.466125	145.640000
448.559814	145.340000
448.653503	145.640000
448.747192	145.900000
448.840912	146.500000
448.934570	146.360000
449.028290	146.860000
449.121948	146.280000
449.215637	145.600000
449.309296	145.120000
449.403015	145.040000
449.496674	144.680000
449.590393	144.880000
449.684052	144.940000
449.777771	145.740000
449.871429	145.200000
449.965149	145.120000
450.058838	145.280000
450.152527	146.120000
450.246216	145.380000
450.339905	145.740000
450.433594	145.660000
450.527283	146.460000
450.620972	145.760000
450.714661	145.920000
450.808350	146.240000
450.902039	146.440000
450.995728	145.680000
451.089417	145.640000
451.183105	145.460000
451.276794	145.980000
451.370514	145.340000
451.464172	144.680000
451.557892	144.680000
451.651550	144.820000
451.745270	143.820000
451.838928	143.680000
451.932648	144.240000
452.026306	144.600000
452.120026	144.160000
452.213684	144.840000
452.307404	145.400000
452.401062	145.580000
452.494781	145.700000
452.588470	146.020000
452.682159	145.360000
452.775848	145.440000
452.869537	145.140000
452.963226	144.800000
453.056915	144.700000
453.150604	145.020000
453.244293	144.960000
453.337982	145.380000
453.431671	145.480000
453.525360	146.020000
453.619049	146.000000
453.712769	146.100000
453.806427	145.680000
453.900146	145.380000
453.993805	144.900000
454.087555	145.480000
454.181213	145.540000
454.274933	145.500000
454.368591	145.780000
454.462311	145.700000
454.555969	145.020000
454.649689	145.720000
454.743347	145.560000
454.837067	146.020000
454.930756	146.520000
455.024445	146.820000
455.118134	145.940000
455.211853	146.220000
455.305542	145.580000
455.399231	145.220000
455.492920	145.160000
455.586609	145.620000
455.680298	145.760000
455.773987	145.640000
455.867676	145.540000
455.961365	145.420000
456.055084	145.200000
456.148773	144.800000
456.242493	144.960000
456.336151	145.260000
456.429871	145.720000
456.523529	145.880000
456.617249	145.560000
456.710907	146.160000
456.804626	145.640000
456.898315	145.000000
456.992035	144.840000
457.085693	145.160000
457.179413	144.160000
457.273102	145.460000
457.366791	145.480000
457.460480	145.820000
457.554199	146.640000
457.647888	147.140000
457.741577	146.560000
457.835266	146.580000
457.928955	146.580000
458.022644	146.500000
458.116364	146.540000
458.210052	146.020000
458.303741	146.140000
458.397461	145.440000
458.491119	144.720000
458.584839	144.760000
458.678528	144.740000
458.772247	144.860000
458.865906	144.920000
458.959625	146.020000
459.053284	145.880000
459.147003	145.800000
459.240692	146.340000
459.334412	146.480000
459.428070	145.560000
459.521790	145.320000
459.615479	145.240000
459.709198	145.240000
459.802887	144.960000
459.896576	145.060000
459.990265	145.120000
460.083954	145.560000
460.177673	145.100000
460.271362	145.320000
460.365051	145.220000
460.458740	145.160000
460.552429	144.840000
460.646149	144.840000
460.739838	144.620000
460.833527	144.680000
460.927246	144.800000
461.020905	144.500000
461.114655	144.360000
461.208313	144.860000
461.302032	144.480000
461.395691	144.720000
461.489441	145.220000
461.583099	145.220000
461.676819	144.800000
461.770477	145.440000
461.864197	144.960000
461.957916	144.720000
462.051605	144.560000
462.145294	145.700000
462.238983	145.180000
462.332703	145.860000
462.426392	146.780000
462.520081	146.920000
462.613770	145.860000
462.707489	146.340000
462.801178	146.040000
462.894867	145.300000
462.988556	145.380000
463.082275	145.560000
463.175964	145.140000
463.269684	145.340000
463.363342	145.540000
463.457092	144.940000
463.550751	145.300000
463.644470	145.480000
463.738129	145.140000
463.831879	145.060000
463.925537	145.840000
464.019257	145.600000
464.112946	145.820000
464.206665	146.040000
464.300323	145.920000
464.394043	145.800000
464.487762	145.920000
464.581451	146.020000
464.675140	145.740000
464.768829	145.920000
464.862549	145.760000
464.956238	145.940000
465.049927	145.980000
465.143646	146.180000
465.237335	145.880000
465.331024	146.400000
465.424713	146.000000
465.518433	145.880000
465.612152	145.860000
465.705811	146.340000
465.799561	146.080000
465.893219	145.880000
465.986938	145.620000
466.080597	145.300000
466.174347	145.220000
466.268005	145.140000
466.361725	145.340000
466.455414	145.600000
466.549133	145.700000
466.642792	145.620000
466.736542	145.140000
466.830231	145.360000
466.923920	144.980000
467.017609	145.040000
467.111328	144.600000
467.205017	144.920000
467.298706	144.760000
467.392426	145.140000
467.486115	145.560000
467.579803	145.700000
467.673523	145.740000
467.767212	145.820000
467.860901	145.660000
467.954651	145.600000
468.048309	145.940000
468.142029	146.100000
468.235718	146.120000
468.329437	145.700000
468.423096	145.660000
468.516846	145.300000
468.610504	144.880000
468.704224	144.580000
468.797913	144.700000
468.891632	144.600000
468.985291	144.600000
469.079010	145.120000
469.172729	144.860000
469.266418	145.620000
469.360107	145.820000
469.453827	145.700000
469.547516	145.540000
469.641205	146.380000
469.734924	146.220000
469.828613	146.520000
469.922302	146.820000
470.016022	146.580000
470.109711	146.220000
470.203430	145.560000
470.297150	144.720000
470.390808	144.700000
470.484558	144.700000
470.578217	144.980000
470.671936	145.700000
470.765625	146.420000
470.859344	146.360000
470.953003	146.560000
471.046753	146.080000
471.140411	145.500000
471.234131	145.740000
471.327820	146.200000
471.421539	146.140000
471.515228	146.080000
471.608948	146.120000
471.702637	145.320000
471.796326	144.920000
471.890045	145.140000
471.983734	145.280000
472.077423	145.240000
472.171143	145.440000
472.264832	145.260000
472.358521	145.100000
472.452240	144.980000
472.545929	145.580000
472.639648	145.680000
472.733337	146.200000
472.827057	146.220000
472.920746	146.380000
473.014465	146.400000
473.108124	146.500000
473.201874	146.360000
473.295532	146.340000
473.389252	146.640000
473.482941	146.680000
473.576660	146.340000
473.670319	145.880000
473.764069	145.960000
473.857727	145.780000
473.951477	145.760000
474.045166	146.420000
474.138855	146.640000
474.232574	146.620000
474.326263	146.620000
474.419952	146.760000
474.513672	146.240000
474.607361	146.060000
474.701050	146.260000
474.794769	146.800000
474.888458	146.800000
474.982178	146.980000
475.075867	147.120000
475.169586	146.640000
475.263275	145.860000
475.356995	145.580000
475.450653	145.320000
475.544403	144.960000
475.638062	146.060000
475.731812	145.940000
475.825470	145.760000
475.919189	146.160000
476.012878	146.800000
476.106598	145.900000
476.200256	146.080000
476.294006	145.940000
476.387695	145.800000
476.481384	145.480000
476.575104	145.780000
476.668793	145.640000
476.762512	145.460000
476.856201	145.480000
476.949890	145.320000
477.043610	144.400000
477.137299	144.460000
477.230988	144.780000
477.324707	144.540000
477.418396	145.120000
477.512146	145.820000
477.605804	146.040000
477.699524	146.200000
477.793213	146.000000
477.886932	145.740000
477.980591	145.400000
478.074341	145.260000
478.167999	144.740000
478.261749	144.900000
478.355408	144.640000
478.449127	145.220000
478.542816	146.080000
478.636536	146.760000
478.730225	147.040000
478.823944	147.460000
478.917633	146.980000
479.011322	146.440000
479.105042	146.200000
479.198730	146.280000
479.292450	145.920000
479.386139	146.080000
479.479828	146.140000
479.573547	146.380000
479.667267	146.120000
479.760925	146.300000
479.854675	146.300000
479.948334	146.280000
480.042084	145.540000
480.135742	145.780000
480.229462	145.280000
480.323151	145.540000
480.416870	145.060000
480.510529	145.360000
480.604279	145.020000
480.697937	145.660000
480.791656	145.100000
480.885345	144.940000
480.979065	144.900000
481.072754	145.440000
481.166473	145.320000
481.260132	145.500000
481.353882	145.660000
481.447540	145.520000
481.541260	145.340000
481.635010	145.140000
481.728668	145.140000
481.822388	145.460000
481.916077	145.760000
482.009796	145.600000
482.103485	145.840000
482.197205	146.080000
482.290863	146.080000
482.384613	145.620000
482.478271	145.260000
482.571991	145.060000
482.665680	144.680000
482.759399	145.300000
482.853058	145.800000
482.946808	145.860000
483.040466	146.000000
483.134216	146.180000
483.227875	145.580000
483.321594	146.300000
483.415283	146.520000
483.509003	146.480000
483.602661	146.140000
483.696411	146.240000
483.790070	145.520000
483.883789	145.400000
483.977478	145.480000
484.071198	145.680000
484.164917	145.360000
484.258606	144.940000
484.352325	145.160000
484.445984	145.260000
484.539734	145.440000
484.633392	145.100000
484.727142	145.760000
484.820801	145.720000
484.914520	145.660000
485.008209	145.780000
485.101929	146.520000
485.195587	146.160000
485.289337	146.040000
485.382996	145.960000
485.476715	146.120000
485.570404	146.260000
485.664124	146.400000
485.757782	147.020000
485.851532	146.920000
485.945190	146.540000
486.038910	146.480000
486.132599	146.820000
486.226318	146.020000
486.319977	145.880000
486.413727	146.460000
486.507446	145.900000
486.601105	145.080000
486.694855	145.180000
486.788513	145.220000
486.882233	145.000000
486.975922	145.060000
487.069641	145.280000
487.163300	145.400000
487.257050	146.340000
487.350708	145.920000
487.444427	145.800000
487.538116	145.940000
487.631836	145.400000
487.725494	144.920000
487.819214	144.880000
487.912903	144.820000
488.006622	145.260000
488.100281	145.960000
488.194031	145.760000
488.287689	146.020000
488.381409	146.600000
488.475098	146.020000
488.568817	145.760000
488.662476	145.440000
488.756226	145.100000
488.849945	144.280000
488.943604	144.480000
489.037354	144.840000
489.131012	145.020000
489.224731	144.940000
489.318390	145.540000
489.412140	145.660000
489.505798	145.160000
489.599518	144.940000
489.693207	145.740000
489.786926	145.360000
489.880585	144.900000
489.974335	145.300000
490.067993	146.620000
490.161713	146.460000
490.255371	147.420000
490.349121	147.760000
490.442780	147.580000
490.536499	146.440000
490.630188	146.380000
490.723907	145.440000
490.817566	145.420000
490.911285	145.300000
491.004974	144.920000
491.098694	144.260000
491.192413	145.080000
491.286102	145.000000
491.379822	145.340000
491.473480	146.000000
491.567200	146.320000
491.660889	145.520000
491.754608	145.300000
491.848267	144.920000
491.941986	144.560000
492.035675	144.600000
492.129395	145.220000
492.223053	145.340000
492.316772	145.660000
492.410461	145.600000
492.504181	145.480000
492.597839	144.980000
492.691559	145.000000
492.785248	144.940000
492.878967	145.160000
492.972626	145.220000
493.066345	145.140000
493.160034	144.900000
493.253754	144.840000
493.347412	144.600000
493.441132	144.880000
493.534882	145.660000
493.628540	146.060000
493.722260	146.300000
493.815918	146.680000
493.909668	146.840000
494.003326	146.700000
494.097046	146.520000
494.190704	146.160000
494.284454	146.020000
494.378113	145.880000
494.471832	145.320000
494.565491	145.260000
494.659210	145.440000
494.752899	145.320000
494.846619	144.900000
494.940277	145.340000
495.033997	145.220000
495.127686	144.920000
495.221405	144.860000
495.315063	144.940000
495.408783	144.880000
495.502441	145.360000
495.596191	145.720000
495.689850	145.420000
495.783569	145.700000
495.877228	145.480000
495.970947	145.040000
496.064697	144.920000
496.158356	145.960000
496.252075	145.920000
496.345734	146.140000
496.439453	146.840000
496.533142	146.900000
496.626862	146.760000
496.720520	146.920000
496.814240	147.000000
496.907898	146.640000
497.001617	146.780000
497.095306	145.840000
497.189026	145.640000
497.282684	145.280000
497.376404	145.540000
497.470062	145.220000
497.563782	145.760000
497.657471	145.760000
497.751190	145.480000
497.844849	145.240000
497.938568	145.620000
498.032227	145.660000
498.125946	145.780000
498.219635	146.020000
498.313354	145.780000
498.407074	145.340000
498.500732	145.460000
498.594452	145.560000
498.688110	145.240000
498.781830	145.040000
498.875519	145.160000
498.969238	144.880000
499.062897	144.540000
499.156616	145.120000
499.250275	145.320000
499.343994	145.280000
499.437653	145.160000
499.531372	145.360000
499.625061	145.900000
499.718781	146.060000
499.812439	146.240000
499.906158	146.320000
499.999817	145.860000
500.093536	145.060000
500.187195	145.140000
500.280914	145.160000
500.374573	145.480000
500.468323	145.500000
500.561981	145.840000
500.655701	145.400000
500.749420	145.140000
500.843079	145.320000
500.936798	145.620000
501.030457	146.100000
501.124176	146.620000
501.217834	146.600000
501.311554	146.200000
501.405212	146.020000
501.498962	145.100000
501.592621	144.920000
501.686340	145.100000
501.779999	145.140000
501.873718	145.480000
501.967377	145.700000
502.061096	145.900000
502.154755	145.560000
502.248474	145.840000
502.342133	145.740000
502.435852	145.740000
502.529510	146.160000
502.623230	146.700000
502.716888	146.040000
502.810608	146.160000
502.904266	146.580000
502.997986	145.900000
503.091705	145.580000
503.185364	145.620000
503.279083	145.440000
503.372772	145.100000
503.466492	144.880000
503.560150	145.120000
503.653870	145.520000
503.747528	145.500000
503.841248	145.560000
503.934906	146.280000
504.028625	145.740000
504.122284	145.880000
504.216003	146.420000
504.309662	145.840000
504.403381	145.480000
504.497040	145.680000
504.590759	145.100000
504.684418	145.100000
504.778137	145.620000
504.871796	145.800000
504.965515	145.640000
505.059174	146.140000
505.152893	145.400000
505.246521	145.060000
505.340240	144.720000
505.433899	144.960000
505.527618	144.980000
505.621338	145.580000
505.714996	145.520000
505.808716	145.560000
505.902374	145.860000
505.996094	145.960000
506.089752	145.680000
506.183472	146.140000
506.277130	146.300000
506.370850	146.140000
506.464508	145.960000
506.558228	146.120000
506.651886	146.000000
506.745605	145.980000
506.839264	146.000000
506.932983	146.180000
507.026611	145.900000
507.120331	146.220000
507.213989	145.580000
507.307709	145.340000
507.401367	145.260000
507.495087	146.200000
507.588745	145.700000
507.682465	146.820000
507.776123	147.100000
507.869843	147.180000
507.963531	146.580000
508.057190	147.020000
508.150909	146.140000
508.244568	146.340000
508.338287	145.840000
508.431946	145.200000
508.525665	144.880000
508.619324	144.840000
508.713013	144.840000
508.806671	145.320000
508.900391	146.480000
508.994049	146.640000
509.087769	146.580000
509.181427	146.340000
509.275146	145.800000
509.368774	144.580000
509.462494	144.480000
509.556152	144.840000
509.649872	145.100000
509.743530	145.420000
509.837250	145.800000
509.930878	145.620000
510.024597	145.460000
510.118256	145.300000
510.211975	145.180000
510.305695	145.360000
510.399353	145.660000
510.493042	145.820000
510.586700	145.940000
510.680420	146.320000
510.774078	146.240000
510.867798	146.240000
510.961426	145.880000
511.055145	145.700000
511.148804	145.660000
511.242523	146.060000
511.336151	146.200000
511.429871	146.720000
511.523529	146.600000
511.617249	146.120000
511.710876	145.520000
511.804596	145.320000
511.898254	145.180000
511.991974	145.540000
512.085632	145.740000
512.179321	146.180000
512.272949	146.420000
512.366699	146.860000
512.460327	146.560000
512.554077	147.540000
512.647766	147.440000
512.741394	147.300000
512.835144	147.500000
512.928772	147.460000
513.022461	146.780000
513.116150	146.460000
513.209839	146.800000
513.303467	146.260000
513.397217	145.900000
513.490845	145.680000
513.584595	145.540000
513.678223	144.660000
513.771912	144.020000
513.865601	144.560000
513.959290	144.420000
514.052917	144.800000
514.146667	145.780000
514.240295	146.460000
514.333984	146.640000
514.427673	146.540000
514.521362	146.800000
514.614990	145.960000
514.708740	145.920000
514.802368	145.860000
514.896057	145.980000
514.989746	146.400000
515.083435	146.400000
515.177124	146.420000
515.270752	146.080000
515.364502	146.220000
515.458130	145.920000
515.551819	145.920000
515.645508	145.840000
515.739197	145.920000
515.832825	145.760000
515.926575	145.200000
516.020203	145.440000
516.113892	145.940000
516.207520	145.780000
516.301270	146.140000
516.394897	146.520000
516.488586	147.220000
516.582275	146.860000
516.675964	146.360000
516.769592	145.760000
516.863281	146.320000
516.956970	146.280000
517.050659	146.180000
517.144287	146.740000
517.238037	147.140000
517.331665	146.140000
517.425354	145.300000
517.519043	145.060000
517.612732	145.220000
517.706421	144.980000
517.800049	145.040000
517.893738	144.800000
517.987427	144.820000
518.081116	144.440000
518.174744	144.300000
518.268433	144.800000
518.362122	145.740000
518.455811	146.180000
518.549438	147.000000
518.643127	148.140000
518.736816	147.540000
518.830505	146.920000
518.924133	146.640000
519.017822	146.360000
519.111511	145.560000
519.205200	146.180000
519.298828	146.260000
519.392517	145.900000
519.486206	146.180000
519.579895	146.260000
519.673523	145.880000
519.767212	146.060000
519.860901	146.760000
519.954590	146.220000
520.048279	145.820000
520.141907	145.900000
520.235596	146.800000
520.329224	146.640000
520.422974	146.580000
520.516602	146.780000
520.610291	146.380000
520.703918	145.780000
520.797607	145.380000
520.891296	145.220000
520.984985	145.600000
521.078613	146.320000
521.172302	145.620000
521.265930	146.480000
521.359680	147.240000
521.453308	146.540000
521.546997	146.180000
521.640625	146.500000
521.734314	145.520000
521.827942	145.140000
521.921692	145.620000
522.015320	145.820000
522.109009	145.420000
522.202698	145.760000
522.296326	145.580000
522.390015	145.920000
522.483704	146.080000
522.577393	146.080000
522.671021	145.940000
522.764709	145.680000
522.858337	145.720000
522.952026	145.540000
523.045654	146.100000
523.139404	146.740000
523.233032	147.220000
523.326721	146.960000
523.420349	146.600000
523.514038	146.200000
523.607666	146.140000
523.701355	145.560000
523.795044	145.240000
523.888733	145.440000
523.982361	145.700000
524.076050	145.140000
524.169678	145.820000
524.263367	145.780000
524.356995	145.840000
524.450684	145.860000
524.544373	146.000000
524.638062	145.900000
524.731750	146.060000
524.825378	145.900000
524.919067	145.500000
525.012695	145.380000
525.106384	145.060000
525.200012	144.920000
525.293701	144.800000
525.387329	144.960000
525.481018	145.120000
525.574646	145.700000
525.668396	145.780000
525.762024	146.280000
525.855713	146.420000
525.949341	146.260000
526.043030	146.240000
526.136658	146.160000
526.230347	145.640000
526.323975	145.460000
526.417664	145.320000
526.511292	145.200000
526.604980	145.420000
526.698608	145.400000
526.792297	145.760000
526.885925	146.260000
526.979614	145.960000
527.073303	145.640000
527.166931	145.620000
527.260620	145.600000
527.354309	145.540000
527.447998	145.720000
527.541626	145.660000
527.635315	146.000000
527.728943	146.180000
527.822632	145.880000
527.916260	145.780000
528.009949	146.200000
528.103577	145.880000
528.197266	145.120000
528.290894	145.340000
528.384583	145.320000
528.478210	145.100000
528.571899	145.480000
528.665527	145.860000
528.759216	145.980000
528.852844	146.020000
528.946533	146.080000
529.040161	145.840000
529.133850	145.700000
529.227478	145.700000
529.321167	145.820000
529.414856	146.180000
529.508484	146.600000
529.602173	146.380000
529.695801	146.140000
529.789490	145.980000
529.883057	145.700000
529.976746	145.740000
530.070374	146.320000
530.164062	146.240000
530.257690	146.660000
530.351379	146.900000
530.445007	146.560000
530.538696	145.920000
530.632324	146.520000
530.726013	146.340000
530.819641	146.040000
530.913330	146.340000
531.006958	146.520000
531.100647	146.440000
531.194275	146.120000
531.287964	145.980000
531.381592	145.240000
531.475220	145.380000
531.568848	144.960000
531.662537	144.740000
531.756226	145.140000
531.849854	145.520000
531.943542	145.780000
532.037170	145.700000
532.130859	146.580000
532.224487	146.320000
532.318176	146.060000
532.411804	146.500000
532.505432	146.640000
532.599060	145.860000
532.692749	145.540000
532.786377	146.020000
532.880066	145.280000
532.973694	144.900000
533.067383	145.220000
533.161011	145.500000
533.254639	145.180000
533.348267	144.960000
533.441956	145.540000
533.535583	145.260000
533.629272	145.480000
533.722900	145.120000
533.816589	145.220000
533.910156	145.100000
534.003845	144.860000
534.097534	144.880000
534.191162	145.620000
534.284851	145.980000
534.378479	145.840000
534.472107	146.200000
534.565735	146.020000
534.659424	146.080000
534.753052	146.020000
534.846741	145.880000
534.940369	146.300000
535.033997	146.160000
535.127625	145.920000
535.221313	146.400000
535.314941	146.260000
535.408630	145.560000
535.502197	146.120000
535.595886	145.860000
535.689514	145.340000
535.783203	145.840000
535.876831	146.440000
535.970459	146.220000
536.064087	146.160000
536.157776	146.120000
536.251404	145.760000
536.345093	145.640000
536.438721	145.800000
536.532349	146.120000
536.626038	145.980000
536.719666	146.320000
536.813293	146.140000
536.906921	145.980000
537.000610	146.280000
537.094238	146.340000
537.187866	146.320000
537.281494	145.820000
537.375183	146.120000
537.468811	145.620000
537.562439	145.620000
537.656067	145.500000
537.749756	146.040000
537.843384	145.880000
537.937012	146.120000
538.030640	145.880000
538.124329	145.780000
538.217896	145.740000
538.311584	145.900000
538.405212	145.580000
538.498901	145.840000
538.592468	146.520000
538.686157	146.120000
538.779785	145.420000
538.873413	145.740000
538.967102	145.700000
539.060730	145.000000
539.154358	145.580000
539.247986	145.800000
539.341675	145.660000
539.435242	145.560000
539.528931	145.600000
539.622559	144.880000
539.716187	145.260000
539.809814	145.140000
539.903503	145.280000
539.997070	145.360000
540.090759	145.880000
540.184387	145.740000
540.278015	146.440000
540.371643	146.640000
540.465332	146.480000
540.558899	146.160000
540.652588	145.860000
540.746216	145.220000
540.839844	145.340000
540.933472	145.360000
541.027100	145.280000
541.120728	145.460000
541.214417	145.920000
541.308044	145.660000
541.401672	145.480000
541.495300	145.420000
541.588928	145.500000
541.682617	144.940000
541.776184	144.800000
541.869873	145.060000
541.963440	145.520000
542.057129	145.240000
542.150757	145.560000
542.244385	145.320000
542.338013	145.360000
542.431641	145.160000
542.525269	145.260000
542.618958	145.480000
542.712524	146.240000
542.806213	146.280000
542.899780	146.800000
542.993469	146.640000
543.087036	146.220000
543.180725	145.440000
543.274292	145.460000
543.367981	145.160000
543.461548	145.660000
543.555237	145.560000
543.648926	146.220000
543.742493	146.700000
543.836182	146.540000
543.929749	146.140000
544.023437	146.360000
544.117004	146.000000
544.210693	145.560000
544.304260	145.540000
544.397949	145.680000
544.491516	145.660000
544.585205	145.800000
544.678772	145.640000
544.772461	146.140000
544.866028	145.980000
544.959717	146.120000
545.053284	145.580000
545.146973	145.860000
545.240540	145.580000
545.334229	146.520000
545.427795	146.580000
545.521423	147.080000
545.615051	146.880000
545.708679	147.400000
545.802307	146.560000
545.895935	146.580000
545.989624	147.240000
546.083191	147.340000
546.176880	146.980000
546.270447	146.760000
546.364136	147.180000
546.457703	146.520000
546.551331	146.180000
546.644958	146.160000
546.738586	146.580000
546.832214	146.060000
546.925842	145.900000
547.019409	146.460000
547.113098	146.140000
547.206665	145.860000
547.300354	145.900000
547.393921	146.500000
547.487549	146.720000
547.581177	146.420000
547.674805	146.400000
547.768433	145.740000
547.862061	145.440000
547.955627	144.440000
548.049316	145.260000
548.142883	145.500000
548.236572	146.320000
548.330139	146.400000
548.423767	146.640000
548.517456	146.420000
548.611023	146.560000
548.704651	145.900000
548.798279	146.060000
548.891907	146.700000
548.985474	146.460000
549.079163	146.520000
549.172729	146.480000
549.266357	145.740000
549.359985	145.500000
549.453613	145.320000
549.547180	144.920000
549.640869	145.420000
549.734436	145.560000
549.828064	145.620000
549.921631	145.540000
550.015320	145.440000
550.108887	145.740000
550.202515	146.000000
550.296143	145.620000
550.389771	146.040000
550.483337	146.040000
550.576965	145.640000
550.670593	145.680000
550.764221	145.900000
550.857849	145.720000
550.951477	145.520000
551.045105	145.420000
551.138672	145.540000
551.232300	145.360000
551.325928	145.880000
551.419556	146.200000
551.513123	146.420000
551.606750	146.240000
551.700378	146.220000
551.794006	145.800000
551.887573	145.640000
551.981201	146.120000
552.074768	146.140000
552.168457	146.080000
552.262024	146.920000
552.355652	147.260000
552.449219	147.400000
552.542847	147.220000
552.636475	147.020000
552.730103	146.000000
552.823669	145.560000
552.917297	144.680000
553.010864	144.640000
553.104553	144.920000
553.198181	144.760000
553.291748	145.600000
553.385376	145.860000
553.478943	145.940000
553.572571	146.140000
553.666199	146.440000
553.759827	145.900000
553.853394	145.480000
553.947021	145.540000
554.040588	145.560000
554.134216	145.680000
554.227783	146.360000
554.321411	147.420000
554.415039	146.980000
554.508667	147.040000
554.602234	147.160000
554.695862	146.500000
554.789429	145.880000
554.883057	146.360000
554.976624	146.180000
555.070251	145.940000
555.163818	145.660000
555.257507	145.600000
555.351074	145.660000
555.444702	146.680000
555.538330	146.500000
555.631897	146.940000
555.725525	146.740000
555.819092	146.640000
555.912720	145.620000
556.006287	146.040000
556.099915	145.880000
556.193481	146.100000
556.287109	146.120000
556.380676	145.960000
556.474304	145.920000
556.567871	146.140000
556.661499	145.660000
556.755066	145.760000
556.848694	145.960000
556.942261	145.820000
557.035889	145.720000
557.129517	146.400000
557.223145	146.740000
557.316711	146.700000
557.410339	146.980000
557.503906	146.880000
557.597473	146.940000
557.691040	146.300000
557.784668	146.520000
557.878296	146.240000
557.971863	146.520000
558.065491	146.360000
558.159058	146.500000
558.252686	146.920000
558.346252	147.620000
558.439880	147.020000
558.533447	146.740000
558.627075	146.540000
558.720642	146.080000
558.814270	145.540000
558.907837	145.740000
559.001465	145.600000
559.095032	146.360000
559.188660	146.600000
559.282227	146.180000
559.375854	146.580000
559.469360	146.540000
559.562988	146.580000
559.656555	146.040000
559.750183	146.400000
559.843750	146.400000
559.937378	146.680000
560.030945	146.080000
560.124573	0.000000
560.218140	0.000000
560.311707	0.000000
560.405334	0.000000
560.498901	0.000000
560.592529	0.000000
560.686096	0.000000
560.779724	0.000000
560.873291	0.000000
560.966858	0.000000
561.060425	0.000000
561.154053	0.000000
561.247620	0.000000
561.341248	0.000000
561.434814	0.000000
561.528381	0.000000
561.621948	0.000000
561.715576	0.000000
561.809143	0.000000
561.902771	0.000000
561.996277	0.000000
562.089905	0.000000
562.183472	0.000000
562.277100	0.000000
