Model Number: SPM-002-B   
Serial Number: 70087108
Firmware Version: 004.15.4
Exposure Time: 100000.000000us
Data Taken on: 11-12-2020 18:52:58.020
Wavelength	Amplitude
221.570786	0.000000
221.663406	0.000000
221.756027	0.000000
221.848648	0.000000
221.941269	0.000000
222.033905	0.000000
222.126526	0.000000
222.219162	0.000000
222.311798	0.000000
222.404419	0.000000
222.497055	0.000000
222.589676	0.000000
222.682312	0.000000
222.774933	0.000000
222.867569	0.000000
222.960205	0.000000
223.052841	0.000000
223.145462	0.000000
223.238098	0.000000
223.330734	0.000000
223.423386	0.000000
223.516022	0.000000
223.608658	0.000000
223.701309	0.000000
223.793945	0.000000
223.886581	0.000000
223.979218	0.000000
224.071869	0.000000
224.164505	0.000000
224.257156	0.000000
224.349792	0.000000
224.442444	0.000000
224.535095	0.000000
224.627747	0.000000
224.720398	0.000000
224.813034	0.000000
224.905685	0.000000
224.998337	145.140000
225.090988	145.060000
225.183640	144.820000
225.276291	144.700000
225.368942	145.000000
225.461594	145.380000
225.554245	145.600000
225.646912	145.600000
225.739578	146.120000
225.832230	146.500000
225.924896	145.740000
226.017548	146.020000
226.110199	146.420000
226.202866	145.660000
226.295532	145.440000
226.388184	145.560000
226.480850	144.760000
226.573517	144.260000
226.666168	144.660000
226.758835	144.700000
226.851501	145.360000
226.944183	145.700000
227.036850	145.420000
227.129517	145.400000
227.222183	145.700000
227.314850	145.540000
227.407516	145.940000
227.500198	146.900000
227.592865	146.520000
227.685532	145.900000
227.778214	145.760000
227.870880	146.160000
227.963562	146.460000
228.056229	147.180000
228.148926	147.240000
228.241592	148.020000
228.334274	147.380000
228.426956	146.480000
228.519638	146.280000
228.612305	145.700000
228.704987	145.080000
228.797668	145.240000
228.890350	145.380000
228.983032	144.800000
229.075714	146.020000
229.168396	146.040000
229.261108	145.400000
229.353790	145.200000
229.446472	145.780000
229.539169	145.420000
229.631851	144.900000
229.724533	145.240000
229.817230	145.660000
229.909912	146.440000
230.002609	146.340000
230.095306	146.360000
230.187988	146.700000
230.280685	146.780000
230.373383	145.720000
230.466095	145.720000
230.558792	146.320000
230.651474	145.760000
230.744171	145.420000
230.836868	145.480000
230.929581	145.860000
231.022278	145.920000
231.114975	146.120000
231.207672	145.740000
231.300369	145.820000
231.393082	145.720000
231.485779	145.260000
231.578506	145.160000
231.671204	145.660000
231.763916	145.880000
231.856613	145.500000
231.949326	145.660000
232.042023	145.800000
232.134735	145.400000
232.227448	144.920000
232.320160	145.120000
232.412872	145.140000
232.505585	145.920000
232.598297	146.560000
232.691010	146.520000
232.783722	146.280000
232.876450	146.880000
232.969162	146.140000
233.061874	145.660000
233.154587	145.540000
233.247314	145.820000
233.340027	145.320000
233.432739	145.640000
233.525467	145.380000
233.618179	146.140000
233.710907	145.740000
233.803635	145.980000
233.896347	145.680000
233.989090	146.620000
234.081818	146.140000
234.174545	146.680000
234.267258	146.100000
234.359985	146.360000
234.452713	145.960000
234.545441	145.300000
234.638168	145.000000
234.730896	145.580000
234.823639	145.140000
234.916367	145.400000
235.009094	146.240000
235.101822	146.120000
235.194580	145.780000
235.287308	146.220000
235.380051	145.640000
235.472778	145.660000
235.565521	145.940000
235.658249	145.600000
235.750992	145.580000
235.843719	145.820000
235.936462	146.080000
236.029205	145.660000
236.121948	145.580000
236.214691	145.800000
236.307449	146.400000
236.400192	146.120000
236.492935	146.120000
236.585678	146.440000
236.678421	146.120000
236.771164	145.620000
236.863907	145.900000
236.956665	146.180000
237.049408	147.660000
237.142151	147.100000
237.234909	147.780000
237.327652	147.560000
237.420410	147.280000
237.513153	146.400000
237.605927	146.480000
237.698669	145.920000
237.791428	145.200000
237.884186	145.960000
237.976944	145.140000
238.069702	145.920000
238.162445	145.360000
238.255203	145.800000
238.347961	145.780000
238.440720	146.100000
238.533478	145.420000
238.626266	145.540000
238.719025	145.800000
238.811783	145.560000
238.904541	145.520000
238.997314	145.400000
239.090073	145.220000
239.182831	145.500000
239.275604	145.900000
239.368362	145.560000
239.461136	145.740000
239.553909	145.800000
239.646667	145.380000
239.739441	145.020000
239.832214	145.560000
239.925003	146.100000
240.017761	146.780000
240.110535	147.220000
240.203308	146.920000
240.296082	147.140000
240.388855	146.860000
240.481628	146.800000
240.574417	146.920000
240.667191	146.940000
240.759964	146.400000
240.852737	146.420000
240.945526	146.020000
241.038315	145.640000
241.131088	145.880000
241.223877	146.200000
241.316650	145.900000
241.409439	146.320000
241.502228	145.920000
241.595001	146.040000
241.687790	145.800000
241.780579	145.780000
241.873367	145.780000
241.966141	146.220000
242.058929	145.680000
242.151718	145.760000
242.244507	146.320000
242.337311	145.580000
242.430099	145.960000
242.522903	146.120000
242.615692	145.580000
242.708481	145.340000
242.801270	145.880000
242.894073	145.360000
242.986862	145.500000
243.079651	146.460000
243.172455	145.940000
243.265244	146.160000
243.358063	145.740000
243.450867	145.900000
243.543655	145.740000
243.636459	146.240000
243.729263	146.320000
243.822067	147.040000
243.914856	147.380000
244.007660	147.240000
244.100464	146.920000
244.193268	146.280000
244.286072	146.020000
244.378876	145.320000
244.471680	144.860000
244.564499	145.460000
244.657318	146.300000
244.750122	146.660000
244.842926	146.160000
244.935745	146.480000
245.028549	145.900000
245.121368	145.220000
245.214172	145.000000
245.306992	145.920000
245.399796	145.700000
245.492615	146.100000
245.585434	145.980000
245.678253	145.800000
245.771072	145.400000
245.863892	146.140000
245.956711	145.920000
246.049530	145.980000
246.142349	145.800000
246.235168	146.200000
246.327988	146.300000
246.420807	146.180000
246.513626	146.080000
246.606445	146.140000
246.699280	145.920000
246.792099	145.360000
246.884918	145.500000
246.977753	145.180000
247.070587	145.160000
247.163422	145.440000
247.256241	145.460000
247.349075	145.600000
247.441895	145.840000
247.534729	146.000000
247.627563	145.460000
247.720383	146.040000
247.813217	145.640000
247.906052	145.840000
247.998886	145.480000
248.091736	145.560000
248.184570	144.740000
248.277405	144.980000
248.370239	145.780000
248.463074	146.720000
248.555908	147.040000
248.648743	147.100000
248.741592	147.160000
248.834427	146.640000
248.927261	145.900000
249.020111	146.160000
249.112946	146.980000
249.205795	146.540000
249.298630	146.420000
249.391495	146.460000
249.484344	146.080000
249.577179	145.680000
249.670029	145.980000
249.762878	146.660000
249.855728	146.720000
249.948563	146.500000
250.041412	146.120000
250.134262	146.360000
250.227112	146.260000
250.319962	146.220000
250.412827	146.420000
250.505692	146.180000
250.598541	146.320000
250.691391	145.540000
250.784241	145.480000
250.877106	145.600000
250.969955	145.620000
251.062805	146.040000
251.155670	146.960000
251.248520	146.880000
251.341385	146.640000
251.434235	146.880000
251.527100	146.000000
251.619965	145.260000
251.712814	146.060000
251.805695	146.000000
251.898560	145.740000
251.991425	146.160000
252.084290	146.260000
252.177155	145.340000
252.270020	145.360000
252.362885	145.680000
252.455750	145.500000
252.548615	145.400000
252.641479	145.780000
252.734360	145.560000
252.827240	145.300000
252.920105	145.300000
253.012970	144.920000
253.105850	144.700000
253.198715	144.560000
253.291595	144.840000
253.384460	144.560000
253.477341	144.900000
253.570221	145.120000
253.663086	145.420000
253.755966	145.980000
253.848846	146.040000
253.941727	146.120000
254.034592	146.060000
254.127472	145.560000
254.220367	145.320000
254.313248	145.560000
254.406128	145.040000
254.499008	145.180000
254.591904	146.000000
254.684784	146.220000
254.777664	146.280000
254.870544	146.320000
254.963440	146.100000
255.056335	146.060000
255.149216	145.320000
255.242111	145.680000
255.334991	146.200000
255.427887	146.180000
255.520767	146.200000
255.613663	146.720000
255.706558	145.960000
255.799438	145.640000
255.892334	145.740000
255.985229	145.620000
256.078125	145.320000
256.171021	145.620000
256.263916	146.120000
256.356812	146.060000
256.449707	146.160000
256.542603	146.000000
256.635498	146.340000
256.728394	145.960000
256.821289	145.680000
256.914215	145.740000
257.007080	146.280000
257.100006	146.180000
257.192932	146.600000
257.285828	147.060000
257.378723	146.620000
257.471619	146.060000
257.564545	145.940000
257.657440	145.760000
257.750336	146.080000
257.843262	146.020000
257.936157	147.000000
258.029053	147.040000
258.121979	147.120000
258.214874	146.640000
258.307800	146.660000
258.400696	145.580000
258.493622	145.580000
258.586517	144.740000
258.679443	145.440000
258.772339	145.220000
258.865265	145.560000
258.958160	145.160000
259.051086	146.100000
259.144012	145.340000
259.236938	146.380000
259.329834	146.260000
259.422791	146.060000
259.515717	145.640000
259.608612	145.580000
259.701538	145.220000
259.794464	145.000000
259.887390	145.120000
259.980316	144.880000
260.073212	144.700000
260.166138	143.920000
260.259064	144.680000
260.351990	145.620000
260.444916	145.840000
260.537842	146.600000
260.630768	147.580000
260.723694	147.300000
260.816620	146.660000
260.909546	146.780000
261.002472	146.140000
261.095398	145.620000
261.188354	145.720000
261.281281	145.600000
261.374207	145.820000
261.467133	146.780000
261.560089	147.180000
261.653015	146.900000
261.745972	147.640000
261.838867	147.720000
261.931824	147.380000
262.024780	146.600000
262.117706	146.740000
262.210663	146.440000
262.303589	146.260000
262.396515	146.160000
262.489471	146.940000
262.582397	146.660000
262.675354	146.140000
262.768280	145.920000
262.861237	145.920000
262.954163	145.620000
263.047119	145.960000
263.140045	145.700000
263.233002	145.900000
263.325958	145.420000
263.418884	145.080000
263.511841	144.680000
263.604797	145.140000
263.697723	145.260000
263.790680	145.360000
263.883636	146.040000
263.976593	145.860000
264.069550	145.720000
264.162476	145.180000
264.255463	145.380000
264.348419	144.620000
264.441376	145.060000
264.534332	144.840000
264.627289	145.080000
264.720245	145.300000
264.813202	145.480000
264.906158	145.460000
264.999115	146.020000
265.092072	146.040000
265.185028	146.500000
265.277985	146.820000
265.370941	147.180000
265.463898	146.960000
265.556854	147.040000
265.649811	146.320000
265.742798	146.120000
265.835754	145.840000
265.928711	146.080000
266.021667	146.000000
266.114655	145.900000
266.207611	146.280000
266.300568	145.720000
266.393585	145.280000
266.486511	145.680000
266.579498	145.100000
266.672485	144.900000
266.765442	145.020000
266.858429	145.680000
266.951385	145.080000
267.044342	145.720000
267.137329	145.480000
267.230316	145.760000
267.323273	145.140000
267.416260	145.720000
267.509216	145.560000
267.602203	145.640000
267.695160	145.700000
267.788147	145.860000
267.881134	145.220000
267.974091	145.640000
268.067078	145.520000
268.160065	145.640000
268.253052	145.620000
268.346008	145.840000
268.438995	145.560000
268.531982	145.520000
268.624969	145.160000
268.717987	145.480000
268.810944	145.220000
268.903961	145.100000
268.996948	145.060000
269.089905	145.520000
269.182892	145.540000
269.275879	146.040000
269.368866	145.700000
269.461853	146.020000
269.554871	145.940000
269.647858	145.760000
269.740845	145.960000
269.833832	146.360000
269.926819	146.100000
270.019806	146.180000
270.112793	145.680000
270.205811	145.580000
270.298798	145.400000
270.391785	145.920000
270.484772	145.400000
270.577789	145.820000
270.670776	145.180000
270.763763	145.380000
270.856750	145.200000
270.949768	145.200000
271.042786	144.980000
271.135773	145.240000
271.228790	145.340000
271.321808	144.760000
271.414795	144.700000
271.507782	144.500000
271.600800	144.440000
271.693817	144.460000
271.786804	145.480000
271.879822	145.620000
271.972809	146.040000
272.065826	146.460000
272.158844	145.880000
272.251831	145.980000
272.344849	146.360000
272.437866	146.060000
272.530853	146.060000
272.623871	146.820000
272.716888	145.780000
272.809906	145.680000
272.902893	146.000000
272.995911	145.540000
273.088928	145.260000
273.181946	145.560000
273.274963	145.240000
273.367981	144.780000
273.460999	145.180000
273.554047	145.680000
273.647003	145.940000
273.740051	146.060000
273.833069	146.500000
273.926086	146.340000
274.019135	145.760000
274.112152	145.440000
274.205170	145.240000
274.298187	145.280000
274.391205	145.020000
274.484222	145.100000
274.577240	145.120000
274.670258	145.180000
274.763306	145.040000
274.856323	145.700000
274.949341	145.980000
275.042358	146.240000
275.135406	146.200000
275.228424	146.220000
275.321442	146.200000
275.414490	145.940000
275.507507	146.320000
275.600525	147.040000
275.693573	147.000000
275.786591	146.240000
275.879669	146.320000
275.972656	145.940000
276.065735	145.340000
276.158752	145.920000
276.251801	146.960000
276.344818	146.800000
276.437866	146.760000
276.530884	147.020000
276.623932	146.000000
276.716980	145.680000
276.809998	145.700000
276.903046	145.720000
276.996094	146.320000
277.089111	147.300000
277.182159	147.600000
277.275208	147.460000
277.368256	147.580000
277.461304	147.020000
277.554321	146.040000
277.647369	145.720000
277.740417	145.840000
277.833466	145.580000
277.926514	145.420000
278.019562	145.900000
278.112610	145.280000
278.205688	145.440000
278.298706	145.520000
278.391785	145.500000
278.484833	145.380000
278.577881	145.580000
278.670929	145.680000
278.763977	145.700000
278.857025	146.080000
278.950073	146.200000
279.043121	146.080000
279.136169	145.920000
279.229248	145.620000
279.322296	145.440000
279.415344	145.120000
279.508392	145.180000
279.601440	144.960000
279.694519	145.000000
279.787567	144.700000
279.880615	144.680000
279.973694	144.620000
280.066742	144.800000
280.159790	145.080000
280.252869	145.020000
280.345917	145.560000
280.438995	145.720000
280.532074	145.460000
280.625122	145.580000
280.718201	146.720000
280.811279	146.520000
280.904327	146.360000
280.997406	146.940000
281.090454	146.640000
281.183533	145.380000
281.276581	145.200000
281.369659	145.040000
281.462738	144.940000
281.555786	145.300000
281.648865	145.400000
281.741943	145.180000
281.835022	146.140000
281.928070	145.820000
282.021149	145.360000
282.114227	145.620000
282.207306	145.940000
282.300385	145.640000
282.393433	146.160000
282.486511	146.420000
282.579590	146.520000
282.672668	146.960000
282.765747	146.340000
282.858856	145.640000
282.951904	145.980000
283.045013	146.140000
283.138062	146.080000
283.231171	146.900000
283.324249	147.500000
283.417328	147.160000
283.510406	146.920000
283.603485	146.800000
283.696564	146.720000
283.789642	146.920000
283.882751	146.880000
283.975830	147.200000
284.068909	146.840000
284.161987	146.820000
284.255066	146.240000
284.348175	146.720000
284.441254	146.580000
284.534332	147.140000
284.627441	146.700000
284.720520	146.200000
284.813599	145.720000
284.906708	145.860000
284.999786	145.020000
285.092896	144.720000
285.185974	146.060000
285.279053	145.600000
285.372192	145.420000
285.465240	146.140000
285.558380	146.460000
285.651459	145.480000
285.744568	146.680000
285.837677	146.340000
285.930756	146.220000
286.023865	146.380000
286.116943	146.500000
286.210052	146.060000
286.303162	146.420000
286.396240	146.240000
286.489349	145.740000
286.582458	146.020000
286.675568	145.800000
286.768646	145.640000
286.861755	145.980000
286.954865	146.740000
287.047974	146.080000
287.141083	145.640000
287.234161	145.240000
287.327271	144.660000
287.420380	144.820000
287.513519	145.000000
287.606598	145.300000
287.699738	145.800000
287.792816	145.800000
287.885956	145.500000
287.979034	145.480000
288.072174	145.820000
288.165283	145.620000
288.258392	146.020000
288.351501	145.320000
288.444611	145.460000
288.537720	145.720000
288.630859	145.420000
288.723969	145.540000
288.817078	146.280000
288.910187	146.260000
289.003296	145.520000
289.096436	145.740000
289.189545	145.540000
289.282654	144.920000
289.375763	145.440000
289.468903	146.020000
289.562012	146.180000
289.655121	146.160000
289.748260	146.520000
289.841400	146.500000
289.934509	146.380000
290.027649	146.260000
290.120728	146.060000
290.213898	146.040000
290.306976	145.620000
290.400146	145.700000
290.493256	145.440000
290.586395	145.700000
290.679535	145.880000
290.772644	145.920000
290.865784	145.000000
290.958893	145.260000
291.052032	145.240000
291.145172	145.000000
291.238281	144.640000
291.331421	145.060000
291.424561	145.620000
291.517670	145.100000
291.610809	145.580000
291.703949	145.680000
291.797089	146.260000
291.890228	145.780000
291.983337	146.260000
292.076477	145.520000
292.169617	146.000000
292.262756	145.660000
292.355927	145.480000
292.449036	145.400000
292.542206	145.920000
292.635315	146.040000
292.728485	146.360000
292.821625	145.980000
292.914764	146.760000
293.007904	146.660000
293.101044	146.360000
293.194183	146.060000
293.287323	146.460000
293.380463	145.900000
293.473602	145.820000
293.566742	146.100000
293.659882	146.580000
293.753021	146.980000
293.846191	146.760000
293.939331	146.360000
294.032471	146.080000
294.125610	145.600000
294.218781	145.740000
294.311920	146.220000
294.405060	146.820000
294.498230	146.700000
294.591370	146.580000
294.684540	145.960000
294.777679	145.520000
294.870850	145.600000
294.963959	145.800000
295.057159	145.980000
295.150299	146.320000
295.243469	146.300000
295.336609	145.660000
295.429779	145.500000
295.522919	146.140000
295.616089	145.940000
295.709229	146.480000
295.802399	146.820000
295.895569	146.540000
295.988708	145.720000
296.081879	146.240000
296.175018	145.380000
296.268188	145.280000
296.361359	146.020000
296.454529	146.480000
296.547668	146.160000
296.640839	146.900000
296.734009	146.960000
296.827179	146.960000
296.920319	147.120000
297.013519	146.880000
297.106659	146.960000
297.199860	147.040000
297.292999	146.780000
297.386200	146.340000
297.479309	146.320000
297.572510	146.040000
297.665680	145.560000
297.758850	145.560000
297.852020	145.440000
297.945190	145.320000
298.038361	145.000000
298.131531	146.100000
298.224701	145.720000
298.317871	145.680000
298.411072	145.600000
298.504242	145.460000
298.597412	144.680000
298.690582	145.260000
298.783752	145.080000
298.876923	145.520000
298.970093	145.660000
299.063293	146.020000
299.156464	146.460000
299.249634	146.940000
299.342834	146.960000
299.436005	147.460000
299.529205	147.100000
299.622345	146.800000
299.715576	146.320000
299.808716	146.100000
299.901917	146.000000
299.995117	146.480000
300.088287	146.360000
300.181488	146.160000
300.274658	145.960000
300.367828	145.740000
300.461029	145.600000
300.554199	145.940000
300.647400	146.100000
300.740601	146.820000
300.833771	146.840000
300.926971	146.840000
301.020142	145.960000
301.113342	146.120000
301.206512	145.660000
301.299713	145.580000
301.392914	145.560000
301.486084	146.160000
301.579285	146.000000
301.672516	146.480000
301.765686	146.580000
301.858887	146.380000
301.952057	146.120000
302.045288	146.400000
302.138458	145.900000
302.231659	145.700000
302.324860	145.880000
302.418060	145.940000
302.511261	145.560000
302.604462	145.920000
302.697662	145.880000
302.790863	145.640000
302.884064	145.200000
302.977264	145.360000
303.070465	145.400000
303.163666	145.880000
303.256866	146.360000
303.350067	146.700000
303.443268	146.840000
303.536469	146.760000
303.629669	146.340000
303.722870	146.040000
303.816071	145.720000
303.909271	145.900000
304.002472	145.240000
304.095673	145.100000
304.188934	144.740000
304.282104	145.480000
304.375336	145.200000
304.468506	145.540000
304.561768	145.460000
304.654968	145.940000
304.748169	145.500000
304.841370	145.180000
304.934601	145.340000
305.027802	145.160000
305.121002	144.680000
305.214233	144.600000
305.307434	145.060000
305.400665	145.600000
305.493866	145.800000
305.587097	146.480000
305.680298	146.140000
305.773499	146.420000
305.866730	146.140000
305.959930	146.560000
306.053162	146.480000
306.146393	146.580000
306.239594	145.700000
306.332825	145.300000
306.426025	145.660000
306.519287	144.920000
306.612488	145.240000
306.705719	145.820000
306.798920	145.780000
306.892181	145.120000
306.985352	145.360000
307.078613	144.560000
307.171844	144.580000
307.265045	144.380000
307.358276	144.020000
307.451508	144.260000
307.544739	145.600000
307.637970	145.440000
307.731201	145.580000
307.824402	146.760000
307.917633	146.840000
308.010864	146.720000
308.104095	147.200000
308.197327	147.080000
308.290558	146.520000
308.383789	146.340000
308.477020	145.580000
308.570251	144.740000
308.663483	144.540000
308.756714	144.280000
308.849976	144.260000
308.943176	145.060000
309.036438	144.960000
309.129639	145.020000
309.222900	145.060000
309.316101	144.940000
309.409393	144.320000
309.502625	144.400000
309.595856	144.440000
309.689087	144.560000
309.782318	144.700000
309.875580	144.840000
309.968811	145.320000
310.062042	145.400000
310.155273	145.400000
310.248535	145.840000
310.341766	145.680000
310.434998	145.240000
310.528259	145.360000
310.621490	145.860000
310.714722	145.280000
310.807983	145.340000
310.901215	145.920000
310.994476	145.860000
311.087708	145.360000
311.181000	145.640000
311.274200	145.180000
311.367462	144.900000
311.460693	144.700000
311.553986	145.260000
311.647186	145.360000
311.740479	146.480000
311.833710	146.220000
311.926971	146.440000
312.020203	145.780000
312.113464	145.580000
312.206726	144.800000
312.299957	145.100000
312.393219	145.520000
312.486481	145.520000
312.579712	145.540000
312.672974	145.340000
312.766235	145.360000
312.859497	145.000000
312.952759	144.980000
313.045990	145.560000
313.139252	145.740000
313.232513	145.640000
313.325775	145.840000
313.419037	145.780000
313.512299	144.820000
313.605530	145.280000
313.698822	145.640000
313.792053	145.920000
313.885345	145.620000
313.978577	145.860000
314.071869	145.140000
314.165131	145.300000
314.258392	145.540000
314.351654	145.880000
314.444916	145.680000
314.538177	146.480000
314.631439	146.480000
314.724701	145.900000
314.817993	145.940000
314.911255	146.340000
315.004517	145.900000
315.097778	145.700000
315.191040	145.920000
315.284302	146.180000
315.377594	146.020000
315.470856	145.880000
315.564117	145.280000
315.657379	144.740000
315.750671	144.020000
315.843933	144.200000
315.937195	144.000000
316.030518	144.080000
316.123749	144.300000
316.217041	145.580000
316.310303	145.380000
316.403595	145.960000
316.496857	146.380000
316.590149	146.480000
316.683411	145.320000
316.776703	145.080000
316.869965	144.920000
316.963257	144.400000
317.056519	143.860000
317.149811	143.820000
317.243073	143.980000
317.336365	144.160000
317.429626	144.520000
317.522919	145.300000
317.616180	145.620000
317.709473	145.400000
317.802765	145.040000
317.896027	145.180000
317.989319	145.160000
318.082611	145.120000
318.175873	145.280000
318.269165	145.480000
318.362488	145.420000
318.455750	145.160000
318.549042	145.520000
318.642303	146.080000
318.735626	146.080000
318.828888	146.260000
318.922211	146.040000
319.015472	146.380000
319.108765	145.440000
319.202057	144.900000
319.295349	144.820000
319.388641	144.860000
319.481934	144.360000
319.575226	144.660000
319.668518	145.180000
319.761810	145.420000
319.855103	145.680000
319.948395	145.580000
320.041687	145.820000
320.134979	145.880000
320.228271	145.500000
320.321564	145.020000
320.414856	145.240000
320.508148	144.900000
320.601440	144.740000
320.694763	144.680000
320.788025	145.480000
320.881348	145.360000
320.974640	145.520000
321.067963	144.980000
321.161224	145.080000
321.254547	144.480000
321.347839	145.020000
321.441162	144.820000
321.534454	145.300000
321.627747	145.080000
321.721069	145.980000
321.814362	145.840000
321.907654	146.020000
322.000946	145.740000
322.094269	146.500000
322.187561	145.820000
322.280884	145.780000
322.374176	145.940000
322.467468	146.420000
322.560791	145.800000
322.654083	146.400000
322.747406	146.360000
322.840698	146.260000
322.934021	146.560000
323.027344	146.840000
323.120636	146.140000
323.213959	146.260000
323.307251	145.800000
323.400574	145.260000
323.493866	144.700000
323.587219	145.120000
323.680511	145.160000
323.773834	145.640000
323.867157	145.940000
323.960449	146.300000
324.053772	146.060000
324.147095	145.820000
324.240387	146.300000
324.333710	146.400000
324.427032	146.560000
324.520355	146.220000
324.613647	146.120000
324.706970	145.600000
324.800293	145.280000
324.893616	145.300000
324.986938	145.660000
325.080231	145.480000
325.173553	146.100000
325.266876	146.540000
325.360199	146.400000
325.453522	145.940000
325.546875	145.640000
325.640167	145.840000
325.733521	146.100000
325.826813	146.220000
325.920166	146.100000
326.013489	146.260000
326.106812	145.000000
326.200134	144.280000
326.293457	143.980000
326.386780	144.280000
326.480103	144.380000
326.573425	144.840000
326.666748	145.020000
326.760071	145.820000
326.853424	145.980000
326.946747	145.720000
327.040070	146.380000
327.133392	146.140000
327.226715	145.200000
327.320068	144.560000
327.413391	145.380000
327.506714	144.580000
327.600037	144.660000
327.693390	144.780000
327.786713	145.340000
327.880066	144.960000
327.973358	145.380000
328.066742	145.860000
328.160034	146.320000
328.253418	146.440000
328.346710	145.940000
328.440063	145.360000
328.533417	145.220000
328.626740	145.360000
328.720093	145.260000
328.813416	145.920000
328.906769	146.300000
329.000092	146.440000
329.093445	146.120000
329.186768	145.620000
329.280121	145.780000
329.373444	145.820000
329.466797	145.380000
329.560120	145.700000
329.653473	146.380000
329.746796	145.780000
329.840149	145.660000
329.933502	145.860000
330.026825	145.160000
330.120178	145.280000
330.213562	145.460000
330.306854	145.480000
330.400238	145.380000
330.493561	145.720000
330.586945	146.040000
330.680237	146.200000
330.773621	146.360000
330.866974	146.480000
330.960327	146.560000
331.053680	145.920000
331.147003	146.180000
331.240356	146.340000
331.333710	146.180000
331.427063	145.860000
331.520416	145.840000
331.613770	145.380000
331.707123	145.420000
331.800476	145.560000
331.893829	146.720000
331.987152	147.020000
332.080505	147.040000
332.173859	146.780000
332.267212	146.520000
332.360565	145.640000
332.453918	145.360000
332.547333	145.200000
332.640656	145.180000
332.734039	145.380000
332.827362	145.220000
332.920746	145.500000
333.014069	146.140000
333.107452	146.640000
333.200806	146.600000
333.294159	146.660000
333.387543	146.040000
333.480896	145.500000
333.574249	145.200000
333.667603	145.000000
333.760956	145.400000
333.854340	145.660000
333.947693	145.960000
334.041046	146.060000
334.134430	146.340000
334.227783	145.940000
334.321136	145.900000
334.414520	145.220000
334.507874	145.160000
334.601227	145.040000
334.694611	144.980000
334.787964	145.580000
334.881348	146.100000
334.974701	145.840000
335.068085	145.640000
335.161438	146.040000
335.254822	145.260000
335.348175	145.260000
335.441559	144.860000
335.534943	145.660000
335.628296	145.380000
335.721680	145.760000
335.815033	145.960000
335.908417	146.620000
336.001770	146.260000
336.095154	145.960000
336.188538	145.280000
336.281891	144.800000
336.375275	144.420000
336.468658	144.020000
336.562012	144.260000
336.655396	145.260000
336.748779	145.560000
336.842133	145.740000
336.935516	146.120000
337.028900	145.900000
337.122284	145.240000
337.215637	145.480000
337.309021	145.340000
337.402435	144.980000
337.495789	145.040000
337.589203	145.080000
337.682526	144.680000
337.775940	145.120000
337.869324	145.460000
337.962708	145.340000
338.056091	146.140000
338.149475	145.960000
338.242859	145.920000
338.336243	145.540000
338.429626	145.800000
338.523010	145.200000
338.616394	145.420000
338.709778	145.440000
338.803162	145.580000
338.896545	145.780000
338.989929	145.460000
339.083313	145.500000
339.176697	145.080000
339.270081	144.840000
339.363464	144.660000
339.456848	145.480000
339.550232	145.000000
339.643616	145.040000
339.737030	145.300000
339.830383	145.180000
339.923828	144.780000
340.017181	145.200000
340.110596	145.120000
340.203949	145.040000
340.297363	144.860000
340.390778	144.880000
340.484161	144.980000
340.577545	144.980000
340.670959	145.260000
340.764343	145.420000
340.857727	145.460000
340.951111	144.580000
341.044525	145.060000
341.137909	144.560000
341.231293	144.420000
341.324707	143.880000
341.418091	145.240000
341.511505	145.020000
341.604889	145.120000
341.698303	145.300000
341.791687	145.660000
341.885071	144.860000
341.978485	144.480000
342.071899	145.000000
342.165283	145.400000
342.258698	145.860000
342.352081	146.380000
342.445496	147.060000
342.538879	146.880000
342.632324	146.320000
342.725708	146.020000
342.819122	145.660000
342.912506	145.380000
343.005920	144.940000
343.099335	145.980000
343.192719	145.720000
343.286133	145.640000
343.379547	145.640000
343.472931	145.940000
343.566345	145.340000
343.659760	145.940000
343.753143	145.620000
343.846558	145.260000
343.939972	145.300000
344.033386	145.480000
344.126770	144.900000
344.220184	145.400000
344.313599	145.920000
344.407043	145.840000
344.500427	145.120000
344.593872	145.820000
344.687225	145.240000
344.780670	144.720000
344.874054	144.480000
344.967499	145.360000
345.060913	145.020000
345.154327	145.220000
345.247742	145.260000
345.341156	145.620000
345.434570	144.940000
345.527985	144.900000
345.621399	145.140000
345.714813	145.100000
345.808228	145.040000
345.901642	144.780000
345.995056	144.400000
346.088470	144.620000
346.181885	145.080000
346.275299	144.540000
346.368713	144.700000
346.462128	144.540000
346.555573	144.400000
346.648987	144.100000
346.742401	144.540000
346.835815	145.120000
346.929260	145.180000
347.022644	145.120000
347.116119	145.420000
347.209503	145.380000
347.302948	146.060000
347.396362	146.580000
347.489807	146.760000
347.583221	147.140000
347.676636	147.260000
347.770050	146.080000
347.863495	145.560000
347.956909	145.600000
348.050323	144.680000
348.143768	144.520000
348.237183	144.380000
348.330597	144.960000
348.424042	145.300000
348.517456	146.100000
348.610901	146.460000
348.704315	146.700000
348.797760	146.020000
348.891174	145.040000
348.984619	144.440000
349.078033	144.480000
349.171448	144.900000
349.264923	145.040000
349.358337	145.400000
349.451782	145.460000
349.545197	144.920000
349.638641	144.580000
349.732086	144.440000
349.825500	145.020000
349.918945	144.780000
350.012390	145.260000
350.105804	145.860000
350.199249	146.240000
350.292664	146.520000
350.386108	146.880000
350.479553	147.320000
350.572968	147.140000
350.666412	147.420000
350.759857	146.820000
350.853302	147.160000
350.946716	146.380000
351.040161	146.180000
351.133606	146.000000
351.227081	146.000000
351.320465	146.260000
351.413940	146.580000
351.507355	146.600000
351.600830	146.620000
351.694244	146.240000
351.787720	145.960000
351.881104	146.020000
351.974579	145.600000
352.067993	146.080000
352.161469	146.160000
352.254883	145.480000
352.348358	145.380000
352.441803	145.580000
352.535248	145.080000
352.628693	145.780000
352.722137	145.960000
352.815582	145.940000
352.909027	146.040000
353.002472	145.940000
353.095917	145.720000
353.189362	146.020000
353.282806	146.020000
353.376251	146.040000
353.469696	145.880000
353.563141	146.320000
353.656586	146.020000
353.750061	145.520000
353.843475	145.360000
353.936981	145.880000
354.030396	145.180000
354.123871	145.420000
354.217285	146.600000
354.310760	146.780000
354.404175	146.680000
354.497681	146.480000
354.591095	146.340000
354.684570	145.040000
354.777985	144.820000
354.871490	144.440000
354.964935	144.620000
355.058380	144.920000
355.151855	145.040000
355.245300	145.360000
355.338745	145.880000
355.432220	146.020000
355.525665	145.120000
355.619110	145.520000
355.712585	145.420000
355.806030	145.100000
355.899475	144.760000
355.992950	145.780000
356.086426	146.200000
356.179871	146.120000
356.273346	146.260000
356.366791	146.400000
356.460266	146.060000
356.553711	145.500000
356.647186	145.500000
356.740631	145.060000
356.834106	144.980000
356.927551	145.040000
357.021027	145.040000
357.114471	145.200000
357.207947	145.340000
357.301422	145.580000
357.394867	145.600000
357.488342	146.260000
357.581818	146.160000
357.675262	146.500000
357.768738	146.140000
357.862213	145.640000
357.955658	145.100000
358.049133	144.880000
358.142609	144.880000
358.236053	145.040000
358.329529	145.380000
358.423035	145.800000
358.516449	145.560000
358.609955	145.940000
358.703400	146.620000
358.796906	146.780000
358.890350	146.180000
358.983826	146.840000
359.077271	145.820000
359.170776	145.340000
359.264221	144.860000
359.357727	145.200000
359.451172	145.400000
359.544647	146.000000
359.638123	145.940000
359.731598	146.560000
359.825073	146.940000
359.918549	146.800000
360.012024	147.000000
360.105499	146.480000
360.198975	146.340000
360.292450	145.980000
360.385925	145.720000
360.479401	144.980000
360.572876	145.360000
360.666351	145.520000
360.759857	145.500000
360.853302	145.340000
360.946808	145.200000
361.040253	145.480000
361.133759	145.140000
361.227203	145.380000
361.320709	145.380000
361.414154	145.940000
361.507660	146.220000
361.601105	146.880000
361.694641	147.360000
361.788086	147.380000
361.881592	147.820000
361.975067	147.100000
362.068542	147.120000
362.162018	146.620000
362.255524	146.380000
362.348999	145.940000
362.442474	146.480000
362.535950	145.520000
362.629456	145.460000
362.722931	145.480000
362.816406	145.840000
362.909882	146.120000
363.003387	146.260000
363.096863	146.280000
363.190338	146.320000
363.283875	146.040000
363.377319	145.580000
363.470825	146.280000
363.564301	145.700000
363.657806	145.780000
363.751282	145.460000
363.844788	146.420000
363.938232	146.000000
364.031769	146.920000
364.125214	147.380000
364.218750	148.000000
364.312225	146.340000
364.405731	146.540000
364.499207	145.820000
364.592712	145.160000
364.686188	144.460000
364.779694	145.260000
364.873169	144.980000
364.966675	145.260000
365.060150	145.440000
365.153656	146.180000
365.247131	146.020000
365.340637	146.360000
365.434143	146.620000
365.527618	146.620000
365.621155	145.620000
365.714600	145.640000
365.808136	145.440000
365.901611	144.400000
365.995117	144.320000
366.088593	144.780000
366.182129	144.580000
366.275604	144.560000
366.369110	145.020000
366.462585	145.180000
366.556122	145.540000
366.649567	145.820000
366.743103	146.100000
366.836609	146.140000
366.930115	146.600000
367.023590	146.660000
367.117096	146.280000
367.210602	146.220000
367.304108	146.580000
367.397614	146.640000
367.491119	146.740000
367.584595	147.120000
367.678101	146.980000
367.771606	146.740000
367.865112	146.100000
367.958649	145.300000
368.052124	145.180000
368.145660	145.020000
368.239136	145.380000
368.332672	145.760000
368.426147	146.100000
368.519684	145.760000
368.613159	145.820000
368.706696	145.380000
368.800171	145.240000
368.893707	145.340000
368.987183	145.660000
369.080719	145.580000
369.174225	145.520000
369.267731	145.420000
369.361237	145.320000
369.454742	145.180000
369.548248	145.560000
369.641754	145.640000
369.735260	145.560000
369.828766	145.000000
369.922272	145.520000
370.015808	145.360000
370.109314	145.000000
370.202820	144.760000
370.296356	145.780000
370.389832	145.180000
370.483368	144.940000
370.576874	145.200000
370.670410	145.680000
370.763885	144.760000
370.857422	144.840000
370.950928	144.760000
371.044464	145.340000
371.137939	145.480000
371.231476	146.040000
371.324982	146.520000
371.418518	146.780000
371.512024	146.240000
371.605560	145.720000
371.699066	145.840000
371.792572	145.380000
371.886108	145.800000
371.979614	146.000000
372.073120	146.600000
372.166656	146.500000
372.260162	146.720000
372.353668	146.260000
372.447205	145.900000
372.540710	145.700000
372.634277	145.340000
372.727753	145.680000
372.821320	145.640000
372.914795	146.020000
373.008362	145.880000
373.101837	146.000000
373.195404	145.380000
373.288879	145.260000
373.382446	145.800000
373.475922	146.020000
373.569489	146.740000
373.662964	147.180000
373.756531	147.100000
373.850037	146.860000
373.943573	146.500000
374.037109	145.480000
374.130615	145.720000
374.224152	146.160000
374.317657	145.560000
374.411194	146.440000
374.504730	146.560000
374.598236	146.200000
374.691772	145.940000
374.785309	146.300000
374.878815	145.380000
374.972351	145.980000
375.065887	146.000000
375.159454	146.800000
375.252930	146.420000
375.346497	146.680000
375.440002	147.120000
375.533569	146.960000
375.627045	146.100000
375.720612	146.240000
375.814117	146.300000
375.907684	145.700000
376.001160	145.440000
376.094727	145.100000
376.188232	145.740000
376.281799	145.900000
376.375336	145.660000
376.468872	146.500000
376.562408	146.760000
376.655914	146.100000
376.749451	146.080000
376.842987	146.300000
376.936523	145.720000
377.030060	145.980000
377.123596	146.420000
377.217133	145.660000
377.310669	146.020000
377.404205	146.400000
377.497772	146.740000
377.591278	146.600000
377.684845	147.360000
377.778351	147.120000
377.871918	146.740000
377.965424	145.720000
378.058990	145.300000
378.152496	145.120000
378.246063	145.180000
378.339569	145.500000
378.433136	145.840000
378.526642	146.020000
378.620209	146.260000
378.713745	146.040000
378.807312	146.320000
378.900848	146.300000
378.994385	146.840000
379.087921	145.840000
379.181458	146.040000
379.274994	145.320000
379.368530	145.160000
379.462097	145.140000
379.555634	146.060000
379.649170	145.340000
379.742706	145.320000
379.836273	145.820000
379.929810	145.240000
380.023376	144.540000
380.116882	144.960000
380.210449	144.820000
380.303986	144.400000
380.397552	144.220000
380.491058	144.720000
380.584656	144.460000
380.678162	145.080000
380.771729	144.920000
380.865265	145.800000
380.958832	146.020000
381.052368	146.320000
381.145935	146.500000
381.239471	147.220000
381.333008	146.700000
381.426575	146.540000
381.520111	146.940000
381.613647	146.880000
381.707214	146.340000
381.800751	145.920000
381.894318	145.920000
381.987854	145.280000
382.081421	144.800000
382.174988	145.240000
382.268524	145.280000
382.362091	145.560000
382.455627	146.240000
382.549194	146.240000
382.642731	145.660000
382.736298	145.440000
382.829834	144.620000
382.923401	144.820000
383.016937	145.060000
383.110504	145.500000
383.204041	146.100000
383.297607	146.780000
383.391174	146.000000
383.484741	146.840000
383.578278	146.280000
383.671844	145.840000
383.765411	145.340000
383.858948	145.880000
383.952515	145.300000
384.046051	146.040000
384.139618	146.680000
384.233185	146.720000
384.326721	146.560000
384.420288	146.920000
384.513855	146.620000
384.607422	146.660000
384.700989	147.160000
384.794525	146.740000
384.888123	146.560000
384.981659	146.740000
385.075226	146.060000
385.168762	145.460000
385.262360	145.520000
385.355896	144.500000
385.449463	144.400000
385.542999	144.820000
385.636597	145.820000
385.730164	146.040000
385.823730	146.100000
385.917267	145.740000
386.010834	146.160000
386.104401	145.740000
386.197968	146.480000
386.291534	146.980000
386.385101	147.300000
386.478668	147.060000
386.572235	146.800000
386.665802	145.720000
386.759338	145.460000
386.852905	145.020000
386.946472	144.340000
387.040070	144.440000
387.133606	144.860000
387.227203	144.820000
387.320740	145.260000
387.414337	145.520000
387.507874	145.440000
387.601471	145.420000
387.695007	145.380000
387.788605	145.100000
387.882141	145.400000
387.975739	145.740000
388.069275	145.480000
388.162872	145.640000
388.256439	145.640000
388.350037	145.240000
388.443604	145.000000
388.537170	145.020000
388.630737	145.400000
388.724304	145.660000
388.817871	145.720000
388.911438	145.860000
389.005005	146.260000
389.098602	146.260000
389.192169	146.020000
389.285736	146.620000
389.379333	146.340000
389.472870	145.580000
389.566467	145.380000
389.660034	145.520000
389.753632	144.620000
389.847168	145.120000
389.940765	145.780000
390.034332	145.700000
390.127930	145.340000
390.221466	145.480000
390.315063	144.700000
390.408630	143.740000
390.502228	143.320000
390.595795	143.720000
390.689362	144.160000
390.782959	144.960000
390.876526	145.740000
390.970093	145.980000
391.063690	146.560000
391.157257	146.540000
391.250824	146.440000
391.344421	146.380000
391.437988	146.760000
391.531555	146.480000
391.625153	146.540000
391.718750	146.600000
391.812317	146.520000
391.905914	146.140000
391.999481	146.020000
392.093079	146.020000
392.186615	146.260000
392.280243	146.080000
392.373779	146.100000
392.467407	146.540000
392.560944	146.360000
392.654572	145.720000
392.748108	146.060000
392.841736	146.120000
392.935303	145.520000
393.028900	145.660000
393.122467	145.560000
393.216064	145.020000
393.309631	144.780000
393.403229	144.520000
393.496796	144.340000
393.590393	143.800000
393.683990	144.340000
393.777557	144.780000
393.871155	145.280000
393.964722	145.560000
394.058350	146.220000
394.151917	146.100000
394.245514	145.800000
394.339081	145.980000
394.432678	146.080000
394.526245	146.120000
394.619873	145.860000
394.713409	146.200000
394.807037	145.880000
394.900604	146.080000
394.994202	145.980000
395.087769	146.220000
395.181396	145.540000
395.274994	146.280000
395.368561	145.400000
395.462158	145.600000
395.555756	145.400000
395.649353	145.980000
395.742920	145.460000
395.836517	146.440000
395.930115	145.960000
396.023712	146.500000
396.117279	146.640000
396.210876	146.360000
396.304474	145.820000
396.398071	146.220000
396.491669	146.200000
396.585266	145.780000
396.678833	145.720000
396.772461	146.200000
396.866028	146.120000
396.959656	146.000000
397.053223	146.440000
397.146851	146.120000
397.240417	146.060000
397.334015	146.800000
397.427582	146.960000
397.521210	147.240000
397.614807	148.220000
397.708405	148.520000
397.802002	148.580000
397.895599	149.700000
397.989197	150.360000
398.082794	151.380000
398.176392	152.960000
398.269989	155.000000
398.363586	156.960000
398.457184	159.800000
398.550781	162.400000
398.644379	164.520000
398.737976	166.560000
398.831573	168.460000
398.925201	170.080000
399.018768	171.540000
399.112396	173.460000
399.205963	175.600000
399.299591	177.640000
399.393158	180.040000
399.486786	183.340000
399.580353	186.220000
399.673981	189.860000
399.767578	194.720000
399.861206	200.680000
399.954773	207.260000
400.048401	214.180000
400.141998	220.300000
400.235596	227.280000
400.329193	232.520000
400.422791	237.280000
400.516418	241.160000
400.610016	245.620000
400.703613	247.900000
400.797211	248.560000
400.890808	247.780000
400.984436	246.420000
401.078033	241.820000
401.171631	236.440000
401.265259	230.760000
401.358826	224.880000
401.452484	217.420000
401.546051	210.920000
401.639679	202.880000
401.733246	195.820000
401.826904	187.660000
401.920471	180.520000
402.014099	174.000000
402.107697	169.120000
402.201324	164.480000
402.294891	161.240000
402.388550	159.140000
402.482147	157.160000
402.575745	155.000000
402.669373	152.880000
402.762970	151.540000
402.856567	150.040000
402.950195	149.000000
403.043793	148.200000
403.137390	148.520000
403.231018	147.280000
403.324615	147.640000
403.418243	146.980000
403.511841	146.940000
403.605469	146.300000
403.699066	146.880000
403.792694	146.340000
403.886292	146.520000
403.979919	146.640000
404.073517	146.440000
404.167145	146.480000
404.260712	146.600000
404.354370	146.460000
404.447937	146.320000
404.541595	146.440000
404.635162	146.760000
404.728821	146.620000
404.822418	146.420000
404.916046	146.240000
405.009644	146.740000
405.103271	146.700000
405.196899	146.360000
405.290497	146.560000
405.384125	147.420000
405.477722	146.560000
405.571350	145.820000
405.664948	146.280000
405.758575	145.920000
405.852203	145.060000
405.945801	145.440000
406.039429	145.700000
406.133057	145.400000
406.226654	145.600000
406.320312	145.280000
406.413879	145.660000
406.507538	145.820000
406.601135	145.060000
406.694763	145.500000
406.788361	145.420000
406.882019	144.680000
406.975586	144.840000
407.069244	145.920000
407.162872	145.780000
407.256470	146.040000
407.350098	146.240000
407.443726	145.580000
407.537323	144.980000
407.630951	144.960000
407.724579	144.780000
407.818207	145.300000
407.911804	145.480000
408.005432	145.940000
408.099060	145.900000
408.192688	146.560000
408.286285	145.960000
408.379913	145.800000
408.473572	145.520000
408.567169	144.940000
408.660828	144.520000
408.754395	144.460000
408.848053	144.320000
408.941650	144.100000
409.035309	144.060000
409.128906	144.060000
409.222565	144.280000
409.316132	145.180000
409.409790	145.240000
409.503387	145.900000
409.597046	146.220000
409.690674	146.200000
409.784302	145.680000
409.877930	145.940000
409.971558	145.860000
410.065186	145.620000
410.158783	145.800000
410.252411	145.680000
410.346039	145.920000
410.439667	145.860000
410.533295	145.920000
410.626923	145.660000
410.720551	145.660000
410.814209	145.640000
410.907806	145.580000
411.001465	145.240000
411.095062	145.460000
411.188721	145.640000
411.282318	145.460000
411.375977	145.120000
411.469574	145.680000
411.563232	145.660000
411.656830	145.580000
411.750488	145.220000
411.844086	145.260000
411.937744	145.220000
412.031372	144.760000
412.125000	144.680000
412.218628	144.680000
412.312256	145.560000
412.405884	145.860000
412.499512	146.260000
412.593170	146.600000
412.686798	147.040000
412.780426	146.380000
412.874054	146.360000
412.967682	146.440000
413.061310	146.740000
413.154968	146.700000
413.248566	146.780000
413.342224	146.540000
413.435852	146.440000
413.529510	146.060000
413.623108	145.580000
413.716766	145.500000
413.810364	145.720000
413.904022	145.520000
413.997650	145.340000
414.091309	146.060000
414.184906	146.320000
414.278564	145.660000
414.372192	146.360000
414.465851	146.520000
414.559479	146.560000
414.653107	147.120000
414.746735	147.320000
414.840393	146.880000
414.934021	147.020000
415.027649	146.300000
415.121277	145.800000
415.214935	146.220000
415.308563	146.360000
415.402191	145.460000
415.495850	145.720000
415.589478	145.500000
415.683136	145.000000
415.776733	145.040000
415.870422	146.040000
415.964020	145.540000
416.057678	145.560000
416.151306	145.680000
416.244965	145.360000
416.338562	145.340000
416.432251	146.180000
416.525848	146.600000
416.619507	147.080000
416.713165	147.580000
416.806793	147.120000
416.900421	147.280000
416.994080	146.540000
417.087708	146.060000
417.181366	145.560000
417.274994	145.440000
417.368622	144.980000
417.462280	145.820000
417.555908	145.820000
417.649567	145.700000
417.743195	145.920000
417.836853	146.160000
417.930481	146.160000
418.024170	146.220000
418.117767	146.760000
418.211426	147.140000
418.305054	147.460000
418.398712	146.920000
418.492340	146.840000
418.585999	146.860000
418.679626	146.540000
418.773285	146.240000
418.866913	146.680000
418.960571	147.020000
419.054230	147.100000
419.147858	147.500000
419.241516	147.460000
419.335144	147.060000
419.428802	146.740000
419.522461	146.260000
419.616089	145.760000
419.709747	145.740000
419.803375	145.960000
419.897034	145.980000
419.990662	145.840000
420.084320	146.200000
420.177979	146.440000
420.271606	146.540000
420.365295	146.820000
420.458893	147.220000
420.552582	147.540000
420.646210	147.360000
420.739868	147.000000
420.833496	146.880000
420.927155	146.340000
421.020782	145.980000
421.114471	145.420000
421.208069	145.480000
421.301758	145.420000
421.395386	145.580000
421.489044	145.400000
421.582703	145.760000
421.676361	146.480000
421.769989	146.160000
421.863647	146.740000
421.957306	146.800000
422.050934	146.900000
422.144592	145.980000
422.238251	145.980000
422.331909	145.520000
422.425537	145.440000
422.519196	145.240000
422.612854	145.220000
422.706543	145.060000
422.800140	145.500000
422.893829	145.160000
422.987457	144.980000
423.081146	145.220000
423.174744	145.820000
423.268433	145.080000
423.362061	144.900000
423.455750	144.900000
423.549347	144.840000
423.643036	144.380000
423.736664	145.160000
423.830353	145.600000
423.924011	146.320000
424.017639	145.820000
424.111298	145.640000
424.204956	145.460000
424.298615	145.300000
424.392273	144.640000
424.485931	145.320000
424.579559	145.720000
424.673218	145.380000
424.766876	145.620000
424.860535	145.400000
424.954193	145.040000
425.047882	145.300000
425.141510	145.260000
425.235199	145.360000
425.328796	145.480000
425.422485	145.260000
425.516113	144.640000
425.609802	144.980000
425.703430	144.900000
425.797119	144.860000
425.890747	145.220000
425.984436	145.520000
426.078064	145.380000
426.171753	145.240000
426.265411	145.240000
426.359070	145.460000
426.452728	145.300000
426.546356	145.140000
426.640015	145.040000
426.733673	145.180000
426.827332	144.640000
426.920990	145.280000
427.014648	145.180000
427.108307	145.340000
427.201965	145.660000
427.295624	146.320000
427.389282	145.700000
427.482941	145.660000
427.576630	145.760000
427.670258	145.200000
427.763947	144.900000
427.857574	144.920000
427.951263	145.220000
428.044922	145.120000
428.138611	145.440000
428.232239	145.640000
428.325928	146.040000
428.419556	146.400000
428.513245	146.000000
428.606903	145.860000
428.700562	145.420000
428.794220	145.000000
428.887878	144.400000
428.981537	144.860000
429.075195	145.120000
429.168854	145.420000
429.262512	145.640000
429.356201	145.760000
429.449860	145.600000
429.543518	145.500000
429.637177	145.640000
429.730835	145.600000
429.824493	145.800000
429.918182	146.220000
430.011810	145.780000
430.105530	145.400000
430.199158	145.340000
430.292847	145.000000
430.386475	144.380000
430.480164	144.520000
430.573792	144.420000
430.667511	144.540000
430.761139	144.600000
430.854828	145.280000
430.948456	145.820000
431.042145	146.360000
431.135834	146.060000
431.229492	146.240000
431.323151	146.120000
431.416809	145.460000
431.510468	144.900000
431.604156	144.840000
431.697815	144.740000
431.791473	144.140000
431.885132	144.060000
431.978821	144.600000
432.072479	145.100000
432.166138	145.540000
432.259827	145.700000
432.353485	146.440000
432.447174	146.120000
432.540802	145.960000
432.634491	145.840000
432.728149	146.320000
432.821838	146.580000
432.915466	146.620000
433.009186	146.680000
433.102814	146.040000
433.196503	145.660000
433.290131	145.380000
433.383850	145.540000
433.477509	145.460000
433.571167	146.260000
433.664856	146.580000
433.758514	146.920000
433.852173	147.200000
433.945862	147.060000
434.039520	146.760000
434.133179	146.200000
434.226868	145.640000
434.320526	144.900000
434.414185	145.680000
434.507874	145.300000
434.601562	145.860000
434.695221	145.700000
434.788910	146.060000
434.882538	145.900000
434.976257	145.700000
435.069885	145.700000
435.163574	145.980000
435.257233	145.480000
435.350922	145.160000
435.444580	145.400000
435.538269	144.740000
435.631897	144.720000
435.725616	145.380000
435.819275	145.540000
435.912964	146.240000
436.006622	147.220000
436.100311	146.960000
436.193970	146.200000
436.287628	146.100000
436.381317	145.680000
436.474976	144.900000
436.568665	145.160000
436.662323	145.540000
436.756012	145.280000
436.849670	144.940000
436.943390	144.780000
437.037018	144.720000
437.130737	144.900000
437.224365	144.860000
437.318085	145.200000
437.411713	145.480000
437.505432	145.460000
437.599060	145.780000
437.692780	146.360000
437.786407	146.180000
437.880127	146.160000
437.973755	146.080000
438.067474	145.440000
438.161133	145.000000
438.254822	145.500000
438.348480	145.500000
438.442169	146.080000
438.535828	146.480000
438.629517	146.100000
438.723175	145.560000
438.816864	145.820000
438.910553	144.920000
439.004211	144.640000
439.097900	144.780000
439.191559	144.620000
439.285248	144.140000
439.378906	144.940000
439.472626	144.920000
439.566284	144.620000
439.659973	144.980000
439.753632	144.860000
439.847321	145.060000
439.940979	145.300000
440.034698	145.960000
440.128326	145.540000
440.222046	145.720000
440.315674	144.840000
440.409393	144.860000
440.503082	144.660000
440.596741	145.000000
440.690430	145.180000
440.784088	145.140000
440.877777	144.640000
440.971466	144.460000
441.065125	144.120000
441.158813	143.800000
441.252502	143.960000
441.346161	144.320000
441.439850	144.540000
441.533539	144.560000
441.627197	145.240000
441.720886	145.120000
441.814606	145.380000
441.908234	145.880000
442.001953	145.940000
442.095612	145.660000
442.189301	145.880000
442.282959	145.820000
442.376678	144.700000
442.470306	145.800000
442.564026	145.600000
442.657684	145.720000
442.751404	145.880000
442.845032	147.160000
442.938751	146.200000
443.032440	146.480000
443.126099	146.060000
443.219788	146.080000
443.313477	145.820000
443.407166	146.020000
443.500824	145.800000
443.594513	146.460000
443.688202	146.200000
443.781891	145.320000
443.875549	144.920000
443.969238	144.960000
444.062927	144.600000
444.156647	144.460000
444.250275	145.300000
444.343994	145.520000
444.437653	145.920000
444.531372	145.860000
444.625031	145.540000
444.718719	145.040000
444.812378	145.160000
444.906097	144.900000
444.999756	144.660000
445.093445	145.060000
445.187103	145.180000
445.280823	145.900000
445.374512	145.300000
445.468201	145.400000
445.561859	145.560000
445.655548	145.600000
445.749237	144.480000
445.842926	145.180000
445.936615	145.760000
446.030304	145.340000
446.123962	145.480000
446.217651	145.420000
446.311340	145.180000
446.405029	144.620000
446.498749	144.600000
446.592407	144.320000
446.686096	144.860000
446.779755	144.860000
446.873474	145.180000
446.967133	145.660000
447.060852	145.460000
447.154510	145.140000
447.248230	145.480000
447.341858	145.320000
447.435577	144.780000
447.529236	144.840000
447.622955	144.880000
447.716644	144.540000
447.810333	144.780000
447.904022	145.380000
447.997711	145.140000
448.091400	145.600000
448.185059	145.560000
448.278748	145.500000
448.372437	145.300000
448.466125	145.560000
448.559814	144.960000
448.653503	145.440000
448.747192	145.500000
448.840912	145.760000
448.934570	146.100000
449.028290	146.860000
449.121948	146.500000
449.215637	146.220000
449.309296	145.440000
449.403015	145.640000
449.496674	145.560000
449.590393	145.460000
449.684052	145.380000
449.777771	146.420000
449.871429	145.700000
449.965149	145.140000
450.058838	145.600000
450.152527	146.320000
450.246216	145.860000
450.339905	146.020000
450.433594	146.100000
450.527283	146.600000
450.620972	145.960000
450.714661	145.640000
450.808350	145.560000
450.902039	145.820000
450.995728	144.780000
451.089417	144.300000
451.183105	144.740000
451.276794	145.500000
451.370514	144.940000
451.464172	144.520000
451.557892	144.660000
451.651550	144.520000
451.745270	143.700000
451.838928	143.580000
451.932648	144.160000
452.026306	144.960000
452.120026	144.720000
452.213684	145.340000
452.307404	145.460000
452.401062	145.340000
452.494781	145.560000
452.588470	145.580000
452.682159	144.900000
452.775848	145.240000
452.869537	144.880000
452.963226	144.100000
453.056915	144.180000
453.150604	144.580000
453.244293	144.720000
453.337982	145.400000
453.431671	145.900000
453.525360	146.380000
453.619049	146.180000
453.712769	146.100000
453.806427	145.880000
453.900146	145.340000
453.993805	144.980000
454.087555	145.600000
454.181213	145.640000
454.274933	145.380000
454.368591	145.500000
454.462311	145.420000
454.555969	145.140000
454.649689	145.760000
454.743347	145.800000
454.837067	146.440000
454.930756	146.800000
455.024445	146.780000
455.118134	146.080000
455.211853	146.600000
455.305542	146.080000
455.399231	145.760000
455.492920	145.400000
455.586609	145.400000
455.680298	145.020000
455.773987	144.680000
455.867676	144.760000
455.961365	145.320000
456.055084	145.340000
456.148773	145.220000
456.242493	145.600000
456.336151	145.320000
456.429871	145.400000
456.523529	145.860000
456.617249	145.600000
456.710907	146.040000
456.804626	146.460000
456.898315	145.740000
456.992035	145.440000
457.085693	145.560000
457.179413	144.600000
457.273102	145.140000
457.366791	145.380000
457.460480	145.520000
457.554199	146.460000
457.647888	146.760000
457.741577	146.200000
457.835266	146.300000
457.928955	146.320000
458.022644	145.840000
458.116364	146.160000
458.210052	145.900000
458.303741	145.940000
458.397461	145.240000
458.491119	144.860000
458.584839	144.700000
458.678528	144.560000
458.772247	144.500000
458.865906	144.680000
458.959625	145.440000
459.053284	145.420000
459.147003	145.240000
459.240692	145.500000
459.334412	145.960000
459.428070	145.540000
459.521790	145.080000
459.615479	145.260000
459.709198	145.440000
459.802887	144.920000
459.896576	144.700000
459.990265	145.260000
460.083954	145.320000
460.177673	144.940000
460.271362	145.420000
460.365051	145.580000
460.458740	145.320000
460.552429	145.040000
460.646149	144.980000
460.739838	144.660000
460.833527	144.800000
460.927246	144.600000
461.020905	144.760000
461.114655	144.660000
461.208313	145.060000
461.302032	144.620000
461.395691	145.140000
461.489441	145.260000
461.583099	145.340000
461.676819	144.460000
461.770477	144.660000
461.864197	144.360000
461.957916	144.140000
462.051605	143.360000
462.145294	144.700000
462.238983	144.520000
462.332703	145.000000
462.426392	145.760000
462.520081	146.200000
462.613770	145.440000
462.707489	145.860000
462.801178	145.280000
462.894867	145.000000
462.988556	145.360000
463.082275	145.540000
463.175964	144.880000
463.269684	145.320000
463.363342	145.000000
463.457092	144.400000
463.550751	144.560000
463.644470	144.860000
463.738129	144.520000
463.831879	144.900000
463.925537	145.740000
464.019257	145.700000
464.112946	145.760000
464.206665	145.680000
464.300323	145.480000
464.394043	145.080000
464.487762	145.000000
464.581451	145.460000
464.675140	145.580000
464.768829	145.740000
464.862549	145.980000
464.956238	146.280000
465.049927	145.960000
465.143646	146.100000
465.237335	145.920000
465.331024	146.260000
465.424713	145.960000
465.518433	146.120000
465.612152	145.960000
465.705811	145.920000
465.799561	145.440000
465.893219	145.000000
465.986938	144.640000
466.080597	144.580000
466.174347	144.940000
466.268005	145.000000
466.361725	145.300000
466.455414	145.500000
466.549133	145.340000
466.642792	145.360000
466.736542	145.120000
466.830231	145.320000
466.923920	145.400000
467.017609	145.600000
467.111328	145.180000
467.205017	145.440000
467.298706	145.440000
467.392426	145.560000
467.486115	146.040000
467.579803	145.660000
467.673523	145.660000
467.767212	145.680000
467.860901	145.280000
467.954651	144.980000
468.048309	145.720000
468.142029	145.800000
468.235718	145.720000
468.329437	145.700000
468.423096	145.720000
468.516846	145.520000
468.610504	145.180000
468.704224	144.700000
468.797913	144.820000
468.891632	144.980000
468.985291	144.720000
469.079010	145.040000
469.172729	144.840000
469.266418	145.320000
469.360107	144.980000
469.453827	145.020000
469.547516	145.080000
469.641205	145.680000
469.734924	145.600000
469.828613	146.060000
469.922302	146.360000
470.016022	146.040000
470.109711	145.700000
470.203430	145.260000
470.297150	144.460000
470.390808	144.360000
470.484558	144.540000
470.578217	145.340000
470.671936	146.000000
470.765625	146.840000
470.859344	146.700000
470.953003	147.000000
471.046753	146.080000
471.140411	145.020000
471.234131	144.680000
471.327820	145.300000
471.421539	145.120000
471.515228	145.260000
471.608948	145.900000
471.702637	145.800000
471.796326	145.340000
471.890045	145.460000
471.983734	145.780000
472.077423	145.540000
472.171143	145.920000
472.264832	145.880000
472.358521	145.600000
472.452240	145.140000
472.545929	145.580000
472.639648	145.580000
472.733337	145.840000
472.827057	145.960000
472.920746	146.100000
473.014465	146.100000
473.108124	145.980000
473.201874	145.820000
473.295532	145.640000
473.389252	146.460000
473.482941	146.480000
473.576660	145.860000
473.670319	145.720000
473.764069	146.120000
473.857727	145.920000
473.951477	146.180000
474.045166	147.040000
474.138855	146.840000
474.232574	146.660000
474.326263	146.360000
474.419952	146.060000
474.513672	145.780000
474.607361	145.780000
474.701050	145.940000
474.794769	146.260000
474.888458	146.620000
474.982178	146.780000
475.075867	147.040000
475.169586	146.860000
475.263275	146.500000
475.356995	145.980000
475.450653	145.560000
475.544403	145.260000
475.638062	145.680000
475.731812	145.360000
475.825470	145.320000
475.919189	145.660000
476.012878	145.860000
476.106598	145.220000
476.200256	145.500000
476.294006	145.380000
476.387695	145.240000
476.481384	145.360000
476.575104	145.400000
476.668793	145.100000
476.762512	144.960000
476.856201	145.280000
476.949890	144.880000
477.043610	144.460000
477.137299	144.460000
477.230988	145.060000
477.324707	144.540000
477.418396	145.340000
477.512146	145.560000
477.605804	145.880000
477.699524	145.580000
477.793213	145.520000
477.886932	145.200000
477.980591	145.240000
478.074341	144.760000
478.167999	144.380000
478.261749	144.300000
478.355408	143.880000
478.449127	144.500000
478.542816	145.740000
478.636536	146.520000
478.730225	146.840000
478.823944	147.240000
478.917633	146.700000
479.011322	146.480000
479.105042	146.000000
479.198730	146.040000
479.292450	145.840000
479.386139	146.100000
479.479828	145.760000
479.573547	146.280000
479.667267	146.120000
479.760925	146.160000
479.854675	146.380000
479.948334	146.420000
480.042084	145.420000
480.135742	145.760000
480.229462	145.060000
480.323151	144.860000
480.416870	144.180000
480.510529	144.560000
480.604279	143.920000
480.697937	145.000000
480.791656	144.720000
480.885345	144.860000
480.979065	145.000000
481.072754	145.820000
481.166473	145.740000
481.260132	146.080000
481.353882	146.120000
481.447540	145.860000
481.541260	145.640000
481.635010	145.000000
481.728668	144.480000
481.822388	144.800000
481.916077	145.220000
482.009796	145.020000
482.103485	145.760000
482.197205	146.120000
482.290863	146.120000
482.384613	145.720000
482.478271	145.400000
482.571991	144.800000
482.665680	144.660000
482.759399	145.180000
482.853058	145.800000
482.946808	146.020000
483.040466	146.080000
483.134216	145.920000
483.227875	145.180000
483.321594	145.380000
483.415283	145.240000
483.509003	145.380000
483.602661	145.300000
483.696411	145.600000
483.790070	145.280000
483.883789	145.480000
483.977478	145.680000
484.071198	146.040000
484.164917	145.640000
484.258606	145.160000
484.352325	145.400000
484.445984	145.440000
484.539734	145.460000
484.633392	145.360000
484.727142	145.940000
484.820801	145.500000
484.914520	145.400000
485.008209	145.400000
485.101929	145.660000
485.195587	145.440000
485.289337	145.820000
485.382996	145.600000
485.476715	145.720000
485.570404	145.900000
485.664124	145.860000
485.757782	146.060000
485.851532	145.900000
485.945190	145.580000
486.038910	145.800000
486.132599	145.840000
486.226318	144.820000
486.319977	144.880000
486.413727	145.400000
486.507446	144.720000
486.601105	144.240000
486.694855	144.700000
486.788513	144.660000
486.882233	144.560000
486.975922	144.780000
487.069641	145.060000
487.163300	144.940000
487.257050	146.300000
487.350708	145.880000
487.444427	145.820000
487.538116	145.600000
487.631836	145.560000
487.725494	144.720000
487.819214	144.380000
487.912903	144.260000
488.006622	144.880000
488.100281	145.000000
488.194031	144.540000
488.287689	145.400000
488.381409	146.020000
488.475098	145.420000
488.568817	145.960000
488.662476	145.880000
488.756226	145.020000
488.849945	144.300000
488.943604	144.700000
489.037354	144.640000
489.131012	144.920000
489.224731	145.040000
489.318390	145.420000
489.412140	145.140000
489.505798	144.560000
489.599518	144.240000
489.693207	144.700000
489.786926	144.260000
489.880585	144.380000
489.974335	144.960000
490.067993	145.960000
490.161713	145.860000
490.255371	147.020000
490.349121	147.060000
490.442780	146.740000
490.536499	145.980000
490.630188	146.100000
490.723907	145.140000
490.817566	145.360000
490.911285	145.480000
491.004974	145.240000
491.098694	144.740000
491.192413	145.520000
491.286102	145.300000
491.379822	145.480000
491.473480	145.920000
491.567200	146.360000
491.660889	145.520000
491.754608	145.320000
491.848267	145.060000
491.941986	144.860000
492.035675	144.760000
492.129395	145.540000
492.223053	145.480000
492.316772	145.800000
492.410461	145.800000
492.504181	145.880000
492.597839	145.460000
492.691559	145.880000
492.785248	145.840000
492.878967	146.020000
492.972626	145.600000
493.066345	145.480000
493.160034	144.880000
493.253754	144.600000
493.347412	144.100000
493.441132	144.540000
493.534882	144.880000
493.628540	145.340000
493.722260	145.340000
493.815918	145.720000
493.909668	146.180000
494.003326	146.480000
494.097046	146.300000
494.190704	146.300000
494.284454	146.500000
494.378113	146.240000
494.471832	145.920000
494.565491	145.700000
494.659210	145.800000
494.752899	145.780000
494.846619	145.480000
494.940277	145.320000
495.033997	145.680000
495.127686	145.320000
495.221405	145.000000
495.315063	145.260000
495.408783	145.460000
495.502441	145.380000
495.596191	145.740000
495.689850	145.220000
495.783569	145.320000
495.877228	145.380000
495.970947	145.080000
496.064697	144.880000
496.158356	146.400000
496.252075	146.120000
496.345734	145.820000
496.439453	146.540000
496.533142	146.540000
496.626862	146.000000
496.720520	145.980000
496.814240	146.040000
496.907898	145.760000
497.001617	146.000000
497.095306	145.520000
497.189026	145.760000
497.282684	146.000000
497.376404	146.440000
497.470062	146.080000
497.563782	146.280000
497.657471	145.960000
497.751190	145.540000
497.844849	145.280000
497.938568	145.660000
498.032227	145.700000
498.125946	145.720000
498.219635	145.740000
498.313354	145.580000
498.407074	145.280000
498.500732	145.280000
498.594452	145.360000
498.688110	145.160000
498.781830	144.680000
498.875519	144.780000
498.969238	144.620000
499.062897	144.300000
499.156616	144.760000
499.250275	145.260000
499.343994	144.920000
499.437653	145.140000
499.531372	145.760000
499.625061	146.300000
499.718781	146.420000
499.812439	147.040000
499.906158	146.620000
499.999817	146.200000
500.093536	145.220000
500.187195	145.140000
500.280914	144.960000
500.374573	145.580000
500.468323	145.520000
500.561981	145.980000
500.655701	145.520000
500.749420	145.260000
500.843079	144.820000
500.936798	144.940000
501.030457	145.000000
501.124176	145.320000
501.217834	145.860000
501.311554	145.720000
501.405212	145.580000
501.498962	145.220000
501.592621	144.900000
501.686340	144.860000
501.779999	145.260000
501.873718	145.560000
501.967377	145.780000
502.061096	146.360000
502.154755	145.480000
502.248474	145.240000
502.342133	145.320000
502.435852	145.060000
502.529510	145.380000
502.623230	146.520000
502.716888	146.040000
502.810608	145.980000
502.904266	146.740000
502.997986	146.200000
503.091705	145.580000
503.185364	145.760000
503.279083	145.560000
503.372772	144.920000
503.466492	144.820000
503.560150	144.720000
503.653870	145.380000
503.747528	145.500000
503.841248	145.620000
503.934906	145.820000
504.028625	145.420000
504.122284	145.120000
504.216003	145.580000
504.309662	145.020000
504.403381	145.120000
504.497040	145.560000
504.590759	145.440000
504.684418	145.380000
504.778137	146.100000
504.871796	146.340000
504.965515	146.080000
505.059174	146.340000
505.152893	145.480000
505.246521	144.960000
505.340240	144.280000
505.433899	144.800000
505.527618	144.820000
505.621338	145.600000
505.714996	145.680000
505.808716	145.740000
505.902374	145.740000
505.996094	145.920000
506.089752	145.380000
506.183472	145.580000
506.277130	145.800000
506.370850	145.480000
506.464508	144.860000
506.558228	145.240000
506.651886	144.880000
506.745605	145.100000
506.839264	145.300000
506.932983	145.660000
507.026611	145.080000
507.120331	145.480000
507.213989	144.780000
507.307709	144.840000
507.401367	145.100000
507.495087	146.180000
507.588745	145.940000
507.682465	147.120000
507.776123	146.900000
507.869843	146.660000
507.963531	146.240000
508.057190	146.760000
508.150909	145.360000
508.244568	145.720000
508.338287	145.420000
508.431946	145.040000
508.525665	144.400000
508.619324	144.640000
508.713013	144.580000
508.806671	145.020000
508.900391	145.760000
508.994049	146.320000
509.087769	146.300000
509.181427	146.260000
509.275146	146.180000
509.368774	145.400000
509.462494	145.260000
509.556152	145.340000
509.649872	145.640000
509.743530	145.580000
509.837250	145.680000
509.930878	145.560000
510.024597	145.520000
510.118256	145.000000
510.211975	144.800000
510.305695	144.860000
510.399353	145.180000
510.493042	145.940000
510.586700	146.140000
510.680420	146.440000
510.774078	146.240000
510.867798	146.140000
510.961426	145.360000
511.055145	145.280000
511.148804	144.980000
511.242523	145.440000
511.336151	145.520000
511.429871	145.940000
511.523529	145.820000
511.617249	145.760000
511.710876	145.320000
511.804596	144.820000
511.898254	144.840000
511.991974	145.160000
512.085632	144.920000
512.179321	145.340000
512.272949	145.760000
512.366699	145.780000
512.460327	145.740000
512.554077	146.620000
512.647766	146.260000
512.741394	146.040000
512.835144	146.380000
512.928772	146.020000
513.022461	145.640000
513.116150	145.580000
513.209839	145.800000
513.303467	145.280000
513.397217	145.240000
513.490845	145.320000
513.584595	145.140000
513.678223	144.840000
513.771912	144.220000
513.865601	144.600000
513.959290	144.220000
514.052917	144.280000
514.146667	145.080000
514.240295	145.760000
514.333984	145.560000
514.427673	145.500000
514.521362	146.060000
514.614990	144.780000
514.708740	144.780000
514.802368	145.120000
514.896057	145.540000
514.989746	146.040000
515.083435	146.460000
515.177124	146.680000
515.270752	146.400000
515.364502	146.120000
515.458130	145.680000
515.551819	145.700000
515.645508	145.300000
515.739197	145.220000
515.832825	145.680000
515.926575	145.420000
516.020203	145.520000
516.113892	146.460000
516.207520	146.320000
516.301270	146.060000
516.394897	146.260000
516.488586	146.560000
516.582275	146.000000
516.675964	145.880000
516.769592	145.680000
516.863281	146.080000
516.956970	146.420000
517.050659	145.960000
517.144287	146.180000
517.238037	146.480000
517.331665	145.840000
517.425354	145.100000
517.519043	145.100000
517.612732	145.220000
517.706421	145.020000
517.800049	144.880000
517.893738	144.680000
517.987427	144.980000
518.081116	145.040000
518.174744	144.760000
518.268433	145.080000
518.362122	146.000000
518.455811	146.100000
518.549438	146.620000
518.643127	147.480000
518.736816	147.220000
518.830505	146.320000
518.924133	146.340000
519.017822	146.060000
519.111511	145.740000
519.205200	146.420000
519.298828	146.840000
519.392517	146.160000
519.486206	146.140000
519.579895	145.980000
519.673523	145.620000
519.767212	145.700000
519.860901	146.340000
519.954590	145.880000
520.048279	145.540000
520.141907	145.100000
520.235596	145.840000
520.329224	145.980000
520.422974	146.280000
520.516602	146.360000
520.610291	146.200000
520.703918	145.560000
520.797607	145.280000
520.891296	145.280000
520.984985	145.480000
521.078613	146.340000
521.172302	145.900000
521.265930	146.720000
521.359680	147.220000
521.453308	147.080000
521.546997	146.680000
521.640625	147.100000
521.734314	146.120000
521.827942	145.640000
521.921692	145.920000
522.015320	146.000000
522.109009	145.580000
522.202698	145.500000
522.296326	145.700000
522.390015	145.740000
522.483704	145.780000
522.577393	145.760000
522.671021	145.600000
522.764709	145.240000
522.858337	145.760000
522.952026	145.540000
523.045654	146.240000
523.139404	147.440000
523.233032	147.580000
523.326721	146.860000
523.420349	146.920000
523.514038	146.160000
523.607666	145.740000
523.701355	145.260000
523.795044	145.520000
523.888733	145.660000
523.982361	146.040000
524.076050	145.620000
524.169678	146.120000
524.263367	145.920000
524.356995	145.560000
524.450684	145.500000
524.544373	145.580000
524.638062	145.540000
524.731750	145.640000
524.825378	145.820000
524.919067	145.240000
525.012695	145.060000
525.106384	144.840000
525.200012	144.920000
525.293701	144.540000
525.387329	145.380000
525.481018	145.620000
525.574646	146.060000
525.668396	146.100000
525.762024	146.540000
525.855713	146.280000
525.949341	145.940000
526.043030	145.800000
526.136658	145.360000
526.230347	145.120000
526.323975	144.780000
526.417664	145.040000
526.511292	145.040000
526.604980	145.380000
526.698608	145.360000
526.792297	145.840000
526.885925	145.980000
526.979614	145.920000
527.073303	145.600000
527.166931	145.700000
527.260620	145.640000
527.354309	145.920000
527.447998	145.660000
527.541626	145.440000
527.635315	145.500000
527.728943	145.900000
527.822632	146.000000
527.916260	146.260000
528.009949	146.860000
528.103577	146.700000
528.197266	145.880000
528.290894	145.480000
528.384583	145.340000
528.478210	145.200000
528.571899	145.540000
528.665527	146.080000
528.759216	146.420000
528.852844	146.940000
528.946533	147.040000
529.040161	146.880000
529.133850	146.480000
529.227478	146.400000
529.321167	146.380000
529.414856	146.520000
529.508484	146.800000
529.602173	146.980000
529.695801	146.740000
529.789490	146.380000
529.883057	146.180000
529.976746	146.480000
530.070374	146.540000
530.164062	146.680000
530.257690	146.620000
530.351379	146.700000
530.445007	146.100000
530.538696	145.600000
530.632324	145.700000
530.726013	146.120000
530.819641	146.060000
530.913330	146.380000
531.006958	146.640000
531.100647	146.560000
531.194275	146.120000
531.287964	145.640000
531.381592	145.160000
531.475220	145.300000
531.568848	145.180000
531.662537	144.940000
531.756226	145.760000
531.849854	146.100000
531.943542	145.740000
532.037170	145.280000
532.130859	145.800000
532.224487	145.100000
532.318176	144.560000
532.411804	145.540000
532.505432	146.000000
532.599060	145.380000
532.692749	145.240000
532.786377	145.920000
532.880066	144.820000
532.973694	144.280000
533.067383	144.380000
533.161011	144.840000
533.254639	144.700000
533.348267	145.000000
533.441956	145.360000
533.535583	145.480000
533.629272	145.220000
533.722900	144.320000
533.816589	144.380000
533.910156	144.560000
534.003845	144.220000
534.097534	144.760000
534.191162	145.760000
534.284851	145.640000
534.378479	145.460000
534.472107	145.760000
534.565735	145.100000
534.659424	145.120000
534.753052	145.100000
534.846741	144.620000
534.940369	145.200000
535.033997	145.420000
535.127625	145.100000
535.221313	146.060000
535.314941	146.160000
535.408630	145.240000
535.502197	145.720000
535.595886	145.520000
535.689514	144.640000
535.783203	145.380000
535.876831	146.100000
535.970459	146.020000
536.064087	145.900000
536.157776	145.760000
536.251404	145.440000
536.345093	144.920000
536.438721	144.580000
536.532349	144.900000
536.626038	145.120000
536.719666	145.420000
536.813293	145.360000
536.906921	145.320000
537.000610	145.660000
537.094238	145.400000
537.187866	145.240000
537.281494	145.380000
537.375183	145.700000
537.468811	145.360000
537.562439	145.780000
537.656067	145.460000
537.749756	145.660000
537.843384	145.800000
537.937012	145.960000
538.030640	145.340000
538.124329	145.420000
538.217896	145.620000
538.311584	145.540000
538.405212	145.400000
538.498901	146.000000
538.592468	146.660000
538.686157	146.060000
538.779785	144.920000
538.873413	145.000000
538.967102	144.660000
539.060730	143.700000
539.154358	144.460000
539.247986	145.360000
539.341675	145.240000
539.435242	145.260000
539.528931	145.640000
539.622559	144.720000
539.716187	145.440000
539.809814	145.160000
539.903503	145.140000
539.997070	145.140000
540.090759	145.820000
540.184387	145.060000
540.278015	146.000000
540.371643	146.220000
540.465332	146.160000
540.558899	145.740000
540.652588	145.740000
540.746216	144.960000
540.839844	145.200000
540.933472	145.340000
541.027100	145.400000
541.120728	145.360000
541.214417	145.520000
541.308044	146.000000
541.401672	145.900000
541.495300	145.780000
541.588928	145.620000
541.682617	145.700000
541.776184	144.880000
541.869873	145.060000
541.963440	145.320000
542.057129	145.340000
542.150757	145.220000
542.244385	144.860000
542.338013	144.480000
542.431641	144.360000
542.525269	144.480000
542.618958	145.140000
542.712524	145.700000
542.806213	145.880000
542.899780	146.020000
542.993469	145.760000
543.087036	145.260000
543.180725	144.720000
543.274292	145.100000
543.367981	145.540000
543.461548	145.820000
543.555237	145.560000
543.648926	146.380000
543.742493	146.700000
543.836182	146.320000
543.929749	146.480000
544.023437	146.540000
544.117004	146.400000
544.210693	146.280000
544.304260	146.460000
544.397949	146.200000
544.491516	146.500000
544.585205	146.080000
544.678772	145.680000
544.772461	145.820000
544.866028	145.700000
544.959717	145.640000
545.053284	145.440000
545.146973	145.600000
545.240540	145.260000
545.334229	146.000000
545.427795	146.120000
545.521423	146.360000
545.615051	146.180000
545.708679	146.780000
545.802307	146.380000
545.895935	146.620000
545.989624	147.320000
546.083191	147.120000
546.176880	146.560000
546.270447	145.860000
546.364136	145.920000
546.457703	145.420000
546.551331	145.360000
546.644958	145.660000
546.738586	146.380000
546.832214	145.740000
546.925842	145.580000
547.019409	146.360000
547.113098	145.740000
547.206665	145.440000
547.300354	145.860000
547.393921	146.180000
547.487549	146.000000
547.581177	145.960000
547.674805	145.960000
547.768433	145.240000
547.862061	145.240000
547.955627	144.460000
548.049316	145.120000
548.142883	145.420000
548.236572	146.060000
548.330139	146.480000
548.423767	146.660000
548.517456	146.500000
548.611023	147.000000
548.704651	146.300000
548.798279	146.100000
548.891907	146.540000
548.985474	146.520000
549.079163	146.000000
549.172729	146.100000
549.266357	145.480000
549.359985	145.560000
549.453613	145.020000
549.547180	145.080000
549.640869	145.440000
549.734436	145.460000
549.828064	145.480000
549.921631	145.520000
550.015320	145.020000
550.108887	145.680000
550.202515	145.720000
550.296143	145.300000
550.389771	145.720000
550.483337	145.920000
550.576965	145.440000
550.670593	145.680000
550.764221	145.620000
550.857849	145.460000
550.951477	145.480000
551.045105	145.020000
551.138672	144.860000
551.232300	144.880000
551.325928	145.100000
551.419556	145.260000
551.513123	145.260000
551.606750	144.980000
551.700378	144.960000
551.794006	144.900000
551.887573	144.580000
551.981201	145.240000
552.074768	145.500000
552.168457	145.280000
552.262024	146.160000
552.355652	146.500000
552.449219	146.780000
552.542847	146.920000
552.636475	146.860000
552.730103	145.720000
552.823669	145.600000
552.917297	145.100000
553.010864	144.820000
553.104553	145.380000
553.198181	145.240000
553.291748	145.500000
553.385376	145.540000
553.478943	145.760000
553.572571	145.440000
553.666199	145.620000
553.759827	145.420000
553.853394	145.020000
553.947021	144.860000
554.040588	144.900000
554.134216	145.260000
554.227783	145.940000
554.321411	146.800000
554.415039	146.540000
554.508667	146.460000
554.602234	146.640000
554.695862	145.700000
554.789429	145.320000
554.883057	145.600000
554.976624	145.640000
555.070251	145.400000
555.163818	145.620000
555.257507	145.400000
555.351074	145.320000
555.444702	146.460000
555.538330	146.120000
555.631897	146.620000
555.725525	146.620000
555.819092	146.600000
555.912720	145.580000
556.006287	146.260000
556.099915	145.580000
556.193481	145.860000
556.287109	146.260000
556.380676	146.000000
556.474304	145.720000
556.567871	146.200000
556.661499	145.540000
556.755066	145.620000
556.848694	145.980000
556.942261	145.700000
557.035889	145.680000
557.129517	146.280000
557.223145	146.420000
557.316711	146.400000
557.410339	146.600000
557.503906	146.160000
557.597473	146.080000
557.691040	145.760000
557.784668	146.000000
557.878296	145.940000
557.971863	146.380000
558.065491	146.520000
558.159058	146.420000
558.252686	146.820000
558.346252	147.380000
558.439880	147.040000
558.533447	146.960000
558.627075	146.580000
558.720642	145.840000
558.814270	145.740000
558.907837	145.680000
559.001465	144.980000
559.095032	145.760000
559.188660	146.220000
559.282227	145.580000
559.375854	146.180000
559.469360	146.620000
559.562988	146.680000
559.656555	146.440000
559.750183	146.840000
559.843750	146.960000
559.937378	147.040000
560.030945	146.800000
560.124573	0.000000
560.218140	0.000000
560.311707	0.000000
560.405334	0.000000
560.498901	0.000000
560.592529	0.000000
560.686096	0.000000
560.779724	0.000000
560.873291	0.000000
560.966858	0.000000
561.060425	0.000000
561.154053	0.000000
561.247620	0.000000
561.341248	0.000000
561.434814	0.000000
561.528381	0.000000
561.621948	0.000000
561.715576	0.000000
561.809143	0.000000
561.902771	0.000000
561.996277	0.000000
562.089905	0.000000
562.183472	0.000000
562.277100	0.000000
