Model Number: SPM-002-B   
Serial Number: 70087108
Firmware Version: 004.15.4
Exposure Time: 100000.000000us
Data Taken on: 11-12-2020 18:53:03.730
Wavelength	Amplitude
221.570786	0.000000
221.663406	0.000000
221.756027	0.000000
221.848648	0.000000
221.941269	0.000000
222.033905	0.000000
222.126526	0.000000
222.219162	0.000000
222.311798	0.000000
222.404419	0.000000
222.497055	0.000000
222.589676	0.000000
222.682312	0.000000
222.774933	0.000000
222.867569	0.000000
222.960205	0.000000
223.052841	0.000000
223.145462	0.000000
223.238098	0.000000
223.330734	0.000000
223.423386	0.000000
223.516022	0.000000
223.608658	0.000000
223.701309	0.000000
223.793945	0.000000
223.886581	0.000000
223.979218	0.000000
224.071869	0.000000
224.164505	0.000000
224.257156	0.000000
224.349792	0.000000
224.442444	0.000000
224.535095	0.000000
224.627747	0.000000
224.720398	0.000000
224.813034	0.000000
224.905685	0.000000
224.998337	145.740000
225.090988	145.140000
225.183640	144.920000
225.276291	144.660000
225.368942	144.960000
225.461594	145.620000
225.554245	145.920000
225.646912	146.180000
225.739578	146.820000
225.832230	147.500000
225.924896	146.580000
226.017548	147.040000
226.110199	147.420000
226.202866	146.660000
226.295532	146.420000
226.388184	146.440000
226.480850	145.880000
226.573517	145.580000
226.666168	145.880000
226.758835	145.920000
226.851501	146.680000
226.944183	146.980000
227.036850	146.280000
227.129517	146.220000
227.222183	146.140000
227.314850	145.820000
227.407516	146.120000
227.500198	147.160000
227.592865	146.840000
227.685532	146.440000
227.778214	146.380000
227.870880	146.300000
227.963562	146.500000
228.056229	147.020000
228.148926	147.260000
228.241592	147.940000
228.334274	147.480000
228.426956	147.140000
228.519638	147.200000
228.612305	146.980000
228.704987	146.680000
228.797668	146.760000
228.890350	146.320000
228.983032	145.460000
229.075714	146.280000
229.168396	146.280000
229.261108	146.060000
229.353790	146.420000
229.446472	146.820000
229.539169	146.400000
229.631851	146.060000
229.724533	146.400000
229.817230	146.600000
229.909912	147.640000
230.002609	147.540000
230.095306	147.420000
230.187988	147.480000
230.280685	147.080000
230.373383	145.800000
230.466095	145.640000
230.558792	146.160000
230.651474	145.980000
230.744171	145.960000
230.836868	146.160000
230.929581	146.580000
231.022278	146.420000
231.114975	146.160000
231.207672	146.100000
231.300369	146.680000
231.393082	146.440000
231.485779	146.260000
231.578506	146.580000
231.671204	146.760000
231.763916	146.360000
231.856613	146.500000
231.949326	146.640000
232.042023	146.420000
232.134735	146.420000
232.227448	146.060000
232.320160	146.100000
232.412872	146.120000
232.505585	146.980000
232.598297	147.120000
232.691010	147.340000
232.783722	147.020000
232.876450	147.440000
232.969162	146.700000
233.061874	146.360000
233.154587	146.020000
233.247314	146.480000
233.340027	146.140000
233.432739	146.640000
233.525467	146.620000
233.618179	147.160000
233.710907	146.680000
233.803635	146.680000
233.896347	146.220000
233.989090	146.640000
234.081818	146.600000
234.174545	146.880000
234.267258	146.520000
234.359985	147.000000
234.452713	146.680000
234.545441	146.560000
234.638168	146.320000
234.730896	146.740000
234.823639	146.260000
234.916367	146.640000
235.009094	146.460000
235.101822	146.480000
235.194580	146.480000
235.287308	146.560000
235.380051	146.100000
235.472778	146.500000
235.565521	146.780000
235.658249	146.240000
235.750992	146.200000
235.843719	146.400000
235.936462	146.580000
236.029205	146.320000
236.121948	146.200000
236.214691	146.560000
236.307449	147.080000
236.400192	146.640000
236.492935	146.140000
236.585678	146.620000
236.678421	146.660000
236.771164	146.080000
236.863907	146.620000
236.956665	147.300000
237.049408	148.760000
237.142151	148.140000
237.234909	148.820000
237.327652	148.520000
237.420410	147.980000
237.513153	146.840000
237.605927	146.880000
237.698669	146.200000
237.791428	145.540000
237.884186	146.040000
237.976944	145.480000
238.069702	146.020000
238.162445	145.900000
238.255203	146.380000
238.347961	146.600000
238.440720	146.740000
238.533478	146.280000
238.626266	146.080000
238.719025	146.500000
238.811783	146.320000
238.904541	146.180000
238.997314	145.960000
239.090073	145.820000
239.182831	145.740000
239.275604	146.180000
239.368362	146.000000
239.461136	146.460000
239.553909	146.440000
239.646667	146.200000
239.739441	145.720000
239.832214	146.000000
239.925003	145.940000
240.017761	146.760000
240.110535	147.220000
240.203308	146.720000
240.296082	146.840000
240.388855	146.460000
240.481628	146.500000
240.574417	145.960000
240.667191	146.180000
240.759964	145.780000
240.852737	146.320000
240.945526	145.440000
241.038315	145.580000
241.131088	145.940000
241.223877	146.420000
241.316650	145.660000
241.409439	146.320000
241.502228	146.020000
241.595001	146.260000
241.687790	146.080000
241.780579	146.380000
241.873367	146.420000
241.966141	146.780000
242.058929	146.300000
242.151718	146.540000
242.244507	147.220000
242.337311	146.520000
242.430099	146.780000
242.522903	147.200000
242.615692	146.580000
242.708481	146.260000
242.801270	147.220000
242.894073	147.060000
242.986862	146.960000
243.079651	147.820000
243.172455	147.560000
243.265244	147.120000
243.358063	146.580000
243.450867	146.420000
243.543655	145.980000
243.636459	145.980000
243.729263	146.360000
243.822067	146.740000
243.914856	147.320000
244.007660	147.440000
244.100464	147.520000
244.193268	147.080000
244.286072	146.860000
244.378876	146.080000
244.471680	145.740000
244.564499	145.960000
244.657318	146.660000
244.750122	147.060000
244.842926	146.640000
244.935745	147.080000
245.028549	146.760000
245.121368	146.160000
245.214172	146.160000
245.306992	147.040000
245.399796	146.640000
245.492615	146.920000
245.585434	146.840000
245.678253	146.700000
245.771072	146.480000
245.863892	146.980000
245.956711	147.040000
246.049530	146.780000
246.142349	146.480000
246.235168	146.700000
246.327988	147.000000
246.420807	146.740000
246.513626	146.960000
246.606445	146.820000
246.699280	146.520000
246.792099	145.920000
246.884918	145.700000
246.977753	145.580000
247.070587	146.020000
247.163422	146.200000
247.256241	146.340000
247.349075	146.320000
247.441895	146.380000
247.534729	146.180000
247.627563	145.620000
247.720383	146.200000
247.813217	146.440000
247.906052	146.440000
247.998886	146.680000
248.091736	147.180000
248.184570	146.660000
248.277405	146.800000
248.370239	147.720000
248.463074	148.380000
248.555908	148.400000
248.648743	148.180000
248.741592	148.360000
248.834427	147.500000
248.927261	146.220000
249.020111	146.700000
249.112946	147.260000
249.205795	146.540000
249.298630	146.480000
249.391495	146.660000
249.484344	145.940000
249.577179	145.780000
249.670029	146.400000
249.762878	146.840000
249.855728	147.220000
249.948563	147.280000
250.041412	146.820000
250.134262	146.840000
250.227112	146.940000
250.319962	146.920000
250.412827	146.960000
250.505692	146.800000
250.598541	146.580000
250.691391	146.180000
250.784241	146.220000
250.877106	146.480000
250.969955	146.120000
251.062805	146.620000
251.155670	147.020000
251.248520	146.580000
251.341385	146.740000
251.434235	147.040000
251.527100	146.660000
251.619965	146.220000
251.712814	147.200000
251.805695	146.740000
251.898560	146.760000
251.991425	146.900000
252.084290	147.260000
252.177155	146.300000
252.270020	146.200000
252.362885	146.360000
252.455750	146.340000
252.548615	145.920000
252.641479	146.140000
252.734360	146.160000
252.827240	145.960000
252.920105	145.780000
253.012970	145.840000
253.105850	145.680000
253.198715	145.220000
253.291595	145.520000
253.384460	145.400000
253.477341	145.140000
253.570221	145.680000
253.663086	145.920000
253.755966	146.520000
253.848846	146.380000
253.941727	146.880000
254.034592	146.520000
254.127472	146.120000
254.220367	145.780000
254.313248	146.260000
254.406128	145.840000
254.499008	145.920000
254.591904	147.060000
254.684784	147.440000
254.777664	147.340000
254.870544	147.140000
254.963440	147.380000
255.056335	147.020000
255.149216	146.480000
255.242111	147.040000
255.334991	147.600000
255.427887	147.280000
255.520767	147.540000
255.613663	147.760000
255.706558	146.920000
255.799438	146.600000
255.892334	146.500000
255.985229	146.020000
256.078125	145.860000
256.171021	145.900000
256.263916	146.440000
256.356812	146.540000
256.449707	146.940000
256.542603	146.740000
256.635498	147.600000
256.728394	147.240000
256.821289	147.100000
256.914215	147.140000
257.007080	147.560000
257.100006	146.920000
257.192932	147.520000
257.285828	147.560000
257.378723	147.140000
257.471619	146.540000
257.564545	146.160000
257.657440	145.980000
257.750336	146.780000
257.843262	146.520000
257.936157	147.800000
258.029053	148.360000
258.121979	148.020000
258.214874	147.460000
258.307800	147.560000
258.400696	146.100000
258.493622	145.840000
258.586517	145.180000
258.679443	145.480000
258.772339	145.280000
258.865265	145.540000
258.958160	145.060000
259.051086	146.020000
259.144012	145.860000
259.236938	146.960000
259.329834	147.080000
259.422791	147.320000
259.515717	146.820000
259.608612	146.240000
259.701538	145.880000
259.794464	145.700000
259.887390	145.740000
259.980316	145.200000
260.073212	145.020000
260.166138	144.140000
260.259064	144.620000
260.351990	145.120000
260.444916	145.320000
260.537842	146.100000
260.630768	147.160000
260.723694	146.900000
260.816620	146.580000
260.909546	146.780000
261.002472	146.120000
261.095398	145.320000
261.188354	145.620000
261.281281	145.280000
261.374207	145.600000
261.467133	146.520000
261.560089	146.660000
261.653015	146.000000
261.745972	146.840000
261.838867	146.940000
261.931824	147.040000
262.024780	146.700000
262.117706	147.300000
262.210663	147.060000
262.303589	146.860000
262.396515	146.460000
262.489471	147.520000
262.582397	147.040000
262.675354	146.380000
262.768280	146.280000
262.861237	146.340000
262.954163	145.760000
263.047119	145.720000
263.140045	145.900000
263.233002	145.900000
263.325958	145.520000
263.418884	144.840000
263.511841	145.360000
263.604797	145.500000
263.697723	145.680000
263.790680	145.440000
263.883636	146.460000
263.976593	146.020000
264.069550	145.920000
264.162476	145.460000
264.255463	145.880000
264.348419	145.240000
264.441376	145.500000
264.534332	145.140000
264.627289	145.360000
264.720245	145.620000
264.813202	145.380000
264.906158	145.480000
264.999115	146.160000
265.092072	146.480000
265.185028	146.540000
265.277985	147.020000
265.370941	146.720000
265.463898	146.320000
265.556854	145.680000
265.649811	145.000000
265.742798	144.840000
265.835754	145.000000
265.928711	145.660000
266.021667	146.260000
266.114655	146.300000
266.207611	146.800000
266.300568	146.120000
266.393585	145.480000
266.486511	145.340000
266.579498	145.100000
266.672485	144.980000
266.765442	145.200000
266.858429	145.560000
266.951385	145.320000
267.044342	145.580000
267.137329	145.200000
267.230316	145.800000
267.323273	145.380000
267.416260	146.140000
267.509216	145.860000
267.602203	146.080000
267.695160	146.340000
267.788147	146.520000
267.881134	145.900000
267.974091	146.480000
268.067078	146.440000
268.160065	145.820000
268.253052	145.820000
268.346008	145.860000
268.438995	145.440000
268.531982	145.480000
268.624969	145.400000
268.717987	145.680000
268.810944	145.480000
268.903961	145.900000
268.996948	145.580000
269.089905	146.000000
269.182892	146.000000
269.275879	146.300000
269.368866	145.700000
269.461853	145.940000
269.554871	145.660000
269.647858	145.340000
269.740845	145.700000
269.833832	146.360000
269.926819	146.220000
270.019806	146.540000
270.112793	146.280000
270.205811	146.460000
270.298798	146.460000
270.391785	146.880000
270.484772	146.500000
270.577789	147.000000
270.670776	146.120000
270.763763	145.740000
270.856750	145.680000
270.949768	145.720000
271.042786	145.680000
271.135773	145.900000
271.228790	146.260000
271.321808	145.940000
271.414795	145.640000
271.507782	145.480000
271.600800	145.260000
271.693817	145.060000
271.786804	145.680000
271.879822	146.140000
271.972809	145.980000
272.065826	146.660000
272.158844	146.180000
272.251831	146.280000
272.344849	146.380000
272.437866	146.200000
272.530853	145.800000
272.623871	146.340000
272.716888	145.320000
272.809906	145.180000
272.902893	145.280000
272.995911	144.920000
273.088928	144.740000
273.181946	145.260000
273.274963	145.040000
273.367981	144.980000
273.460999	145.420000
273.554047	145.860000
273.647003	146.540000
273.740051	146.660000
273.833069	147.160000
273.926086	147.340000
274.019135	146.920000
274.112152	146.000000
274.205170	145.960000
274.298187	146.060000
274.391205	145.200000
274.484222	145.620000
274.577240	145.820000
274.670258	145.820000
274.763306	145.640000
274.856323	146.220000
274.949341	146.220000
275.042358	146.680000
275.135406	146.660000
275.228424	146.640000
275.321442	146.760000
275.414490	146.240000
275.507507	146.100000
275.600525	146.620000
275.693573	146.440000
275.786591	146.120000
275.879669	146.520000
275.972656	146.320000
276.065735	145.580000
276.158752	146.000000
276.251801	146.780000
276.344818	146.580000
276.437866	146.460000
276.530884	146.580000
276.623932	145.820000
276.716980	145.840000
276.809998	145.900000
276.903046	145.840000
276.996094	146.800000
277.089111	147.480000
277.182159	147.660000
277.275208	147.600000
277.368256	147.560000
277.461304	146.880000
277.554321	146.340000
277.647369	146.060000
277.740417	146.040000
277.833466	146.200000
277.926514	146.380000
278.019562	147.040000
278.112610	146.560000
278.205688	146.600000
278.298706	146.460000
278.391785	145.780000
278.484833	145.340000
278.577881	145.120000
278.670929	145.340000
278.763977	145.700000
278.857025	146.480000
278.950073	146.260000
279.043121	146.180000
279.136169	145.880000
279.229248	145.320000
279.322296	145.120000
279.415344	145.120000
279.508392	145.200000
279.601440	145.260000
279.694519	145.360000
279.787567	145.180000
279.880615	145.180000
279.973694	145.180000
280.066742	145.220000
280.159790	145.420000
280.252869	145.240000
280.345917	145.600000
280.438995	145.800000
280.532074	145.900000
280.625122	146.240000
280.718201	147.000000
280.811279	147.100000
280.904327	147.060000
280.997406	147.100000
281.090454	146.540000
281.183533	145.980000
281.276581	145.560000
281.369659	145.300000
281.462738	145.320000
281.555786	145.780000
281.648865	145.620000
281.741943	145.420000
281.835022	146.100000
281.928070	145.700000
282.021149	145.560000
282.114227	145.480000
282.207306	145.940000
282.300385	146.100000
282.393433	146.460000
282.486511	146.400000
282.579590	147.020000
282.672668	147.340000
282.765747	146.720000
282.858856	146.640000
282.951904	146.760000
283.045013	146.900000
283.138062	146.760000
283.231171	146.920000
283.324249	147.060000
283.417328	147.020000
283.510406	146.560000
283.603485	146.280000
283.696564	146.220000
283.789642	146.480000
283.882751	146.520000
283.975830	147.140000
284.068909	146.980000
284.161987	147.460000
284.255066	146.820000
284.348175	147.040000
284.441254	146.700000
284.534332	147.320000
284.627441	146.720000
284.720520	146.520000
284.813599	146.160000
284.906708	146.080000
284.999786	145.000000
285.092896	144.780000
285.185974	145.900000
285.279053	145.520000
285.372192	145.460000
285.465240	146.540000
285.558380	146.820000
285.651459	146.140000
285.744568	147.120000
285.837677	146.620000
285.930756	146.200000
286.023865	146.280000
286.116943	146.020000
286.210052	145.720000
286.303162	146.180000
286.396240	146.120000
286.489349	145.800000
286.582458	146.020000
286.675568	145.640000
286.768646	145.540000
286.861755	145.780000
286.954865	146.720000
287.047974	146.640000
287.141083	146.480000
287.234161	146.260000
287.327271	146.260000
287.420380	146.200000
287.513519	145.820000
287.606598	146.100000
287.699738	146.580000
287.792816	146.440000
287.885956	146.040000
287.979034	146.340000
288.072174	146.080000
288.165283	145.820000
288.258392	146.140000
288.351501	145.720000
288.444611	145.960000
288.537720	146.780000
288.630859	146.500000
288.723969	146.240000
288.817078	146.780000
288.910187	146.480000
289.003296	145.760000
289.096436	145.760000
289.189545	145.640000
289.282654	145.260000
289.375763	145.820000
289.468903	146.260000
289.562012	146.660000
289.655121	147.000000
289.748260	147.040000
289.841400	147.140000
289.934509	146.960000
290.027649	146.700000
290.120728	146.400000
290.213898	146.460000
290.306976	146.080000
290.400146	146.120000
290.493256	145.840000
290.586395	146.020000
290.679535	146.200000
290.772644	146.020000
290.865784	145.500000
290.958893	145.740000
291.052032	145.360000
291.145172	145.160000
291.238281	145.140000
291.331421	145.380000
291.424561	145.920000
291.517670	145.840000
291.610809	146.080000
291.703949	145.820000
291.797089	146.000000
291.890228	145.400000
291.983337	145.420000
292.076477	145.480000
292.169617	146.020000
292.262756	146.100000
292.355927	146.360000
292.449036	146.440000
292.542206	146.160000
292.635315	146.240000
292.728485	146.140000
292.821625	145.700000
292.914764	146.320000
293.007904	146.240000
293.101044	145.760000
293.194183	145.660000
293.287323	146.100000
293.380463	145.720000
293.473602	145.740000
293.566742	146.160000
293.659882	146.880000
293.753021	146.980000
293.846191	146.900000
293.939331	146.580000
294.032471	146.540000
294.125610	145.760000
294.218781	146.040000
294.311920	146.560000
294.405060	146.840000
294.498230	147.060000
294.591370	147.240000
294.684540	146.480000
294.777679	145.920000
294.870850	146.160000
294.963959	145.620000
295.057159	145.260000
295.150299	145.840000
295.243469	146.020000
295.336609	145.680000
295.429779	145.620000
295.522919	146.160000
295.616089	145.800000
295.709229	146.140000
295.802399	146.480000
295.895569	146.020000
295.988708	145.780000
296.081879	146.040000
296.175018	145.420000
296.268188	145.080000
296.361359	146.020000
296.454529	146.260000
296.547668	146.080000
296.640839	146.440000
296.734009	146.400000
296.827179	146.640000
296.920319	146.700000
297.013519	146.480000
297.106659	146.400000
297.199860	146.420000
297.292999	146.160000
297.386200	146.020000
297.479309	146.200000
297.572510	146.280000
297.665680	146.420000
297.758850	146.300000
297.852020	145.880000
297.945190	145.480000
298.038361	145.020000
298.131531	145.720000
298.224701	145.660000
298.317871	145.740000
298.411072	145.620000
298.504242	145.860000
298.597412	145.140000
298.690582	145.400000
298.783752	145.360000
298.876923	146.020000
298.970093	145.660000
299.063293	145.920000
299.156464	146.040000
299.249634	146.320000
299.342834	146.240000
299.436005	146.580000
299.529205	146.400000
299.622345	146.080000
299.715576	145.520000
299.808716	145.320000
299.901917	145.680000
299.995117	146.020000
300.088287	146.340000
300.181488	146.460000
300.274658	146.600000
300.367828	146.240000
300.461029	146.140000
300.554199	146.340000
300.647400	146.560000
300.740601	147.280000
300.833771	147.260000
300.926971	147.400000
301.020142	146.580000
301.113342	146.400000
301.206512	145.600000
301.299713	145.940000
301.392914	145.540000
301.486084	146.040000
301.579285	146.100000
301.672516	146.700000
301.765686	146.180000
301.858887	146.200000
301.952057	146.220000
302.045288	146.260000
302.138458	145.780000
302.231659	145.840000
302.324860	145.660000
302.418060	145.320000
302.511261	145.440000
302.604462	145.680000
302.697662	145.540000
302.790863	145.820000
302.884064	145.720000
302.977264	145.620000
303.070465	145.820000
303.163666	146.900000
303.256866	146.860000
303.350067	147.360000
303.443268	147.360000
303.536469	147.460000
303.629669	146.360000
303.722870	146.720000
303.816071	146.100000
303.909271	146.320000
304.002472	145.560000
304.095673	145.660000
304.188934	144.720000
304.282104	145.780000
304.375336	145.680000
304.468506	145.720000
304.561768	145.700000
304.654968	146.360000
304.748169	145.540000
304.841370	145.340000
304.934601	146.020000
305.027802	145.800000
305.121002	145.520000
305.214233	145.520000
305.307434	145.800000
305.400665	146.000000
305.493866	146.260000
305.587097	146.500000
305.680298	146.320000
305.773499	146.540000
305.866730	145.960000
305.959930	146.500000
306.053162	146.740000
306.146393	146.700000
306.239594	145.980000
306.332825	146.040000
306.426025	146.180000
306.519287	145.580000
306.612488	145.700000
306.705719	145.980000
306.798920	146.040000
306.892181	145.420000
306.985352	145.380000
307.078613	144.900000
307.171844	145.240000
307.265045	144.820000
307.358276	144.580000
307.451508	145.140000
307.544739	145.780000
307.637970	145.340000
307.731201	145.180000
307.824402	145.700000
307.917633	145.760000
308.010864	146.300000
308.104095	146.860000
308.197327	147.400000
308.290558	147.720000
308.383789	147.380000
308.477020	146.720000
308.570251	146.040000
308.663483	145.900000
308.756714	145.380000
308.849976	145.540000
308.943176	146.060000
309.036438	146.160000
309.129639	145.880000
309.222900	145.820000
309.316101	145.340000
309.409393	144.880000
309.502625	144.680000
309.595856	145.020000
309.689087	145.280000
309.782318	145.740000
309.875580	146.120000
309.968811	146.460000
310.062042	146.120000
310.155273	145.980000
310.248535	146.300000
310.341766	145.820000
310.434998	145.800000
310.528259	145.640000
310.621490	146.120000
310.714722	145.300000
310.807983	145.700000
310.901215	145.800000
310.994476	145.940000
311.087708	145.460000
311.181000	146.160000
311.274200	145.720000
311.367462	145.720000
311.460693	145.740000
311.553986	146.280000
311.647186	146.320000
311.740479	147.020000
311.833710	146.400000
311.926971	146.420000
312.020203	145.840000
312.113464	145.780000
312.206726	144.980000
312.299957	145.820000
312.393219	146.180000
312.486481	146.240000
312.579712	146.040000
312.672974	146.080000
312.766235	145.760000
312.859497	145.700000
312.952759	145.700000
313.045990	146.340000
313.139252	146.080000
313.232513	146.380000
313.325775	146.540000
313.419037	146.180000
313.512299	145.400000
313.605530	146.180000
313.698822	146.220000
313.792053	146.000000
313.885345	146.080000
313.978577	146.020000
314.071869	145.400000
314.165131	145.360000
314.258392	145.900000
314.351654	146.000000
314.444916	145.640000
314.538177	146.420000
314.631439	146.760000
314.724701	146.300000
314.817993	146.260000
314.911255	146.860000
315.004517	146.160000
315.097778	145.700000
315.191040	145.920000
315.284302	146.400000
315.377594	146.040000
315.470856	146.260000
315.564117	145.860000
315.657379	145.420000
315.750671	144.740000
315.843933	145.420000
315.937195	144.900000
316.030518	144.880000
316.123749	145.160000
316.217041	146.260000
316.310303	145.940000
316.403595	146.500000
316.496857	146.880000
316.590149	146.840000
316.683411	146.060000
316.776703	145.960000
316.869965	145.800000
316.963257	145.560000
317.056519	145.080000
317.149811	145.060000
317.243073	145.020000
317.336365	145.320000
317.429626	145.520000
317.522919	146.100000
317.616180	145.960000
317.709473	145.740000
317.802765	145.460000
317.896027	145.400000
317.989319	145.640000
318.082611	145.780000
318.175873	146.100000
318.269165	146.180000
318.362488	145.960000
318.455750	145.700000
318.549042	145.960000
318.642303	145.940000
318.735626	145.660000
318.828888	145.940000
318.922211	145.720000
319.015472	146.160000
319.108765	145.780000
319.202057	145.720000
319.295349	145.720000
319.388641	145.660000
319.481934	144.900000
319.575226	144.900000
319.668518	145.260000
319.761810	145.480000
319.855103	145.560000
319.948395	145.820000
320.041687	146.000000
320.134979	145.920000
320.228271	145.780000
320.321564	145.820000
320.414856	145.900000
320.508148	145.620000
320.601440	145.380000
320.694763	145.400000
320.788025	146.060000
320.881348	146.360000
320.974640	146.620000
321.067963	146.500000
321.161224	146.340000
321.254547	145.320000
321.347839	145.320000
321.441162	145.200000
321.534454	145.480000
321.627747	145.340000
321.721069	146.300000
321.814362	146.540000
321.907654	146.460000
322.000946	146.620000
322.094269	147.380000
322.187561	146.520000
322.280884	146.400000
322.374176	146.780000
322.467468	146.960000
322.560791	146.720000
322.654083	147.640000
322.747406	147.740000
322.840698	148.060000
322.934021	148.280000
323.027344	148.240000
323.120636	147.520000
323.213959	147.220000
323.307251	146.380000
323.400574	145.920000
323.493866	145.380000
323.587219	145.600000
323.680511	145.880000
323.773834	146.140000
323.867157	146.520000
323.960449	146.900000
324.053772	146.700000
324.147095	146.260000
324.240387	146.980000
324.333710	146.860000
324.427032	146.860000
324.520355	146.700000
324.613647	146.720000
324.706970	145.880000
324.800293	145.440000
324.893616	145.640000
324.986938	146.140000
325.080231	145.720000
325.173553	146.080000
325.266876	146.840000
325.360199	146.740000
325.453522	146.160000
325.546875	146.280000
325.640167	146.360000
325.733521	146.160000
325.826813	146.160000
325.920166	146.260000
326.013489	146.240000
326.106812	145.800000
326.200134	145.360000
326.293457	144.920000
326.386780	145.200000
326.480103	145.120000
326.573425	145.120000
326.666748	145.240000
326.760071	145.920000
326.853424	145.540000
326.946747	145.740000
327.040070	146.640000
327.133392	146.080000
327.226715	145.280000
327.320068	145.380000
327.413391	146.020000
327.506714	144.900000
327.600037	145.400000
327.693390	145.800000
327.786713	145.480000
327.880066	145.080000
327.973358	145.860000
328.066742	146.220000
328.160034	146.700000
328.253418	147.120000
328.346710	146.680000
328.440063	146.300000
328.533417	145.840000
328.626740	145.540000
328.720093	145.420000
328.813416	145.620000
328.906769	145.660000
329.000092	146.020000
329.093445	145.980000
329.186768	145.860000
329.280121	146.260000
329.373444	146.560000
329.466797	146.300000
329.560120	146.260000
329.653473	146.660000
329.746796	146.020000
329.840149	145.420000
329.933502	145.280000
330.026825	145.320000
330.120178	144.800000
330.213562	144.960000
330.306854	144.960000
330.400238	144.960000
330.493561	144.580000
330.586945	145.500000
330.680237	145.940000
330.773621	146.240000
330.866974	146.440000
330.960327	146.780000
331.053680	146.100000
331.147003	146.000000
331.240356	146.260000
331.333710	146.480000
331.427063	146.060000
331.520416	146.480000
331.613770	146.020000
331.707123	146.060000
331.800476	146.040000
331.893829	147.060000
331.987152	146.780000
332.080505	146.880000
332.173859	146.680000
332.267212	145.900000
332.360565	145.320000
332.453918	145.060000
332.547333	145.320000
332.640656	145.360000
332.734039	146.000000
332.827362	145.640000
332.920746	146.160000
333.014069	145.860000
333.107452	145.980000
333.200806	146.100000
333.294159	146.520000
333.387543	145.940000
333.480896	145.740000
333.574249	145.620000
333.667603	145.140000
333.760956	145.200000
333.854340	145.520000
333.947693	145.840000
334.041046	145.960000
334.134430	146.560000
334.227783	146.220000
334.321136	145.900000
334.414520	145.720000
334.507874	145.560000
334.601227	145.360000
334.694611	145.440000
334.787964	145.680000
334.881348	146.060000
334.974701	146.160000
335.068085	145.600000
335.161438	145.980000
335.254822	145.680000
335.348175	145.520000
335.441559	144.940000
335.534943	145.820000
335.628296	145.220000
335.721680	145.460000
335.815033	145.600000
335.908417	146.260000
336.001770	145.780000
336.095154	145.940000
336.188538	145.700000
336.281891	145.200000
336.375275	144.660000
336.468658	144.540000
336.562012	144.520000
336.655396	145.280000
336.748779	145.580000
336.842133	145.980000
336.935516	146.400000
337.028900	146.180000
337.122284	145.740000
337.215637	145.960000
337.309021	145.600000
337.402435	145.180000
337.495789	145.360000
337.589203	145.180000
337.682526	144.980000
337.775940	145.600000
337.869324	145.900000
337.962708	145.500000
338.056091	146.040000
338.149475	145.660000
338.242859	145.620000
338.336243	145.380000
338.429626	145.940000
338.523010	145.840000
338.616394	146.140000
338.709778	146.300000
338.803162	146.400000
338.896545	146.560000
338.989929	146.040000
339.083313	146.220000
339.176697	145.840000
339.270081	145.600000
339.363464	145.480000
339.456848	145.900000
339.550232	145.460000
339.643616	145.480000
339.737030	145.720000
339.830383	145.500000
339.923828	145.400000
340.017181	145.800000
340.110596	145.860000
340.203949	145.880000
340.297363	145.660000
340.390778	145.460000
340.484161	145.240000
340.577545	145.080000
340.670959	145.240000
340.764343	145.200000
340.857727	145.700000
340.951111	144.940000
341.044525	145.280000
341.137909	144.740000
341.231293	144.960000
341.324707	144.460000
341.418091	145.800000
341.511505	145.580000
341.604889	146.180000
341.698303	146.320000
341.791687	146.600000
341.885071	146.040000
341.978485	145.820000
342.071899	145.800000
342.165283	146.080000
342.258698	146.060000
342.352081	146.120000
342.445496	146.840000
342.538879	146.400000
342.632324	146.160000
342.725708	146.420000
342.819122	146.400000
342.912506	145.580000
343.005920	145.820000
343.099335	146.600000
343.192719	146.220000
343.286133	146.360000
343.379547	146.880000
343.472931	146.820000
343.566345	145.900000
343.659760	146.040000
343.753143	145.820000
343.846558	145.580000
343.939972	145.600000
344.033386	146.440000
344.126770	146.180000
344.220184	146.140000
344.313599	146.320000
344.407043	146.420000
344.500427	145.480000
344.593872	146.220000
344.687225	146.140000
344.780670	145.940000
344.874054	145.940000
344.967499	146.620000
345.060913	146.180000
345.154327	146.240000
345.247742	146.040000
345.341156	145.900000
345.434570	145.260000
345.527985	145.500000
345.621399	145.760000
345.714813	145.720000
345.808228	145.960000
345.901642	145.960000
345.995056	145.380000
346.088470	145.380000
346.181885	145.680000
346.275299	145.220000
346.368713	145.100000
346.462128	145.040000
346.555573	144.780000
346.648987	145.020000
346.742401	145.280000
346.835815	146.040000
346.929260	146.020000
347.022644	146.280000
347.116119	146.160000
347.209503	146.520000
347.302948	147.120000
347.396362	147.700000
347.489807	147.720000
347.583221	148.080000
347.676636	147.280000
347.770050	145.980000
347.863495	145.260000
347.956909	145.260000
348.050323	144.800000
348.143768	145.200000
348.237183	145.140000
348.330597	145.920000
348.424042	146.100000
348.517456	146.440000
348.610901	146.800000
348.704315	147.080000
348.797760	146.440000
348.891174	145.880000
348.984619	145.180000
349.078033	145.200000
349.171448	145.940000
349.264923	146.180000
349.358337	146.360000
349.451782	146.660000
349.545197	146.060000
349.638641	145.200000
349.732086	144.820000
349.825500	145.040000
349.918945	144.720000
350.012390	145.380000
350.105804	146.020000
350.199249	146.180000
350.292664	146.600000
350.386108	147.040000
350.479553	147.360000
350.572968	147.060000
350.666412	147.260000
350.759857	146.920000
350.853302	147.360000
350.946716	146.820000
351.040161	146.540000
351.133606	146.380000
351.227081	146.320000
351.320465	146.900000
351.413940	146.720000
351.507355	147.000000
351.600830	147.360000
351.694244	147.040000
351.787720	146.340000
351.881104	146.220000
351.974579	146.120000
352.067993	146.640000
352.161469	146.940000
352.254883	146.460000
352.348358	146.640000
352.441803	146.360000
352.535248	145.840000
352.628693	146.380000
352.722137	146.220000
352.815582	146.480000
352.909027	147.100000
353.002472	146.680000
353.095917	146.140000
353.189362	146.580000
353.282806	146.500000
353.376251	146.080000
353.469696	146.160000
353.563141	146.800000
353.656586	146.500000
353.750061	146.160000
353.843475	146.120000
353.936981	146.780000
354.030396	145.840000
354.123871	145.700000
354.217285	146.380000
354.310760	146.620000
354.404175	146.180000
354.497681	146.340000
354.591095	146.400000
354.684570	145.460000
354.777985	145.060000
354.871490	144.840000
354.964935	145.240000
355.058380	145.480000
355.151855	145.580000
355.245300	146.200000
355.338745	146.780000
355.432220	146.680000
355.525665	146.160000
355.619110	146.880000
355.712585	146.680000
355.806030	146.200000
355.899475	145.840000
355.992950	146.360000
356.086426	146.120000
356.179871	146.000000
356.273346	146.100000
356.366791	146.260000
356.460266	146.620000
356.553711	146.300000
356.647186	146.520000
356.740631	146.580000
356.834106	146.580000
356.927551	146.360000
357.021027	146.420000
357.114471	146.220000
357.207947	146.280000
357.301422	146.480000
357.394867	146.500000
357.488342	146.580000
357.581818	146.780000
357.675262	146.900000
357.768738	146.440000
357.862213	145.880000
357.955658	146.200000
358.049133	145.740000
358.142609	145.920000
358.236053	145.920000
358.329529	146.020000
358.423035	146.040000
358.516449	145.880000
358.609955	146.060000
358.703400	146.600000
358.796906	147.000000
358.890350	146.360000
358.983826	147.160000
359.077271	146.400000
359.170776	145.880000
359.264221	145.560000
359.357727	145.820000
359.451172	145.720000
359.544647	145.880000
359.638123	145.900000
359.731598	146.280000
359.825073	146.820000
359.918549	146.720000
360.012024	146.660000
360.105499	146.560000
360.198975	146.320000
360.292450	145.960000
360.385925	145.780000
360.479401	145.420000
360.572876	145.600000
360.666351	145.780000
360.759857	145.880000
360.853302	145.880000
360.946808	145.820000
361.040253	146.000000
361.133759	145.680000
361.227203	145.660000
361.320709	145.540000
361.414154	146.200000
361.507660	146.280000
361.601105	146.860000
361.694641	147.200000
361.788086	147.040000
361.881592	147.180000
361.975067	146.940000
362.068542	147.060000
362.162018	146.720000
362.255524	146.220000
362.348999	146.160000
362.442474	146.580000
362.535950	145.920000
362.629456	145.780000
362.722931	146.220000
362.816406	146.240000
362.909882	146.340000
363.003387	146.320000
363.096863	146.620000
363.190338	146.880000
363.283875	146.720000
363.377319	146.440000
363.470825	146.840000
363.564301	146.240000
363.657806	146.280000
363.751282	146.060000
363.844788	146.760000
363.938232	146.040000
364.031769	146.960000
364.125214	147.040000
364.218750	147.560000
364.312225	146.200000
364.405731	146.740000
364.499207	145.940000
364.592712	145.760000
364.686188	145.580000
364.779694	146.160000
364.873169	146.000000
364.966675	146.400000
365.060150	146.080000
365.153656	146.280000
365.247131	146.180000
365.340637	146.460000
365.434143	146.640000
365.527618	146.820000
365.621155	146.000000
365.714600	146.240000
365.808136	146.240000
365.901611	145.540000
365.995117	145.520000
366.088593	145.880000
366.182129	145.480000
366.275604	145.540000
366.369110	145.620000
366.462585	145.680000
366.556122	146.420000
366.649567	146.640000
366.743103	146.500000
366.836609	146.580000
366.930115	147.160000
367.023590	146.840000
367.117096	146.800000
367.210602	146.680000
367.304108	147.340000
367.397614	147.460000
367.491119	147.480000
367.584595	147.300000
367.678101	147.520000
367.771606	146.940000
367.865112	146.300000
367.958649	145.580000
368.052124	145.840000
368.145660	145.800000
368.239136	146.400000
368.332672	146.540000
368.426147	147.060000
368.519684	146.600000
368.613159	146.580000
368.706696	146.080000
368.800171	145.900000
368.893707	145.640000
368.987183	145.820000
369.080719	145.920000
369.174225	145.800000
369.267731	146.020000
369.361237	146.160000
369.454742	146.200000
369.548248	146.560000
369.641754	146.480000
369.735260	146.340000
369.828766	145.700000
369.922272	146.300000
370.015808	145.680000
370.109314	145.640000
370.202820	145.420000
370.296356	146.660000
370.389832	146.160000
370.483368	146.060000
370.576874	145.960000
370.670410	146.320000
370.763885	145.380000
370.857422	145.480000
370.950928	145.520000
371.044464	146.480000
371.137939	146.580000
371.231476	147.000000
371.324982	147.480000
371.418518	147.740000
371.512024	147.180000
371.605560	146.900000
371.699066	147.020000
371.792572	146.600000
371.886108	146.980000
371.979614	146.580000
372.073120	147.100000
372.166656	146.900000
372.260162	147.300000
372.353668	146.640000
372.447205	146.780000
372.540710	146.660000
372.634277	146.440000
372.727753	146.140000
372.821320	146.160000
372.914795	146.260000
373.008362	145.780000
373.101837	145.880000
373.195404	145.440000
373.288879	145.300000
373.382446	145.760000
373.475922	146.100000
373.569489	146.700000
373.662964	147.220000
373.756531	147.520000
373.850037	147.480000
373.943573	147.280000
374.037109	146.320000
374.130615	146.520000
374.224152	146.580000
374.317657	146.180000
374.411194	146.860000
374.504730	147.080000
374.598236	146.380000
374.691772	145.820000
374.785309	146.040000
374.878815	145.180000
374.972351	145.500000
375.065887	145.680000
375.159454	146.620000
375.252930	146.320000
375.346497	146.660000
375.440002	147.340000
375.533569	147.240000
375.627045	146.680000
375.720612	146.520000
375.814117	146.480000
375.907684	145.640000
376.001160	145.620000
376.094727	145.200000
376.188232	145.940000
376.281799	145.880000
376.375336	146.100000
376.468872	146.560000
376.562408	146.920000
376.655914	146.340000
376.749451	146.700000
376.842987	146.880000
376.936523	146.840000
377.030060	147.200000
377.123596	147.480000
377.217133	146.840000
377.310669	146.620000
377.404205	146.720000
377.497772	147.200000
377.591278	147.200000
377.684845	147.960000
377.778351	148.120000
377.871918	147.900000
377.965424	146.700000
378.058990	146.580000
378.152496	146.400000
378.246063	146.260000
378.339569	146.140000
378.433136	146.300000
378.526642	146.140000
378.620209	145.840000
378.713745	145.660000
378.807312	146.320000
378.900848	146.260000
378.994385	146.460000
379.087921	145.780000
379.181458	146.040000
379.274994	145.060000
379.368530	144.980000
379.462097	145.080000
379.555634	145.860000
379.649170	145.460000
379.742706	145.500000
379.836273	145.820000
379.929810	145.440000
380.023376	145.340000
380.116882	145.340000
380.210449	145.380000
380.303986	145.300000
380.397552	145.140000
380.491058	145.180000
380.584656	145.100000
380.678162	145.460000
380.771729	145.460000
380.865265	146.060000
380.958832	146.020000
381.052368	146.440000
381.145935	146.540000
381.239471	147.080000
381.333008	146.820000
381.426575	147.100000
381.520111	147.420000
381.613647	147.860000
381.707214	147.340000
381.800751	147.040000
381.894318	146.540000
381.987854	145.800000
382.081421	145.200000
382.174988	145.320000
382.268524	145.120000
382.362091	145.480000
382.455627	146.060000
382.549194	146.100000
382.642731	145.500000
382.736298	145.680000
382.829834	145.560000
382.923401	146.140000
383.016937	146.340000
383.110504	147.000000
383.204041	147.240000
383.297607	147.640000
383.391174	146.600000
383.484741	147.220000
383.578278	146.440000
383.671844	145.980000
383.765411	145.100000
383.858948	145.380000
383.952515	144.660000
384.046051	145.660000
384.139618	146.380000
384.233185	146.940000
384.326721	147.140000
384.420288	147.700000
384.513855	147.540000
384.607422	147.640000
384.700989	147.860000
384.794525	147.260000
384.888123	146.620000
384.981659	146.820000
385.075226	146.500000
385.168762	146.000000
385.262360	146.060000
385.355896	145.640000
385.449463	145.180000
385.542999	145.080000
385.636597	145.880000
385.730164	146.080000
385.823730	146.040000
385.917267	145.860000
386.010834	146.340000
386.104401	145.880000
386.197968	146.120000
386.291534	146.740000
386.385101	146.860000
386.478668	146.900000
386.572235	146.960000
386.665802	146.560000
386.759338	145.960000
386.852905	145.880000
386.946472	145.280000
387.040070	145.380000
387.133606	145.540000
387.227203	145.600000
387.320740	145.740000
387.414337	145.560000
387.507874	145.280000
387.601471	145.440000
387.695007	145.460000
387.788605	145.420000
387.882141	146.040000
387.975739	146.360000
388.069275	146.040000
388.162872	146.500000
388.256439	146.280000
388.350037	145.660000
388.443604	145.140000
388.537170	145.340000
388.630737	145.480000
388.724304	145.920000
388.817871	146.180000
388.911438	146.420000
389.005005	146.500000
389.098602	146.760000
389.192169	146.260000
389.285736	146.680000
389.379333	146.500000
389.472870	145.760000
389.566467	145.400000
389.660034	145.700000
389.753632	145.160000
389.847168	145.460000
389.940765	146.040000
390.034332	146.180000
390.127930	145.920000
390.221466	145.960000
390.315063	145.660000
390.408630	145.160000
390.502228	144.260000
390.595795	144.620000
390.689362	144.860000
390.782959	145.060000
390.876526	145.740000
390.970093	146.260000
391.063690	146.620000
391.157257	146.580000
391.250824	147.020000
391.344421	146.660000
391.437988	147.000000
391.531555	146.860000
391.625153	146.940000
391.718750	146.740000
391.812317	146.700000
391.905914	146.360000
391.999481	146.360000
392.093079	146.400000
392.186615	146.680000
392.280243	146.800000
392.373779	146.920000
392.467407	147.300000
392.560944	147.220000
392.654572	146.400000
392.748108	146.580000
392.841736	146.360000
392.935303	145.820000
393.028900	145.680000
393.122467	146.020000
393.216064	145.500000
393.309631	145.240000
393.403229	144.800000
393.496796	144.780000
393.590393	144.180000
393.683990	144.820000
393.777557	145.340000
393.871155	145.740000
393.964722	146.160000
394.058350	146.580000
394.151917	146.360000
394.245514	146.080000
394.339081	146.460000
394.432678	146.480000
394.526245	146.160000
394.619873	145.680000
394.713409	145.860000
394.807037	145.300000
394.900604	145.000000
394.994202	145.440000
395.087769	145.720000
395.181396	145.160000
395.274994	146.160000
395.368561	145.860000
395.462158	145.740000
395.555756	145.640000
395.649353	146.440000
395.742920	145.720000
395.836517	146.320000
395.930115	145.800000
396.023712	146.160000
396.117279	146.160000
396.210876	145.640000
396.304474	145.360000
396.398071	145.760000
396.491669	146.080000
396.585266	145.920000
396.678833	146.340000
396.772461	146.700000
396.866028	146.600000
396.959656	146.420000
397.053223	146.600000
397.146851	146.440000
397.240417	146.500000
397.334015	147.460000
397.427582	147.660000
397.521210	147.960000
397.614807	148.680000
397.708405	149.140000
397.802002	149.200000
397.895599	150.240000
397.989197	150.940000
398.082794	151.860000
398.176392	153.100000
398.269989	154.720000
398.363586	156.180000
398.457184	158.880000
398.550781	161.400000
398.644379	163.120000
398.737976	165.080000
398.831573	167.560000
398.925201	168.800000
399.018768	170.380000
399.112396	172.500000
399.205963	174.500000
399.299591	175.880000
399.393158	177.720000
399.486786	180.100000
399.580353	182.240000
399.673981	185.160000
399.767578	188.680000
399.861206	193.680000
399.954773	198.880000
400.048401	204.620000
400.141998	209.220000
400.235596	215.220000
400.329193	219.200000
400.422791	223.400000
400.516418	226.140000
400.610016	229.940000
400.703613	232.040000
400.797211	232.600000
400.890808	231.560000
400.984436	230.260000
401.078033	226.380000
401.171631	220.980000
401.265259	215.940000
401.358826	210.480000
401.452484	203.880000
401.546051	198.460000
401.639679	192.080000
401.733246	186.280000
401.826904	179.940000
401.920471	174.500000
402.014099	169.240000
402.107697	165.300000
402.201324	161.760000
402.294891	159.320000
402.388550	157.060000
402.482147	155.300000
402.575745	153.340000
402.669373	151.720000
402.762970	150.180000
402.856567	149.660000
402.950195	149.000000
403.043793	148.440000
403.137390	148.660000
403.231018	147.560000
403.324615	147.540000
403.418243	146.840000
403.511841	147.080000
403.605469	146.360000
403.699066	147.220000
403.792694	147.100000
403.886292	147.240000
403.979919	147.040000
404.073517	146.500000
404.167145	146.500000
404.260712	146.460000
404.354370	146.240000
404.447937	146.300000
404.541595	146.980000
404.635162	146.940000
404.728821	147.060000
404.822418	146.720000
404.916046	146.400000
405.009644	146.440000
405.103271	146.540000
405.196899	146.040000
405.290497	146.360000
405.384125	146.920000
405.477722	146.240000
405.571350	145.880000
405.664948	146.380000
405.758575	146.380000
405.852203	145.960000
405.945801	146.240000
406.039429	146.200000
406.133057	145.780000
406.226654	145.680000
406.320312	145.560000
406.413879	146.000000
406.507538	146.340000
406.601135	145.860000
406.694763	146.220000
406.788361	146.080000
406.882019	145.240000
406.975586	145.860000
407.069244	146.780000
407.162872	146.660000
407.256470	146.480000
407.350098	146.840000
407.443726	145.980000
407.537323	145.540000
407.630951	145.620000
407.724579	145.540000
407.818207	145.980000
407.911804	145.900000
408.005432	145.720000
408.099060	145.960000
408.192688	146.700000
408.286285	146.160000
408.379913	145.920000
408.473572	146.080000
408.567169	145.340000
408.660828	145.140000
408.754395	145.160000
408.848053	145.360000
408.941650	145.540000
409.035309	145.580000
409.128906	145.380000
409.222565	145.560000
409.316132	145.680000
409.409790	145.300000
409.503387	145.360000
409.597046	145.600000
409.690674	145.720000
409.784302	145.640000
409.877930	145.680000
409.971558	145.980000
410.065186	146.000000
410.158783	145.780000
410.252411	145.600000
410.346039	146.020000
410.439667	145.820000
410.533295	146.040000
410.626923	146.120000
410.720551	146.400000
410.814209	146.500000
410.907806	146.800000
411.001465	146.040000
411.095062	146.240000
411.188721	146.240000
411.282318	145.940000
411.375977	145.440000
411.469574	145.900000
411.563232	145.380000
411.656830	145.240000
411.750488	145.120000
411.844086	145.180000
411.937744	145.180000
412.031372	145.340000
412.125000	145.620000
412.218628	145.380000
412.312256	146.260000
412.405884	146.780000
412.499512	146.780000
412.593170	146.600000
412.686798	147.100000
412.780426	146.320000
412.874054	146.220000
412.967682	146.340000
413.061310	147.080000
413.154968	147.200000
413.248566	147.460000
413.342224	147.140000
413.435852	147.240000
413.529510	146.560000
413.623108	145.940000
413.716766	145.780000
413.810364	145.920000
413.904022	145.480000
413.997650	145.400000
414.091309	146.120000
414.184906	146.100000
414.278564	145.740000
414.372192	146.380000
414.465851	146.480000
414.559479	146.040000
414.653107	146.740000
414.746735	146.700000
414.840393	146.380000
414.934021	146.660000
415.027649	146.620000
415.121277	146.360000
415.214935	146.660000
415.308563	146.820000
415.402191	146.160000
415.495850	146.140000
415.589478	145.800000
415.683136	145.400000
415.776733	145.460000
415.870422	146.200000
415.964020	145.800000
416.057678	145.840000
416.151306	146.280000
416.244965	146.200000
416.338562	145.940000
416.432251	146.820000
416.525848	147.220000
416.619507	147.140000
416.713165	147.400000
416.806793	147.160000
416.900421	147.060000
416.994080	146.480000
417.087708	146.500000
417.181366	146.000000
417.274994	146.200000
417.368622	146.320000
417.462280	146.900000
417.555908	146.620000
417.649567	146.560000
417.743195	146.440000
417.836853	146.060000
417.930481	146.200000
418.024170	146.540000
418.117767	147.140000
418.211426	147.460000
418.305054	147.720000
418.398712	147.040000
418.492340	147.060000
418.585999	147.180000
418.679626	147.180000
418.773285	147.080000
418.866913	147.820000
418.960571	147.600000
419.054230	147.540000
419.147858	147.480000
419.241516	147.480000
419.335144	147.020000
419.428802	146.980000
419.522461	146.620000
419.616089	146.040000
419.709747	146.120000
419.803375	146.180000
419.897034	146.200000
419.990662	146.140000
420.084320	146.880000
420.177979	147.080000
420.271606	146.860000
420.365295	147.420000
420.458893	147.860000
420.552582	147.980000
420.646210	147.600000
420.739868	147.600000
420.833496	147.060000
420.927155	146.420000
421.020782	146.080000
421.114471	145.740000
421.208069	145.860000
421.301758	146.120000
421.395386	146.160000
421.489044	145.880000
421.582703	145.980000
421.676361	146.520000
421.769989	146.160000
421.863647	146.640000
421.957306	146.700000
422.050934	147.100000
422.144592	146.560000
422.238251	146.560000
422.331909	145.960000
422.425537	145.860000
422.519196	145.880000
422.612854	145.760000
422.706543	145.500000
422.800140	146.280000
422.893829	145.880000
422.987457	145.660000
423.081146	145.900000
423.174744	146.560000
423.268433	145.880000
423.362061	145.960000
423.455750	145.680000
423.549347	145.160000
423.643036	144.540000
423.736664	144.960000
423.830353	145.160000
423.924011	145.620000
424.017639	145.460000
424.111298	145.340000
424.204956	145.260000
424.298615	145.420000
424.392273	145.400000
424.485931	145.860000
424.579559	146.200000
424.673218	146.000000
424.766876	146.120000
424.860535	145.760000
424.954193	145.440000
425.047882	145.820000
425.141510	145.860000
425.235199	145.840000
425.328796	145.780000
425.422485	145.700000
425.516113	144.820000
425.609802	145.040000
425.703430	145.080000
425.797119	145.040000
425.890747	145.040000
425.984436	145.360000
426.078064	145.380000
426.171753	145.340000
426.265411	145.140000
426.359070	145.620000
426.452728	145.360000
426.546356	144.920000
426.640015	144.600000
426.733673	144.900000
426.827332	144.420000
426.920990	145.520000
427.014648	145.560000
427.108307	145.940000
427.201965	146.360000
427.295624	146.900000
427.389282	146.120000
427.482941	146.420000
427.576630	146.320000
427.670258	145.540000
427.763947	145.240000
427.857574	145.700000
427.951263	145.560000
428.044922	145.300000
428.138611	145.860000
428.232239	145.860000
428.325928	145.880000
428.419556	146.100000
428.513245	145.920000
428.606903	145.900000
428.700562	145.780000
428.794220	144.900000
428.887878	144.460000
428.981537	144.800000
429.075195	144.760000
429.168854	145.380000
429.262512	145.900000
429.356201	146.160000
429.449860	146.000000
429.543518	145.940000
429.637177	145.620000
429.730835	145.520000
429.824493	145.520000
429.918182	145.980000
430.011810	145.480000
430.105530	145.000000
430.199158	145.260000
430.292847	144.880000
430.386475	144.360000
430.480164	144.280000
430.573792	144.260000
430.667511	143.920000
430.761139	144.320000
430.854828	145.040000
430.948456	145.500000
431.042145	146.140000
431.135834	146.040000
431.229492	146.220000
431.323151	146.040000
431.416809	145.800000
431.510468	145.500000
431.604156	145.680000
431.697815	145.200000
431.791473	144.840000
431.885132	144.800000
431.978821	145.280000
432.072479	145.500000
432.166138	146.060000
432.259827	146.280000
432.353485	146.700000
432.447174	146.700000
432.540802	146.200000
432.634491	146.120000
432.728149	146.060000
432.821838	146.140000
432.915466	145.460000
433.009186	145.880000
433.102814	145.440000
433.196503	145.260000
433.290131	145.180000
433.383850	145.620000
433.477509	145.480000
433.571167	146.140000
433.664856	146.480000
433.758514	147.060000
433.852173	146.920000
433.945862	147.240000
434.039520	147.160000
434.133179	146.480000
434.226868	145.800000
434.320526	145.520000
434.414185	145.880000
434.507874	145.200000
434.601562	145.720000
434.695221	145.520000
434.788910	146.180000
434.882538	146.100000
434.976257	145.920000
435.069885	145.960000
435.163574	146.000000
435.257233	145.200000
435.350922	144.580000
435.444580	144.660000
435.538269	144.060000
435.631897	144.560000
435.725616	145.280000
435.819275	146.000000
435.912964	146.780000
436.006622	147.800000
436.100311	147.740000
436.193970	146.900000
436.287628	146.480000
436.381317	145.960000
436.474976	145.400000
436.568665	145.020000
436.662323	145.540000
436.756012	145.260000
436.849670	145.040000
436.943390	144.860000
437.037018	145.020000
437.130737	145.220000
437.224365	145.120000
437.318085	145.600000
437.411713	145.900000
437.505432	146.100000
437.599060	146.280000
437.692780	146.980000
437.786407	146.720000
437.880127	146.620000
437.973755	146.280000
438.067474	145.660000
438.161133	145.400000
438.254822	145.940000
438.348480	145.680000
438.442169	146.500000
438.535828	146.880000
438.629517	146.480000
438.723175	145.760000
438.816864	146.280000
438.910553	145.380000
439.004211	145.160000
439.097900	145.220000
439.191559	145.560000
439.285248	145.040000
439.378906	145.460000
439.472626	145.440000
439.566284	145.460000
439.659973	145.740000
439.753632	145.780000
439.847321	146.140000
439.940979	146.200000
440.034698	146.040000
440.128326	145.320000
440.222046	145.260000
440.315674	144.500000
440.409393	144.640000
440.503082	145.000000
440.596741	145.440000
440.690430	145.740000
440.784088	145.840000
440.877777	145.220000
440.971466	145.060000
441.065125	144.780000
441.158813	144.480000
441.252502	144.500000
441.346161	145.260000
441.439850	145.480000
441.533539	145.580000
441.627197	145.940000
441.720886	145.800000
441.814606	146.280000
441.908234	146.720000
442.001953	146.560000
442.095612	146.660000
442.189301	147.000000
442.282959	146.300000
442.376678	145.580000
442.470306	146.320000
442.564026	145.720000
442.657684	145.960000
442.751404	146.000000
442.845032	146.880000
442.938751	146.240000
443.032440	146.800000
443.126099	146.120000
443.219788	146.340000
443.313477	145.940000
443.407166	146.280000
443.500824	146.140000
443.594513	146.560000
443.688202	146.340000
443.781891	145.680000
443.875549	145.380000
443.969238	145.280000
444.062927	145.500000
444.156647	145.200000
444.250275	145.840000
444.343994	145.840000
444.437653	146.120000
444.531372	145.280000
444.625031	145.340000
444.718719	144.840000
444.812378	144.820000
444.906097	144.720000
444.999756	144.920000
445.093445	145.340000
445.187103	145.640000
445.280823	146.100000
445.374512	145.420000
445.468201	145.620000
445.561859	145.160000
445.655548	144.980000
445.749237	144.320000
445.842926	144.940000
445.936615	145.080000
446.030304	144.980000
446.123962	145.280000
446.217651	145.380000
446.311340	145.140000
446.405029	144.840000
446.498749	145.160000
446.592407	144.680000
446.686096	145.040000
446.779755	145.320000
446.873474	145.540000
446.967133	145.280000
447.060852	145.180000
447.154510	144.940000
447.248230	144.780000
447.341858	144.700000
447.435577	144.600000
447.529236	144.480000
447.622955	144.460000
447.716644	144.620000
447.810333	144.940000
447.904022	145.220000
447.997711	145.500000
448.091400	145.600000
448.185059	145.240000
448.278748	145.260000
448.372437	145.220000
448.466125	145.600000
448.559814	145.700000
448.653503	146.200000
448.747192	146.380000
448.840912	146.740000
448.934570	146.860000
449.028290	146.980000
449.121948	146.580000
449.215637	146.100000
449.309296	145.560000
449.403015	145.480000
449.496674	145.340000
449.590393	145.680000
449.684052	145.580000
449.777771	146.660000
449.871429	145.980000
449.965149	145.780000
450.058838	146.060000
450.152527	146.580000
450.246216	145.800000
450.339905	145.980000
450.433594	145.720000
450.527283	146.060000
450.620972	145.680000
450.714661	145.700000
450.808350	145.780000
450.902039	146.480000
450.995728	145.900000
451.089417	145.700000
451.183105	145.700000
451.276794	145.940000
451.370514	145.220000
451.464172	144.640000
451.557892	144.780000
451.651550	144.900000
451.745270	144.660000
451.838928	144.540000
451.932648	144.920000
452.026306	145.380000
452.120026	145.080000
452.213684	145.460000
452.307404	145.880000
452.401062	146.020000
452.494781	145.980000
452.588470	146.040000
452.682159	145.540000
452.775848	145.660000
452.869537	145.280000
452.963226	144.860000
453.056915	144.720000
453.150604	144.800000
453.244293	145.240000
453.337982	145.900000
453.431671	146.520000
453.525360	147.040000
453.619049	147.140000
453.712769	146.880000
453.806427	146.120000
453.900146	145.680000
453.993805	145.520000
454.087555	145.900000
454.181213	145.720000
454.274933	145.900000
454.368591	145.560000
454.462311	145.400000
454.555969	144.940000
454.649689	145.580000
454.743347	145.600000
454.837067	146.560000
454.930756	147.220000
455.024445	147.520000
455.118134	147.120000
455.211853	147.260000
455.305542	146.700000
455.399231	146.420000
455.492920	146.380000
455.586609	146.400000
455.680298	146.520000
455.773987	146.020000
455.867676	145.840000
455.961365	145.880000
456.055084	145.760000
456.148773	145.400000
456.242493	145.780000
456.336151	145.780000
456.429871	146.100000
456.523529	146.380000
456.617249	146.180000
456.710907	146.700000
456.804626	146.520000
456.898315	145.680000
456.992035	145.600000
457.085693	145.740000
457.179413	144.960000
457.273102	145.960000
457.366791	146.400000
457.460480	146.680000
457.554199	147.380000
457.647888	147.580000
457.741577	146.760000
457.835266	146.940000
457.928955	146.860000
458.022644	146.680000
458.116364	147.260000
458.210052	147.260000
458.303741	147.200000
458.397461	146.220000
458.491119	145.620000
458.584839	145.100000
458.678528	144.720000
458.772247	144.600000
458.865906	145.160000
458.959625	146.120000
459.053284	145.980000
459.147003	146.020000
459.240692	146.600000
459.334412	146.700000
459.428070	146.280000
459.521790	146.280000
459.615479	146.420000
459.709198	146.420000
459.802887	145.840000
459.896576	145.460000
459.990265	145.620000
460.083954	145.780000
460.177673	145.140000
460.271362	145.280000
460.365051	145.480000
460.458740	145.420000
460.552429	144.820000
460.646149	144.840000
460.739838	144.760000
460.833527	145.060000
460.927246	144.640000
461.020905	144.840000
461.114655	144.720000
461.208313	145.280000
461.302032	144.620000
461.395691	145.120000
461.489441	145.260000
461.583099	145.040000
461.676819	144.660000
461.770477	145.340000
461.864197	144.960000
461.957916	144.980000
462.051605	144.740000
462.145294	145.640000
462.238983	145.020000
462.332703	145.760000
462.426392	146.240000
462.520081	146.820000
462.613770	145.860000
462.707489	146.200000
462.801178	145.560000
462.894867	145.220000
462.988556	145.260000
463.082275	145.500000
463.175964	145.180000
463.269684	145.640000
463.363342	145.640000
463.457092	145.020000
463.550751	145.440000
463.644470	145.580000
463.738129	145.480000
463.831879	145.440000
463.925537	146.180000
464.019257	145.960000
464.112946	146.060000
464.206665	145.860000
464.300323	146.040000
464.394043	145.800000
464.487762	145.800000
464.581451	146.140000
464.675140	146.240000
464.768829	146.160000
464.862549	146.660000
464.956238	146.820000
465.049927	146.480000
465.143646	146.360000
465.237335	146.220000
465.331024	146.120000
465.424713	145.940000
465.518433	145.940000
465.612152	145.900000
465.705811	146.040000
465.799561	145.800000
465.893219	145.580000
465.986938	145.680000
466.080597	145.560000
466.174347	145.520000
466.268005	145.540000
466.361725	145.680000
466.455414	145.560000
466.549133	145.760000
466.642792	146.020000
466.736542	145.680000
466.830231	145.640000
466.923920	145.620000
467.017609	145.440000
467.111328	145.000000
467.205017	145.020000
467.298706	145.000000
467.392426	145.440000
467.486115	145.660000
467.579803	145.480000
467.673523	145.960000
467.767212	146.160000
467.860901	145.640000
467.954651	146.040000
468.048309	146.520000
468.142029	146.300000
468.235718	146.060000
468.329437	145.880000
468.423096	145.620000
468.516846	145.280000
468.610504	145.200000
468.704224	144.860000
468.797913	145.160000
468.891632	145.400000
468.985291	145.480000
469.079010	145.580000
469.172729	145.660000
469.266418	146.220000
469.360107	145.840000
469.453827	145.940000
469.547516	146.060000
469.641205	146.380000
469.734924	146.380000
469.828613	146.880000
469.922302	147.180000
470.016022	146.980000
470.109711	146.820000
470.203430	146.020000
470.297150	145.060000
470.390808	145.000000
470.484558	144.780000
470.578217	145.140000
470.671936	145.580000
470.765625	146.400000
470.859344	146.200000
470.953003	146.680000
471.046753	146.320000
471.140411	145.960000
471.234131	146.000000
471.327820	146.380000
471.421539	146.260000
471.515228	146.220000
471.608948	146.520000
471.702637	146.080000
471.796326	145.680000
471.890045	145.960000
471.983734	146.260000
472.077423	145.720000
472.171143	145.520000
472.264832	145.420000
472.358521	145.060000
472.452240	144.580000
472.545929	145.280000
472.639648	145.640000
472.733337	145.920000
472.827057	145.860000
472.920746	146.100000
473.014465	146.240000
473.108124	146.380000
473.201874	146.540000
473.295532	146.320000
473.389252	146.600000
473.482941	146.420000
473.576660	145.980000
473.670319	145.260000
473.764069	145.680000
473.857727	145.580000
473.951477	145.520000
474.045166	146.320000
474.138855	146.560000
474.232574	146.460000
474.326263	146.560000
474.419952	146.960000
474.513672	146.460000
474.607361	146.640000
474.701050	146.640000
474.794769	146.960000
474.888458	146.800000
474.982178	146.800000
475.075867	147.000000
475.169586	146.780000
475.263275	146.280000
475.356995	146.100000
475.450653	146.020000
475.544403	145.540000
475.638062	146.380000
475.731812	145.840000
475.825470	145.860000
475.919189	146.080000
476.012878	146.280000
476.106598	145.620000
476.200256	146.500000
476.294006	146.260000
476.387695	146.000000
476.481384	146.020000
476.575104	146.040000
476.668793	145.400000
476.762512	145.180000
476.856201	145.780000
476.949890	145.600000
477.043610	145.260000
477.137299	145.460000
477.230988	146.040000
477.324707	145.500000
477.418396	145.880000
477.512146	146.260000
477.605804	146.320000
477.699524	146.100000
477.793213	146.080000
477.886932	145.820000
477.980591	145.380000
478.074341	145.320000
478.167999	144.860000
478.261749	144.820000
478.355408	144.600000
478.449127	145.040000
478.542816	145.640000
478.636536	146.420000
478.730225	146.500000
478.823944	147.040000
478.917633	146.980000
479.011322	147.000000
479.105042	146.780000
479.198730	147.000000
479.292450	146.440000
479.386139	146.600000
479.479828	146.640000
479.573547	146.960000
479.667267	146.740000
479.760925	146.880000
479.854675	146.800000
479.948334	146.620000
480.042084	146.060000
480.135742	146.320000
480.229462	146.200000
480.323151	146.260000
480.416870	145.620000
480.510529	145.720000
480.604279	145.520000
480.697937	146.060000
480.791656	145.540000
480.885345	145.360000
480.979065	145.240000
481.072754	145.520000
481.166473	145.560000
481.260132	145.880000
481.353882	146.120000
481.447540	146.200000
481.541260	145.880000
481.635010	145.140000
481.728668	145.020000
481.822388	145.060000
481.916077	144.880000
482.009796	144.920000
482.103485	145.760000
482.197205	145.900000
482.290863	146.020000
482.384613	145.680000
482.478271	145.060000
482.571991	144.660000
482.665680	144.220000
482.759399	144.840000
482.853058	145.540000
482.946808	146.100000
483.040466	145.920000
483.134216	146.160000
483.227875	145.700000
483.321594	146.260000
483.415283	146.200000
483.509003	146.240000
483.602661	145.940000
483.696411	146.100000
483.790070	145.580000
483.883789	145.580000
483.977478	146.100000
484.071198	146.420000
484.164917	145.860000
484.258606	145.360000
484.352325	145.660000
484.445984	145.400000
484.539734	145.480000
484.633392	145.020000
484.727142	145.760000
484.820801	145.400000
484.914520	145.260000
485.008209	145.300000
485.101929	146.080000
485.195587	145.400000
485.289337	145.300000
485.382996	145.420000
485.476715	145.480000
485.570404	145.900000
485.664124	146.060000
485.757782	146.560000
485.851532	146.100000
485.945190	146.020000
486.038910	145.700000
486.132599	145.980000
486.226318	145.280000
486.319977	145.400000
486.413727	145.760000
486.507446	145.600000
486.601105	144.920000
486.694855	144.960000
486.788513	145.060000
486.882233	144.940000
486.975922	144.780000
487.069641	144.980000
487.163300	145.100000
487.257050	146.320000
487.350708	145.920000
487.444427	145.680000
487.538116	145.780000
487.631836	145.800000
487.725494	144.900000
487.819214	145.240000
487.912903	145.320000
488.006622	145.880000
488.100281	146.040000
488.194031	146.020000
488.287689	146.260000
488.381409	147.160000
488.475098	146.720000
488.568817	147.100000
488.662476	146.780000
488.756226	146.120000
488.849945	145.180000
488.943604	145.580000
489.037354	145.400000
489.131012	145.560000
489.224731	145.780000
489.318390	145.740000
489.412140	145.460000
489.505798	145.400000
489.599518	145.000000
489.693207	145.260000
489.786926	145.260000
489.880585	145.120000
489.974335	145.360000
490.067993	146.760000
490.161713	147.160000
490.255371	148.200000
490.349121	148.620000
490.442780	148.220000
490.536499	147.020000
490.630188	146.280000
490.723907	145.600000
490.817566	145.360000
490.911285	145.520000
491.004974	145.680000
491.098694	145.680000
491.192413	146.140000
491.286102	146.000000
491.379822	146.060000
491.473480	146.260000
491.567200	146.340000
491.660889	145.500000
491.754608	145.500000
491.848267	145.320000
491.941986	145.020000
492.035675	144.880000
492.129395	145.760000
492.223053	145.600000
492.316772	145.800000
492.410461	145.720000
492.504181	145.960000
492.597839	145.280000
492.691559	145.860000
492.785248	145.600000
492.878967	145.800000
492.972626	145.380000
493.066345	145.660000
493.160034	144.920000
493.253754	145.380000
493.347412	145.080000
493.441132	145.680000
493.534882	145.940000
493.628540	146.420000
493.722260	146.140000
493.815918	146.660000
493.909668	146.800000
494.003326	147.060000
494.097046	146.780000
494.190704	146.580000
494.284454	146.200000
494.378113	146.300000
494.471832	145.900000
494.565491	145.820000
494.659210	145.980000
494.752899	145.920000
494.846619	145.200000
494.940277	145.460000
495.033997	145.600000
495.127686	145.440000
495.221405	145.580000
495.315063	145.820000
495.408783	145.620000
495.502441	145.840000
495.596191	146.400000
495.689850	146.080000
495.783569	146.580000
495.877228	146.880000
495.970947	146.520000
496.064697	146.100000
496.158356	147.280000
496.252075	147.000000
496.345734	146.380000
496.439453	147.280000
496.533142	147.220000
496.626862	147.060000
496.720520	147.080000
496.814240	147.420000
496.907898	146.740000
497.001617	147.080000
497.095306	146.380000
497.189026	146.260000
497.282684	146.400000
497.376404	146.960000
497.470062	146.540000
497.563782	146.840000
497.657471	146.960000
497.751190	146.260000
497.844849	145.840000
497.938568	146.280000
498.032227	146.340000
498.125946	146.100000
498.219635	146.220000
498.313354	146.080000
498.407074	145.580000
498.500732	145.600000
498.594452	146.220000
498.688110	146.080000
498.781830	145.800000
498.875519	145.840000
498.969238	145.480000
499.062897	144.560000
499.156616	145.180000
499.250275	145.680000
499.343994	145.440000
499.437653	145.660000
499.531372	146.100000
499.625061	146.520000
499.718781	146.280000
499.812439	146.880000
499.906158	146.600000
499.999817	146.420000
500.093536	145.460000
500.187195	145.920000
500.280914	145.800000
500.374573	146.140000
500.468323	145.920000
500.561981	146.360000
500.655701	145.480000
500.749420	145.540000
500.843079	145.340000
500.936798	145.680000
501.030457	146.080000
501.124176	146.740000
501.217834	146.580000
501.311554	146.280000
501.405212	146.100000
501.498962	145.040000
501.592621	144.780000
501.686340	144.940000
501.779999	145.400000
501.873718	145.500000
501.967377	146.000000
502.061096	146.300000
502.154755	145.720000
502.248474	145.680000
502.342133	146.100000
502.435852	145.920000
502.529510	146.380000
502.623230	147.380000
502.716888	147.180000
502.810608	146.860000
502.904266	147.680000
502.997986	147.000000
503.091705	146.160000
503.185364	145.960000
503.279083	146.000000
503.372772	145.600000
503.466492	145.400000
503.560150	145.460000
503.653870	145.880000
503.747528	145.900000
503.841248	145.660000
503.934906	146.240000
504.028625	146.400000
504.122284	146.480000
504.216003	146.940000
504.309662	146.600000
504.403381	146.380000
504.497040	146.380000
504.590759	146.060000
504.684418	145.800000
504.778137	146.500000
504.871796	146.800000
504.965515	146.520000
505.059174	146.600000
505.152893	146.320000
505.246521	145.920000
505.340240	145.340000
505.433899	145.600000
505.527618	145.660000
505.621338	146.080000
505.714996	146.020000
505.808716	145.960000
505.902374	146.500000
505.996094	146.680000
506.089752	145.700000
506.183472	145.880000
506.277130	146.240000
506.370850	145.840000
506.464508	145.360000
506.558228	146.060000
506.651886	145.900000
506.745605	145.700000
506.839264	145.940000
506.932983	146.480000
507.026611	146.440000
507.120331	146.660000
507.213989	146.400000
507.307709	146.120000
507.401367	146.080000
507.495087	146.520000
507.588745	146.000000
507.682465	146.820000
507.776123	146.860000
507.869843	146.560000
507.963531	146.100000
508.057190	146.860000
508.150909	146.180000
508.244568	146.380000
508.338287	146.200000
508.431946	146.280000
508.525665	145.780000
508.619324	145.740000
508.713013	145.700000
508.806671	146.180000
508.900391	146.580000
508.994049	146.720000
509.087769	146.520000
509.181427	146.440000
509.275146	146.220000
509.368774	145.560000
509.462494	145.400000
509.556152	145.260000
509.649872	145.500000
509.743530	145.580000
509.837250	145.880000
509.930878	145.980000
510.024597	146.200000
510.118256	145.840000
510.211975	145.880000
510.305695	145.520000
510.399353	145.800000
510.493042	146.480000
510.586700	146.580000
510.680420	146.940000
510.774078	147.140000
510.867798	147.160000
510.961426	146.360000
511.055145	146.140000
511.148804	145.600000
511.242523	145.900000
511.336151	145.520000
511.429871	146.180000
511.523529	146.420000
511.617249	146.120000
511.710876	145.540000
511.804596	145.420000
511.898254	145.140000
511.991974	145.080000
512.085632	144.980000
512.179321	145.520000
512.272949	145.760000
512.366699	145.940000
512.460327	146.080000
512.554077	147.520000
512.647766	147.120000
512.741394	147.540000
512.835144	147.700000
512.928772	147.320000
513.022461	146.580000
513.116150	146.440000
513.209839	146.580000
513.303467	145.980000
513.397217	145.780000
513.490845	145.320000
513.584595	145.580000
513.678223	144.780000
513.771912	144.320000
513.865601	144.740000
513.959290	144.740000
514.052917	144.720000
514.146667	145.540000
514.240295	146.380000
514.333984	146.560000
514.427673	146.620000
514.521362	146.920000
514.614990	146.120000
514.708740	146.160000
514.802368	146.020000
514.896057	146.220000
514.989746	146.600000
515.083435	147.020000
515.177124	147.260000
515.270752	147.240000
515.364502	146.920000
515.458130	146.780000
515.551819	146.160000
515.645508	145.980000
515.739197	146.000000
515.832825	146.300000
515.926575	145.660000
516.020203	146.100000
516.113892	146.400000
516.207520	146.120000
516.301270	146.140000
516.394897	146.260000
516.488586	146.580000
516.582275	146.160000
516.675964	145.880000
516.769592	145.860000
516.863281	146.460000
516.956970	146.620000
517.050659	146.420000
517.144287	146.840000
517.238037	146.780000
517.331665	146.160000
517.425354	145.740000
517.519043	145.720000
517.612732	145.720000
517.706421	145.560000
517.800049	145.280000
517.893738	144.800000
517.987427	144.760000
518.081116	144.580000
518.174744	144.220000
518.268433	144.620000
518.362122	145.720000
518.455811	145.600000
518.549438	146.460000
518.643127	147.680000
518.736816	147.460000
518.830505	146.800000
518.924133	147.020000
519.017822	146.620000
519.111511	145.900000
519.205200	146.480000
519.298828	146.520000
519.392517	146.080000
519.486206	146.260000
519.579895	146.520000
519.673523	146.020000
519.767212	145.960000
519.860901	146.820000
519.954590	146.200000
520.048279	145.660000
520.141907	145.560000
520.235596	146.440000
520.329224	146.440000
520.422974	146.680000
520.516602	146.940000
520.610291	146.520000
520.703918	146.000000
520.797607	145.440000
520.891296	145.400000
520.984985	145.400000
521.078613	146.180000
521.172302	145.320000
521.265930	146.100000
521.359680	146.620000
521.453308	146.460000
521.546997	146.300000
521.640625	147.020000
521.734314	146.440000
521.827942	146.000000
521.921692	146.400000
522.015320	146.420000
522.109009	145.860000
522.202698	145.660000
522.296326	145.540000
522.390015	145.480000
522.483704	145.480000
522.577393	145.700000
522.671021	145.800000
522.764709	145.620000
522.858337	146.000000
522.952026	145.860000
523.045654	146.460000
523.139404	146.940000
523.233032	147.400000
523.326721	146.860000
523.420349	146.840000
523.514038	146.020000
523.607666	146.300000
523.701355	145.720000
523.795044	145.660000
523.888733	145.980000
523.982361	146.420000
524.076050	145.640000
524.169678	146.200000
524.263367	146.140000
524.356995	145.720000
524.450684	145.540000
524.544373	145.360000
524.638062	145.240000
524.731750	145.620000
524.825378	145.640000
524.919067	145.140000
525.012695	145.400000
525.106384	145.300000
525.200012	144.740000
525.293701	144.540000
525.387329	145.300000
525.481018	145.420000
525.574646	145.480000
525.668396	145.680000
525.762024	146.220000
525.855713	146.160000
525.949341	145.660000
526.043030	145.660000
526.136658	145.700000
526.230347	145.420000
526.323975	144.940000
526.417664	145.060000
526.511292	145.200000
526.604980	145.220000
526.698608	145.260000
526.792297	145.560000
526.885925	145.760000
526.979614	145.800000
527.073303	145.720000
527.166931	145.960000
527.260620	146.040000
527.354309	146.580000
527.447998	146.420000
527.541626	146.140000
527.635315	145.880000
527.728943	146.280000
527.822632	146.380000
527.916260	146.360000
528.009949	146.940000
528.103577	147.000000
528.197266	146.340000
528.290894	146.000000
528.384583	145.880000
528.478210	145.980000
528.571899	145.980000
528.665527	146.460000
528.759216	146.620000
528.852844	146.880000
528.946533	146.720000
529.040161	146.900000
529.133850	146.600000
529.227478	146.340000
529.321167	146.580000
529.414856	147.000000
529.508484	147.200000
529.602173	146.960000
529.695801	146.820000
529.789490	146.640000
529.883057	146.140000
529.976746	146.320000
530.070374	147.100000
530.164062	147.140000
530.257690	147.300000
530.351379	147.500000
530.445007	147.220000
530.538696	146.500000
530.632324	146.900000
530.726013	146.780000
530.819641	146.680000
530.913330	146.600000
531.006958	146.720000
531.100647	146.440000
531.194275	146.120000
531.287964	145.820000
531.381592	145.480000
531.475220	145.620000
531.568848	145.640000
531.662537	145.760000
531.756226	146.220000
531.849854	146.440000
531.943542	146.020000
532.037170	145.420000
532.130859	145.780000
532.224487	145.480000
532.318176	144.980000
532.411804	145.760000
532.505432	146.280000
532.599060	145.660000
532.692749	145.420000
532.786377	146.260000
532.880066	145.600000
532.973694	145.000000
533.067383	144.900000
533.161011	145.080000
533.254639	144.560000
533.348267	144.340000
533.441956	144.880000
533.535583	145.220000
533.629272	145.240000
533.722900	144.820000
533.816589	145.380000
533.910156	145.940000
534.003845	145.460000
534.097534	145.940000
534.191162	147.100000
534.284851	147.260000
534.378479	146.620000
534.472107	146.880000
534.565735	146.540000
534.659424	146.300000
534.753052	145.940000
534.846741	145.680000
534.940369	146.380000
535.033997	146.380000
535.127625	146.300000
535.221313	147.120000
535.314941	147.320000
535.408630	146.460000
535.502197	146.760000
535.595886	146.200000
535.689514	145.240000
535.783203	145.860000
535.876831	146.320000
535.970459	146.160000
536.064087	146.060000
536.157776	146.380000
536.251404	145.900000
536.345093	145.800000
536.438721	145.560000
536.532349	145.940000
536.626038	145.840000
536.719666	146.380000
536.813293	146.140000
536.906921	146.200000
537.000610	146.460000
537.094238	146.480000
537.187866	146.020000
537.281494	145.900000
537.375183	146.040000
537.468811	145.840000
537.562439	145.800000
537.656067	145.680000
537.749756	146.000000
537.843384	146.360000
537.937012	146.520000
538.030640	146.260000
538.124329	146.320000
538.217896	146.520000
538.311584	146.140000
538.405212	145.740000
538.498901	145.920000
538.592468	146.640000
538.686157	146.140000
538.779785	145.660000
538.873413	145.880000
538.967102	145.780000
539.060730	144.960000
539.154358	145.360000
539.247986	145.740000
539.341675	145.560000
539.435242	145.880000
539.528931	146.180000
539.622559	145.640000
539.716187	146.280000
539.809814	146.340000
539.903503	146.000000
539.997070	146.020000
540.090759	146.400000
540.184387	146.000000
540.278015	146.540000
540.371643	146.880000
540.465332	146.640000
540.558899	146.440000
540.652588	146.180000
540.746216	145.580000
540.839844	145.660000
540.933472	145.740000
541.027100	145.620000
541.120728	145.620000
541.214417	145.940000
541.308044	146.180000
541.401672	146.160000
541.495300	146.080000
541.588928	146.120000
541.682617	146.000000
541.776184	145.440000
541.869873	145.460000
541.963440	145.840000
542.057129	145.580000
542.150757	145.420000
542.244385	145.320000
542.338013	144.920000
542.431641	144.880000
542.525269	145.380000
542.618958	145.940000
542.712524	146.240000
542.806213	146.380000
542.899780	146.540000
542.993469	146.080000
543.087036	145.760000
543.180725	145.320000
543.274292	145.600000
543.367981	145.840000
543.461548	146.200000
543.555237	145.960000
543.648926	146.480000
543.742493	146.960000
543.836182	146.480000
543.929749	146.300000
544.023437	146.280000
544.117004	146.380000
544.210693	146.140000
544.304260	146.180000
544.397949	145.960000
544.491516	146.380000
544.585205	145.880000
544.678772	145.200000
544.772461	145.640000
544.866028	145.660000
544.959717	145.740000
545.053284	145.580000
545.146973	146.180000
545.240540	146.180000
545.334229	147.000000
545.427795	146.820000
545.521423	147.260000
545.615051	147.160000
545.708679	147.320000
545.802307	146.700000
545.895935	146.900000
545.989624	147.460000
546.083191	147.460000
546.176880	147.220000
546.270447	147.100000
546.364136	147.260000
546.457703	146.420000
546.551331	146.200000
546.644958	146.100000
546.738586	146.500000
546.832214	146.100000
546.925842	146.400000
547.019409	146.800000
547.113098	146.460000
547.206665	146.100000
547.300354	146.240000
547.393921	146.360000
547.487549	146.640000
547.581177	146.580000
547.674805	146.800000
547.768433	146.220000
547.862061	146.300000
547.955627	145.320000
548.049316	146.000000
548.142883	146.000000
548.236572	146.260000
548.330139	146.480000
548.423767	146.600000
548.517456	146.020000
548.611023	146.260000
548.704651	145.940000
548.798279	145.720000
548.891907	146.300000
548.985474	146.460000
549.079163	146.300000
549.172729	146.240000
549.266357	145.500000
549.359985	145.400000
549.453613	144.760000
549.547180	144.780000
549.640869	145.220000
549.734436	145.580000
549.828064	145.820000
549.921631	146.140000
550.015320	145.880000
550.108887	146.320000
550.202515	146.380000
550.296143	145.860000
550.389771	146.180000
550.483337	146.140000
550.576965	145.460000
550.670593	145.780000
550.764221	145.920000
550.857849	145.860000
550.951477	145.540000
551.045105	145.560000
551.138672	145.440000
551.232300	145.040000
551.325928	145.100000
551.419556	145.520000
551.513123	145.780000
551.606750	145.340000
551.700378	145.660000
551.794006	145.580000
551.887573	145.420000
551.981201	145.640000
552.074768	145.740000
552.168457	145.620000
552.262024	146.720000
552.355652	146.660000
552.449219	146.980000
552.542847	147.320000
552.636475	147.020000
552.730103	145.760000
552.823669	145.520000
552.917297	144.880000
553.010864	144.920000
553.104553	145.400000
553.198181	145.140000
553.291748	145.920000
553.385376	146.320000
553.478943	145.900000
553.572571	145.920000
553.666199	146.680000
553.759827	146.180000
553.853394	145.480000
553.947021	145.360000
554.040588	145.380000
554.134216	145.100000
554.227783	146.020000
554.321411	146.880000
554.415039	146.880000
554.508667	146.840000
554.602234	147.020000
554.695862	145.900000
554.789429	145.540000
554.883057	145.660000
554.976624	145.440000
555.070251	145.200000
555.163818	145.100000
555.257507	145.040000
555.351074	145.120000
555.444702	146.320000
555.538330	146.080000
555.631897	146.700000
555.725525	146.540000
555.819092	146.580000
555.912720	145.240000
556.006287	145.860000
556.099915	145.400000
556.193481	145.800000
556.287109	146.180000
556.380676	146.240000
556.474304	146.320000
556.567871	146.760000
556.661499	146.000000
556.755066	145.780000
556.848694	146.000000
556.942261	145.420000
557.035889	145.340000
557.129517	146.040000
557.223145	146.440000
557.316711	146.580000
557.410339	147.060000
557.503906	147.020000
557.597473	146.960000
557.691040	146.620000
557.784668	146.660000
557.878296	146.600000
557.971863	146.680000
558.065491	146.540000
558.159058	146.360000
558.252686	146.780000
558.346252	147.120000
558.439880	146.380000
558.533447	146.120000
558.627075	145.680000
558.720642	145.340000
558.814270	145.080000
558.907837	145.640000
559.001465	145.840000
559.095032	146.820000
559.188660	146.880000
559.282227	146.280000
559.375854	147.040000
559.469360	146.600000
559.562988	146.760000
559.656555	146.620000
559.750183	146.980000
559.843750	146.480000
559.937378	146.740000
560.030945	146.080000
560.124573	0.000000
560.218140	0.000000
560.311707	0.000000
560.405334	0.000000
560.498901	0.000000
560.592529	0.000000
560.686096	0.000000
560.779724	0.000000
560.873291	0.000000
560.966858	0.000000
561.060425	0.000000
561.154053	0.000000
561.247620	0.000000
561.341248	0.000000
561.434814	0.000000
561.528381	0.000000
561.621948	0.000000
561.715576	0.000000
561.809143	0.000000
561.902771	0.000000
561.996277	0.000000
562.089905	0.000000
562.183472	0.000000
562.277100	0.000000
