Model Number: SPM-002-B   
Serial Number: 70087108
Firmware Version: 004.15.4
Exposure Time: 100000.000000us
Data Taken on: 11-12-2020 18:53:34.841
Wavelength	Amplitude
221.570786	0.000000
221.663406	0.000000
221.756027	0.000000
221.848648	0.000000
221.941269	0.000000
222.033905	0.000000
222.126526	0.000000
222.219162	0.000000
222.311798	0.000000
222.404419	0.000000
222.497055	0.000000
222.589676	0.000000
222.682312	0.000000
222.774933	0.000000
222.867569	0.000000
222.960205	0.000000
223.052841	0.000000
223.145462	0.000000
223.238098	0.000000
223.330734	0.000000
223.423386	0.000000
223.516022	0.000000
223.608658	0.000000
223.701309	0.000000
223.793945	0.000000
223.886581	0.000000
223.979218	0.000000
224.071869	0.000000
224.164505	0.000000
224.257156	0.000000
224.349792	0.000000
224.442444	0.000000
224.535095	0.000000
224.627747	0.000000
224.720398	0.000000
224.813034	0.000000
224.905685	0.000000
224.998337	146.240000
225.090988	146.060000
225.183640	145.980000
225.276291	145.820000
225.368942	146.100000
225.461594	146.540000
225.554245	146.840000
225.646912	146.640000
225.739578	147.380000
225.832230	147.580000
225.924896	146.760000
226.017548	147.100000
226.110199	147.800000
226.202866	146.800000
226.295532	146.760000
226.388184	146.920000
226.480850	146.000000
226.573517	145.360000
226.666168	145.980000
226.758835	146.060000
226.851501	146.720000
226.944183	147.020000
227.036850	146.560000
227.129517	146.500000
227.222183	146.620000
227.314850	146.680000
227.407516	146.760000
227.500198	147.880000
227.592865	147.600000
227.685532	147.080000
227.778214	146.660000
227.870880	147.060000
227.963562	147.040000
228.056229	147.320000
228.148926	147.440000
228.241592	147.980000
228.334274	147.460000
228.426956	147.300000
228.519638	147.460000
228.612305	147.180000
228.704987	147.120000
228.797668	147.180000
228.890350	146.880000
228.983032	146.120000
229.075714	146.820000
229.168396	146.440000
229.261108	146.060000
229.353790	146.080000
229.446472	146.480000
229.539169	146.340000
229.631851	145.960000
229.724533	146.240000
229.817230	146.340000
229.909912	147.480000
230.002609	147.320000
230.095306	147.380000
230.187988	147.420000
230.280685	147.200000
230.373383	145.900000
230.466095	145.580000
230.558792	145.900000
230.651474	145.840000
230.744171	145.820000
230.836868	145.920000
230.929581	146.260000
231.022278	146.240000
231.114975	146.300000
231.207672	146.240000
231.300369	146.720000
231.393082	146.880000
231.485779	146.740000
231.578506	146.600000
231.671204	146.920000
231.763916	146.860000
231.856613	146.540000
231.949326	146.860000
232.042023	146.560000
232.134735	146.260000
232.227448	145.660000
232.320160	146.120000
232.412872	145.760000
232.505585	147.100000
232.598297	147.560000
232.691010	147.840000
232.783722	147.400000
232.876450	147.820000
232.969162	147.000000
233.061874	146.420000
233.154587	146.060000
233.247314	146.500000
233.340027	145.880000
233.432739	146.220000
233.525467	146.380000
233.618179	146.720000
233.710907	146.260000
233.803635	147.020000
233.896347	146.760000
233.989090	147.400000
234.081818	147.200000
234.174545	147.480000
234.267258	146.760000
234.359985	147.020000
234.452713	146.800000
234.545441	146.640000
234.638168	146.280000
234.730896	147.080000
234.823639	146.620000
234.916367	146.740000
235.009094	146.980000
235.101822	147.060000
235.194580	146.600000
235.287308	146.860000
235.380051	146.200000
235.472778	146.800000
235.565521	147.060000
235.658249	146.920000
235.750992	146.580000
235.843719	146.780000
235.936462	146.400000
236.029205	146.040000
236.121948	145.960000
236.214691	146.500000
236.307449	147.060000
236.400192	146.860000
236.492935	146.760000
236.585678	146.940000
236.678421	146.700000
236.771164	146.460000
236.863907	147.120000
236.956665	147.340000
237.049408	148.940000
237.142151	148.700000
237.234909	149.220000
237.327652	148.760000
237.420410	148.660000
237.513153	147.420000
237.605927	147.540000
237.698669	147.040000
237.791428	146.540000
237.884186	146.980000
237.976944	146.380000
238.069702	146.460000
238.162445	145.920000
238.255203	146.080000
238.347961	146.380000
238.440720	146.580000
238.533478	146.400000
238.626266	146.300000
238.719025	146.700000
238.811783	146.240000
238.904541	146.220000
238.997314	146.240000
239.090073	146.300000
239.182831	146.580000
239.275604	147.360000
239.368362	147.260000
239.461136	147.640000
239.553909	147.600000
239.646667	147.140000
239.739441	146.580000
239.832214	146.960000
239.925003	146.840000
240.017761	147.680000
240.110535	148.100000
240.203308	147.500000
240.296082	147.340000
240.388855	147.160000
240.481628	147.020000
240.574417	147.100000
240.667191	147.460000
240.759964	147.100000
240.852737	147.000000
240.945526	146.620000
241.038315	146.220000
241.131088	146.300000
241.223877	146.640000
241.316650	146.500000
241.409439	146.840000
241.502228	146.300000
241.595001	146.820000
241.687790	146.620000
241.780579	146.940000
241.873367	146.820000
241.966141	147.540000
242.058929	146.700000
242.151718	147.100000
242.244507	147.300000
242.337311	146.720000
242.430099	147.240000
242.522903	147.740000
242.615692	147.120000
242.708481	147.000000
242.801270	147.600000
242.894073	147.000000
242.986862	146.880000
243.079651	147.820000
243.172455	147.500000
243.265244	147.780000
243.358063	147.180000
243.450867	147.400000
243.543655	147.160000
243.636459	147.200000
243.729263	147.080000
243.822067	147.780000
243.914856	148.040000
244.007660	147.840000
244.100464	147.800000
244.193268	147.320000
244.286072	147.040000
244.378876	146.540000
244.471680	146.200000
244.564499	146.580000
244.657318	147.640000
244.750122	147.960000
244.842926	147.360000
244.935745	147.980000
245.028549	147.760000
245.121368	146.980000
245.214172	146.660000
245.306992	147.380000
245.399796	147.020000
245.492615	147.180000
245.585434	147.080000
245.678253	147.320000
245.771072	147.080000
245.863892	147.320000
245.956711	147.420000
246.049530	147.140000
246.142349	146.920000
246.235168	147.240000
246.327988	147.560000
246.420807	147.180000
246.513626	147.460000
246.606445	147.220000
246.699280	146.880000
246.792099	146.640000
246.884918	146.540000
246.977753	146.300000
247.070587	146.740000
247.163422	146.840000
247.256241	146.720000
247.349075	147.000000
247.441895	147.080000
247.534729	146.820000
247.627563	146.520000
247.720383	147.000000
247.813217	146.700000
247.906052	146.440000
247.998886	146.740000
248.091736	146.900000
248.184570	146.320000
248.277405	146.460000
248.370239	147.660000
248.463074	148.220000
248.555908	148.460000
248.648743	148.420000
248.741592	148.460000
248.834427	147.400000
248.927261	146.380000
249.020111	146.780000
249.112946	147.380000
249.205795	147.140000
249.298630	147.620000
249.391495	147.760000
249.484344	147.300000
249.577179	147.040000
249.670029	147.560000
249.762878	148.020000
249.855728	148.340000
249.948563	148.040000
250.041412	147.500000
250.134262	147.380000
250.227112	147.040000
250.319962	146.900000
250.412827	147.080000
250.505692	147.060000
250.598541	146.740000
250.691391	146.560000
250.784241	146.580000
250.877106	146.620000
250.969955	146.440000
251.062805	147.160000
251.155670	147.440000
251.248520	147.220000
251.341385	147.600000
251.434235	147.880000
251.527100	147.480000
251.619965	147.040000
251.712814	147.760000
251.805695	147.620000
251.898560	147.560000
251.991425	147.760000
252.084290	147.840000
252.177155	147.040000
252.270020	146.780000
252.362885	147.040000
252.455750	146.660000
252.548615	146.520000
252.641479	146.420000
252.734360	146.400000
252.827240	146.000000
252.920105	146.540000
253.012970	146.480000
253.105850	146.740000
253.198715	146.420000
253.291595	146.800000
253.384460	146.300000
253.477341	146.220000
253.570221	146.460000
253.663086	146.500000
253.755966	147.060000
253.848846	147.160000
253.941727	147.580000
254.034592	147.480000
254.127472	147.140000
254.220367	146.860000
254.313248	147.140000
254.406128	146.820000
254.499008	147.020000
254.591904	147.960000
254.684784	148.340000
254.777664	148.140000
254.870544	147.640000
254.963440	147.220000
255.056335	147.020000
255.149216	146.420000
255.242111	146.700000
255.334991	147.380000
255.427887	147.540000
255.520767	147.780000
255.613663	147.960000
255.706558	147.660000
255.799438	147.480000
255.892334	147.280000
255.985229	147.080000
256.078125	146.740000
256.171021	146.740000
256.263916	147.140000
256.356812	147.580000
256.449707	147.580000
256.542603	147.580000
256.635498	148.180000
256.728394	147.500000
256.821289	147.100000
256.914215	147.240000
257.007080	147.500000
257.100006	147.200000
257.192932	147.920000
257.285828	147.960000
257.378723	147.540000
257.471619	147.400000
257.564545	147.140000
257.657440	147.060000
257.750336	147.640000
257.843262	147.700000
257.936157	148.920000
258.029053	149.000000
258.121979	148.960000
258.214874	148.500000
258.307800	148.480000
258.400696	147.160000
258.493622	147.320000
258.586517	146.720000
258.679443	147.020000
258.772339	146.460000
258.865265	146.580000
258.958160	145.760000
259.051086	146.600000
259.144012	146.220000
259.236938	147.340000
259.329834	147.240000
259.422791	147.460000
259.515717	146.620000
259.608612	146.400000
259.701538	146.100000
259.794464	146.000000
259.887390	145.860000
259.980316	146.280000
260.073212	146.100000
260.166138	145.340000
260.259064	145.920000
260.351990	146.820000
260.444916	146.640000
260.537842	147.320000
260.630768	148.020000
260.723694	147.380000
260.816620	146.920000
260.909546	147.060000
261.002472	146.560000
261.095398	146.280000
261.188354	146.460000
261.281281	145.920000
261.374207	146.060000
261.467133	146.700000
261.560089	146.900000
261.653015	146.920000
261.745972	148.120000
261.838867	148.180000
261.931824	148.480000
262.024780	147.900000
262.117706	148.120000
262.210663	148.220000
262.303589	147.880000
262.396515	147.620000
262.489471	148.880000
262.582397	148.540000
262.675354	147.640000
262.768280	147.900000
262.861237	147.880000
262.954163	147.320000
263.047119	147.560000
263.140045	147.240000
263.233002	147.100000
263.325958	146.780000
263.418884	146.340000
263.511841	146.300000
263.604797	146.780000
263.697723	146.740000
263.790680	146.820000
263.883636	147.360000
263.976593	147.060000
264.069550	146.820000
264.162476	146.840000
264.255463	146.740000
264.348419	146.320000
264.441376	146.860000
264.534332	146.660000
264.627289	146.720000
264.720245	147.320000
264.813202	147.120000
264.906158	147.080000
264.999115	147.940000
265.092072	147.760000
265.185028	147.880000
265.277985	148.420000
265.370941	148.000000
265.463898	147.340000
265.556854	147.400000
265.649811	146.720000
265.742798	146.560000
265.835754	146.900000
265.928711	147.360000
266.021667	147.080000
266.114655	147.420000
266.207611	147.860000
266.300568	147.060000
266.393585	146.500000
266.486511	146.980000
266.579498	146.080000
266.672485	145.620000
266.765442	146.140000
266.858429	146.940000
266.951385	146.520000
267.044342	146.820000
267.137329	146.720000
267.230316	147.000000
267.323273	146.020000
267.416260	147.000000
267.509216	146.860000
267.602203	147.020000
267.695160	147.440000
267.788147	148.120000
267.881134	147.360000
267.974091	147.860000
268.067078	147.800000
268.160065	147.100000
268.253052	146.720000
268.346008	146.640000
268.438995	146.460000
268.531982	146.480000
268.624969	146.360000
268.717987	146.660000
268.810944	146.760000
268.903961	146.780000
268.996948	146.700000
269.089905	147.380000
269.182892	147.500000
269.275879	147.760000
269.368866	147.200000
269.461853	147.360000
269.554871	146.940000
269.647858	146.880000
269.740845	147.360000
269.833832	148.120000
269.926819	147.740000
270.019806	148.220000
270.112793	147.700000
270.205811	147.460000
270.298798	147.060000
270.391785	147.500000
270.484772	146.820000
270.577789	147.020000
270.670776	146.440000
270.763763	146.360000
270.856750	146.440000
270.949768	146.120000
271.042786	146.480000
271.135773	146.540000
271.228790	146.880000
271.321808	146.320000
271.414795	146.480000
271.507782	145.960000
271.600800	145.660000
271.693817	145.700000
271.786804	146.420000
271.879822	146.700000
271.972809	146.680000
272.065826	147.560000
272.158844	147.160000
272.251831	147.280000
272.344849	147.300000
272.437866	147.080000
272.530853	146.640000
272.623871	147.120000
272.716888	146.060000
272.809906	146.440000
272.902893	146.860000
272.995911	146.500000
273.088928	146.460000
273.181946	147.000000
273.274963	146.320000
273.367981	146.140000
273.460999	146.560000
273.554047	146.760000
273.647003	147.520000
273.740051	147.480000
273.833069	147.720000
273.926086	147.620000
274.019135	147.220000
274.112152	146.460000
274.205170	146.780000
274.298187	147.040000
274.391205	146.860000
274.484222	146.880000
274.577240	146.760000
274.670258	146.640000
274.763306	146.520000
274.856323	146.880000
274.949341	147.160000
275.042358	147.840000
275.135406	147.720000
275.228424	147.580000
275.321442	147.440000
275.414490	146.800000
275.507507	146.720000
275.600525	147.260000
275.693573	147.120000
275.786591	146.720000
275.879669	146.900000
275.972656	146.300000
276.065735	145.820000
276.158752	146.360000
276.251801	147.260000
276.344818	147.360000
276.437866	147.240000
276.530884	147.040000
276.623932	146.100000
276.716980	145.980000
276.809998	146.320000
276.903046	146.640000
276.996094	147.660000
277.089111	148.320000
277.182159	148.540000
277.275208	147.940000
277.368256	148.140000
277.461304	147.760000
277.554321	147.100000
277.647369	146.800000
277.740417	147.100000
277.833466	146.940000
277.926514	146.720000
278.019562	147.680000
278.112610	147.260000
278.205688	147.540000
278.298706	147.780000
278.391785	147.480000
278.484833	146.880000
278.577881	146.800000
278.670929	147.040000
278.763977	146.780000
278.857025	147.440000
278.950073	147.380000
279.043121	147.240000
279.136169	146.920000
279.229248	146.840000
279.322296	146.640000
279.415344	146.700000
279.508392	146.620000
279.601440	146.520000
279.694519	146.520000
279.787567	145.900000
279.880615	145.780000
279.973694	146.080000
280.066742	146.260000
280.159790	146.240000
280.252869	146.480000
280.345917	146.660000
280.438995	146.680000
280.532074	146.460000
280.625122	146.980000
280.718201	147.820000
280.811279	147.900000
280.904327	147.760000
280.997406	147.880000
281.090454	147.420000
281.183533	146.780000
281.276581	146.800000
281.369659	146.740000
281.462738	146.880000
281.555786	147.040000
281.648865	147.040000
281.741943	146.980000
281.835022	147.740000
281.928070	147.520000
282.021149	147.300000
282.114227	147.220000
282.207306	147.160000
282.300385	147.120000
282.393433	147.280000
282.486511	147.540000
282.579590	148.160000
282.672668	148.520000
282.765747	148.060000
282.858856	147.540000
282.951904	147.140000
283.045013	146.840000
283.138062	146.940000
283.231171	147.280000
283.324249	148.060000
283.417328	148.520000
283.510406	148.280000
283.603485	147.860000
283.696564	147.520000
283.789642	147.140000
283.882751	146.600000
283.975830	147.240000
284.068909	147.020000
284.161987	147.660000
284.255066	147.300000
284.348175	147.780000
284.441254	147.540000
284.534332	147.980000
284.627441	147.140000
284.720520	146.980000
284.813599	146.740000
284.906708	146.460000
284.999786	146.020000
285.092896	146.020000
285.185974	147.200000
285.279053	146.760000
285.372192	147.120000
285.465240	147.800000
285.558380	147.660000
285.651459	146.980000
285.744568	147.920000
285.837677	147.140000
285.930756	146.900000
286.023865	147.140000
286.116943	147.060000
286.210052	146.920000
286.303162	146.940000
286.396240	147.000000
286.489349	146.920000
286.582458	147.120000
286.675568	146.680000
286.768646	146.960000
286.861755	146.860000
286.954865	147.780000
287.047974	147.340000
287.141083	147.240000
287.234161	147.020000
287.327271	146.740000
287.420380	146.560000
287.513519	146.540000
287.606598	146.820000
287.699738	147.160000
287.792816	147.280000
287.885956	147.000000
287.979034	147.220000
288.072174	147.300000
288.165283	147.160000
288.258392	147.360000
288.351501	146.740000
288.444611	146.720000
288.537720	146.900000
288.630859	146.800000
288.723969	146.940000
288.817078	147.440000
288.910187	147.380000
289.003296	146.920000
289.096436	146.840000
289.189545	146.900000
289.282654	146.700000
289.375763	147.120000
289.468903	147.320000
289.562012	147.780000
289.655121	147.320000
289.748260	147.140000
289.841400	147.360000
289.934509	147.260000
290.027649	147.040000
290.120728	147.140000
290.213898	147.260000
290.306976	146.700000
290.400146	147.020000
290.493256	146.540000
290.586395	146.780000
290.679535	147.140000
290.772644	147.140000
290.865784	146.440000
290.958893	146.760000
291.052032	146.240000
291.145172	145.880000
291.238281	145.820000
291.331421	145.980000
291.424561	146.680000
291.517670	146.820000
291.610809	147.000000
291.703949	146.900000
291.797089	147.300000
291.890228	146.740000
291.983337	146.820000
292.076477	146.800000
292.169617	147.040000
292.262756	146.680000
292.355927	146.340000
292.449036	146.320000
292.542206	146.260000
292.635315	146.700000
292.728485	147.300000
292.821625	147.220000
292.914764	148.320000
293.007904	148.240000
293.101044	147.760000
293.194183	147.320000
293.287323	147.620000
293.380463	146.500000
293.473602	146.480000
293.566742	146.800000
293.659882	147.420000
293.753021	147.680000
293.846191	147.780000
293.939331	147.720000
294.032471	147.320000
294.125610	146.700000
294.218781	146.840000
294.311920	147.220000
294.405060	147.580000
294.498230	147.900000
294.591370	148.020000
294.684540	147.360000
294.777679	147.020000
294.870850	147.200000
294.963959	146.920000
295.057159	147.000000
295.150299	147.400000
295.243469	147.220000
295.336609	146.300000
295.429779	146.380000
295.522919	146.620000
295.616089	146.580000
295.709229	147.440000
295.802399	147.780000
295.895569	147.540000
295.988708	147.160000
296.081879	147.160000
296.175018	146.200000
296.268188	146.280000
296.361359	146.760000
296.454529	146.800000
296.547668	146.700000
296.640839	147.080000
296.734009	146.900000
296.827179	147.220000
296.920319	147.380000
297.013519	147.280000
297.106659	147.280000
297.199860	147.540000
297.292999	146.980000
297.386200	146.700000
297.479309	146.680000
297.572510	146.680000
297.665680	146.560000
297.758850	146.740000
297.852020	146.700000
297.945190	146.500000
298.038361	146.340000
298.131531	147.220000
298.224701	147.140000
298.317871	146.940000
298.411072	146.880000
298.504242	146.560000
298.597412	145.560000
298.690582	145.660000
298.783752	146.040000
298.876923	146.780000
298.970093	147.320000
299.063293	147.860000
299.156464	148.200000
299.249634	148.320000
299.342834	148.120000
299.436005	148.240000
299.529205	147.980000
299.622345	147.900000
299.715576	147.420000
299.808716	147.340000
299.901917	147.260000
299.995117	147.740000
300.088287	147.640000
300.181488	147.600000
300.274658	147.500000
300.367828	147.260000
300.461029	146.960000
300.554199	146.940000
300.647400	147.180000
300.740601	147.920000
300.833771	147.860000
300.926971	147.980000
301.020142	147.560000
301.113342	147.580000
301.206512	146.880000
301.299713	147.200000
301.392914	147.040000
301.486084	147.460000
301.579285	147.360000
301.672516	147.940000
301.765686	147.820000
301.858887	147.680000
301.952057	147.480000
302.045288	147.580000
302.138458	147.280000
302.231659	146.940000
302.324860	146.980000
302.418060	146.600000
302.511261	146.460000
302.604462	146.600000
302.697662	146.400000
302.790863	146.360000
302.884064	146.460000
302.977264	146.720000
303.070465	146.680000
303.163666	147.720000
303.256866	147.940000
303.350067	148.180000
303.443268	148.140000
303.536469	148.360000
303.629669	147.680000
303.722870	147.780000
303.816071	147.500000
303.909271	147.620000
304.002472	146.600000
304.095673	146.540000
304.188934	145.620000
304.282104	146.720000
304.375336	146.560000
304.468506	147.000000
304.561768	146.920000
304.654968	147.760000
304.748169	146.840000
304.841370	146.800000
304.934601	146.880000
305.027802	146.880000
305.121002	146.220000
305.214233	146.360000
305.307434	146.400000
305.400665	146.900000
305.493866	146.580000
305.587097	147.160000
305.680298	146.980000
305.773499	147.260000
305.866730	146.960000
305.959930	147.700000
306.053162	147.820000
306.146393	147.500000
306.239594	146.700000
306.332825	146.640000
306.426025	146.780000
306.519287	146.480000
306.612488	147.020000
306.705719	147.500000
306.798920	147.400000
306.892181	146.960000
306.985352	146.560000
307.078613	145.980000
307.171844	146.220000
307.265045	145.780000
307.358276	145.320000
307.451508	146.320000
307.544739	146.940000
307.637970	146.560000
307.731201	146.660000
307.824402	147.480000
307.917633	146.980000
308.010864	147.160000
308.104095	147.460000
308.197327	147.620000
308.290558	147.420000
308.383789	147.160000
308.477020	146.780000
308.570251	146.060000
308.663483	145.900000
308.756714	145.780000
308.849976	145.840000
308.943176	146.140000
309.036438	146.520000
309.129639	146.700000
309.222900	146.760000
309.316101	146.720000
309.409393	146.380000
309.502625	146.200000
309.595856	146.300000
309.689087	146.280000
309.782318	146.460000
309.875580	146.300000
309.968811	146.380000
310.062042	145.980000
310.155273	146.120000
310.248535	146.600000
310.341766	146.760000
310.434998	146.760000
310.528259	146.960000
310.621490	147.040000
310.714722	146.260000
310.807983	146.340000
310.901215	146.540000
310.994476	146.760000
311.087708	146.140000
311.181000	146.420000
311.274200	145.860000
311.367462	145.900000
311.460693	145.600000
311.553986	146.580000
311.647186	146.820000
311.740479	147.920000
311.833710	147.660000
311.926971	147.700000
312.020203	146.900000
312.113464	146.780000
312.206726	146.060000
312.299957	146.340000
312.393219	146.720000
312.486481	146.740000
312.579712	146.600000
312.672974	146.840000
312.766235	146.660000
312.859497	146.660000
312.952759	146.900000
313.045990	147.540000
313.139252	146.940000
313.232513	147.180000
313.325775	147.080000
313.419037	146.540000
313.512299	145.720000
313.605530	146.400000
313.698822	146.340000
313.792053	146.200000
313.885345	146.280000
313.978577	146.580000
314.071869	146.100000
314.165131	146.200000
314.258392	146.600000
314.351654	146.820000
314.444916	146.020000
314.538177	146.800000
314.631439	147.000000
314.724701	146.780000
314.817993	146.700000
314.911255	147.360000
315.004517	146.620000
315.097778	146.460000
315.191040	146.680000
315.284302	147.300000
315.377594	147.040000
315.470856	146.880000
315.564117	146.340000
315.657379	145.640000
315.750671	144.760000
315.843933	145.260000
315.937195	145.220000
316.030518	145.100000
316.123749	145.220000
316.217041	146.020000
316.310303	145.760000
316.403595	146.240000
316.496857	146.580000
316.590149	146.940000
316.683411	146.360000
316.776703	146.260000
316.869965	146.100000
316.963257	146.080000
317.056519	145.420000
317.149811	145.460000
317.243073	145.380000
317.336365	145.380000
317.429626	145.760000
317.522919	146.100000
317.616180	145.960000
317.709473	145.660000
317.802765	145.340000
317.896027	145.080000
317.989319	145.660000
318.082611	145.720000
318.175873	146.060000
318.269165	146.460000
318.362488	146.420000
318.455750	146.000000
318.549042	146.300000
318.642303	146.780000
318.735626	146.660000
318.828888	146.620000
318.922211	146.220000
319.015472	146.820000
319.108765	146.100000
319.202057	145.820000
319.295349	146.100000
319.388641	146.260000
319.481934	145.940000
319.575226	146.120000
319.668518	146.260000
319.761810	146.420000
319.855103	146.660000
319.948395	146.520000
320.041687	146.700000
320.134979	146.880000
320.228271	146.480000
320.321564	146.200000
320.414856	146.020000
320.508148	145.340000
320.601440	145.100000
320.694763	145.120000
320.788025	145.860000
320.881348	145.740000
320.974640	146.200000
321.067963	145.880000
321.161224	145.960000
321.254547	145.160000
321.347839	145.800000
321.441162	145.640000
321.534454	146.180000
321.627747	145.900000
321.721069	146.500000
321.814362	146.320000
321.907654	146.480000
322.000946	146.020000
322.094269	146.720000
322.187561	146.200000
322.280884	146.360000
322.374176	146.580000
322.467468	147.360000
322.560791	146.880000
322.654083	147.320000
322.747406	147.460000
322.840698	147.900000
322.934021	148.220000
323.027344	148.400000
323.120636	148.220000
323.213959	147.520000
323.307251	146.680000
323.400574	146.040000
323.493866	145.600000
323.587219	145.720000
323.680511	146.260000
323.773834	146.540000
323.867157	146.600000
323.960449	147.080000
324.053772	146.860000
324.147095	146.340000
324.240387	146.720000
324.333710	146.920000
324.427032	146.660000
324.520355	146.780000
324.613647	146.700000
324.706970	146.060000
324.800293	145.660000
324.893616	146.060000
324.986938	146.180000
325.080231	146.280000
325.173553	146.940000
325.266876	147.480000
325.360199	147.560000
325.453522	147.180000
325.546875	146.920000
325.640167	147.100000
325.733521	147.200000
325.826813	146.920000
325.920166	146.900000
326.013489	146.940000
326.106812	145.860000
326.200134	145.420000
326.293457	144.900000
326.386780	144.980000
326.480103	145.060000
326.573425	145.080000
326.666748	144.840000
326.760071	145.520000
326.853424	145.600000
326.946747	145.760000
327.040070	146.660000
327.133392	146.560000
327.226715	145.940000
327.320068	145.720000
327.413391	146.240000
327.506714	145.700000
327.600037	145.920000
327.693390	146.160000
327.786713	146.220000
327.880066	145.780000
327.973358	146.200000
328.066742	146.700000
328.160034	147.020000
328.253418	147.440000
328.346710	147.360000
328.440063	146.880000
328.533417	146.260000
328.626740	146.340000
328.720093	145.980000
328.813416	145.800000
328.906769	145.820000
329.000092	146.260000
329.093445	146.140000
329.186768	146.180000
329.280121	146.800000
329.373444	147.280000
329.466797	147.200000
329.560120	147.060000
329.653473	147.100000
329.746796	146.660000
329.840149	146.240000
329.933502	146.160000
330.026825	145.980000
330.120178	146.100000
330.213562	146.200000
330.306854	146.080000
330.400238	146.120000
330.493561	145.860000
330.586945	146.500000
330.680237	146.600000
330.773621	147.060000
330.866974	147.100000
330.960327	147.860000
331.053680	147.220000
331.147003	147.420000
331.240356	147.240000
331.333710	147.160000
331.427063	146.720000
331.520416	146.740000
331.613770	146.300000
331.707123	146.200000
331.800476	146.040000
331.893829	147.000000
331.987152	147.060000
332.080505	147.100000
332.173859	147.160000
332.267212	147.180000
332.360565	146.240000
332.453918	145.960000
332.547333	145.940000
332.640656	146.240000
332.734039	146.360000
332.827362	146.360000
332.920746	146.800000
333.014069	147.120000
333.107452	147.400000
333.200806	147.580000
333.294159	147.800000
333.387543	147.400000
333.480896	146.900000
333.574249	146.500000
333.667603	145.900000
333.760956	146.020000
333.854340	146.340000
333.947693	146.500000
334.041046	146.640000
334.134430	147.120000
334.227783	146.660000
334.321136	146.440000
334.414520	146.480000
334.507874	146.520000
334.601227	146.280000
334.694611	146.300000
334.787964	146.020000
334.881348	146.120000
334.974701	145.820000
335.068085	145.720000
335.161438	146.420000
335.254822	146.400000
335.348175	146.440000
335.441559	146.200000
335.534943	146.880000
335.628296	146.180000
335.721680	146.440000
335.815033	146.600000
335.908417	147.060000
336.001770	147.020000
336.095154	147.160000
336.188538	146.880000
336.281891	146.520000
336.375275	145.940000
336.468658	145.620000
336.562012	145.520000
336.655396	146.240000
336.748779	146.780000
336.842133	147.240000
336.935516	147.320000
337.028900	147.380000
337.122284	146.980000
337.215637	146.760000
337.309021	146.580000
337.402435	146.200000
337.495789	146.060000
337.589203	146.080000
337.682526	145.980000
337.775940	146.300000
337.869324	146.820000
337.962708	146.700000
338.056091	147.120000
338.149475	146.740000
338.242859	146.860000
338.336243	146.440000
338.429626	146.880000
338.523010	146.840000
338.616394	146.740000
338.709778	146.780000
338.803162	147.000000
338.896545	146.980000
338.989929	146.300000
339.083313	146.900000
339.176697	146.620000
339.270081	146.660000
339.363464	146.540000
339.456848	147.100000
339.550232	146.260000
339.643616	146.020000
339.737030	145.860000
339.830383	146.020000
339.923828	145.880000
340.017181	146.320000
340.110596	146.400000
340.203949	146.460000
340.297363	145.940000
340.390778	145.720000
340.484161	145.840000
340.577545	145.980000
340.670959	146.080000
340.764343	146.560000
340.857727	146.980000
340.951111	146.600000
341.044525	146.640000
341.137909	146.140000
341.231293	145.900000
341.324707	145.260000
341.418091	146.140000
341.511505	146.100000
341.604889	146.620000
341.698303	146.740000
341.791687	147.180000
341.885071	146.440000
341.978485	146.420000
342.071899	146.380000
342.165283	146.700000
342.258698	146.800000
342.352081	147.200000
342.445496	147.380000
342.538879	147.280000
342.632324	146.680000
342.725708	146.580000
342.819122	146.460000
342.912506	146.280000
343.005920	146.060000
343.099335	147.020000
343.192719	146.720000
343.286133	146.580000
343.379547	146.540000
343.472931	146.940000
343.566345	146.240000
343.659760	146.780000
343.753143	146.380000
343.846558	146.300000
343.939972	146.060000
344.033386	146.580000
344.126770	146.380000
344.220184	146.800000
344.313599	147.140000
344.407043	147.260000
344.500427	146.600000
344.593872	146.900000
344.687225	146.660000
344.780670	146.160000
344.874054	146.040000
344.967499	146.660000
345.060913	146.480000
345.154327	146.680000
345.247742	147.000000
345.341156	146.800000
345.434570	146.140000
345.527985	146.000000
345.621399	146.160000
345.714813	145.880000
345.808228	146.240000
345.901642	146.060000
345.995056	145.700000
346.088470	146.000000
346.181885	146.280000
346.275299	145.940000
346.368713	146.280000
346.462128	146.300000
346.555573	146.080000
346.648987	146.240000
346.742401	146.260000
346.835815	146.500000
346.929260	146.520000
347.022644	146.420000
347.116119	146.300000
347.209503	146.740000
347.302948	147.520000
347.396362	147.840000
347.489807	147.940000
347.583221	148.640000
347.676636	148.400000
347.770050	147.140000
347.863495	146.320000
347.956909	146.320000
348.050323	145.380000
348.143768	145.320000
348.237183	145.500000
348.330597	146.580000
348.424042	146.700000
348.517456	147.260000
348.610901	147.600000
348.704315	147.480000
348.797760	146.760000
348.891174	146.300000
348.984619	145.740000
349.078033	145.780000
349.171448	146.520000
349.264923	146.500000
349.358337	146.660000
349.451782	146.900000
349.545197	146.300000
349.638641	145.720000
349.732086	145.480000
349.825500	146.000000
349.918945	145.560000
350.012390	146.080000
350.105804	146.680000
350.199249	146.960000
350.292664	147.040000
350.386108	147.460000
350.479553	147.780000
350.572968	147.400000
350.666412	147.500000
350.759857	147.240000
350.853302	147.700000
350.946716	147.280000
351.040161	147.420000
351.133606	147.400000
351.227081	147.020000
351.320465	147.340000
351.413940	147.080000
351.507355	147.220000
351.600830	147.580000
351.694244	147.600000
351.787720	147.000000
351.881104	147.660000
351.974579	147.620000
352.067993	148.560000
352.161469	148.700000
352.254883	148.340000
352.348358	147.740000
352.441803	147.280000
352.535248	146.220000
352.628693	146.620000
352.722137	146.680000
352.815582	147.140000
352.909027	147.720000
353.002472	147.720000
353.095917	147.300000
353.189362	147.420000
353.282806	146.920000
353.376251	146.480000
353.469696	146.280000
353.563141	146.880000
353.656586	146.680000
353.750061	146.440000
353.843475	146.280000
353.936981	146.640000
354.030396	145.840000
354.123871	146.080000
354.217285	147.100000
354.310760	147.740000
354.404175	147.880000
354.497681	147.920000
354.591095	147.980000
354.684570	146.960000
354.777985	146.460000
354.871490	145.780000
354.964935	146.220000
355.058380	146.400000
355.151855	146.560000
355.245300	147.100000
355.338745	147.580000
355.432220	147.480000
355.525665	146.880000
355.619110	147.440000
355.712585	146.980000
355.806030	146.900000
355.899475	146.660000
355.992950	146.920000
356.086426	147.080000
356.179871	147.080000
356.273346	146.940000
356.366791	147.060000
356.460266	147.300000
356.553711	146.660000
356.647186	146.620000
356.740631	146.560000
356.834106	146.520000
356.927551	146.660000
357.021027	146.780000
357.114471	147.060000
357.207947	147.340000
357.301422	147.320000
357.394867	147.060000
357.488342	147.420000
357.581818	147.320000
357.675262	147.180000
357.768738	147.300000
357.862213	146.820000
357.955658	146.500000
358.049133	146.240000
358.142609	146.600000
358.236053	146.280000
358.329529	146.600000
358.423035	146.960000
358.516449	146.780000
358.609955	146.980000
358.703400	147.840000
358.796906	148.140000
358.890350	147.340000
358.983826	147.700000
359.077271	147.060000
359.170776	146.440000
359.264221	146.100000
359.357727	146.820000
359.451172	146.940000
359.544647	147.180000
359.638123	147.040000
359.731598	147.380000
359.825073	147.520000
359.918549	147.360000
360.012024	147.500000
360.105499	147.060000
360.198975	146.800000
360.292450	146.520000
360.385925	146.500000
360.479401	145.860000
360.572876	146.380000
360.666351	146.800000
360.759857	146.520000
360.853302	146.640000
360.946808	146.440000
361.040253	146.780000
361.133759	146.280000
361.227203	146.540000
361.320709	146.280000
361.414154	147.040000
361.507660	146.980000
361.601105	147.260000
361.694641	147.640000
361.788086	147.620000
361.881592	147.880000
361.975067	147.280000
362.068542	147.720000
362.162018	147.620000
362.255524	147.360000
362.348999	147.160000
362.442474	147.460000
362.535950	146.400000
362.629456	146.140000
362.722931	146.040000
362.816406	146.220000
362.909882	146.800000
363.003387	147.180000
363.096863	147.240000
363.190338	147.720000
363.283875	147.300000
363.377319	146.920000
363.470825	147.320000
363.564301	146.960000
363.657806	147.060000
363.751282	147.020000
363.844788	147.820000
363.938232	147.240000
364.031769	148.020000
364.125214	147.800000
364.218750	148.320000
364.312225	147.000000
364.405731	147.600000
364.499207	146.980000
364.592712	146.720000
364.686188	146.520000
364.779694	147.060000
364.873169	146.680000
364.966675	146.640000
365.060150	146.780000
365.153656	147.020000
365.247131	147.100000
365.340637	147.420000
365.434143	148.000000
365.527618	148.100000
365.621155	147.360000
365.714600	147.100000
365.808136	146.960000
365.901611	145.900000
365.995117	146.220000
366.088593	146.320000
366.182129	145.940000
366.275604	145.880000
366.369110	146.380000
366.462585	146.220000
366.556122	147.060000
366.649567	147.320000
366.743103	147.400000
366.836609	147.320000
366.930115	147.600000
367.023590	147.460000
367.117096	147.680000
367.210602	147.700000
367.304108	148.340000
367.397614	148.560000
367.491119	148.340000
367.584595	148.160000
367.678101	148.400000
367.771606	147.840000
367.865112	147.400000
367.958649	146.780000
368.052124	146.820000
368.145660	146.140000
368.239136	146.560000
368.332672	146.480000
368.426147	146.680000
368.519684	146.480000
368.613159	147.000000
368.706696	146.560000
368.800171	146.840000
368.893707	146.800000
368.987183	147.000000
369.080719	146.920000
369.174225	146.940000
369.267731	147.000000
369.361237	147.280000
369.454742	146.940000
369.548248	147.220000
369.641754	147.140000
369.735260	146.440000
369.828766	145.720000
369.922272	146.520000
370.015808	146.100000
370.109314	146.080000
370.202820	146.180000
370.296356	147.380000
370.389832	146.920000
370.483368	146.700000
370.576874	146.580000
370.670410	146.820000
370.763885	145.500000
370.857422	145.380000
370.950928	145.460000
371.044464	146.220000
371.137939	146.420000
371.231476	147.220000
371.324982	147.980000
371.418518	148.120000
371.512024	147.580000
371.605560	147.260000
371.699066	147.280000
371.792572	146.460000
371.886108	146.980000
371.979614	146.900000
372.073120	147.360000
372.166656	147.200000
372.260162	147.500000
372.353668	147.100000
372.447205	146.860000
372.540710	146.580000
372.634277	146.320000
372.727753	146.720000
372.821320	146.740000
372.914795	146.680000
373.008362	146.520000
373.101837	146.700000
373.195404	146.140000
373.288879	146.040000
373.382446	146.800000
373.475922	146.700000
373.569489	147.280000
373.662964	147.920000
373.756531	147.780000
373.850037	147.740000
373.943573	147.580000
374.037109	146.620000
374.130615	146.500000
374.224152	146.820000
374.317657	146.500000
374.411194	147.640000
374.504730	148.160000
374.598236	148.000000
374.691772	147.700000
374.785309	147.800000
374.878815	146.580000
374.972351	146.740000
375.065887	146.220000
375.159454	146.880000
375.252930	146.740000
375.346497	147.220000
375.440002	147.560000
375.533569	147.860000
375.627045	147.040000
375.720612	147.220000
375.814117	147.240000
375.907684	146.800000
376.001160	146.440000
376.094727	146.060000
376.188232	146.660000
376.281799	146.820000
376.375336	146.400000
376.468872	147.360000
376.562408	147.760000
376.655914	147.120000
376.749451	147.080000
376.842987	147.660000
376.936523	146.980000
377.030060	147.340000
377.123596	147.420000
377.217133	146.780000
377.310669	146.540000
377.404205	146.920000
377.497772	147.340000
377.591278	147.020000
377.684845	148.120000
377.778351	148.380000
377.871918	148.120000
377.965424	147.040000
378.058990	147.000000
378.152496	146.400000
378.246063	146.220000
378.339569	146.560000
378.433136	146.840000
378.526642	147.180000
378.620209	147.220000
378.713745	147.000000
378.807312	147.040000
378.900848	147.240000
378.994385	147.380000
379.087921	146.720000
379.181458	146.940000
379.274994	146.240000
379.368530	146.000000
379.462097	146.040000
379.555634	146.840000
379.649170	146.380000
379.742706	146.520000
379.836273	147.080000
379.929810	146.860000
380.023376	146.220000
380.116882	146.140000
380.210449	146.080000
380.303986	145.520000
380.397552	145.100000
380.491058	145.680000
380.584656	145.940000
380.678162	146.320000
380.771729	146.360000
380.865265	147.260000
380.958832	147.100000
381.052368	147.300000
381.145935	147.480000
381.239471	148.100000
381.333008	147.660000
381.426575	147.700000
381.520111	148.140000
381.613647	148.180000
381.707214	147.680000
381.800751	147.100000
381.894318	147.340000
381.987854	146.980000
382.081421	146.520000
382.174988	146.460000
382.268524	146.520000
382.362091	146.160000
382.455627	146.460000
382.549194	146.500000
382.642731	146.100000
382.736298	146.220000
382.829834	146.220000
382.923401	146.680000
383.016937	146.640000
383.110504	147.360000
383.204041	147.600000
383.297607	147.800000
383.391174	146.780000
383.484741	147.480000
383.578278	146.640000
383.671844	146.260000
383.765411	145.500000
383.858948	146.040000
383.952515	145.600000
384.046051	146.460000
384.139618	147.120000
384.233185	147.640000
384.326721	147.400000
384.420288	147.900000
384.513855	147.480000
384.607422	147.300000
384.700989	147.780000
384.794525	147.600000
384.888123	147.260000
384.981659	147.780000
385.075226	147.140000
385.168762	146.480000
385.262360	146.420000
385.355896	145.480000
385.449463	144.980000
385.542999	145.120000
385.636597	145.820000
385.730164	146.320000
385.823730	146.460000
385.917267	146.300000
386.010834	146.780000
386.104401	146.440000
386.197968	146.280000
386.291534	146.900000
386.385101	147.260000
386.478668	147.400000
386.572235	147.460000
386.665802	146.940000
386.759338	146.280000
386.852905	145.780000
386.946472	145.320000
387.040070	145.420000
387.133606	145.480000
387.227203	145.460000
387.320740	145.880000
387.414337	145.900000
387.507874	145.860000
387.601471	145.880000
387.695007	146.140000
387.788605	145.640000
387.882141	145.640000
387.975739	145.640000
388.069275	145.440000
388.162872	145.620000
388.256439	145.800000
388.350037	145.580000
388.443604	145.200000
388.537170	145.440000
388.630737	145.900000
388.724304	146.080000
388.817871	146.380000
388.911438	146.580000
389.005005	146.840000
389.098602	146.920000
389.192169	146.680000
389.285736	147.240000
389.379333	147.300000
389.472870	146.740000
389.566467	146.560000
389.660034	146.800000
389.753632	146.040000
389.847168	146.200000
389.940765	146.760000
390.034332	146.800000
390.127930	146.640000
390.221466	146.840000
390.315063	146.020000
390.408630	145.380000
390.502228	144.780000
390.595795	145.040000
390.689362	144.780000
390.782959	145.620000
390.876526	146.380000
390.970093	146.440000
391.063690	146.640000
391.157257	147.140000
391.250824	147.460000
391.344421	147.020000
391.437988	147.420000
391.531555	147.640000
391.625153	147.540000
391.718750	147.240000
391.812317	147.340000
391.905914	146.960000
391.999481	146.800000
392.093079	147.040000
392.186615	147.100000
392.280243	147.000000
392.373779	147.300000
392.467407	147.540000
392.560944	147.140000
392.654572	146.660000
392.748108	146.880000
392.841736	146.880000
392.935303	146.300000
393.028900	146.320000
393.122467	146.700000
393.216064	146.140000
393.309631	145.460000
393.403229	145.260000
393.496796	145.120000
393.590393	144.340000
393.683990	145.060000
393.777557	145.840000
393.871155	146.020000
393.964722	146.620000
394.058350	147.320000
394.151917	147.080000
394.245514	146.780000
394.339081	147.320000
394.432678	147.200000
394.526245	146.940000
394.619873	146.700000
394.713409	146.800000
394.807037	146.460000
394.900604	146.620000
394.994202	146.900000
395.087769	147.220000
395.181396	146.920000
395.274994	147.640000
395.368561	146.720000
395.462158	146.860000
395.555756	146.340000
395.649353	146.980000
395.742920	146.180000
395.836517	147.240000
395.930115	146.680000
396.023712	147.320000
396.117279	147.320000
396.210876	146.980000
396.304474	146.540000
396.398071	146.940000
396.491669	146.780000
396.585266	146.500000
396.678833	146.700000
396.772461	147.000000
396.866028	147.040000
396.959656	147.300000
397.053223	147.680000
397.146851	147.740000
397.240417	147.620000
397.334015	148.140000
397.427582	148.240000
397.521210	148.120000
397.614807	148.700000
397.708405	149.460000
397.802002	149.560000
397.895599	150.520000
397.989197	151.360000
398.082794	152.220000
398.176392	153.280000
398.269989	154.820000
398.363586	156.120000
398.457184	158.580000
398.550781	160.600000
398.644379	162.040000
398.737976	163.340000
398.831573	165.200000
398.925201	165.840000
399.018768	166.920000
399.112396	168.420000
399.205963	170.040000
399.299591	170.720000
399.393158	171.460000
399.486786	172.860000
399.580353	173.420000
399.673981	174.240000
399.767578	176.180000
399.861206	178.620000
399.954773	181.320000
400.048401	184.780000
400.141998	188.100000
400.235596	192.000000
400.329193	194.840000
400.422791	197.520000
400.516418	199.420000
400.610016	201.880000
400.703613	202.960000
400.797211	203.380000
400.890808	202.880000
400.984436	202.120000
401.078033	199.320000
401.171631	196.020000
401.265259	192.800000
401.358826	189.360000
401.452484	185.340000
401.546051	182.120000
401.639679	178.140000
401.733246	174.860000
401.826904	170.880000
401.920471	166.920000
402.014099	163.500000
402.107697	160.480000
402.201324	158.060000
402.294891	156.040000
402.388550	155.080000
402.482147	153.700000
402.575745	152.380000
402.669373	150.840000
402.762970	150.180000
402.856567	149.140000
402.950195	148.760000
403.043793	148.680000
403.137390	149.060000
403.231018	148.080000
403.324615	148.480000
403.418243	147.900000
403.511841	148.200000
403.605469	147.700000
403.699066	148.040000
403.792694	147.660000
403.886292	147.740000
403.979919	147.280000
404.073517	146.940000
404.167145	147.360000
404.260712	147.500000
404.354370	147.140000
404.447937	147.300000
404.541595	147.500000
404.635162	147.340000
404.728821	147.580000
404.822418	147.600000
404.916046	147.100000
405.009644	147.020000
405.103271	147.420000
405.196899	146.860000
405.290497	147.220000
405.384125	147.720000
405.477722	147.260000
405.571350	146.560000
405.664948	146.940000
405.758575	146.660000
405.852203	146.200000
405.945801	146.680000
406.039429	147.000000
406.133057	146.700000
406.226654	146.340000
406.320312	146.460000
406.413879	146.680000
406.507538	146.860000
406.601135	146.800000
406.694763	147.340000
406.788361	146.880000
406.882019	146.420000
406.975586	146.760000
407.069244	147.120000
407.162872	147.080000
407.256470	147.400000
407.350098	147.560000
407.443726	146.860000
407.537323	146.340000
407.630951	146.460000
407.724579	146.380000
407.818207	146.620000
407.911804	146.640000
408.005432	146.540000
408.099060	146.660000
408.192688	146.920000
408.286285	146.660000
408.379913	146.260000
408.473572	146.580000
408.567169	145.880000
408.660828	145.840000
408.754395	145.540000
408.848053	145.580000
408.941650	145.740000
409.035309	145.800000
409.128906	145.700000
409.222565	146.120000
409.316132	146.680000
409.409790	146.240000
409.503387	146.400000
409.597046	146.520000
409.690674	146.560000
409.784302	146.400000
409.877930	146.500000
409.971558	146.720000
410.065186	146.280000
410.158783	146.040000
410.252411	145.880000
410.346039	146.320000
410.439667	146.200000
410.533295	146.560000
410.626923	146.960000
410.720551	146.680000
410.814209	146.780000
410.907806	147.000000
411.001465	146.500000
411.095062	146.540000
411.188721	146.800000
411.282318	146.340000
411.375977	145.640000
411.469574	146.120000
411.563232	145.560000
411.656830	145.340000
411.750488	145.320000
411.844086	145.360000
411.937744	145.420000
412.031372	145.680000
412.125000	145.880000
412.218628	145.860000
412.312256	146.900000
412.405884	147.400000
412.499512	146.840000
412.593170	146.740000
412.686798	147.100000
412.780426	146.140000
412.874054	145.960000
412.967682	146.700000
413.061310	147.360000
413.154968	147.120000
413.248566	147.680000
413.342224	147.200000
413.435852	147.260000
413.529510	146.660000
413.623108	146.280000
413.716766	146.060000
413.810364	146.640000
413.904022	146.420000
413.997650	146.380000
414.091309	147.020000
414.184906	147.180000
414.278564	146.780000
414.372192	147.080000
414.465851	147.600000
414.559479	147.480000
414.653107	148.120000
414.746735	148.160000
414.840393	148.220000
414.934021	148.120000
415.027649	148.000000
415.121277	147.700000
415.214935	147.940000
415.308563	147.660000
415.402191	147.020000
415.495850	147.040000
415.589478	146.260000
415.683136	146.040000
415.776733	146.340000
415.870422	147.000000
415.964020	146.340000
416.057678	146.840000
416.151306	146.800000
416.244965	146.640000
416.338562	146.520000
416.432251	147.300000
416.525848	147.760000
416.619507	148.220000
416.713165	148.260000
416.806793	148.060000
416.900421	147.960000
416.994080	147.360000
417.087708	146.920000
417.181366	146.460000
417.274994	146.580000
417.368622	146.780000
417.462280	147.300000
417.555908	147.180000
417.649567	147.500000
417.743195	147.420000
417.836853	147.460000
417.930481	147.380000
418.024170	147.500000
418.117767	148.060000
418.211426	148.420000
418.305054	148.320000
418.398712	147.660000
418.492340	147.700000
418.585999	147.420000
418.679626	147.400000
418.773285	147.620000
418.866913	148.100000
418.960571	148.180000
419.054230	148.340000
419.147858	148.520000
419.241516	148.620000
419.335144	148.120000
419.428802	148.400000
419.522461	147.960000
419.616089	147.240000
419.709747	147.260000
419.803375	147.720000
419.897034	147.200000
419.990662	147.100000
420.084320	147.800000
420.177979	147.740000
420.271606	147.700000
420.365295	148.100000
420.458893	148.340000
420.552582	148.240000
420.646210	147.760000
420.739868	147.600000
420.833496	147.340000
420.927155	146.860000
421.020782	146.400000
421.114471	146.060000
421.208069	146.280000
421.301758	146.420000
421.395386	146.580000
421.489044	146.600000
421.582703	146.820000
421.676361	147.220000
421.769989	146.900000
421.863647	147.420000
421.957306	147.920000
422.050934	148.200000
422.144592	147.840000
422.238251	147.660000
422.331909	147.000000
422.425537	146.440000
422.519196	146.320000
422.612854	145.940000
422.706543	146.140000
422.800140	146.620000
422.893829	146.540000
422.987457	146.560000
423.081146	146.640000
423.174744	147.100000
423.268433	146.560000
423.362061	146.700000
423.455750	146.380000
423.549347	146.380000
423.643036	145.660000
423.736664	146.380000
423.830353	146.560000
423.924011	147.080000
424.017639	146.820000
424.111298	146.780000
424.204956	146.760000
424.298615	146.640000
424.392273	146.440000
424.485931	146.760000
424.579559	147.000000
424.673218	146.420000
424.766876	146.540000
424.860535	145.980000
424.954193	145.620000
425.047882	146.340000
425.141510	146.600000
425.235199	146.460000
425.328796	146.820000
425.422485	146.880000
425.516113	145.740000
425.609802	145.620000
425.703430	145.800000
425.797119	145.740000
425.890747	145.820000
425.984436	146.220000
426.078064	146.420000
426.171753	146.280000
426.265411	146.100000
426.359070	146.540000
426.452728	146.440000
426.546356	146.300000
426.640015	146.480000
426.733673	146.600000
426.827332	145.740000
426.920990	146.500000
427.014648	146.420000
427.108307	146.440000
427.201965	146.960000
427.295624	147.640000
427.389282	146.960000
427.482941	146.960000
427.576630	146.700000
427.670258	145.940000
427.763947	145.740000
427.857574	145.860000
427.951263	146.000000
428.044922	145.920000
428.138611	146.460000
428.232239	147.200000
428.325928	147.840000
428.419556	148.220000
428.513245	148.060000
428.606903	148.160000
428.700562	147.380000
428.794220	146.400000
428.887878	145.740000
428.981537	145.980000
429.075195	145.980000
429.168854	146.360000
429.262512	146.520000
429.356201	146.920000
429.449860	146.940000
429.543518	146.620000
429.637177	146.780000
429.730835	146.960000
429.824493	146.820000
429.918182	146.920000
430.011810	146.560000
430.105530	145.660000
430.199158	145.820000
430.292847	145.680000
430.386475	145.380000
430.480164	145.280000
430.573792	145.300000
430.667511	145.180000
430.761139	145.140000
430.854828	145.740000
430.948456	146.020000
431.042145	146.740000
431.135834	146.480000
431.229492	146.680000
431.323151	146.520000
431.416809	146.760000
431.510468	146.560000
431.604156	146.620000
431.697815	146.380000
431.791473	146.060000
431.885132	145.740000
431.978821	146.180000
432.072479	146.600000
432.166138	147.400000
432.259827	147.400000
432.353485	147.760000
432.447174	147.680000
432.540802	147.340000
432.634491	147.300000
432.728149	147.400000
432.821838	147.700000
432.915466	147.240000
433.009186	147.360000
433.102814	146.240000
433.196503	146.260000
433.290131	145.960000
433.383850	146.400000
433.477509	146.260000
433.571167	147.440000
433.664856	147.760000
433.758514	148.400000
433.852173	148.120000
433.945862	148.120000
434.039520	147.620000
434.133179	147.120000
434.226868	146.520000
434.320526	146.020000
434.414185	146.800000
434.507874	146.500000
434.601562	146.660000
434.695221	146.340000
434.788910	146.680000
434.882538	146.460000
434.976257	146.460000
435.069885	146.440000
435.163574	146.800000
435.257233	146.380000
435.350922	145.900000
435.444580	145.620000
435.538269	145.560000
435.631897	145.720000
435.725616	146.420000
435.819275	146.960000
435.912964	147.780000
436.006622	148.300000
436.100311	148.240000
436.193970	147.600000
436.287628	147.120000
436.381317	146.600000
436.474976	146.120000
436.568665	145.860000
436.662323	146.180000
436.756012	146.240000
436.849670	146.180000
436.943390	146.020000
437.037018	146.140000
437.130737	146.220000
437.224365	145.980000
437.318085	146.140000
437.411713	146.340000
437.505432	146.600000
437.599060	147.080000
437.692780	147.680000
437.786407	147.740000
437.880127	147.720000
437.973755	147.260000
438.067474	146.640000
438.161133	146.580000
438.254822	146.960000
438.348480	146.800000
438.442169	147.640000
438.535828	148.020000
438.629517	147.640000
438.723175	146.760000
438.816864	147.520000
438.910553	146.860000
439.004211	146.480000
439.097900	146.420000
439.191559	146.700000
439.285248	145.700000
439.378906	145.580000
439.472626	145.600000
439.566284	145.460000
439.659973	145.900000
439.753632	146.020000
439.847321	146.440000
439.940979	146.440000
440.034698	146.600000
440.128326	146.120000
440.222046	146.120000
440.315674	145.320000
440.409393	145.400000
440.503082	145.380000
440.596741	145.740000
440.690430	146.180000
440.784088	146.500000
440.877777	146.060000
440.971466	146.180000
441.065125	145.960000
441.158813	145.520000
441.252502	145.680000
441.346161	146.060000
441.439850	146.060000
441.533539	145.860000
441.627197	146.340000
441.720886	146.040000
441.814606	146.380000
441.908234	146.840000
442.001953	146.840000
442.095612	146.700000
442.189301	147.180000
442.282959	146.880000
442.376678	146.000000
442.470306	147.000000
442.564026	146.720000
442.657684	146.740000
442.751404	146.840000
442.845032	147.940000
442.938751	147.100000
443.032440	147.640000
443.126099	147.360000
443.219788	147.960000
443.313477	147.520000
443.407166	147.940000
443.500824	147.580000
443.594513	148.000000
443.688202	147.480000
443.781891	146.880000
443.875549	146.340000
443.969238	146.400000
444.062927	146.160000
444.156647	146.060000
444.250275	146.600000
444.343994	147.080000
444.437653	147.180000
444.531372	146.880000
444.625031	146.740000
444.718719	146.200000
444.812378	145.880000
444.906097	145.820000
444.999756	145.840000
445.093445	145.880000
445.187103	146.180000
445.280823	146.860000
445.374512	146.680000
445.468201	146.780000
445.561859	146.840000
445.655548	147.080000
445.749237	146.220000
445.842926	146.260000
445.936615	146.900000
446.030304	146.520000
446.123962	146.660000
446.217651	146.740000
446.311340	147.020000
446.405029	146.300000
446.498749	146.560000
446.592407	146.040000
446.686096	146.040000
446.779755	146.080000
446.873474	146.340000
446.967133	146.720000
447.060852	146.380000
447.154510	146.540000
447.248230	146.440000
447.341858	146.300000
447.435577	145.900000
447.529236	146.020000
447.622955	145.880000
447.716644	145.760000
447.810333	145.960000
447.904022	146.200000
447.997711	146.520000
448.091400	147.080000
448.185059	146.820000
448.278748	147.020000
448.372437	146.980000
448.466125	147.220000
448.559814	146.820000
448.653503	147.480000
448.747192	147.140000
448.840912	147.240000
448.934570	147.040000
449.028290	147.220000
449.121948	146.480000
449.215637	146.280000
449.309296	145.940000
449.403015	145.760000
449.496674	145.560000
449.590393	145.980000
449.684052	146.060000
449.777771	147.060000
449.871429	146.860000
449.965149	146.680000
450.058838	146.760000
450.152527	147.080000
450.246216	146.600000
450.339905	146.660000
450.433594	146.600000
450.527283	147.300000
450.620972	147.300000
450.714661	147.100000
450.808350	147.700000
450.902039	148.340000
450.995728	147.520000
451.089417	146.920000
451.183105	147.100000
451.276794	147.400000
451.370514	146.620000
451.464172	146.220000
451.557892	146.600000
451.651550	146.640000
451.745270	145.840000
451.838928	146.040000
451.932648	146.460000
452.026306	146.880000
452.120026	146.180000
452.213684	146.660000
452.307404	146.760000
452.401062	146.840000
452.494781	146.500000
452.588470	146.700000
452.682159	146.140000
452.775848	146.440000
452.869537	145.860000
452.963226	145.600000
453.056915	145.620000
453.150604	146.000000
453.244293	146.020000
453.337982	146.860000
453.431671	147.220000
453.525360	147.700000
453.619049	147.440000
453.712769	147.060000
453.806427	146.620000
453.900146	146.220000
453.993805	146.020000
454.087555	146.480000
454.181213	146.620000
454.274933	146.360000
454.368591	146.540000
454.462311	146.400000
454.555969	145.900000
454.649689	146.620000
454.743347	146.700000
454.837067	147.040000
454.930756	147.620000
455.024445	148.020000
455.118134	147.460000
455.211853	147.780000
455.305542	147.600000
455.399231	147.300000
455.492920	146.860000
455.586609	146.920000
455.680298	146.920000
455.773987	146.880000
455.867676	146.920000
455.961365	147.360000
456.055084	147.160000
456.148773	146.900000
456.242493	146.920000
456.336151	146.880000
456.429871	147.060000
456.523529	147.520000
456.617249	147.460000
456.710907	147.840000
456.804626	147.340000
456.898315	146.580000
456.992035	146.060000
457.085693	145.780000
457.179413	144.980000
457.273102	146.200000
457.366791	146.780000
457.460480	147.220000
457.554199	148.240000
457.647888	148.680000
457.741577	147.800000
457.835266	147.640000
457.928955	147.400000
458.022644	147.300000
458.116364	147.360000
458.210052	147.540000
458.303741	147.540000
458.397461	147.060000
458.491119	146.460000
458.584839	146.360000
458.678528	145.980000
458.772247	145.980000
458.865906	146.260000
458.959625	147.060000
459.053284	146.900000
459.147003	146.800000
459.240692	147.500000
459.334412	147.760000
459.428070	147.340000
459.521790	147.280000
459.615479	147.340000
459.709198	147.500000
459.802887	147.140000
459.896576	146.640000
459.990265	146.940000
460.083954	147.560000
460.177673	146.640000
460.271362	147.000000
460.365051	147.300000
460.458740	146.800000
460.552429	145.900000
460.646149	145.960000
460.739838	145.620000
460.833527	145.320000
460.927246	145.100000
461.020905	145.320000
461.114655	145.320000
461.208313	145.460000
461.302032	145.500000
461.395691	146.180000
461.489441	146.140000
461.583099	146.180000
461.676819	145.900000
461.770477	146.420000
461.864197	146.000000
461.957916	146.020000
462.051605	145.660000
462.145294	146.860000
462.238983	146.260000
462.332703	147.140000
462.426392	147.960000
462.520081	148.140000
462.613770	146.860000
462.707489	147.340000
462.801178	146.480000
462.894867	146.040000
462.988556	146.160000
463.082275	146.480000
463.175964	145.960000
463.269684	146.400000
463.363342	146.460000
463.457092	145.760000
463.550751	146.120000
463.644470	146.360000
463.738129	146.180000
463.831879	146.080000
463.925537	147.180000
464.019257	147.000000
464.112946	146.820000
464.206665	146.660000
464.300323	146.580000
464.394043	146.060000
464.487762	145.940000
464.581451	146.440000
464.675140	146.660000
464.768829	146.880000
464.862549	147.280000
464.956238	147.700000
465.049927	147.700000
465.143646	147.860000
465.237335	147.660000
465.331024	147.780000
465.424713	147.760000
465.518433	147.720000
465.612152	147.360000
465.705811	147.640000
465.799561	147.160000
465.893219	146.860000
465.986938	146.620000
466.080597	146.760000
466.174347	146.500000
466.268005	146.940000
466.361725	146.820000
466.455414	146.860000
466.549133	146.680000
466.642792	146.780000
466.736542	145.860000
466.830231	146.120000
466.923920	146.080000
467.017609	146.320000
467.111328	145.860000
467.205017	146.480000
467.298706	146.200000
467.392426	146.280000
467.486115	146.220000
467.579803	146.440000
467.673523	146.620000
467.767212	146.880000
467.860901	146.820000
467.954651	147.120000
468.048309	147.480000
468.142029	147.180000
468.235718	147.260000
468.329437	146.920000
468.423096	146.420000
468.516846	146.020000
468.610504	145.480000
468.704224	144.840000
468.797913	144.940000
468.891632	145.180000
468.985291	145.200000
469.079010	145.720000
469.172729	145.480000
469.266418	146.060000
469.360107	146.080000
469.453827	146.080000
469.547516	146.280000
469.641205	147.240000
469.734924	147.320000
469.828613	147.720000
469.922302	148.060000
470.016022	147.980000
470.109711	147.580000
470.203430	146.860000
470.297150	146.040000
470.390808	146.040000
470.484558	145.900000
470.578217	146.420000
470.671936	147.240000
470.765625	147.940000
470.859344	147.540000
470.953003	148.020000
471.046753	147.480000
471.140411	146.800000
471.234131	146.720000
471.327820	147.180000
471.421539	147.080000
471.515228	146.940000
471.608948	147.020000
471.702637	146.780000
471.796326	146.200000
471.890045	145.960000
471.983734	146.100000
472.077423	145.900000
472.171143	146.060000
472.264832	146.480000
472.358521	146.380000
472.452240	146.040000
472.545929	146.840000
472.639648	147.020000
472.733337	147.120000
472.827057	147.260000
472.920746	147.680000
473.014465	147.940000
473.108124	148.000000
473.201874	147.900000
473.295532	147.780000
473.389252	148.060000
473.482941	147.420000
473.576660	146.960000
473.670319	146.900000
473.764069	147.060000
473.857727	147.220000
473.951477	147.420000
474.045166	147.760000
474.138855	147.660000
474.232574	147.460000
474.326263	147.080000
474.419952	147.100000
474.513672	146.620000
474.607361	146.500000
474.701050	146.860000
474.794769	147.100000
474.888458	147.200000
474.982178	147.660000
475.075867	147.900000
475.169586	147.720000
475.263275	147.260000
475.356995	147.000000
475.450653	146.720000
475.544403	146.460000
475.638062	147.020000
475.731812	146.680000
475.825470	146.540000
475.919189	146.760000
476.012878	146.740000
476.106598	145.960000
476.200256	146.920000
476.294006	146.920000
476.387695	146.680000
476.481384	146.900000
476.575104	147.280000
476.668793	146.780000
476.762512	146.540000
476.856201	146.960000
476.949890	146.480000
477.043610	145.780000
477.137299	145.480000
477.230988	145.820000
477.324707	145.560000
477.418396	146.440000
477.512146	146.800000
477.605804	146.960000
477.699524	146.860000
477.793213	146.880000
477.886932	146.340000
477.980591	146.140000
478.074341	146.060000
478.167999	145.900000
478.261749	145.800000
478.355408	145.860000
478.449127	146.540000
478.542816	147.440000
478.636536	148.100000
478.730225	148.100000
478.823944	148.240000
478.917633	147.980000
479.011322	147.760000
479.105042	147.520000
479.198730	147.860000
479.292450	147.640000
479.386139	147.900000
479.479828	147.660000
479.573547	147.860000
479.667267	147.660000
479.760925	147.940000
479.854675	147.920000
479.948334	148.100000
480.042084	147.580000
480.135742	147.700000
480.229462	147.240000
480.323151	147.080000
480.416870	146.340000
480.510529	146.460000
480.604279	145.700000
480.697937	146.340000
480.791656	145.640000
480.885345	145.740000
480.979065	145.680000
481.072754	146.480000
481.166473	146.560000
481.260132	146.980000
481.353882	147.260000
481.447540	147.080000
481.541260	146.840000
481.635010	146.120000
481.728668	145.940000
481.822388	145.800000
481.916077	146.060000
482.009796	145.900000
482.103485	146.580000
482.197205	146.840000
482.290863	146.820000
482.384613	147.000000
482.478271	146.640000
482.571991	146.100000
482.665680	145.660000
482.759399	146.560000
482.853058	146.600000
482.946808	147.020000
483.040466	147.160000
483.134216	147.400000
483.227875	146.400000
483.321594	146.520000
483.415283	146.620000
483.509003	146.320000
483.602661	146.280000
483.696411	146.640000
483.790070	146.420000
483.883789	146.100000
483.977478	146.460000
484.071198	146.640000
484.164917	146.440000
484.258606	146.000000
484.352325	146.300000
484.445984	146.540000
484.539734	146.480000
484.633392	146.000000
484.727142	146.540000
484.820801	146.380000
484.914520	146.180000
485.008209	146.380000
485.101929	147.080000
485.195587	146.580000
485.289337	146.580000
485.382996	146.600000
485.476715	146.360000
485.570404	146.720000
485.664124	146.560000
485.757782	147.360000
485.851532	146.720000
485.945190	146.580000
486.038910	146.260000
486.132599	147.220000
486.226318	146.120000
486.319977	146.420000
486.413727	147.120000
486.507446	146.760000
486.601105	146.040000
486.694855	146.200000
486.788513	146.160000
486.882233	145.780000
486.975922	145.820000
487.069641	145.920000
487.163300	145.940000
487.257050	147.020000
487.350708	146.740000
487.444427	146.440000
487.538116	146.240000
487.631836	146.320000
487.725494	145.620000
487.819214	145.640000
487.912903	145.560000
488.006622	146.100000
488.100281	146.300000
488.194031	146.400000
488.287689	146.880000
488.381409	147.960000
488.475098	147.460000
488.568817	147.580000
488.662476	147.240000
488.756226	146.540000
488.849945	145.120000
488.943604	145.520000
489.037354	145.640000
489.131012	145.760000
489.224731	146.120000
489.318390	146.760000
489.412140	146.680000
489.505798	146.260000
489.599518	145.860000
489.693207	146.080000
489.786926	146.060000
489.880585	145.880000
489.974335	146.080000
490.067993	147.140000
490.161713	147.160000
490.255371	147.840000
490.349121	148.080000
490.442780	148.080000
490.536499	146.980000
490.630188	146.980000
490.723907	146.500000
490.817566	146.360000
490.911285	146.160000
491.004974	146.320000
491.098694	145.740000
491.192413	146.360000
491.286102	146.180000
491.379822	146.160000
491.473480	146.640000
491.567200	146.940000
491.660889	145.960000
491.754608	146.180000
491.848267	146.240000
491.941986	146.020000
492.035675	146.080000
492.129395	146.740000
492.223053	146.420000
492.316772	146.720000
492.410461	146.660000
492.504181	146.560000
492.597839	146.300000
492.691559	146.780000
492.785248	146.720000
492.878967	147.140000
492.972626	147.220000
493.066345	147.240000
493.160034	146.560000
493.253754	146.300000
493.347412	145.760000
493.441132	145.920000
493.534882	146.220000
493.628540	146.780000
493.722260	147.340000
493.815918	147.760000
493.909668	148.000000
494.003326	148.020000
494.097046	147.780000
494.190704	147.060000
494.284454	147.080000
494.378113	146.880000
494.471832	146.620000
494.565491	146.580000
494.659210	147.060000
494.752899	146.880000
494.846619	146.640000
494.940277	146.740000
495.033997	147.000000
495.127686	146.400000
495.221405	146.100000
495.315063	146.180000
495.408783	146.400000
495.502441	146.400000
495.596191	146.820000
495.689850	146.860000
495.783569	147.320000
495.877228	146.980000
495.970947	146.680000
496.064697	146.720000
496.158356	147.820000
496.252075	147.500000
496.345734	147.480000
496.439453	148.320000
496.533142	148.120000
496.626862	147.780000
496.720520	147.840000
496.814240	147.740000
496.907898	147.160000
497.001617	147.600000
497.095306	146.860000
497.189026	146.680000
497.282684	146.920000
497.376404	147.260000
497.470062	146.840000
497.563782	147.040000
497.657471	147.080000
497.751190	146.600000
497.844849	146.300000
497.938568	146.700000
498.032227	147.140000
498.125946	147.160000
498.219635	147.320000
498.313354	147.480000
498.407074	147.060000
498.500732	146.800000
498.594452	146.900000
498.688110	146.820000
498.781830	146.300000
498.875519	146.200000
498.969238	145.900000
499.062897	145.680000
499.156616	146.180000
499.250275	146.520000
499.343994	146.380000
499.437653	146.380000
499.531372	146.280000
499.625061	146.580000
499.718781	146.700000
499.812439	147.480000
499.906158	147.540000
499.999817	147.540000
500.093536	146.780000
500.187195	146.780000
500.280914	146.220000
500.374573	146.520000
500.468323	146.340000
500.561981	146.740000
500.655701	146.160000
500.749420	146.520000
500.843079	146.600000
500.936798	147.040000
501.030457	147.280000
501.124176	147.740000
501.217834	147.420000
501.311554	147.060000
501.405212	146.560000
501.498962	145.620000
501.592621	145.580000
501.686340	146.200000
501.779999	146.140000
501.873718	146.680000
501.967377	147.420000
502.061096	147.500000
502.154755	146.680000
502.248474	147.000000
502.342133	146.920000
502.435852	146.560000
502.529510	147.100000
502.623230	147.860000
502.716888	147.340000
502.810608	147.280000
502.904266	147.760000
502.997986	147.200000
503.091705	146.340000
503.185364	146.280000
503.279083	146.240000
503.372772	145.740000
503.466492	145.240000
503.560150	145.700000
503.653870	146.420000
503.747528	146.500000
503.841248	146.780000
503.934906	147.340000
504.028625	147.120000
504.122284	147.080000
504.216003	147.660000
504.309662	147.340000
504.403381	147.520000
504.497040	147.660000
504.590759	147.040000
504.684418	146.700000
504.778137	147.180000
504.871796	147.580000
504.965515	147.400000
505.059174	148.000000
505.152893	147.400000
505.246521	146.880000
505.340240	146.300000
505.433899	146.520000
505.527618	146.400000
505.621338	146.780000
505.714996	146.840000
505.808716	146.660000
505.902374	147.160000
505.996094	147.140000
506.089752	147.200000
506.183472	147.440000
506.277130	147.640000
506.370850	147.060000
506.464508	146.860000
506.558228	146.700000
506.651886	146.160000
506.745605	146.120000
506.839264	146.300000
506.932983	146.340000
507.026611	146.500000
507.120331	147.300000
507.213989	146.700000
507.307709	146.580000
507.401367	146.820000
507.495087	147.500000
507.588745	146.980000
507.682465	148.220000
507.776123	148.120000
507.869843	148.040000
507.963531	147.340000
508.057190	147.700000
508.150909	146.680000
508.244568	147.000000
508.338287	146.780000
508.431946	146.860000
508.525665	146.460000
508.619324	146.440000
508.713013	146.420000
508.806671	146.880000
508.900391	147.500000
508.994049	147.960000
509.087769	148.080000
509.181427	148.020000
509.275146	147.300000
509.368774	146.220000
509.462494	146.100000
509.556152	146.080000
509.649872	146.260000
509.743530	146.720000
509.837250	147.300000
509.930878	147.140000
510.024597	147.280000
510.118256	147.120000
510.211975	147.060000
510.305695	146.740000
510.399353	146.960000
510.493042	147.220000
510.586700	147.340000
510.680420	147.840000
510.774078	147.700000
510.867798	147.560000
510.961426	147.240000
511.055145	147.040000
511.148804	146.580000
511.242523	147.160000
511.336151	147.180000
511.429871	147.400000
511.523529	147.280000
511.617249	146.920000
511.710876	146.600000
511.804596	146.280000
511.898254	146.060000
511.991974	146.440000
512.085632	146.500000
512.179321	146.740000
512.272949	147.200000
512.366699	147.620000
512.460327	147.320000
512.554077	148.340000
512.647766	148.160000
512.741394	148.280000
512.835144	148.580000
512.928772	148.180000
513.022461	147.480000
513.116150	147.160000
513.209839	147.160000
513.303467	146.320000
513.397217	146.520000
513.490845	146.340000
513.584595	146.200000
513.678223	145.840000
513.771912	145.420000
513.865601	145.660000
513.959290	145.620000
514.052917	146.200000
514.146667	147.140000
514.240295	147.920000
514.333984	148.280000
514.427673	148.120000
514.521362	148.240000
514.614990	146.980000
514.708740	146.940000
514.802368	146.620000
514.896057	147.020000
514.989746	147.440000
515.083435	147.680000
515.177124	147.840000
515.270752	147.640000
515.364502	147.320000
515.458130	147.260000
515.551819	147.240000
515.645508	146.860000
515.739197	146.840000
515.832825	147.060000
515.926575	146.400000
516.020203	146.700000
516.113892	147.360000
516.207520	147.400000
516.301270	147.500000
516.394897	147.600000
516.488586	147.840000
516.582275	147.540000
516.675964	147.180000
516.769592	146.920000
516.863281	147.760000
516.956970	148.000000
517.050659	147.580000
517.144287	148.000000
517.238037	147.980000
517.331665	146.660000
517.425354	145.960000
517.519043	146.000000
517.612732	146.360000
517.706421	146.380000
517.800049	146.500000
517.893738	146.240000
517.987427	146.500000
518.081116	146.220000
518.174744	145.880000
518.268433	146.340000
518.362122	147.280000
518.455811	147.000000
518.549438	147.560000
518.643127	148.740000
518.736816	148.340000
518.830505	147.700000
518.924133	147.840000
519.017822	147.740000
519.111511	147.160000
519.205200	147.680000
519.298828	147.580000
519.392517	147.600000
519.486206	147.540000
519.579895	147.680000
519.673523	147.400000
519.767212	147.220000
519.860901	147.520000
519.954590	147.240000
520.048279	146.660000
520.141907	146.340000
520.235596	147.340000
520.329224	147.120000
520.422974	146.960000
520.516602	147.100000
520.610291	147.300000
520.703918	146.680000
520.797607	146.640000
520.891296	146.440000
520.984985	146.380000
521.078613	146.900000
521.172302	146.820000
521.265930	147.600000
521.359680	148.200000
521.453308	148.140000
521.546997	147.700000
521.640625	147.780000
521.734314	146.760000
521.827942	146.400000
521.921692	147.000000
522.015320	147.100000
522.109009	147.140000
522.202698	147.220000
522.296326	147.420000
522.390015	147.220000
522.483704	147.340000
522.577393	147.000000
522.671021	146.920000
522.764709	146.380000
522.858337	146.700000
522.952026	146.660000
523.045654	147.020000
523.139404	147.720000
523.233032	148.180000
523.326721	147.920000
523.420349	148.020000
523.514038	147.800000
523.607666	147.880000
523.701355	147.480000
523.795044	147.420000
523.888733	147.260000
523.982361	147.640000
524.076050	147.000000
524.169678	147.560000
524.263367	147.220000
524.356995	146.780000
524.450684	146.560000
524.544373	146.340000
524.638062	146.380000
524.731750	146.660000
524.825378	146.740000
524.919067	146.160000
525.012695	146.400000
525.106384	145.920000
525.200012	146.080000
525.293701	146.300000
525.387329	147.040000
525.481018	147.300000
525.574646	147.440000
525.668396	146.880000
525.762024	147.080000
525.855713	147.160000
525.949341	146.640000
526.043030	146.940000
526.136658	147.100000
526.230347	146.880000
526.323975	146.240000
526.417664	146.020000
526.511292	145.960000
526.604980	146.380000
526.698608	146.600000
526.792297	146.740000
526.885925	147.620000
526.979614	147.700000
527.073303	147.620000
527.166931	147.560000
527.260620	147.920000
527.354309	147.920000
527.447998	147.700000
527.541626	147.380000
527.635315	147.480000
527.728943	147.800000
527.822632	147.840000
527.916260	147.840000
528.009949	148.280000
528.103577	147.820000
528.197266	146.900000
528.290894	146.480000
528.384583	146.220000
528.478210	146.100000
528.571899	146.560000
528.665527	147.260000
528.759216	147.640000
528.852844	148.380000
528.946533	148.360000
529.040161	148.100000
529.133850	147.740000
529.227478	147.660000
529.321167	147.480000
529.414856	147.900000
529.508484	148.200000
529.602173	148.140000
529.695801	147.980000
529.789490	147.780000
529.883057	147.220000
529.976746	147.420000
530.070374	148.040000
530.164062	147.940000
530.257690	148.100000
530.351379	148.400000
530.445007	147.980000
530.538696	147.100000
530.632324	147.260000
530.726013	147.200000
530.819641	146.980000
530.913330	147.240000
531.006958	147.400000
531.100647	147.560000
531.194275	147.480000
531.287964	147.160000
531.381592	146.620000
531.475220	147.040000
531.568848	146.860000
531.662537	146.620000
531.756226	147.220000
531.849854	147.200000
531.943542	147.000000
532.037170	146.460000
532.130859	146.800000
532.224487	146.380000
532.318176	146.420000
532.411804	147.000000
532.505432	147.720000
532.599060	147.380000
532.692749	147.180000
532.786377	147.680000
532.880066	146.900000
532.973694	146.220000
533.067383	146.240000
533.161011	146.240000
533.254639	145.900000
533.348267	145.780000
533.441956	146.140000
533.535583	145.880000
533.629272	146.200000
533.722900	145.920000
533.816589	146.360000
533.910156	146.500000
534.003845	146.240000
534.097534	146.720000
534.191162	147.280000
534.284851	147.220000
534.378479	146.880000
534.472107	147.320000
534.565735	146.700000
534.659424	146.880000
534.753052	147.140000
534.846741	146.940000
534.940369	147.280000
535.033997	147.080000
535.127625	146.580000
535.221313	146.640000
535.314941	146.560000
535.408630	146.080000
535.502197	146.720000
535.595886	146.820000
535.689514	146.200000
535.783203	146.880000
535.876831	147.420000
535.970459	147.280000
536.064087	146.800000
536.157776	147.100000
536.251404	146.640000
536.345093	146.060000
536.438721	145.820000
536.532349	146.360000
536.626038	146.120000
536.719666	146.520000
536.813293	146.440000
536.906921	146.420000
537.000610	146.600000
537.094238	146.820000
537.187866	146.500000
537.281494	146.680000
537.375183	146.760000
537.468811	146.500000
537.562439	146.500000
537.656067	146.760000
537.749756	146.740000
537.843384	147.260000
537.937012	147.280000
538.030640	146.960000
538.124329	147.180000
538.217896	147.700000
538.311584	147.720000
538.405212	147.600000
538.498901	148.120000
538.592468	148.420000
538.686157	147.740000
538.779785	146.460000
538.873413	146.540000
538.967102	146.220000
539.060730	145.600000
539.154358	146.140000
539.247986	146.880000
539.341675	147.080000
539.435242	147.220000
539.528931	147.380000
539.622559	146.860000
539.716187	147.600000
539.809814	147.340000
539.903503	147.160000
539.997070	147.220000
540.090759	147.360000
540.184387	146.720000
540.278015	147.220000
540.371643	147.640000
540.465332	147.620000
540.558899	147.480000
540.652588	147.340000
540.746216	146.860000
540.839844	146.800000
540.933472	146.660000
541.027100	146.960000
541.120728	147.460000
541.214417	147.940000
541.308044	148.100000
541.401672	148.060000
541.495300	147.660000
541.588928	147.160000
541.682617	146.660000
541.776184	146.040000
541.869873	146.260000
541.963440	146.480000
542.057129	146.440000
542.150757	146.420000
542.244385	145.960000
542.338013	145.400000
542.431641	145.360000
542.525269	145.540000
542.618958	146.140000
542.712524	147.120000
542.806213	146.940000
542.899780	147.140000
542.993469	146.740000
543.087036	146.200000
543.180725	145.640000
543.274292	146.260000
543.367981	146.440000
543.461548	147.020000
543.555237	146.820000
543.648926	147.280000
543.742493	147.820000
543.836182	147.760000
543.929749	147.480000
544.023437	147.920000
544.117004	147.980000
544.210693	147.500000
544.304260	147.500000
544.397949	147.520000
544.491516	147.660000
544.585205	147.500000
544.678772	147.140000
544.772461	147.200000
544.866028	147.060000
544.959717	147.260000
545.053284	146.580000
545.146973	147.140000
545.240540	147.200000
545.334229	147.800000
545.427795	147.480000
545.521423	148.140000
545.615051	147.760000
545.708679	147.900000
545.802307	147.340000
545.895935	147.520000
545.989624	148.060000
546.083191	148.080000
546.176880	147.880000
546.270447	147.780000
546.364136	148.160000
546.457703	147.340000
546.551331	147.300000
546.644958	147.500000
546.738586	147.820000
546.832214	147.120000
546.925842	147.200000
547.019409	147.500000
547.113098	146.900000
547.206665	146.620000
547.300354	146.900000
547.393921	147.240000
547.487549	147.260000
547.581177	147.020000
547.674805	147.100000
547.768433	146.500000
547.862061	146.460000
547.955627	145.840000
548.049316	146.680000
548.142883	147.140000
548.236572	147.500000
548.330139	147.760000
548.423767	147.880000
548.517456	147.580000
548.611023	147.580000
548.704651	147.000000
548.798279	146.740000
548.891907	147.320000
548.985474	147.260000
549.079163	147.220000
549.172729	147.300000
549.266357	146.820000
549.359985	146.560000
549.453613	146.380000
549.547180	145.940000
549.640869	146.720000
549.734436	146.980000
549.828064	147.380000
549.921631	147.160000
550.015320	146.940000
550.108887	147.020000
550.202515	146.820000
550.296143	146.380000
550.389771	146.640000
550.483337	146.820000
550.576965	146.460000
550.670593	147.260000
550.764221	147.520000
550.857849	147.540000
550.951477	147.460000
551.045105	147.100000
551.138672	146.760000
551.232300	146.320000
551.325928	146.600000
551.419556	146.800000
551.513123	146.980000
551.606750	146.540000
551.700378	146.840000
551.794006	146.600000
551.887573	146.500000
551.981201	146.880000
552.074768	146.980000
552.168457	146.500000
552.262024	147.640000
552.355652	147.360000
552.449219	147.680000
552.542847	148.020000
552.636475	147.940000
552.730103	146.560000
552.823669	147.080000
552.917297	146.420000
553.010864	146.140000
553.104553	146.500000
553.198181	146.400000
553.291748	146.480000
553.385376	146.860000
553.478943	146.620000
553.572571	146.760000
553.666199	147.400000
553.759827	146.940000
553.853394	146.280000
553.947021	146.360000
554.040588	146.440000
554.134216	146.220000
554.227783	147.120000
554.321411	147.680000
554.415039	147.460000
554.508667	147.100000
554.602234	147.440000
554.695862	146.560000
554.789429	146.560000
554.883057	147.020000
554.976624	147.020000
555.070251	146.780000
555.163818	146.680000
555.257507	146.620000
555.351074	146.460000
555.444702	147.580000
555.538330	147.260000
555.631897	147.660000
555.725525	147.560000
555.819092	147.580000
555.912720	146.400000
556.006287	146.780000
556.099915	146.680000
556.193481	146.820000
556.287109	147.520000
556.380676	147.560000
556.474304	147.660000
556.567871	147.940000
556.661499	147.260000
556.755066	146.660000
556.848694	146.860000
556.942261	146.460000
557.035889	146.360000
557.129517	146.880000
557.223145	146.960000
557.316711	146.780000
557.410339	147.040000
557.503906	146.740000
557.597473	147.080000
557.691040	146.940000
557.784668	147.240000
557.878296	147.400000
557.971863	147.720000
558.065491	147.620000
558.159058	147.600000
558.252686	148.140000
558.346252	148.300000
558.439880	147.740000
558.533447	147.140000
558.627075	146.760000
558.720642	145.920000
558.814270	145.500000
558.907837	145.820000
559.001465	146.280000
559.095032	147.260000
559.188660	147.660000
559.282227	147.340000
559.375854	147.920000
559.469360	147.520000
559.562988	147.400000
559.656555	147.040000
559.750183	147.560000
559.843750	147.420000
559.937378	147.800000
560.030945	147.220000
560.124573	0.000000
560.218140	0.000000
560.311707	0.000000
560.405334	0.000000
560.498901	0.000000
560.592529	0.000000
560.686096	0.000000
560.779724	0.000000
560.873291	0.000000
560.966858	0.000000
561.060425	0.000000
561.154053	0.000000
561.247620	0.000000
561.341248	0.000000
561.434814	0.000000
561.528381	0.000000
561.621948	0.000000
561.715576	0.000000
561.809143	0.000000
561.902771	0.000000
561.996277	0.000000
562.089905	0.000000
562.183472	0.000000
562.277100	0.000000
