Model Number: SPM-002-B   
Serial Number: 70087108
Firmware Version: 004.15.4
Exposure Time: 100000.000000us
Data Taken on: 11-12-2020 18:53:49.483
Wavelength	Amplitude
221.570786	0.000000
221.663406	0.000000
221.756027	0.000000
221.848648	0.000000
221.941269	0.000000
222.033905	0.000000
222.126526	0.000000
222.219162	0.000000
222.311798	0.000000
222.404419	0.000000
222.497055	0.000000
222.589676	0.000000
222.682312	0.000000
222.774933	0.000000
222.867569	0.000000
222.960205	0.000000
223.052841	0.000000
223.145462	0.000000
223.238098	0.000000
223.330734	0.000000
223.423386	0.000000
223.516022	0.000000
223.608658	0.000000
223.701309	0.000000
223.793945	0.000000
223.886581	0.000000
223.979218	0.000000
224.071869	0.000000
224.164505	0.000000
224.257156	0.000000
224.349792	0.000000
224.442444	0.000000
224.535095	0.000000
224.627747	0.000000
224.720398	0.000000
224.813034	0.000000
224.905685	0.000000
224.998337	146.340000
225.090988	145.980000
225.183640	146.080000
225.276291	145.920000
225.368942	146.220000
225.461594	146.660000
225.554245	147.040000
225.646912	146.880000
225.739578	147.360000
225.832230	147.620000
225.924896	146.620000
226.017548	146.660000
226.110199	147.180000
226.202866	146.660000
226.295532	146.820000
226.388184	147.060000
226.480850	146.600000
226.573517	146.120000
226.666168	146.180000
226.758835	145.960000
226.851501	146.280000
226.944183	146.520000
227.036850	146.080000
227.129517	146.200000
227.222183	146.720000
227.314850	146.820000
227.407516	147.040000
227.500198	148.340000
227.592865	148.160000
227.685532	147.540000
227.778214	147.340000
227.870880	147.800000
227.963562	147.700000
228.056229	148.360000
228.148926	148.340000
228.241592	148.800000
228.334274	148.180000
228.426956	147.420000
228.519638	147.220000
228.612305	147.000000
228.704987	146.980000
228.797668	147.340000
228.890350	147.360000
228.983032	146.960000
229.075714	147.540000
229.168396	146.760000
229.261108	146.000000
229.353790	146.260000
229.446472	146.560000
229.539169	146.400000
229.631851	146.480000
229.724533	146.960000
229.817230	147.100000
229.909912	147.880000
230.002609	147.900000
230.095306	147.840000
230.187988	147.860000
230.280685	147.460000
230.373383	146.060000
230.466095	145.920000
230.558792	146.540000
230.651474	146.360000
230.744171	146.280000
230.836868	146.420000
230.929581	146.460000
231.022278	146.280000
231.114975	146.360000
231.207672	146.140000
231.300369	146.780000
231.393082	146.900000
231.485779	146.760000
231.578506	146.920000
231.671204	147.400000
231.763916	147.080000
231.856613	146.980000
231.949326	147.080000
232.042023	146.800000
232.134735	146.700000
232.227448	146.440000
232.320160	146.580000
232.412872	146.460000
232.505585	147.300000
232.598297	147.680000
232.691010	147.640000
232.783722	147.380000
232.876450	148.260000
232.969162	147.660000
233.061874	147.400000
233.154587	146.920000
233.247314	147.100000
233.340027	146.140000
233.432739	146.500000
233.525467	146.200000
233.618179	147.260000
233.710907	147.040000
233.803635	147.680000
233.896347	147.500000
233.989090	148.360000
234.081818	147.760000
234.174545	148.020000
234.267258	147.400000
234.359985	147.500000
234.452713	146.980000
234.545441	146.980000
234.638168	146.640000
234.730896	147.180000
234.823639	146.800000
234.916367	147.220000
235.009094	147.720000
235.101822	147.660000
235.194580	147.300000
235.287308	147.680000
235.380051	147.100000
235.472778	147.080000
235.565521	147.680000
235.658249	147.360000
235.750992	147.400000
235.843719	147.460000
235.936462	147.520000
236.029205	147.140000
236.121948	147.180000
236.214691	147.320000
236.307449	148.020000
236.400192	147.700000
236.492935	147.440000
236.585678	147.640000
236.678421	147.480000
236.771164	147.040000
236.863907	147.600000
236.956665	147.760000
237.049408	149.340000
237.142151	148.620000
237.234909	149.140000
237.327652	148.740000
237.420410	148.520000
237.513153	147.380000
237.605927	147.680000
237.698669	146.880000
237.791428	146.320000
237.884186	146.900000
237.976944	146.420000
238.069702	146.680000
238.162445	146.400000
238.255203	146.760000
238.347961	146.960000
238.440720	146.900000
238.533478	146.540000
238.626266	146.540000
238.719025	146.720000
238.811783	146.300000
238.904541	146.260000
238.997314	146.320000
239.090073	146.200000
239.182831	146.140000
239.275604	146.940000
239.368362	146.820000
239.461136	147.060000
239.553909	146.920000
239.646667	146.740000
239.739441	146.140000
239.832214	146.480000
239.925003	146.620000
240.017761	147.620000
240.110535	148.160000
240.203308	147.560000
240.296082	147.380000
240.388855	147.140000
240.481628	146.920000
240.574417	147.080000
240.667191	147.420000
240.759964	147.400000
240.852737	147.420000
240.945526	147.240000
241.038315	146.860000
241.131088	146.860000
241.223877	146.960000
241.316650	146.320000
241.409439	146.440000
241.502228	146.020000
241.595001	146.580000
241.687790	146.660000
241.780579	146.920000
241.873367	147.380000
241.966141	148.000000
242.058929	147.240000
242.151718	147.260000
242.244507	147.820000
242.337311	146.860000
242.430099	146.960000
242.522903	147.380000
242.615692	146.740000
242.708481	146.680000
242.801270	147.600000
242.894073	147.400000
242.986862	147.140000
243.079651	148.200000
243.172455	147.900000
243.265244	147.260000
243.358063	146.760000
243.450867	147.200000
243.543655	146.740000
243.636459	147.020000
243.729263	147.420000
243.822067	147.800000
243.914856	147.900000
244.007660	148.220000
244.100464	148.100000
244.193268	147.680000
244.286072	147.640000
244.378876	147.180000
244.471680	146.600000
244.564499	146.980000
244.657318	147.660000
244.750122	147.920000
244.842926	147.500000
244.935745	148.120000
245.028549	147.620000
245.121368	147.100000
245.214172	146.920000
245.306992	147.780000
245.399796	147.260000
245.492615	147.380000
245.585434	147.280000
245.678253	147.160000
245.771072	146.720000
245.863892	147.120000
245.956711	147.180000
246.049530	147.220000
246.142349	147.500000
246.235168	147.680000
246.327988	148.260000
246.420807	148.020000
246.513626	147.980000
246.606445	147.380000
246.699280	147.280000
246.792099	146.400000
246.884918	146.180000
246.977753	145.740000
247.070587	145.800000
247.163422	145.820000
247.256241	146.320000
247.349075	146.840000
247.441895	147.040000
247.534729	147.420000
247.627563	147.380000
247.720383	147.660000
247.813217	147.380000
247.906052	147.300000
247.998886	147.060000
248.091736	147.060000
248.184570	146.320000
248.277405	146.640000
248.370239	147.800000
248.463074	148.840000
248.555908	148.900000
248.648743	149.280000
248.741592	149.300000
248.834427	148.340000
248.927261	146.880000
249.020111	147.180000
249.112946	147.400000
249.205795	147.160000
249.298630	147.360000
249.391495	147.500000
249.484344	147.240000
249.577179	147.040000
249.670029	147.160000
249.762878	147.600000
249.855728	148.020000
249.948563	147.840000
250.041412	147.140000
250.134262	147.360000
250.227112	147.360000
250.319962	147.420000
250.412827	147.460000
250.505692	147.520000
250.598541	147.260000
250.691391	146.380000
250.784241	146.360000
250.877106	146.680000
250.969955	146.420000
251.062805	147.100000
251.155670	148.000000
251.248520	147.780000
251.341385	147.780000
251.434235	147.940000
251.527100	147.240000
251.619965	146.540000
251.712814	147.640000
251.805695	147.600000
251.898560	148.040000
251.991425	148.520000
252.084290	148.860000
252.177155	147.580000
252.270020	147.320000
252.362885	147.080000
252.455750	146.680000
252.548615	146.420000
252.641479	146.660000
252.734360	146.600000
252.827240	146.660000
252.920105	146.540000
253.012970	146.620000
253.105850	146.520000
253.198715	146.380000
253.291595	146.180000
253.384460	145.900000
253.477341	145.840000
253.570221	146.400000
253.663086	146.340000
253.755966	147.080000
253.848846	147.260000
253.941727	147.940000
254.034592	147.440000
254.127472	146.980000
254.220367	147.160000
254.313248	147.340000
254.406128	146.360000
254.499008	146.620000
254.591904	147.520000
254.684784	147.500000
254.777664	147.560000
254.870544	147.520000
254.963440	147.340000
255.056335	147.320000
255.149216	146.800000
255.242111	147.400000
255.334991	148.020000
255.427887	148.200000
255.520767	148.060000
255.613663	148.060000
255.706558	147.040000
255.799438	146.680000
255.892334	146.320000
255.985229	146.360000
256.078125	146.200000
256.171021	146.760000
256.263916	147.160000
256.356812	147.280000
256.449707	147.340000
256.542603	147.320000
256.635498	147.760000
256.728394	147.480000
256.821289	147.340000
256.914215	147.440000
257.007080	147.900000
257.100006	147.600000
257.192932	148.180000
257.285828	148.800000
257.378723	148.460000
257.471619	148.100000
257.564545	147.580000
257.657440	147.380000
257.750336	147.380000
257.843262	147.260000
257.936157	148.420000
258.029053	148.720000
258.121979	148.540000
258.214874	148.180000
258.307800	148.200000
258.400696	146.780000
258.493622	146.900000
258.586517	146.200000
258.679443	146.500000
258.772339	146.360000
258.865265	146.380000
258.958160	145.780000
259.051086	146.600000
259.144012	146.240000
259.236938	147.080000
259.329834	147.260000
259.422791	147.160000
259.515717	146.740000
259.608612	146.460000
259.701538	146.100000
259.794464	146.200000
259.887390	146.360000
259.980316	146.140000
260.073212	146.400000
260.166138	145.560000
260.259064	145.700000
260.351990	146.500000
260.444916	146.520000
260.537842	146.680000
260.630768	147.740000
260.723694	147.680000
260.816620	147.280000
260.909546	147.420000
261.002472	147.240000
261.095398	146.740000
261.188354	146.620000
261.281281	146.140000
261.374207	146.320000
261.467133	147.260000
261.560089	147.300000
261.653015	147.280000
261.745972	148.140000
261.838867	148.360000
261.931824	147.940000
262.024780	147.580000
262.117706	147.900000
262.210663	147.640000
262.303589	147.400000
262.396515	147.220000
262.489471	148.180000
262.582397	147.940000
262.675354	147.500000
262.768280	147.580000
262.861237	147.560000
262.954163	147.220000
263.047119	147.400000
263.140045	147.460000
263.233002	147.360000
263.325958	147.200000
263.418884	146.680000
263.511841	146.660000
263.604797	146.620000
263.697723	146.800000
263.790680	146.680000
263.883636	147.620000
263.976593	147.200000
264.069550	147.480000
264.162476	147.120000
264.255463	147.320000
264.348419	146.440000
264.441376	146.740000
264.534332	146.320000
264.627289	146.480000
264.720245	146.940000
264.813202	147.200000
264.906158	147.440000
264.999115	147.960000
265.092072	148.140000
265.185028	148.100000
265.277985	148.140000
265.370941	148.180000
265.463898	148.080000
265.556854	147.740000
265.649811	146.700000
265.742798	146.900000
265.835754	146.320000
265.928711	146.680000
266.021667	146.740000
266.114655	147.360000
266.207611	147.280000
266.300568	147.200000
266.393585	146.640000
266.486511	147.220000
266.579498	146.540000
266.672485	146.500000
266.765442	146.680000
266.858429	147.160000
266.951385	146.700000
267.044342	147.380000
267.137329	147.240000
267.230316	147.180000
267.323273	146.700000
267.416260	147.400000
267.509216	147.080000
267.602203	147.360000
267.695160	148.300000
267.788147	148.120000
267.881134	147.440000
267.974091	147.740000
268.067078	147.260000
268.160065	146.740000
268.253052	146.660000
268.346008	146.500000
268.438995	146.360000
268.531982	146.500000
268.624969	146.080000
268.717987	146.820000
268.810944	146.820000
268.903961	146.980000
268.996948	146.740000
269.089905	147.500000
269.182892	147.300000
269.275879	147.620000
269.368866	147.000000
269.461853	147.300000
269.554871	146.800000
269.647858	146.700000
269.740845	147.260000
269.833832	147.980000
269.926819	147.760000
270.019806	147.940000
270.112793	147.680000
270.205811	147.340000
270.298798	146.760000
270.391785	147.480000
270.484772	146.940000
270.577789	147.000000
270.670776	146.500000
270.763763	146.640000
270.856750	146.400000
270.949768	146.780000
271.042786	147.060000
271.135773	147.480000
271.228790	147.980000
271.321808	147.200000
271.414795	146.520000
271.507782	145.880000
271.600800	145.340000
271.693817	144.980000
271.786804	146.000000
271.879822	146.740000
271.972809	146.780000
272.065826	147.480000
272.158844	147.300000
272.251831	147.600000
272.344849	147.580000
272.437866	147.480000
272.530853	147.180000
272.623871	147.460000
272.716888	146.040000
272.809906	146.080000
272.902893	146.580000
272.995911	146.220000
273.088928	146.260000
273.181946	147.020000
273.274963	146.580000
273.367981	146.440000
273.460999	146.800000
273.554047	147.000000
273.647003	147.260000
273.740051	147.520000
273.833069	147.660000
273.926086	147.680000
274.019135	147.460000
274.112152	147.120000
274.205170	147.040000
274.298187	147.240000
274.391205	146.500000
274.484222	146.260000
274.577240	146.460000
274.670258	146.440000
274.763306	146.480000
274.856323	147.340000
274.949341	147.580000
275.042358	147.580000
275.135406	147.600000
275.228424	147.480000
275.321442	147.040000
275.414490	146.860000
275.507507	147.180000
275.600525	147.700000
275.693573	147.280000
275.786591	147.000000
275.879669	147.220000
275.972656	146.580000
276.065735	145.920000
276.158752	146.480000
276.251801	147.520000
276.344818	147.540000
276.437866	148.020000
276.530884	148.160000
276.623932	147.540000
276.716980	147.320000
276.809998	147.420000
276.903046	147.260000
276.996094	147.880000
277.089111	148.680000
277.182159	148.900000
277.275208	148.580000
277.368256	148.340000
277.461304	148.100000
277.554321	146.960000
277.647369	146.840000
277.740417	146.560000
277.833466	146.780000
277.926514	146.620000
278.019562	147.560000
278.112610	146.720000
278.205688	147.120000
278.298706	147.040000
278.391785	146.520000
278.484833	146.200000
278.577881	146.580000
278.670929	146.900000
278.763977	146.800000
278.857025	147.320000
278.950073	147.300000
279.043121	147.180000
279.136169	146.860000
279.229248	146.520000
279.322296	146.660000
279.415344	146.600000
279.508392	146.220000
279.601440	146.160000
279.694519	146.160000
279.787567	145.580000
279.880615	145.580000
279.973694	145.760000
280.066742	145.640000
280.159790	145.900000
280.252869	145.820000
280.345917	146.160000
280.438995	146.260000
280.532074	146.300000
280.625122	146.640000
280.718201	147.740000
280.811279	147.400000
280.904327	147.360000
280.997406	147.760000
281.090454	147.720000
281.183533	146.860000
281.276581	146.900000
281.369659	146.720000
281.462738	146.460000
281.555786	146.620000
281.648865	146.820000
281.741943	146.580000
281.835022	147.480000
281.928070	147.240000
282.021149	146.980000
282.114227	146.900000
282.207306	147.060000
282.300385	146.820000
282.393433	147.240000
282.486511	146.740000
282.579590	147.080000
282.672668	147.240000
282.765747	146.700000
282.858856	146.560000
282.951904	147.260000
283.045013	147.120000
283.138062	147.340000
283.231171	147.680000
283.324249	147.920000
283.417328	147.720000
283.510406	147.340000
283.603485	146.920000
283.696564	146.860000
283.789642	146.620000
283.882751	146.420000
283.975830	146.960000
284.068909	146.900000
284.161987	147.580000
284.255066	147.140000
284.348175	147.440000
284.441254	147.200000
284.534332	147.480000
284.627441	146.580000
284.720520	146.580000
284.813599	146.400000
284.906708	146.480000
284.999786	145.840000
285.092896	145.660000
285.185974	146.880000
285.279053	146.480000
285.372192	146.560000
285.465240	147.400000
285.558380	147.440000
285.651459	146.240000
285.744568	147.360000
285.837677	146.780000
285.930756	146.480000
286.023865	146.700000
286.116943	146.860000
286.210052	146.440000
286.303162	146.580000
286.396240	146.820000
286.489349	146.660000
286.582458	147.000000
286.675568	146.680000
286.768646	147.160000
286.861755	147.580000
286.954865	148.400000
287.047974	147.640000
287.141083	147.440000
287.234161	146.720000
287.327271	145.960000
287.420380	146.240000
287.513519	146.560000
287.606598	146.520000
287.699738	147.180000
287.792816	147.240000
287.885956	146.880000
287.979034	147.140000
288.072174	147.400000
288.165283	147.120000
288.258392	147.420000
288.351501	146.740000
288.444611	146.920000
288.537720	147.120000
288.630859	147.340000
288.723969	147.080000
288.817078	147.740000
288.910187	147.480000
289.003296	146.940000
289.096436	146.580000
289.189545	146.820000
289.282654	146.180000
289.375763	146.620000
289.468903	146.980000
289.562012	147.060000
289.655121	147.040000
289.748260	147.080000
289.841400	147.140000
289.934509	147.420000
290.027649	147.760000
290.120728	147.520000
290.213898	147.840000
290.306976	147.420000
290.400146	147.320000
290.493256	146.860000
290.586395	147.300000
290.679535	147.480000
290.772644	147.380000
290.865784	146.520000
290.958893	146.440000
291.052032	146.180000
291.145172	145.760000
291.238281	145.540000
291.331421	145.980000
291.424561	146.580000
291.517670	146.220000
291.610809	146.620000
291.703949	146.700000
291.797089	147.020000
291.890228	146.440000
291.983337	146.480000
292.076477	146.020000
292.169617	146.540000
292.262756	146.400000
292.355927	146.200000
292.449036	145.860000
292.542206	146.020000
292.635315	146.180000
292.728485	146.220000
292.821625	146.020000
292.914764	147.480000
293.007904	147.640000
293.101044	146.980000
293.194183	146.680000
293.287323	147.340000
293.380463	146.380000
293.473602	145.940000
293.566742	146.420000
293.659882	147.280000
293.753021	147.360000
293.846191	147.680000
293.939331	147.580000
294.032471	147.380000
294.125610	147.040000
294.218781	147.180000
294.311920	147.320000
294.405060	147.680000
294.498230	147.580000
294.591370	147.560000
294.684540	146.920000
294.777679	146.220000
294.870850	146.280000
294.963959	146.360000
295.057159	146.000000
295.150299	146.400000
295.243469	146.440000
295.336609	146.200000
295.429779	146.180000
295.522919	146.580000
295.616089	146.580000
295.709229	147.160000
295.802399	147.360000
295.895569	146.900000
295.988708	146.520000
296.081879	146.500000
296.175018	145.780000
296.268188	145.580000
296.361359	146.260000
296.454529	146.580000
296.547668	146.440000
296.640839	147.260000
296.734009	147.160000
296.827179	147.120000
296.920319	147.360000
297.013519	147.300000
297.106659	147.080000
297.199860	147.140000
297.292999	146.880000
297.386200	146.280000
297.479309	146.300000
297.572510	145.960000
297.665680	145.820000
297.758850	145.780000
297.852020	145.800000
297.945190	145.640000
298.038361	145.400000
298.131531	146.540000
298.224701	146.400000
298.317871	146.340000
298.411072	146.000000
298.504242	146.300000
298.597412	145.420000
298.690582	145.620000
298.783752	145.840000
298.876923	146.660000
298.970093	146.480000
299.063293	146.900000
299.156464	147.300000
299.249634	147.560000
299.342834	147.620000
299.436005	148.240000
299.529205	147.920000
299.622345	147.840000
299.715576	147.300000
299.808716	146.980000
299.901917	146.680000
299.995117	146.980000
300.088287	146.740000
300.181488	146.440000
300.274658	146.440000
300.367828	146.520000
300.461029	146.200000
300.554199	146.460000
300.647400	146.860000
300.740601	147.260000
300.833771	147.100000
300.926971	147.380000
301.020142	146.860000
301.113342	146.660000
301.206512	146.340000
301.299713	146.580000
301.392914	146.580000
301.486084	147.080000
301.579285	147.240000
301.672516	147.980000
301.765686	147.680000
301.858887	147.340000
301.952057	147.340000
302.045288	147.300000
302.138458	146.600000
302.231659	146.560000
302.324860	146.480000
302.418060	146.060000
302.511261	145.900000
302.604462	146.140000
302.697662	146.100000
302.790863	146.060000
302.884064	145.820000
302.977264	145.980000
303.070465	146.540000
303.163666	147.020000
303.256866	147.540000
303.350067	147.680000
303.443268	147.560000
303.536469	147.300000
303.629669	146.800000
303.722870	146.780000
303.816071	146.980000
303.909271	147.340000
304.002472	146.700000
304.095673	146.320000
304.188934	145.520000
304.282104	146.100000
304.375336	146.100000
304.468506	145.940000
304.561768	146.140000
304.654968	146.840000
304.748169	146.380000
304.841370	146.320000
304.934601	146.760000
305.027802	146.680000
305.121002	146.180000
305.214233	146.100000
305.307434	145.860000
305.400665	146.140000
305.493866	146.020000
305.587097	146.560000
305.680298	146.580000
305.773499	147.400000
305.866730	147.260000
305.959930	148.120000
306.053162	148.280000
306.146393	148.120000
306.239594	147.220000
306.332825	147.040000
306.426025	147.140000
306.519287	146.420000
306.612488	146.400000
306.705719	146.640000
306.798920	146.600000
306.892181	145.740000
306.985352	145.780000
307.078613	145.360000
307.171844	145.480000
307.265045	145.200000
307.358276	145.160000
307.451508	145.500000
307.544739	146.340000
307.637970	145.840000
307.731201	145.620000
307.824402	146.360000
307.917633	146.540000
308.010864	146.580000
308.104095	147.460000
308.197327	147.920000
308.290558	147.900000
308.383789	147.580000
308.477020	146.980000
308.570251	146.120000
308.663483	145.620000
308.756714	145.240000
308.849976	145.480000
308.943176	145.980000
309.036438	146.180000
309.129639	146.320000
309.222900	146.620000
309.316101	146.340000
309.409393	146.120000
309.502625	145.860000
309.595856	146.000000
309.689087	146.000000
309.782318	146.340000
309.875580	146.580000
309.968811	146.880000
310.062042	146.760000
310.155273	146.420000
310.248535	146.540000
310.341766	146.300000
310.434998	146.160000
310.528259	146.280000
310.621490	146.880000
310.714722	146.020000
310.807983	146.040000
310.901215	146.360000
310.994476	146.340000
311.087708	145.620000
311.181000	146.400000
311.274200	146.200000
311.367462	146.140000
311.460693	146.040000
311.553986	146.660000
311.647186	146.920000
311.740479	147.820000
311.833710	147.400000
311.926971	147.280000
312.020203	146.900000
312.113464	146.440000
312.206726	145.740000
312.299957	146.080000
312.393219	146.580000
312.486481	146.700000
312.579712	146.620000
312.672974	146.200000
312.766235	146.200000
312.859497	146.020000
312.952759	145.740000
313.045990	146.420000
313.139252	146.520000
313.232513	147.060000
313.325775	147.080000
313.419037	147.060000
313.512299	146.300000
313.605530	146.740000
313.698822	146.680000
313.792053	146.980000
313.885345	146.560000
313.978577	146.740000
314.071869	146.220000
314.165131	146.140000
314.258392	146.320000
314.351654	146.780000
314.444916	146.240000
314.538177	147.240000
314.631439	147.220000
314.724701	146.720000
314.817993	146.740000
314.911255	147.340000
315.004517	146.320000
315.097778	146.120000
315.191040	146.560000
315.284302	146.760000
315.377594	146.580000
315.470856	146.880000
315.564117	146.420000
315.657379	145.860000
315.750671	145.500000
315.843933	145.940000
315.937195	145.700000
316.030518	145.660000
316.123749	145.620000
316.217041	146.500000
316.310303	145.940000
316.403595	146.180000
316.496857	146.460000
316.590149	146.700000
316.683411	145.800000
316.776703	145.900000
316.869965	145.900000
316.963257	145.820000
317.056519	145.260000
317.149811	145.360000
317.243073	145.200000
317.336365	145.480000
317.429626	145.740000
317.522919	146.680000
317.616180	146.880000
317.709473	146.760000
317.802765	146.180000
317.896027	146.140000
317.989319	146.360000
318.082611	146.220000
318.175873	146.540000
318.269165	146.820000
318.362488	146.520000
318.455750	145.860000
318.549042	145.880000
318.642303	146.060000
318.735626	145.820000
318.828888	146.200000
318.922211	145.760000
319.015472	146.660000
319.108765	146.000000
319.202057	146.000000
319.295349	146.020000
319.388641	146.360000
319.481934	145.920000
319.575226	146.040000
319.668518	146.380000
319.761810	146.400000
319.855103	146.680000
319.948395	146.500000
320.041687	146.820000
320.134979	146.860000
320.228271	146.640000
320.321564	146.420000
320.414856	146.500000
320.508148	146.040000
320.601440	145.860000
320.694763	146.000000
320.788025	146.520000
320.881348	146.420000
320.974640	146.920000
321.067963	146.500000
321.161224	146.540000
321.254547	145.940000
321.347839	146.500000
321.441162	146.120000
321.534454	146.780000
321.627747	146.400000
321.721069	146.860000
321.814362	146.700000
321.907654	146.920000
322.000946	146.620000
322.094269	147.520000
322.187561	147.000000
322.280884	146.840000
322.374176	147.000000
322.467468	147.400000
322.560791	147.200000
322.654083	147.640000
322.747406	147.740000
322.840698	147.720000
322.934021	147.840000
323.027344	147.900000
323.120636	147.740000
323.213959	147.720000
323.307251	147.320000
323.400574	147.140000
323.493866	146.540000
323.587219	146.920000
323.680511	147.100000
323.773834	147.500000
323.867157	147.400000
323.960449	147.600000
324.053772	147.160000
324.147095	146.960000
324.240387	147.280000
324.333710	147.280000
324.427032	147.320000
324.520355	147.360000
324.613647	147.080000
324.706970	146.760000
324.800293	146.820000
324.893616	147.100000
324.986938	147.240000
325.080231	146.920000
325.173553	147.380000
325.266876	147.620000
325.360199	147.320000
325.453522	147.000000
325.546875	146.880000
325.640167	146.740000
325.733521	146.960000
325.826813	147.320000
325.920166	147.120000
326.013489	147.540000
326.106812	146.600000
326.200134	145.780000
326.293457	145.080000
326.386780	145.300000
326.480103	145.000000
326.573425	145.460000
326.666748	145.720000
326.760071	146.220000
326.853424	146.440000
326.946747	146.380000
327.040070	147.060000
327.133392	146.920000
327.226715	146.320000
327.320068	145.660000
327.413391	146.260000
327.506714	145.020000
327.600037	145.020000
327.693390	145.360000
327.786713	145.940000
327.880066	145.660000
327.973358	146.560000
328.066742	147.000000
328.160034	147.520000
328.253418	147.520000
328.346710	147.280000
328.440063	146.600000
328.533417	146.220000
328.626740	145.980000
328.720093	145.680000
328.813416	145.740000
328.906769	145.840000
329.000092	146.160000
329.093445	146.040000
329.186768	146.320000
329.280121	146.640000
329.373444	146.980000
329.466797	146.800000
329.560120	146.980000
329.653473	146.980000
329.746796	146.860000
329.840149	146.740000
329.933502	146.700000
330.026825	146.460000
330.120178	146.100000
330.213562	145.940000
330.306854	146.100000
330.400238	146.120000
330.493561	146.120000
330.586945	147.080000
330.680237	147.400000
330.773621	147.480000
330.866974	147.620000
330.960327	147.700000
331.053680	147.220000
331.147003	147.360000
331.240356	147.400000
331.333710	147.460000
331.427063	146.900000
331.520416	146.700000
331.613770	146.400000
331.707123	146.620000
331.800476	146.700000
331.893829	147.920000
331.987152	148.000000
332.080505	148.060000
332.173859	147.640000
332.267212	147.020000
332.360565	146.060000
332.453918	145.920000
332.547333	146.100000
332.640656	146.280000
332.734039	146.920000
332.827362	147.260000
332.920746	147.640000
333.014069	147.760000
333.107452	148.100000
333.200806	147.820000
333.294159	147.760000
333.387543	147.100000
333.480896	146.280000
333.574249	145.660000
333.667603	145.560000
333.760956	145.520000
333.854340	145.940000
333.947693	146.480000
334.041046	146.660000
334.134430	146.780000
334.227783	146.420000
334.321136	146.540000
334.414520	146.200000
334.507874	146.300000
334.601227	146.200000
334.694611	146.580000
334.787964	146.320000
334.881348	146.600000
334.974701	146.680000
335.068085	146.580000
335.161438	146.660000
335.254822	146.520000
335.348175	146.180000
335.441559	145.600000
335.534943	146.220000
335.628296	145.860000
335.721680	146.020000
335.815033	146.500000
335.908417	147.180000
336.001770	147.060000
336.095154	147.060000
336.188538	146.640000
336.281891	146.120000
336.375275	145.660000
336.468658	145.120000
336.562012	145.280000
336.655396	146.080000
336.748779	146.520000
336.842133	147.000000
336.935516	147.200000
337.028900	146.960000
337.122284	146.580000
337.215637	146.700000
337.309021	146.460000
337.402435	146.120000
337.495789	146.280000
337.589203	146.180000
337.682526	145.940000
337.775940	146.000000
337.869324	146.320000
337.962708	145.980000
338.056091	146.640000
338.149475	146.220000
338.242859	146.220000
338.336243	146.060000
338.429626	146.400000
338.523010	146.040000
338.616394	146.480000
338.709778	146.740000
338.803162	146.880000
338.896545	147.000000
338.989929	146.680000
339.083313	146.800000
339.176697	146.340000
339.270081	146.040000
339.363464	146.160000
339.456848	146.580000
339.550232	145.640000
339.643616	145.460000
339.737030	145.680000
339.830383	145.360000
339.923828	145.200000
340.017181	146.120000
340.110596	146.360000
340.203949	146.340000
340.297363	146.360000
340.390778	146.260000
340.484161	146.060000
340.577545	145.900000
340.670959	146.080000
340.764343	146.020000
340.857727	146.340000
340.951111	145.800000
341.044525	146.140000
341.137909	145.600000
341.231293	145.660000
341.324707	145.020000
341.418091	145.980000
341.511505	145.640000
341.604889	146.040000
341.698303	146.360000
341.791687	146.700000
341.885071	146.260000
341.978485	146.280000
342.071899	146.560000
342.165283	146.680000
342.258698	147.060000
342.352081	147.600000
342.445496	148.100000
342.538879	147.940000
342.632324	147.500000
342.725708	146.900000
342.819122	146.480000
342.912506	146.160000
343.005920	146.020000
343.099335	147.000000
343.192719	147.180000
343.286133	146.940000
343.379547	147.300000
343.472931	147.260000
343.566345	146.340000
343.659760	146.860000
343.753143	146.560000
343.846558	145.860000
343.939972	146.020000
344.033386	146.680000
344.126770	146.240000
344.220184	146.880000
344.313599	147.540000
344.407043	147.500000
344.500427	146.700000
344.593872	147.020000
344.687225	146.440000
344.780670	145.860000
344.874054	145.820000
344.967499	146.540000
345.060913	146.540000
345.154327	146.920000
345.247742	147.060000
345.341156	147.060000
345.434570	146.300000
345.527985	146.100000
345.621399	146.080000
345.714813	146.100000
345.808228	146.200000
345.901642	146.180000
345.995056	145.800000
346.088470	145.840000
346.181885	145.860000
346.275299	145.320000
346.368713	145.500000
346.462128	145.280000
346.555573	145.260000
346.648987	145.640000
346.742401	146.040000
346.835815	146.360000
346.929260	146.560000
347.022644	146.840000
347.116119	146.660000
347.209503	146.740000
347.302948	147.340000
347.396362	148.000000
347.489807	147.960000
347.583221	148.800000
347.676636	148.600000
347.770050	147.660000
347.863495	147.080000
347.956909	146.960000
348.050323	146.020000
348.143768	146.000000
348.237183	146.120000
348.330597	146.680000
348.424042	146.960000
348.517456	147.200000
348.610901	147.420000
348.704315	147.360000
348.797760	146.600000
348.891174	145.840000
348.984619	145.420000
349.078033	145.820000
349.171448	146.480000
349.264923	146.840000
349.358337	146.840000
349.451782	147.060000
349.545197	146.260000
349.638641	145.480000
349.732086	144.880000
349.825500	145.420000
349.918945	144.860000
350.012390	145.360000
350.105804	146.000000
350.199249	146.440000
350.292664	146.600000
350.386108	147.080000
350.479553	147.440000
350.572968	147.080000
350.666412	147.500000
350.759857	147.280000
350.853302	147.680000
350.946716	147.220000
351.040161	147.220000
351.133606	147.060000
351.227081	146.820000
351.320465	147.160000
351.413940	147.160000
351.507355	147.400000
351.600830	147.420000
351.694244	147.280000
351.787720	146.900000
351.881104	147.060000
351.974579	146.660000
352.067993	147.500000
352.161469	147.760000
352.254883	147.040000
352.348358	146.920000
352.441803	146.840000
352.535248	145.700000
352.628693	146.120000
352.722137	146.280000
352.815582	146.320000
352.909027	146.600000
353.002472	146.620000
353.095917	146.100000
353.189362	146.420000
353.282806	146.140000
353.376251	145.800000
353.469696	145.840000
353.563141	146.320000
353.656586	146.220000
353.750061	145.860000
353.843475	146.000000
353.936981	146.420000
354.030396	145.900000
354.123871	145.820000
354.217285	147.160000
354.310760	147.480000
354.404175	147.460000
354.497681	147.500000
354.591095	147.700000
354.684570	146.600000
354.777985	146.120000
354.871490	145.800000
354.964935	145.960000
355.058380	146.100000
355.151855	146.100000
355.245300	146.540000
355.338745	146.640000
355.432220	146.860000
355.525665	146.340000
355.619110	147.080000
355.712585	146.900000
355.806030	146.860000
355.899475	146.320000
355.992950	146.900000
356.086426	146.960000
356.179871	146.860000
356.273346	146.960000
356.366791	147.440000
356.460266	147.540000
356.553711	147.180000
356.647186	147.360000
356.740631	147.040000
356.834106	146.780000
356.927551	146.800000
357.021027	146.720000
357.114471	146.840000
357.207947	147.120000
357.301422	147.360000
357.394867	146.900000
357.488342	146.940000
357.581818	146.880000
357.675262	146.940000
357.768738	146.820000
357.862213	146.260000
357.955658	146.240000
358.049133	145.880000
358.142609	146.120000
358.236053	145.980000
358.329529	146.520000
358.423035	146.880000
358.516449	146.960000
358.609955	147.120000
358.703400	147.660000
358.796906	148.060000
358.890350	147.420000
358.983826	147.820000
359.077271	147.200000
359.170776	146.580000
359.264221	146.140000
359.357727	146.540000
359.451172	146.660000
359.544647	146.440000
359.638123	146.840000
359.731598	147.020000
359.825073	147.080000
359.918549	146.560000
360.012024	147.160000
360.105499	146.560000
360.198975	146.600000
360.292450	146.600000
360.385925	146.820000
360.479401	146.300000
360.572876	146.560000
360.666351	146.920000
360.759857	146.980000
360.853302	147.200000
360.946808	146.980000
361.040253	147.180000
361.133759	146.580000
361.227203	146.520000
361.320709	145.900000
361.414154	146.860000
361.507660	146.940000
361.601105	147.520000
361.694641	147.520000
361.788086	147.720000
361.881592	147.640000
361.975067	147.540000
362.068542	147.580000
362.162018	147.600000
362.255524	147.220000
362.348999	147.140000
362.442474	147.300000
362.535950	146.520000
362.629456	146.460000
362.722931	146.620000
362.816406	146.920000
362.909882	147.280000
363.003387	147.280000
363.096863	147.560000
363.190338	147.740000
363.283875	147.340000
363.377319	146.700000
363.470825	147.440000
363.564301	146.780000
363.657806	146.800000
363.751282	146.180000
363.844788	147.160000
363.938232	146.760000
364.031769	147.660000
364.125214	148.040000
364.218750	148.840000
364.312225	147.440000
364.405731	147.560000
364.499207	146.660000
364.592712	146.320000
364.686188	146.440000
364.779694	147.020000
364.873169	146.780000
364.966675	147.120000
365.060150	147.180000
365.153656	147.260000
365.247131	147.280000
365.340637	147.700000
365.434143	147.920000
365.527618	147.940000
365.621155	146.960000
365.714600	146.820000
365.808136	146.820000
365.901611	145.860000
365.995117	145.940000
366.088593	146.360000
366.182129	146.360000
366.275604	145.860000
366.369110	146.240000
366.462585	145.980000
366.556122	146.680000
366.649567	146.840000
366.743103	146.920000
366.836609	146.780000
366.930115	147.100000
367.023590	146.680000
367.117096	146.360000
367.210602	146.480000
367.304108	147.180000
367.397614	147.420000
367.491119	147.660000
367.584595	148.060000
367.678101	148.120000
367.771606	147.820000
367.865112	147.480000
367.958649	146.540000
368.052124	146.240000
368.145660	146.220000
368.239136	146.480000
368.332672	146.640000
368.426147	147.140000
368.519684	146.960000
368.613159	147.420000
368.706696	146.840000
368.800171	146.520000
368.893707	146.320000
368.987183	146.360000
369.080719	146.040000
369.174225	146.280000
369.267731	146.500000
369.361237	146.360000
369.454742	146.500000
369.548248	146.760000
369.641754	146.500000
369.735260	146.300000
369.828766	145.720000
369.922272	146.300000
370.015808	145.940000
370.109314	145.640000
370.202820	145.440000
370.296356	146.700000
370.389832	145.820000
370.483368	145.440000
370.576874	145.720000
370.670410	146.180000
370.763885	145.040000
370.857422	145.440000
370.950928	145.520000
371.044464	146.380000
371.137939	146.360000
371.231476	147.040000
371.324982	147.460000
371.418518	147.640000
371.512024	147.420000
371.605560	146.940000
371.699066	147.260000
371.792572	146.440000
371.886108	146.660000
371.979614	146.420000
372.073120	147.160000
372.166656	146.720000
372.260162	147.380000
372.353668	147.260000
372.447205	147.080000
372.540710	146.780000
372.634277	146.760000
372.727753	146.840000
372.821320	146.980000
372.914795	146.960000
373.008362	146.740000
373.101837	146.940000
373.195404	146.200000
373.288879	145.940000
373.382446	146.680000
373.475922	146.880000
373.569489	147.320000
373.662964	148.040000
373.756531	148.120000
373.850037	147.780000
373.943573	147.620000
374.037109	146.440000
374.130615	146.520000
374.224152	146.680000
374.317657	146.620000
374.411194	147.420000
374.504730	147.960000
374.598236	147.560000
374.691772	146.980000
374.785309	146.980000
374.878815	145.820000
374.972351	146.380000
375.065887	146.480000
375.159454	147.720000
375.252930	147.520000
375.346497	148.320000
375.440002	148.760000
375.533569	148.720000
375.627045	147.600000
375.720612	147.420000
375.814117	147.360000
375.907684	146.380000
376.001160	145.900000
376.094727	145.680000
376.188232	146.740000
376.281799	146.720000
376.375336	146.820000
376.468872	147.580000
376.562408	147.920000
376.655914	146.860000
376.749451	146.800000
376.842987	147.160000
376.936523	147.000000
377.030060	147.060000
377.123596	147.560000
377.217133	146.860000
377.310669	146.520000
377.404205	146.660000
377.497772	146.980000
377.591278	146.520000
377.684845	147.680000
377.778351	148.020000
377.871918	147.680000
377.965424	147.200000
378.058990	147.260000
378.152496	146.840000
378.246063	146.520000
378.339569	146.680000
378.433136	146.780000
378.526642	146.780000
378.620209	146.800000
378.713745	146.660000
378.807312	147.040000
378.900848	146.960000
378.994385	147.460000
379.087921	146.420000
379.181458	146.740000
379.274994	145.940000
379.368530	145.920000
379.462097	145.980000
379.555634	147.100000
379.649170	146.500000
379.742706	146.560000
379.836273	146.900000
379.929810	146.380000
380.023376	145.780000
380.116882	146.160000
380.210449	146.480000
380.303986	146.200000
380.397552	145.800000
380.491058	146.220000
380.584656	146.300000
380.678162	146.440000
380.771729	146.160000
380.865265	147.060000
380.958832	147.220000
381.052368	147.240000
381.145935	147.580000
381.239471	148.680000
381.333008	148.340000
381.426575	147.860000
381.520111	148.320000
381.613647	148.100000
381.707214	147.200000
381.800751	146.740000
381.894318	146.860000
381.987854	146.060000
382.081421	145.800000
382.174988	146.200000
382.268524	146.400000
382.362091	146.740000
382.455627	147.640000
382.549194	147.500000
382.642731	146.860000
382.736298	146.640000
382.829834	146.320000
382.923401	146.420000
383.016937	146.740000
383.110504	147.260000
383.204041	147.680000
383.297607	147.720000
383.391174	146.880000
383.484741	147.400000
383.578278	146.620000
383.671844	146.240000
383.765411	145.800000
383.858948	146.440000
383.952515	145.960000
384.046051	146.880000
384.139618	147.160000
384.233185	147.800000
384.326721	147.360000
384.420288	147.840000
384.513855	147.480000
384.607422	147.900000
384.700989	147.760000
384.794525	147.640000
384.888123	147.340000
384.981659	147.740000
385.075226	147.040000
385.168762	146.880000
385.262360	146.720000
385.355896	145.820000
385.449463	145.820000
385.542999	145.980000
385.636597	146.680000
385.730164	147.180000
385.823730	147.120000
385.917267	146.800000
386.010834	147.220000
386.104401	146.820000
386.197968	147.000000
386.291534	147.580000
386.385101	147.740000
386.478668	147.700000
386.572235	147.800000
386.665802	147.140000
386.759338	146.880000
386.852905	146.400000
386.946472	145.940000
387.040070	145.700000
387.133606	146.000000
387.227203	146.140000
387.320740	146.580000
387.414337	146.660000
387.507874	146.620000
387.601471	146.700000
387.695007	146.640000
387.788605	146.560000
387.882141	146.620000
387.975739	147.000000
388.069275	146.680000
388.162872	146.700000
388.256439	146.280000
388.350037	146.060000
388.443604	145.580000
388.537170	145.660000
388.630737	146.080000
388.724304	146.540000
388.817871	146.800000
388.911438	147.020000
389.005005	147.400000
389.098602	147.460000
389.192169	146.900000
389.285736	147.260000
389.379333	146.980000
389.472870	146.420000
389.566467	146.260000
389.660034	146.540000
389.753632	146.140000
389.847168	146.460000
389.940765	147.220000
390.034332	147.240000
390.127930	146.920000
390.221466	146.880000
390.315063	146.300000
390.408630	145.060000
390.502228	144.460000
390.595795	144.960000
390.689362	145.200000
390.782959	146.040000
390.876526	146.780000
390.970093	146.840000
391.063690	147.400000
391.157257	147.180000
391.250824	147.140000
391.344421	146.760000
391.437988	147.100000
391.531555	146.920000
391.625153	147.200000
391.718750	147.160000
391.812317	147.400000
391.905914	147.240000
391.999481	146.980000
392.093079	146.720000
392.186615	146.980000
392.280243	147.040000
392.373779	147.220000
392.467407	147.760000
392.560944	147.680000
392.654572	147.120000
392.748108	147.040000
392.841736	147.140000
392.935303	146.500000
393.028900	146.660000
393.122467	146.620000
393.216064	146.420000
393.309631	145.820000
393.403229	145.420000
393.496796	145.120000
393.590393	144.660000
393.683990	144.800000
393.777557	145.620000
393.871155	146.100000
393.964722	146.760000
394.058350	147.180000
394.151917	147.220000
394.245514	146.480000
394.339081	146.740000
394.432678	146.840000
394.526245	146.780000
394.619873	146.480000
394.713409	147.100000
394.807037	146.300000
394.900604	145.920000
394.994202	146.280000
395.087769	146.880000
395.181396	146.240000
395.274994	147.560000
395.368561	146.960000
395.462158	146.840000
395.555756	146.460000
395.649353	146.960000
395.742920	145.960000
395.836517	147.040000
395.930115	146.560000
396.023712	146.760000
396.117279	147.120000
396.210876	146.920000
396.304474	146.440000
396.398071	146.980000
396.491669	147.060000
396.585266	146.320000
396.678833	146.720000
396.772461	146.720000
396.866028	146.400000
396.959656	146.840000
397.053223	147.440000
397.146851	147.260000
397.240417	147.400000
397.334015	148.180000
397.427582	147.580000
397.521210	147.920000
397.614807	148.500000
397.708405	149.040000
397.802002	149.360000
397.895599	150.700000
397.989197	151.120000
398.082794	152.160000
398.176392	153.300000
398.269989	154.520000
398.363586	155.980000
398.457184	158.200000
398.550781	159.860000
398.644379	161.060000
398.737976	162.120000
398.831573	163.860000
398.925201	164.320000
399.018768	165.240000
399.112396	166.160000
399.205963	167.260000
399.299591	167.120000
399.393158	167.180000
399.486786	167.440000
399.580353	166.960000
399.673981	166.180000
399.767578	166.620000
399.861206	167.440000
399.954773	168.780000
400.048401	170.680000
400.141998	172.360000
400.235596	173.800000
400.329193	175.160000
400.422791	175.540000
400.516418	176.000000
400.610016	177.220000
400.703613	177.900000
400.797211	177.480000
400.890808	177.820000
400.984436	177.560000
401.078033	176.080000
401.171631	174.240000
401.265259	173.260000
401.358826	171.120000
401.452484	169.360000
401.546051	167.600000
401.639679	165.180000
401.733246	163.060000
401.826904	160.760000
401.920471	158.060000
402.014099	156.180000
402.107697	154.660000
402.201324	153.240000
402.294891	152.520000
402.388550	152.000000
402.482147	151.480000
402.575745	150.620000
402.669373	149.220000
402.762970	148.160000
402.856567	147.620000
402.950195	147.180000
403.043793	147.220000
403.137390	148.260000
403.231018	147.600000
403.324615	148.140000
403.418243	147.540000
403.511841	147.820000
403.605469	147.500000
403.699066	148.380000
403.792694	147.820000
403.886292	148.000000
403.979919	147.700000
404.073517	146.960000
404.167145	147.020000
404.260712	147.340000
404.354370	147.360000
404.447937	147.260000
404.541595	147.580000
404.635162	147.540000
404.728821	147.640000
404.822418	147.440000
404.916046	147.460000
405.009644	147.720000
405.103271	147.940000
405.196899	147.380000
405.290497	147.520000
405.384125	147.840000
405.477722	147.260000
405.571350	146.580000
405.664948	146.840000
405.758575	146.480000
405.852203	145.760000
405.945801	146.200000
406.039429	146.260000
406.133057	146.060000
406.226654	146.340000
406.320312	146.560000
406.413879	146.680000
406.507538	147.160000
406.601135	147.040000
406.694763	147.560000
406.788361	147.460000
406.882019	146.720000
406.975586	146.740000
407.069244	147.260000
407.162872	147.000000
407.256470	146.900000
407.350098	147.300000
407.443726	146.640000
407.537323	145.940000
407.630951	146.240000
407.724579	146.000000
407.818207	146.420000
407.911804	146.600000
408.005432	146.820000
408.099060	146.500000
408.192688	147.080000
408.286285	146.580000
408.379913	146.460000
408.473572	146.740000
408.567169	146.500000
408.660828	146.160000
408.754395	146.320000
408.848053	146.160000
408.941650	145.840000
409.035309	145.660000
409.128906	145.380000
409.222565	145.120000
409.316132	145.580000
409.409790	145.440000
409.503387	145.680000
409.597046	145.980000
409.690674	146.340000
409.784302	146.120000
409.877930	146.120000
409.971558	146.380000
410.065186	146.480000
410.158783	146.300000
410.252411	146.520000
410.346039	147.040000
410.439667	146.820000
410.533295	147.220000
410.626923	147.380000
410.720551	147.060000
410.814209	147.340000
410.907806	147.140000
411.001465	146.560000
411.095062	146.720000
411.188721	146.960000
411.282318	146.680000
411.375977	146.920000
411.469574	147.120000
411.563232	146.820000
411.656830	146.720000
411.750488	146.440000
411.844086	146.120000
411.937744	146.360000
412.031372	146.220000
412.125000	146.220000
412.218628	146.140000
412.312256	146.680000
412.405884	147.000000
412.499512	147.280000
412.593170	147.380000
412.686798	147.620000
412.780426	146.980000
412.874054	146.780000
412.967682	146.880000
413.061310	147.420000
413.154968	147.380000
413.248566	147.880000
413.342224	147.680000
413.435852	147.520000
413.529510	146.920000
413.623108	146.640000
413.716766	146.340000
413.810364	146.480000
413.904022	146.000000
413.997650	145.640000
414.091309	146.420000
414.184906	146.220000
414.278564	145.980000
414.372192	146.800000
414.465851	147.180000
414.559479	146.720000
414.653107	147.640000
414.746735	147.360000
414.840393	147.200000
414.934021	147.580000
415.027649	146.900000
415.121277	146.480000
415.214935	147.140000
415.308563	146.840000
415.402191	146.080000
415.495850	146.360000
415.589478	146.220000
415.683136	145.760000
415.776733	146.020000
415.870422	146.780000
415.964020	146.600000
416.057678	146.780000
416.151306	146.980000
416.244965	146.860000
416.338562	146.480000
416.432251	147.080000
416.525848	147.720000
416.619507	148.120000
416.713165	148.580000
416.806793	148.600000
416.900421	148.840000
416.994080	147.760000
417.087708	147.020000
417.181366	146.380000
417.274994	146.320000
417.368622	146.180000
417.462280	147.040000
417.555908	147.300000
417.649567	146.960000
417.743195	147.220000
417.836853	146.960000
417.930481	146.680000
418.024170	146.520000
418.117767	147.380000
418.211426	147.380000
418.305054	147.760000
418.398712	147.320000
418.492340	147.820000
418.585999	148.000000
418.679626	148.080000
418.773285	148.420000
418.866913	149.040000
418.960571	149.180000
419.054230	148.920000
419.147858	148.840000
419.241516	148.500000
419.335144	147.840000
419.428802	147.780000
419.522461	147.480000
419.616089	146.980000
419.709747	146.920000
419.803375	147.120000
419.897034	146.680000
419.990662	146.700000
420.084320	147.140000
420.177979	146.980000
420.271606	147.100000
420.365295	147.520000
420.458893	147.720000
420.552582	148.020000
420.646210	148.240000
420.739868	147.960000
420.833496	147.580000
420.927155	147.100000
421.020782	146.780000
421.114471	146.180000
421.208069	146.560000
421.301758	146.860000
421.395386	147.280000
421.489044	146.880000
421.582703	147.040000
421.676361	147.340000
421.769989	146.740000
421.863647	147.100000
421.957306	147.340000
422.050934	147.820000
422.144592	147.300000
422.238251	147.600000
422.331909	146.720000
422.425537	146.780000
422.519196	146.460000
422.612854	146.240000
422.706543	145.640000
422.800140	146.160000
422.893829	145.820000
422.987457	145.760000
423.081146	146.180000
423.174744	147.000000
423.268433	146.460000
423.362061	146.480000
423.455750	146.140000
423.549347	146.120000
423.643036	145.380000
423.736664	146.200000
423.830353	146.480000
423.924011	147.100000
424.017639	146.620000
424.111298	146.860000
424.204956	146.520000
424.298615	146.420000
424.392273	145.960000
424.485931	146.320000
424.579559	146.620000
424.673218	146.640000
424.766876	146.820000
424.860535	146.900000
424.954193	146.620000
425.047882	146.960000
425.141510	147.240000
425.235199	147.080000
425.328796	146.760000
425.422485	146.820000
425.516113	145.980000
425.609802	145.620000
425.703430	145.680000
425.797119	145.560000
425.890747	145.580000
425.984436	145.760000
426.078064	145.800000
426.171753	145.900000
426.265411	146.000000
426.359070	146.180000
426.452728	146.280000
426.546356	146.160000
426.640015	145.820000
426.733673	146.280000
426.827332	145.860000
426.920990	146.860000
427.014648	146.760000
427.108307	147.180000
427.201965	147.340000
427.295624	147.880000
427.389282	146.840000
427.482941	147.160000
427.576630	147.060000
427.670258	146.240000
427.763947	145.980000
427.857574	146.360000
427.951263	146.220000
428.044922	145.920000
428.138611	146.640000
428.232239	147.040000
428.325928	147.160000
428.419556	147.560000
428.513245	147.480000
428.606903	147.320000
428.700562	146.640000
428.794220	145.740000
428.887878	145.080000
428.981537	145.760000
429.075195	145.740000
429.168854	146.240000
429.262512	146.780000
429.356201	146.980000
429.449860	146.720000
429.543518	146.680000
429.637177	146.800000
429.730835	146.840000
429.824493	146.620000
429.918182	146.800000
430.011810	146.420000
430.105530	145.860000
430.199158	145.860000
430.292847	145.840000
430.386475	145.380000
430.480164	145.400000
430.573792	145.360000
430.667511	145.320000
430.761139	145.140000
430.854828	145.640000
430.948456	146.000000
431.042145	146.440000
431.135834	146.120000
431.229492	146.700000
431.323151	146.580000
431.416809	146.700000
431.510468	146.460000
431.604156	146.640000
431.697815	146.600000
431.791473	146.200000
431.885132	145.640000
431.978821	146.080000
432.072479	146.400000
432.166138	146.900000
432.259827	146.880000
432.353485	147.540000
432.447174	147.740000
432.540802	147.500000
432.634491	147.320000
432.728149	147.740000
432.821838	147.900000
432.915466	147.280000
433.009186	147.340000
433.102814	146.520000
433.196503	146.160000
433.290131	146.040000
433.383850	146.260000
433.477509	146.300000
433.571167	147.300000
433.664856	147.640000
433.758514	148.200000
433.852173	148.120000
433.945862	148.040000
434.039520	147.580000
434.133179	147.260000
434.226868	146.360000
434.320526	145.980000
434.414185	146.420000
434.507874	146.000000
434.601562	146.140000
434.695221	145.960000
434.788910	146.140000
434.882538	146.200000
434.976257	146.100000
435.069885	145.840000
435.163574	146.660000
435.257233	146.500000
435.350922	146.080000
435.444580	146.020000
435.538269	146.060000
435.631897	145.760000
435.725616	146.460000
435.819275	146.960000
435.912964	147.760000
436.006622	148.420000
436.100311	148.340000
436.193970	147.320000
436.287628	146.960000
436.381317	146.660000
436.474976	146.040000
436.568665	145.700000
436.662323	146.260000
436.756012	146.120000
436.849670	145.940000
436.943390	145.760000
437.037018	145.780000
437.130737	145.660000
437.224365	145.420000
437.318085	145.480000
437.411713	146.000000
437.505432	146.480000
437.599060	146.880000
437.692780	147.680000
437.786407	147.840000
437.880127	147.560000
437.973755	147.060000
438.067474	146.500000
438.161133	146.020000
438.254822	146.460000
438.348480	146.220000
438.442169	146.880000
438.535828	147.600000
438.629517	147.300000
438.723175	146.480000
438.816864	147.020000
438.910553	146.380000
439.004211	145.940000
439.097900	146.080000
439.191559	146.260000
439.285248	145.640000
439.378906	146.100000
439.472626	145.960000
439.566284	145.780000
439.659973	146.100000
439.753632	146.240000
439.847321	146.340000
439.940979	146.720000
440.034698	146.880000
440.128326	146.320000
440.222046	146.260000
440.315674	145.520000
440.409393	145.500000
440.503082	145.420000
440.596741	145.940000
440.690430	146.280000
440.784088	146.660000
440.877777	146.200000
440.971466	146.280000
441.065125	146.000000
441.158813	145.460000
441.252502	145.560000
441.346161	145.840000
441.439850	146.240000
441.533539	146.180000
441.627197	147.000000
441.720886	146.620000
441.814606	146.960000
441.908234	147.100000
442.001953	146.800000
442.095612	146.580000
442.189301	147.040000
442.282959	147.000000
442.376678	146.440000
442.470306	147.400000
442.564026	147.120000
442.657684	147.040000
442.751404	147.040000
442.845032	147.880000
442.938751	147.200000
443.032440	147.520000
443.126099	146.900000
443.219788	147.020000
443.313477	146.720000
443.407166	147.120000
443.500824	147.040000
443.594513	147.800000
443.688202	147.580000
443.781891	146.780000
443.875549	146.340000
443.969238	146.240000
444.062927	145.920000
444.156647	145.720000
444.250275	146.340000
444.343994	146.600000
444.437653	147.020000
444.531372	146.840000
444.625031	146.780000
444.718719	146.460000
444.812378	146.380000
444.906097	145.860000
444.999756	145.940000
445.093445	146.040000
445.187103	146.220000
445.280823	146.640000
445.374512	146.140000
445.468201	146.160000
445.561859	146.080000
445.655548	145.940000
445.749237	145.280000
445.842926	145.800000
445.936615	146.260000
446.030304	145.840000
446.123962	146.200000
446.217651	146.240000
446.311340	146.200000
446.405029	146.020000
446.498749	146.040000
446.592407	145.880000
446.686096	146.240000
446.779755	146.520000
446.873474	146.240000
446.967133	146.740000
447.060852	146.280000
447.154510	146.080000
447.248230	145.820000
447.341858	146.060000
447.435577	145.560000
447.529236	145.620000
447.622955	145.400000
447.716644	145.640000
447.810333	145.800000
447.904022	146.280000
447.997711	146.280000
448.091400	146.940000
448.185059	146.980000
448.278748	147.020000
448.372437	146.720000
448.466125	147.100000
448.559814	146.640000
448.653503	147.100000
448.747192	147.120000
448.840912	147.820000
448.934570	147.840000
449.028290	148.160000
449.121948	147.280000
449.215637	146.660000
449.309296	146.200000
449.403015	146.020000
449.496674	145.720000
449.590393	146.040000
449.684052	146.360000
449.777771	147.400000
449.871429	146.700000
449.965149	146.800000
450.058838	147.160000
450.152527	147.540000
450.246216	146.800000
450.339905	147.500000
450.433594	147.120000
450.527283	147.480000
450.620972	147.080000
450.714661	146.660000
450.808350	146.800000
450.902039	147.360000
450.995728	147.080000
451.089417	146.700000
451.183105	147.000000
451.276794	147.400000
451.370514	146.700000
451.464172	145.880000
451.557892	146.040000
451.651550	146.100000
451.745270	145.460000
451.838928	145.280000
451.932648	145.760000
452.026306	146.400000
452.120026	145.960000
452.213684	146.280000
452.307404	146.800000
452.401062	146.760000
452.494781	146.440000
452.588470	146.500000
452.682159	145.860000
452.775848	145.920000
452.869537	145.540000
452.963226	145.040000
453.056915	145.100000
453.150604	145.640000
453.244293	145.700000
453.337982	146.400000
453.431671	147.300000
453.525360	147.940000
453.619049	147.740000
453.712769	147.960000
453.806427	147.540000
453.900146	146.860000
453.993805	146.380000
454.087555	146.760000
454.181213	146.600000
454.274933	146.340000
454.368591	146.780000
454.462311	146.700000
454.555969	146.140000
454.649689	146.780000
454.743347	147.060000
454.837067	147.360000
454.930756	147.760000
455.024445	148.180000
455.118134	147.720000
455.211853	147.600000
455.305542	147.120000
455.399231	146.860000
455.492920	146.620000
455.586609	146.720000
455.680298	147.180000
455.773987	146.720000
455.867676	146.900000
455.961365	147.360000
456.055084	147.420000
456.148773	146.900000
456.242493	147.420000
456.336151	147.080000
456.429871	147.180000
456.523529	147.260000
456.617249	147.100000
456.710907	147.640000
456.804626	147.880000
456.898315	147.060000
456.992035	146.900000
457.085693	146.980000
457.179413	146.100000
457.273102	146.920000
457.366791	147.260000
457.460480	147.360000
457.554199	148.100000
457.647888	148.100000
457.741577	147.460000
457.835266	147.560000
457.928955	147.780000
458.022644	147.560000
458.116364	147.980000
458.210052	147.620000
458.303741	147.620000
458.397461	146.500000
458.491119	145.720000
458.584839	145.460000
458.678528	145.420000
458.772247	145.360000
458.865906	145.800000
458.959625	146.660000
459.053284	146.760000
459.147003	146.580000
459.240692	146.940000
459.334412	147.340000
459.428070	147.020000
459.521790	146.740000
459.615479	146.960000
459.709198	147.300000
459.802887	146.660000
459.896576	146.380000
459.990265	146.800000
460.083954	147.160000
460.177673	146.540000
460.271362	146.680000
460.365051	146.760000
460.458740	146.740000
460.552429	145.980000
460.646149	145.920000
460.739838	145.760000
460.833527	146.100000
460.927246	145.800000
461.020905	145.920000
461.114655	145.920000
461.208313	146.280000
461.302032	145.760000
461.395691	145.760000
461.489441	145.900000
461.583099	145.840000
461.676819	145.480000
461.770477	145.940000
461.864197	145.940000
461.957916	145.620000
462.051605	145.140000
462.145294	146.240000
462.238983	145.920000
462.332703	146.500000
462.426392	147.640000
462.520081	147.880000
462.613770	147.200000
462.707489	147.720000
462.801178	147.160000
462.894867	146.380000
462.988556	146.620000
463.082275	146.480000
463.175964	145.860000
463.269684	146.460000
463.363342	146.780000
463.457092	146.160000
463.550751	146.520000
463.644470	146.720000
463.738129	145.920000
463.831879	145.700000
463.925537	146.520000
464.019257	146.340000
464.112946	146.360000
464.206665	146.740000
464.300323	146.740000
464.394043	146.480000
464.487762	146.220000
464.581451	146.440000
464.675140	146.020000
464.768829	146.340000
464.862549	146.400000
464.956238	146.840000
465.049927	146.680000
465.143646	147.060000
465.237335	146.680000
465.331024	147.020000
465.424713	146.720000
465.518433	147.220000
465.612152	147.080000
465.705811	147.320000
465.799561	147.120000
465.893219	147.040000
465.986938	146.640000
466.080597	146.600000
466.174347	146.720000
466.268005	146.780000
466.361725	146.900000
466.455414	146.760000
466.549133	146.820000
466.642792	146.860000
466.736542	146.360000
466.830231	146.480000
466.923920	146.580000
467.017609	146.640000
467.111328	146.280000
467.205017	146.540000
467.298706	146.500000
467.392426	146.740000
467.486115	147.060000
467.579803	146.740000
467.673523	146.820000
467.767212	146.740000
467.860901	146.720000
467.954651	146.520000
468.048309	147.040000
468.142029	147.060000
468.235718	146.900000
468.329437	146.460000
468.423096	146.340000
468.516846	146.320000
468.610504	146.080000
468.704224	146.120000
468.797913	145.980000
468.891632	146.180000
468.985291	145.880000
469.079010	145.720000
469.172729	145.360000
469.266418	145.900000
469.360107	145.780000
469.453827	145.980000
469.547516	146.020000
469.641205	146.660000
469.734924	146.660000
469.828613	147.160000
469.922302	147.260000
470.016022	147.480000
470.109711	146.980000
470.203430	146.500000
470.297150	145.400000
470.390808	145.600000
470.484558	145.400000
470.578217	146.080000
470.671936	146.480000
470.765625	147.340000
470.859344	147.000000
470.953003	147.580000
471.046753	147.160000
471.140411	146.580000
471.234131	146.640000
471.327820	147.040000
471.421539	146.840000
471.515228	146.320000
471.608948	146.640000
471.702637	146.040000
471.796326	145.600000
471.890045	145.840000
471.983734	146.540000
472.077423	146.380000
472.171143	146.860000
472.264832	146.980000
472.358521	146.440000
472.452240	146.300000
472.545929	146.920000
472.639648	146.800000
472.733337	147.000000
472.827057	147.400000
472.920746	147.320000
473.014465	147.300000
473.108124	147.480000
473.201874	147.320000
473.295532	146.860000
473.389252	147.360000
473.482941	147.320000
473.576660	146.780000
473.670319	146.780000
473.764069	147.280000
473.857727	147.280000
473.951477	147.360000
474.045166	148.180000
474.138855	148.100000
474.232574	147.820000
474.326263	147.620000
474.419952	147.640000
474.513672	147.460000
474.607361	147.340000
474.701050	147.560000
474.794769	147.940000
474.888458	147.820000
474.982178	147.640000
475.075867	147.940000
475.169586	147.680000
475.263275	147.200000
475.356995	147.400000
475.450653	147.020000
475.544403	146.520000
475.638062	147.120000
475.731812	146.500000
475.825470	145.940000
475.919189	146.360000
476.012878	146.720000
476.106598	145.840000
476.200256	146.440000
476.294006	146.640000
476.387695	146.520000
476.481384	146.340000
476.575104	146.640000
476.668793	146.060000
476.762512	145.600000
476.856201	146.040000
476.949890	145.740000
477.043610	145.460000
477.137299	145.840000
477.230988	146.500000
477.324707	145.920000
477.418396	146.440000
477.512146	146.520000
477.605804	146.400000
477.699524	146.340000
477.793213	146.360000
477.886932	145.980000
477.980591	146.220000
478.074341	146.220000
478.167999	145.680000
478.261749	145.860000
478.355408	146.040000
478.449127	146.340000
478.542816	147.120000
478.636536	147.880000
478.730225	148.000000
478.823944	148.200000
478.917633	147.940000
479.011322	147.700000
479.105042	147.340000
479.198730	147.340000
479.292450	147.200000
479.386139	147.240000
479.479828	146.960000
479.573547	147.500000
479.667267	146.760000
479.760925	146.940000
479.854675	146.940000
479.948334	147.080000
480.042084	146.240000
480.135742	146.980000
480.229462	146.340000
480.323151	146.380000
480.416870	146.000000
480.510529	146.380000
480.604279	145.700000
480.697937	146.580000
480.791656	146.320000
480.885345	146.220000
480.979065	146.100000
481.072754	146.700000
481.166473	146.460000
481.260132	146.580000
481.353882	146.720000
481.447540	146.520000
481.541260	146.380000
481.635010	146.000000
481.728668	145.540000
481.822388	145.440000
481.916077	145.460000
482.009796	145.340000
482.103485	145.480000
482.197205	145.760000
482.290863	145.880000
482.384613	145.980000
482.478271	145.780000
482.571991	145.660000
482.665680	145.860000
482.759399	146.600000
482.853058	146.980000
482.946808	147.160000
483.040466	147.100000
483.134216	146.980000
483.227875	146.380000
483.321594	146.800000
483.415283	146.880000
483.509003	146.960000
483.602661	146.700000
483.696411	146.840000
483.790070	146.260000
483.883789	146.220000
483.977478	146.540000
484.071198	146.720000
484.164917	146.240000
484.258606	145.880000
484.352325	146.360000
484.445984	146.320000
484.539734	146.340000
484.633392	146.200000
484.727142	146.820000
484.820801	146.120000
484.914520	146.060000
485.008209	145.960000
485.101929	146.380000
485.195587	145.740000
485.289337	145.780000
485.382996	145.820000
485.476715	146.480000
485.570404	146.860000
485.664124	147.100000
485.757782	147.880000
485.851532	147.460000
485.945190	146.940000
486.038910	146.960000
486.132599	147.080000
486.226318	146.240000
486.319977	146.660000
486.413727	147.140000
486.507446	146.500000
486.601105	146.280000
486.694855	146.400000
486.788513	145.980000
486.882233	145.800000
486.975922	145.840000
487.069641	145.780000
487.163300	145.920000
487.257050	147.120000
487.350708	146.640000
487.444427	146.480000
487.538116	146.580000
487.631836	146.340000
487.725494	145.600000
487.819214	145.860000
487.912903	146.040000
488.006622	146.500000
488.100281	146.740000
488.194031	146.840000
488.287689	147.400000
488.381409	148.180000
488.475098	147.600000
488.568817	147.680000
488.662476	147.280000
488.756226	146.200000
488.849945	145.040000
488.943604	145.460000
489.037354	145.500000
489.131012	145.700000
489.224731	145.740000
489.318390	146.080000
489.412140	145.820000
489.505798	145.820000
489.599518	145.200000
489.693207	145.780000
489.786926	145.920000
489.880585	145.720000
489.974335	146.000000
490.067993	147.360000
490.161713	147.620000
490.255371	148.500000
490.349121	148.840000
490.442780	148.280000
490.536499	147.260000
490.630188	147.200000
490.723907	145.920000
490.817566	145.960000
490.911285	146.040000
491.004974	146.200000
491.098694	145.660000
491.192413	146.640000
491.286102	146.540000
491.379822	146.800000
491.473480	147.080000
491.567200	147.260000
491.660889	146.660000
491.754608	146.420000
491.848267	146.180000
491.941986	146.200000
492.035675	146.100000
492.129395	146.800000
492.223053	146.500000
492.316772	146.920000
492.410461	146.720000
492.504181	146.740000
492.597839	146.080000
492.691559	146.680000
492.785248	146.680000
492.878967	146.640000
492.972626	146.400000
493.066345	146.480000
493.160034	145.960000
493.253754	145.640000
493.347412	145.540000
493.441132	145.980000
493.534882	146.540000
493.628540	147.140000
493.722260	147.260000
493.815918	147.460000
493.909668	147.840000
494.003326	147.780000
494.097046	147.600000
494.190704	147.440000
494.284454	147.540000
494.378113	147.440000
494.471832	147.140000
494.565491	147.020000
494.659210	147.320000
494.752899	147.080000
494.846619	146.640000
494.940277	146.880000
495.033997	146.680000
495.127686	146.420000
495.221405	146.380000
495.315063	146.640000
495.408783	146.440000
495.502441	146.800000
495.596191	146.840000
495.689850	146.620000
495.783569	146.780000
495.877228	147.000000
495.970947	146.760000
496.064697	146.520000
496.158356	147.580000
496.252075	147.300000
496.345734	146.720000
496.439453	147.680000
496.533142	147.580000
496.626862	147.480000
496.720520	147.780000
496.814240	147.920000
496.907898	147.400000
497.001617	147.760000
497.095306	146.820000
497.189026	146.620000
497.282684	146.880000
497.376404	146.860000
497.470062	146.300000
497.563782	146.640000
497.657471	146.600000
497.751190	146.360000
497.844849	146.020000
497.938568	146.540000
498.032227	146.520000
498.125946	146.360000
498.219635	146.060000
498.313354	146.220000
498.407074	146.100000
498.500732	146.160000
498.594452	146.600000
498.688110	146.500000
498.781830	145.800000
498.875519	145.640000
498.969238	145.600000
499.062897	145.000000
499.156616	145.720000
499.250275	146.460000
499.343994	146.300000
499.437653	146.380000
499.531372	146.860000
499.625061	147.000000
499.718781	146.860000
499.812439	147.360000
499.906158	147.180000
499.999817	146.820000
500.093536	146.300000
500.187195	146.380000
500.280914	146.200000
500.374573	146.420000
500.468323	146.300000
500.561981	146.760000
500.655701	146.400000
500.749420	146.500000
500.843079	146.620000
500.936798	147.060000
501.030457	147.140000
501.124176	147.560000
501.217834	147.440000
501.311554	147.080000
501.405212	146.600000
501.498962	145.880000
501.592621	145.480000
501.686340	145.860000
501.779999	145.880000
501.873718	146.240000
501.967377	146.500000
502.061096	146.880000
502.154755	145.980000
502.248474	146.200000
502.342133	146.240000
502.435852	146.320000
502.529510	146.900000
502.623230	148.040000
502.716888	147.320000
502.810608	147.500000
502.904266	148.060000
502.997986	147.180000
503.091705	146.340000
503.185364	146.880000
503.279083	146.500000
503.372772	145.660000
503.466492	145.360000
503.560150	145.560000
503.653870	145.660000
503.747528	145.960000
503.841248	145.980000
503.934906	146.660000
504.028625	146.580000
504.122284	146.560000
504.216003	146.800000
504.309662	146.680000
504.403381	146.500000
504.497040	146.360000
504.590759	146.260000
504.684418	146.240000
504.778137	146.960000
504.871796	147.540000
504.965515	147.500000
505.059174	147.540000
505.152893	146.760000
505.246521	146.120000
505.340240	145.540000
505.433899	146.160000
505.527618	146.340000
505.621338	146.740000
505.714996	147.000000
505.808716	146.940000
505.902374	147.060000
505.996094	147.240000
506.089752	147.020000
506.183472	146.980000
506.277130	147.300000
506.370850	147.140000
506.464508	146.640000
506.558228	146.880000
506.651886	146.420000
506.745605	146.240000
506.839264	146.180000
506.932983	146.180000
507.026611	146.140000
507.120331	146.940000
507.213989	146.480000
507.307709	146.380000
507.401367	146.840000
507.495087	147.540000
507.588745	146.760000
507.682465	147.860000
507.776123	147.780000
507.869843	147.300000
507.963531	147.020000
508.057190	147.640000
508.150909	146.620000
508.244568	146.780000
508.338287	146.540000
508.431946	145.800000
508.525665	145.500000
508.619324	145.460000
508.713013	145.340000
508.806671	146.120000
508.900391	147.240000
508.994049	147.400000
509.087769	147.620000
509.181427	147.460000
509.275146	147.180000
509.368774	146.520000
509.462494	146.360000
509.556152	146.460000
509.649872	146.880000
509.743530	146.740000
509.837250	146.820000
509.930878	147.040000
510.024597	146.960000
510.118256	146.700000
510.211975	146.660000
510.305695	146.180000
510.399353	146.240000
510.493042	146.460000
510.586700	146.320000
510.680420	146.920000
510.774078	146.920000
510.867798	146.880000
510.961426	146.460000
511.055145	146.740000
511.148804	146.160000
511.242523	146.620000
511.336151	146.620000
511.429871	146.700000
511.523529	146.420000
511.617249	146.120000
511.710876	145.820000
511.804596	145.340000
511.898254	145.460000
511.991974	145.940000
512.085632	145.880000
512.179321	146.180000
512.272949	146.600000
512.366699	146.980000
512.460327	146.660000
512.554077	147.660000
512.647766	147.280000
512.741394	147.200000
512.835144	147.340000
512.928772	147.380000
513.022461	147.180000
513.116150	147.000000
513.209839	147.580000
513.303467	147.200000
513.397217	146.820000
513.490845	146.300000
513.584595	146.680000
513.678223	145.700000
513.771912	145.060000
513.865601	145.580000
513.959290	145.620000
514.052917	145.540000
514.146667	146.620000
514.240295	147.400000
514.333984	147.360000
514.427673	147.220000
514.521362	147.600000
514.614990	146.620000
514.708740	146.600000
514.802368	146.600000
514.896057	146.740000
514.989746	147.260000
515.083435	147.580000
515.177124	147.520000
515.270752	147.480000
515.364502	147.580000
515.458130	147.280000
515.551819	147.220000
515.645508	146.880000
515.739197	146.500000
515.832825	146.660000
515.926575	146.240000
516.020203	146.340000
516.113892	146.860000
516.207520	147.020000
516.301270	146.860000
516.394897	146.780000
516.488586	147.180000
516.582275	146.920000
516.675964	146.680000
516.769592	146.420000
516.863281	147.080000
516.956970	147.440000
517.050659	146.980000
517.144287	147.080000
517.238037	147.520000
517.331665	146.720000
517.425354	145.840000
517.519043	146.100000
517.612732	146.540000
517.706421	146.140000
517.800049	145.900000
517.893738	145.640000
517.987427	145.580000
518.081116	145.340000
518.174744	145.200000
518.268433	145.700000
518.362122	146.640000
518.455811	146.720000
518.549438	146.920000
518.643127	147.820000
518.736816	147.440000
518.830505	146.680000
518.924133	146.760000
519.017822	146.960000
519.111511	146.500000
519.205200	147.220000
519.298828	147.260000
519.392517	147.060000
519.486206	147.020000
519.579895	147.020000
519.673523	146.500000
519.767212	146.560000
519.860901	147.360000
519.954590	146.640000
520.048279	146.400000
520.141907	146.420000
520.235596	147.460000
520.329224	147.320000
520.422974	147.540000
520.516602	147.380000
520.610291	147.300000
520.703918	146.420000
520.797607	145.840000
520.891296	145.800000
520.984985	146.280000
521.078613	146.640000
521.172302	146.520000
521.265930	147.320000
521.359680	147.960000
521.453308	147.700000
521.546997	147.500000
521.640625	147.600000
521.734314	147.120000
521.827942	146.900000
521.921692	147.060000
522.015320	147.180000
522.109009	146.820000
522.202698	146.780000
522.296326	146.680000
522.390015	147.000000
522.483704	147.000000
522.577393	147.180000
522.671021	146.820000
522.764709	146.240000
522.858337	146.600000
522.952026	146.340000
523.045654	146.660000
523.139404	147.480000
523.233032	148.060000
523.326721	147.280000
523.420349	147.600000
523.514038	147.240000
523.607666	146.880000
523.701355	146.640000
523.795044	146.500000
523.888733	146.700000
523.982361	147.160000
524.076050	147.020000
524.169678	147.460000
524.263367	147.480000
524.356995	147.080000
524.450684	146.600000
524.544373	146.380000
524.638062	146.300000
524.731750	146.520000
524.825378	146.520000
524.919067	146.120000
525.012695	146.200000
525.106384	145.380000
525.200012	145.340000
525.293701	145.060000
525.387329	145.800000
525.481018	145.740000
525.574646	146.580000
525.668396	146.620000
525.762024	147.080000
525.855713	147.120000
525.949341	147.080000
526.043030	147.140000
526.136658	146.720000
526.230347	146.500000
526.323975	146.060000
526.417664	146.140000
526.511292	146.200000
526.604980	146.680000
526.698608	146.360000
526.792297	146.700000
526.885925	146.820000
526.979614	146.380000
527.073303	146.160000
527.166931	146.300000
527.260620	146.400000
527.354309	146.940000
527.447998	147.200000
527.541626	147.040000
527.635315	147.500000
527.728943	147.600000
527.822632	147.340000
527.916260	147.120000
528.009949	147.340000
528.103577	146.840000
528.197266	146.280000
528.290894	145.920000
528.384583	145.860000
528.478210	146.140000
528.571899	146.500000
528.665527	146.940000
528.759216	147.540000
528.852844	147.880000
528.946533	147.580000
529.040161	147.220000
529.133850	146.680000
529.227478	146.460000
529.321167	146.660000
529.414856	146.980000
529.508484	147.760000
529.602173	147.540000
529.695801	147.020000
529.789490	146.720000
529.883057	146.580000
529.976746	146.540000
530.070374	147.200000
530.164062	147.620000
530.257690	147.940000
530.351379	147.960000
530.445007	147.540000
530.538696	147.040000
530.632324	147.200000
530.726013	147.160000
530.819641	147.240000
530.913330	147.240000
531.006958	147.360000
531.100647	147.540000
531.194275	147.420000
531.287964	147.000000
531.381592	146.920000
531.475220	147.200000
531.568848	146.620000
531.662537	146.300000
531.756226	146.920000
531.849854	147.180000
531.943542	147.200000
532.037170	146.960000
532.130859	147.460000
532.224487	146.960000
532.318176	146.240000
532.411804	146.640000
532.505432	146.880000
532.599060	146.200000
532.692749	146.280000
532.786377	146.920000
532.880066	146.020000
532.973694	145.780000
533.067383	146.040000
533.161011	145.820000
533.254639	145.700000
533.348267	145.740000
533.441956	146.080000
533.535583	145.840000
533.629272	145.980000
533.722900	145.480000
533.816589	146.100000
533.910156	146.420000
534.003845	146.180000
534.097534	146.440000
534.191162	147.120000
534.284851	147.180000
534.378479	146.780000
534.472107	147.220000
534.565735	147.020000
534.659424	147.140000
534.753052	147.280000
534.846741	146.980000
534.940369	147.540000
535.033997	147.500000
535.127625	147.340000
535.221313	147.180000
535.314941	147.300000
535.408630	146.560000
535.502197	146.800000
535.595886	146.580000
535.689514	146.400000
535.783203	147.100000
535.876831	147.520000
535.970459	147.500000
536.064087	147.380000
536.157776	147.280000
536.251404	146.760000
536.345093	146.380000
536.438721	146.200000
536.532349	146.300000
536.626038	146.440000
536.719666	146.860000
536.813293	146.820000
536.906921	147.100000
537.000610	147.260000
537.094238	147.040000
537.187866	146.620000
537.281494	146.700000
537.375183	146.640000
537.468811	146.420000
537.562439	146.560000
537.656067	146.600000
537.749756	146.660000
537.843384	147.080000
537.937012	147.380000
538.030640	147.420000
538.124329	147.460000
538.217896	147.620000
538.311584	147.400000
538.405212	147.120000
538.498901	147.340000
538.592468	147.700000
538.686157	147.320000
538.779785	146.560000
538.873413	146.820000
538.967102	146.380000
539.060730	145.720000
539.154358	146.280000
539.247986	146.960000
539.341675	146.860000
539.435242	146.620000
539.528931	146.980000
539.622559	146.200000
539.716187	146.600000
539.809814	146.280000
539.903503	146.540000
539.997070	146.540000
540.090759	146.920000
540.184387	146.400000
540.278015	146.980000
540.371643	147.380000
540.465332	147.280000
540.558899	147.180000
540.652588	146.940000
540.746216	146.840000
540.839844	146.820000
540.933472	147.120000
541.027100	147.180000
541.120728	147.560000
541.214417	147.480000
541.308044	147.640000
541.401672	147.200000
541.495300	147.020000
541.588928	146.500000
541.682617	146.440000
541.776184	145.900000
541.869873	146.320000
541.963440	146.580000
542.057129	146.500000
542.150757	146.440000
542.244385	146.540000
542.338013	145.640000
542.431641	145.580000
542.525269	145.900000
542.618958	146.040000
542.712524	146.180000
542.806213	146.660000
542.899780	146.980000
542.993469	146.640000
543.087036	146.560000
543.180725	146.040000
543.274292	146.340000
543.367981	146.460000
543.461548	147.180000
543.555237	147.040000
543.648926	147.680000
543.742493	148.100000
543.836182	148.000000
543.929749	147.680000
544.023437	147.800000
544.117004	147.480000
544.210693	147.180000
544.304260	147.060000
544.397949	146.960000
544.491516	147.460000
544.585205	147.540000
544.678772	147.080000
544.772461	147.460000
544.866028	147.420000
544.959717	147.100000
545.053284	146.640000
545.146973	147.180000
545.240540	146.960000
545.334229	147.760000
545.427795	147.880000
545.521423	148.320000
545.615051	147.980000
545.708679	148.020000
545.802307	147.280000
545.895935	147.300000
545.989624	147.900000
546.083191	147.900000
546.176880	147.720000
546.270447	147.400000
546.364136	147.540000
546.457703	147.100000
546.551331	147.220000
546.644958	147.360000
546.738586	147.760000
546.832214	147.240000
546.925842	146.820000
547.019409	146.980000
547.113098	146.660000
547.206665	146.340000
547.300354	146.620000
547.393921	147.120000
547.487549	147.360000
547.581177	147.220000
547.674805	147.320000
547.768433	146.620000
547.862061	146.620000
547.955627	145.660000
548.049316	146.460000
548.142883	146.700000
548.236572	147.420000
548.330139	147.640000
548.423767	147.920000
548.517456	147.300000
548.611023	147.660000
548.704651	146.840000
548.798279	146.760000
548.891907	147.460000
548.985474	147.580000
549.079163	147.580000
549.172729	147.960000
549.266357	147.460000
549.359985	146.860000
549.453613	146.280000
549.547180	145.960000
549.640869	146.260000
549.734436	146.420000
549.828064	147.000000
549.921631	147.160000
550.015320	146.880000
550.108887	147.540000
550.202515	147.320000
550.296143	146.740000
550.389771	146.940000
550.483337	146.900000
550.576965	146.140000
550.670593	146.880000
550.764221	146.800000
550.857849	146.880000
550.951477	146.700000
551.045105	146.460000
551.138672	146.300000
551.232300	146.180000
551.325928	146.100000
551.419556	146.600000
551.513123	146.600000
551.606750	146.100000
551.700378	146.380000
551.794006	146.680000
551.887573	146.240000
551.981201	147.100000
552.074768	147.140000
552.168457	146.900000
552.262024	147.440000
552.355652	147.720000
552.449219	147.760000
552.542847	147.940000
552.636475	148.040000
552.730103	147.200000
552.823669	147.060000
552.917297	146.540000
553.010864	146.180000
553.104553	146.280000
553.198181	146.100000
553.291748	146.600000
553.385376	146.680000
553.478943	146.860000
553.572571	146.820000
553.666199	147.280000
553.759827	146.820000
553.853394	146.420000
553.947021	146.400000
554.040588	146.780000
554.134216	146.600000
554.227783	147.100000
554.321411	147.520000
554.415039	147.220000
554.508667	146.760000
554.602234	147.240000
554.695862	146.620000
554.789429	146.500000
554.883057	147.120000
554.976624	147.000000
555.070251	146.540000
555.163818	146.640000
555.257507	146.480000
555.351074	146.080000
555.444702	147.320000
555.538330	147.180000
555.631897	147.460000
555.725525	147.660000
555.819092	147.620000
555.912720	146.480000
556.006287	147.060000
556.099915	146.920000
556.193481	146.800000
556.287109	147.160000
556.380676	147.240000
556.474304	146.940000
556.567871	147.200000
556.661499	146.700000
556.755066	146.620000
556.848694	146.740000
556.942261	146.480000
557.035889	146.480000
557.129517	147.020000
557.223145	147.360000
557.316711	147.260000
557.410339	147.580000
557.503906	147.480000
557.597473	147.780000
557.691040	147.620000
557.784668	147.580000
557.878296	147.620000
557.971863	147.720000
558.065491	147.780000
558.159058	147.180000
558.252686	148.060000
558.346252	148.600000
558.439880	148.140000
558.533447	147.760000
558.627075	147.720000
558.720642	147.020000
558.814270	146.480000
558.907837	146.500000
559.001465	146.080000
559.095032	147.200000
559.188660	147.120000
559.282227	146.460000
559.375854	147.220000
559.469360	147.200000
559.562988	146.880000
559.656555	146.860000
559.750183	147.460000
559.843750	147.040000
559.937378	147.280000
560.030945	146.920000
560.124573	0.000000
560.218140	0.000000
560.311707	0.000000
560.405334	0.000000
560.498901	0.000000
560.592529	0.000000
560.686096	0.000000
560.779724	0.000000
560.873291	0.000000
560.966858	0.000000
561.060425	0.000000
561.154053	0.000000
561.247620	0.000000
561.341248	0.000000
561.434814	0.000000
561.528381	0.000000
561.621948	0.000000
561.715576	0.000000
561.809143	0.000000
561.902771	0.000000
561.996277	0.000000
562.089905	0.000000
562.183472	0.000000
562.277100	0.000000
