Model Number: SPM-002-B   
Serial Number: 70087108
Firmware Version: 004.15.4
Exposure Time: 100000.000000us
Data Taken on: 11-12-2020 18:53:57.206
Wavelength	Amplitude
221.570786	0.000000
221.663406	0.000000
221.756027	0.000000
221.848648	0.000000
221.941269	0.000000
222.033905	0.000000
222.126526	0.000000
222.219162	0.000000
222.311798	0.000000
222.404419	0.000000
222.497055	0.000000
222.589676	0.000000
222.682312	0.000000
222.774933	0.000000
222.867569	0.000000
222.960205	0.000000
223.052841	0.000000
223.145462	0.000000
223.238098	0.000000
223.330734	0.000000
223.423386	0.000000
223.516022	0.000000
223.608658	0.000000
223.701309	0.000000
223.793945	0.000000
223.886581	0.000000
223.979218	0.000000
224.071869	0.000000
224.164505	0.000000
224.257156	0.000000
224.349792	0.000000
224.442444	0.000000
224.535095	0.000000
224.627747	0.000000
224.720398	0.000000
224.813034	0.000000
224.905685	0.000000
224.998337	145.540000
225.090988	145.140000
225.183640	145.020000
225.276291	144.860000
225.368942	145.400000
225.461594	145.760000
225.554245	146.040000
225.646912	145.960000
225.739578	146.480000
225.832230	146.680000
225.924896	145.800000
226.017548	146.180000
226.110199	146.660000
226.202866	145.940000
226.295532	145.940000
226.388184	146.220000
226.480850	145.440000
226.573517	144.940000
226.666168	145.180000
226.758835	145.480000
226.851501	146.000000
226.944183	146.360000
227.036850	146.140000
227.129517	146.220000
227.222183	145.820000
227.314850	145.840000
227.407516	146.260000
227.500198	146.840000
227.592865	146.400000
227.685532	146.160000
227.778214	145.880000
227.870880	145.960000
227.963562	146.300000
228.056229	146.820000
228.148926	146.760000
228.241592	147.520000
228.334274	147.000000
228.426956	146.480000
228.519638	146.580000
228.612305	146.500000
228.704987	146.280000
228.797668	146.460000
228.890350	146.460000
228.983032	145.840000
229.075714	146.340000
229.168396	146.020000
229.261108	145.360000
229.353790	145.340000
229.446472	145.520000
229.539169	145.220000
229.631851	144.960000
229.724533	145.680000
229.817230	145.760000
229.909912	146.860000
230.002609	147.120000
230.095306	147.060000
230.187988	146.800000
230.280685	146.880000
230.373383	145.680000
230.466095	145.440000
230.558792	145.960000
230.651474	146.000000
230.744171	146.000000
230.836868	146.080000
230.929581	146.520000
231.022278	146.460000
231.114975	146.420000
231.207672	146.040000
231.300369	146.260000
231.393082	146.240000
231.485779	146.040000
231.578506	145.800000
231.671204	145.840000
231.763916	145.960000
231.856613	145.660000
231.949326	145.600000
232.042023	145.720000
232.134735	146.000000
232.227448	145.480000
232.320160	145.640000
232.412872	145.660000
232.505585	146.420000
232.598297	146.680000
232.691010	146.860000
232.783722	146.420000
232.876450	146.880000
232.969162	146.520000
233.061874	145.880000
233.154587	145.660000
233.247314	145.840000
233.340027	145.180000
233.432739	145.420000
233.525467	145.420000
233.618179	145.840000
233.710907	145.740000
233.803635	146.080000
233.896347	145.720000
233.989090	146.380000
234.081818	146.260000
234.174545	146.520000
234.267258	146.020000
234.359985	146.180000
234.452713	145.840000
234.545441	145.680000
234.638168	145.560000
234.730896	146.160000
234.823639	145.820000
234.916367	146.180000
235.009094	146.140000
235.101822	146.400000
235.194580	146.360000
235.287308	146.520000
235.380051	145.940000
235.472778	146.320000
235.565521	146.180000
235.658249	145.560000
235.750992	145.700000
235.843719	145.680000
235.936462	145.780000
236.029205	145.440000
236.121948	145.420000
236.214691	145.580000
236.307449	146.240000
236.400192	146.060000
236.492935	146.020000
236.585678	146.400000
236.678421	146.520000
236.771164	146.140000
236.863907	146.360000
236.956665	146.640000
237.049408	148.260000
237.142151	147.580000
237.234909	148.320000
237.327652	148.160000
237.420410	148.000000
237.513153	146.900000
237.605927	146.800000
237.698669	146.200000
237.791428	145.900000
237.884186	146.180000
237.976944	145.580000
238.069702	146.240000
238.162445	145.820000
238.255203	145.760000
238.347961	145.860000
238.440720	146.000000
238.533478	145.960000
238.626266	145.840000
238.719025	146.280000
238.811783	146.340000
238.904541	146.240000
238.997314	145.620000
239.090073	145.480000
239.182831	145.580000
239.275604	146.060000
239.368362	145.880000
239.461136	146.300000
239.553909	146.440000
239.646667	146.000000
239.739441	145.460000
239.832214	145.840000
239.925003	145.920000
240.017761	146.580000
240.110535	147.160000
240.203308	146.720000
240.296082	146.600000
240.388855	146.280000
240.481628	145.880000
240.574417	145.900000
240.667191	145.920000
240.759964	145.900000
240.852737	145.920000
240.945526	145.860000
241.038315	145.460000
241.131088	145.600000
241.223877	145.500000
241.316650	145.260000
241.409439	145.540000
241.502228	145.120000
241.595001	145.720000
241.687790	145.760000
241.780579	146.000000
241.873367	146.080000
241.966141	146.560000
242.058929	145.760000
242.151718	145.980000
242.244507	146.560000
242.337311	145.980000
242.430099	146.300000
242.522903	146.480000
242.615692	146.100000
242.708481	145.840000
242.801270	146.620000
242.894073	146.300000
242.986862	146.740000
243.079651	147.640000
243.172455	147.320000
243.265244	146.880000
243.358063	146.360000
243.450867	146.180000
243.543655	145.760000
243.636459	146.020000
243.729263	146.380000
243.822067	147.080000
243.914856	147.640000
244.007660	147.440000
244.100464	147.320000
244.193268	146.760000
244.286072	146.600000
244.378876	145.920000
244.471680	145.800000
244.564499	146.040000
244.657318	147.080000
244.750122	147.140000
244.842926	146.780000
244.935745	147.300000
245.028549	146.960000
245.121368	146.000000
245.214172	146.000000
245.306992	146.320000
245.399796	145.940000
245.492615	145.920000
245.585434	146.060000
245.678253	145.940000
245.771072	146.000000
245.863892	146.160000
245.956711	146.420000
246.049530	146.280000
246.142349	146.140000
246.235168	146.160000
246.327988	146.660000
246.420807	146.260000
246.513626	146.360000
246.606445	146.220000
246.699280	146.140000
246.792099	145.780000
246.884918	145.660000
246.977753	145.340000
247.070587	145.520000
247.163422	145.640000
247.256241	145.440000
247.349075	146.040000
247.441895	146.080000
247.534729	146.060000
247.627563	145.760000
247.720383	146.520000
247.813217	146.280000
247.906052	146.420000
247.998886	146.480000
248.091736	146.560000
248.184570	145.800000
248.277405	145.920000
248.370239	146.720000
248.463074	147.780000
248.555908	148.340000
248.648743	148.140000
248.741592	148.500000
248.834427	147.800000
248.927261	146.560000
249.020111	146.460000
249.112946	147.300000
249.205795	146.580000
249.298630	146.880000
249.391495	147.000000
249.484344	146.620000
249.577179	146.160000
249.670029	146.340000
249.762878	146.440000
249.855728	146.720000
249.948563	147.000000
250.041412	146.600000
250.134262	147.160000
250.227112	147.520000
250.319962	147.420000
250.412827	147.340000
250.505692	147.200000
250.598541	146.980000
250.691391	146.220000
250.784241	146.080000
250.877106	146.140000
250.969955	146.100000
251.062805	146.560000
251.155670	147.320000
251.248520	147.300000
251.341385	147.440000
251.434235	147.500000
251.527100	146.820000
251.619965	146.160000
251.712814	146.720000
251.805695	146.520000
251.898560	146.460000
251.991425	146.600000
252.084290	146.560000
252.177155	145.700000
252.270020	145.260000
252.362885	145.380000
252.455750	145.340000
252.548615	144.920000
252.641479	145.060000
252.734360	145.180000
252.827240	145.060000
252.920105	145.140000
253.012970	145.720000
253.105850	145.740000
253.198715	145.580000
253.291595	146.020000
253.384460	145.380000
253.477341	145.100000
253.570221	145.620000
253.663086	145.620000
253.755966	145.920000
253.848846	146.100000
253.941727	146.280000
254.034592	145.800000
254.127472	145.460000
254.220367	145.260000
254.313248	145.460000
254.406128	145.160000
254.499008	145.380000
254.591904	146.360000
254.684784	146.620000
254.777664	146.720000
254.870544	146.660000
254.963440	146.440000
255.056335	146.280000
255.149216	145.680000
255.242111	145.960000
255.334991	146.440000
255.427887	146.820000
255.520767	146.800000
255.613663	147.300000
255.706558	146.860000
255.799438	146.320000
255.892334	145.860000
255.985229	145.720000
256.078125	145.460000
256.171021	145.400000
256.263916	146.020000
256.356812	146.360000
256.449707	146.460000
256.542603	146.320000
256.635498	147.040000
256.728394	146.640000
256.821289	146.180000
256.914215	146.500000
257.007080	146.900000
257.100006	146.620000
257.192932	146.860000
257.285828	147.240000
257.378723	147.000000
257.471619	146.800000
257.564545	146.520000
257.657440	146.520000
257.750336	146.860000
257.843262	146.260000
257.936157	146.820000
258.029053	147.040000
258.121979	147.340000
258.214874	146.840000
258.307800	147.080000
258.400696	146.300000
258.493622	146.100000
258.586517	145.160000
258.679443	145.400000
258.772339	145.200000
258.865265	145.060000
258.958160	144.580000
259.051086	145.660000
259.144012	145.700000
259.236938	146.560000
259.329834	146.920000
259.422791	147.020000
259.515717	146.280000
259.608612	145.960000
259.701538	145.580000
259.794464	145.380000
259.887390	145.680000
259.980316	145.760000
260.073212	145.520000
260.166138	144.660000
260.259064	145.080000
260.351990	145.400000
260.444916	145.380000
260.537842	146.100000
260.630768	146.960000
260.723694	146.660000
260.816620	146.420000
260.909546	146.560000
261.002472	145.980000
261.095398	145.660000
261.188354	145.740000
261.281281	145.560000
261.374207	145.740000
261.467133	146.680000
261.560089	146.660000
261.653015	146.240000
261.745972	146.900000
261.838867	147.100000
261.931824	146.780000
262.024780	146.580000
262.117706	146.960000
262.210663	146.940000
262.303589	146.680000
262.396515	146.620000
262.489471	147.740000
262.582397	147.560000
262.675354	146.780000
262.768280	146.760000
262.861237	146.640000
262.954163	146.000000
263.047119	146.280000
263.140045	146.520000
263.233002	146.560000
263.325958	146.660000
263.418884	146.320000
263.511841	146.260000
263.604797	146.200000
263.697723	145.980000
263.790680	145.660000
263.883636	146.280000
263.976593	145.960000
264.069550	146.320000
264.162476	146.180000
264.255463	146.440000
264.348419	145.800000
264.441376	146.220000
264.534332	145.740000
264.627289	145.860000
264.720245	146.280000
264.813202	146.040000
264.906158	146.020000
264.999115	146.520000
265.092072	146.740000
265.185028	146.980000
265.277985	147.500000
265.370941	147.280000
265.463898	146.960000
265.556854	146.720000
265.649811	145.540000
265.742798	145.480000
265.835754	145.520000
265.928711	145.680000
266.021667	145.740000
266.114655	146.280000
266.207611	146.500000
266.300568	145.900000
266.393585	145.560000
266.486511	145.820000
266.579498	145.140000
266.672485	144.960000
266.765442	145.220000
266.858429	145.860000
266.951385	145.420000
267.044342	145.780000
267.137329	145.840000
267.230316	145.960000
267.323273	145.240000
267.416260	146.000000
267.509216	145.880000
267.602203	145.540000
267.695160	146.080000
267.788147	146.220000
267.881134	145.340000
267.974091	145.680000
268.067078	145.860000
268.160065	145.480000
268.253052	145.420000
268.346008	145.800000
268.438995	145.660000
268.531982	145.680000
268.624969	145.560000
268.717987	145.920000
268.810944	145.920000
268.903961	145.960000
268.996948	145.700000
269.089905	146.200000
269.182892	146.140000
269.275879	146.340000
269.368866	145.940000
269.461853	146.300000
269.554871	145.900000
269.647858	145.860000
269.740845	145.780000
269.833832	146.520000
269.926819	146.360000
270.019806	146.540000
270.112793	146.240000
270.205811	146.320000
270.298798	145.900000
270.391785	146.520000
270.484772	146.200000
270.577789	146.480000
270.670776	146.040000
270.763763	145.840000
270.856750	145.540000
270.949768	145.440000
271.042786	145.440000
271.135773	145.440000
271.228790	146.080000
271.321808	145.680000
271.414795	145.580000
271.507782	145.440000
271.600800	145.360000
271.693817	145.120000
271.786804	145.500000
271.879822	145.860000
271.972809	145.840000
272.065826	146.380000
272.158844	145.940000
272.251831	146.420000
272.344849	146.460000
272.437866	146.020000
272.530853	146.280000
272.623871	146.500000
272.716888	145.600000
272.809906	145.840000
272.902893	146.280000
272.995911	145.620000
273.088928	145.680000
273.181946	146.020000
273.274963	145.520000
273.367981	145.420000
273.460999	145.700000
273.554047	145.960000
273.647003	146.320000
273.740051	146.420000
273.833069	146.920000
273.926086	146.920000
274.019135	146.460000
274.112152	145.840000
274.205170	146.000000
274.298187	145.940000
274.391205	145.280000
274.484222	145.260000
274.577240	145.300000
274.670258	145.020000
274.763306	144.720000
274.856323	145.500000
274.949341	145.720000
275.042358	146.280000
275.135406	146.400000
275.228424	146.280000
275.321442	146.200000
275.414490	146.040000
275.507507	145.980000
275.600525	146.520000
275.693573	146.420000
275.786591	145.920000
275.879669	146.000000
275.972656	145.740000
276.065735	145.360000
276.158752	146.240000
276.251801	147.080000
276.344818	147.240000
276.437866	147.280000
276.530884	146.780000
276.623932	145.760000
276.716980	145.760000
276.809998	145.560000
276.903046	145.640000
276.996094	146.920000
277.089111	147.740000
277.182159	147.880000
277.275208	147.620000
277.368256	147.480000
277.461304	146.540000
277.554321	145.660000
277.647369	145.240000
277.740417	145.660000
277.833466	145.520000
277.926514	145.520000
278.019562	146.360000
278.112610	145.980000
278.205688	146.080000
278.298706	146.080000
278.391785	145.940000
278.484833	145.420000
278.577881	145.220000
278.670929	145.240000
278.763977	145.320000
278.857025	145.880000
278.950073	145.900000
279.043121	146.020000
279.136169	146.040000
279.229248	145.840000
279.322296	145.760000
279.415344	145.620000
279.508392	145.780000
279.601440	145.440000
279.694519	145.500000
279.787567	145.240000
279.880615	145.300000
279.973694	144.880000
280.066742	145.160000
280.159790	145.480000
280.252869	145.200000
280.345917	145.460000
280.438995	145.760000
280.532074	145.480000
280.625122	145.680000
280.718201	146.420000
280.811279	146.440000
280.904327	146.360000
280.997406	146.520000
281.090454	146.420000
281.183533	145.800000
281.276581	145.520000
281.369659	145.260000
281.462738	145.400000
281.555786	145.440000
281.648865	145.840000
281.741943	145.880000
281.835022	146.880000
281.928070	146.580000
282.021149	146.300000
282.114227	146.140000
282.207306	146.340000
282.300385	146.220000
282.393433	146.500000
282.486511	146.260000
282.579590	146.780000
282.672668	146.880000
282.765747	146.420000
282.858856	146.220000
282.951904	146.660000
283.045013	146.420000
283.138062	146.600000
283.231171	146.900000
283.324249	147.260000
283.417328	147.240000
283.510406	146.740000
283.603485	146.420000
283.696564	146.160000
283.789642	146.000000
283.882751	145.720000
283.975830	146.600000
284.068909	146.500000
284.161987	147.160000
284.255066	146.840000
284.348175	147.100000
284.441254	146.660000
284.534332	147.060000
284.627441	146.520000
284.720520	146.520000
284.813599	146.380000
284.906708	146.380000
284.999786	145.600000
285.092896	145.220000
285.185974	146.460000
285.279053	146.160000
285.372192	146.260000
285.465240	147.320000
285.558380	147.460000
285.651459	146.780000
285.744568	147.820000
285.837677	147.160000
285.930756	146.900000
286.023865	146.940000
286.116943	146.280000
286.210052	145.980000
286.303162	146.240000
286.396240	146.140000
286.489349	146.120000
286.582458	146.600000
286.675568	146.320000
286.768646	146.560000
286.861755	146.640000
286.954865	147.420000
287.047974	147.140000
287.141083	146.940000
287.234161	146.520000
287.327271	146.400000
287.420380	146.460000
287.513519	146.380000
287.606598	146.420000
287.699738	146.700000
287.792816	146.600000
287.885956	146.120000
287.979034	146.060000
288.072174	146.180000
288.165283	146.180000
288.258392	146.400000
288.351501	145.940000
288.444611	146.320000
288.537720	146.540000
288.630859	146.360000
288.723969	146.200000
288.817078	146.860000
288.910187	146.800000
289.003296	146.640000
289.096436	146.440000
289.189545	146.380000
289.282654	145.920000
289.375763	146.120000
289.468903	146.260000
289.562012	146.620000
289.655121	146.740000
289.748260	146.620000
289.841400	146.740000
289.934509	146.480000
290.027649	146.620000
290.120728	146.500000
290.213898	146.500000
290.306976	146.360000
290.400146	146.680000
290.493256	146.340000
290.586395	146.400000
290.679535	147.040000
290.772644	146.580000
290.865784	145.640000
290.958893	145.540000
291.052032	145.400000
291.145172	145.000000
291.238281	145.180000
291.331421	145.600000
291.424561	145.860000
291.517670	145.520000
291.610809	145.780000
291.703949	145.600000
291.797089	146.040000
291.890228	145.800000
291.983337	145.760000
292.076477	145.500000
292.169617	145.960000
292.262756	145.820000
292.355927	145.780000
292.449036	145.960000
292.542206	146.120000
292.635315	146.120000
292.728485	146.380000
292.821625	146.220000
292.914764	147.460000
293.007904	147.340000
293.101044	147.260000
293.194183	146.820000
293.287323	147.220000
293.380463	146.160000
293.473602	146.160000
293.566742	146.400000
293.659882	146.980000
293.753021	147.180000
293.846191	147.260000
293.939331	147.020000
294.032471	146.740000
294.125610	146.360000
294.218781	146.740000
294.311920	147.000000
294.405060	147.300000
294.498230	147.240000
294.591370	147.240000
294.684540	146.380000
294.777679	145.980000
294.870850	146.300000
294.963959	146.380000
295.057159	145.940000
295.150299	146.340000
295.243469	146.440000
295.336609	145.640000
295.429779	145.660000
295.522919	146.180000
295.616089	146.080000
295.709229	146.600000
295.802399	146.920000
295.895569	146.460000
295.988708	146.240000
296.081879	146.680000
296.175018	146.040000
296.268188	145.940000
296.361359	146.680000
296.454529	146.860000
296.547668	146.460000
296.640839	147.040000
296.734009	146.880000
296.827179	146.760000
296.920319	146.780000
297.013519	146.660000
297.106659	146.700000
297.199860	146.780000
297.292999	146.680000
297.386200	146.540000
297.479309	146.540000
297.572510	146.420000
297.665680	146.220000
297.758850	146.200000
297.852020	146.180000
297.945190	146.100000
298.038361	145.520000
298.131531	146.520000
298.224701	146.220000
298.317871	146.040000
298.411072	145.580000
298.504242	145.680000
298.597412	145.300000
298.690582	145.620000
298.783752	145.580000
298.876923	146.500000
298.970093	146.660000
299.063293	146.780000
299.156464	147.040000
299.249634	147.320000
299.342834	147.300000
299.436005	147.580000
299.529205	147.320000
299.622345	147.100000
299.715576	146.620000
299.808716	145.980000
299.901917	145.660000
299.995117	145.800000
300.088287	145.800000
300.181488	145.880000
300.274658	146.020000
300.367828	146.080000
300.461029	145.960000
300.554199	146.060000
300.647400	146.140000
300.740601	146.940000
300.833771	146.780000
300.926971	146.900000
301.020142	146.220000
301.113342	145.980000
301.206512	145.480000
301.299713	145.720000
301.392914	145.680000
301.486084	146.280000
301.579285	146.240000
301.672516	146.500000
301.765686	146.000000
301.858887	145.940000
301.952057	145.780000
302.045288	146.020000
302.138458	145.740000
302.231659	145.760000
302.324860	145.540000
302.418060	145.380000
302.511261	145.320000
302.604462	145.520000
302.697662	145.600000
302.790863	145.600000
302.884064	145.500000
302.977264	145.700000
303.070465	145.780000
303.163666	146.340000
303.256866	146.880000
303.350067	146.880000
303.443268	146.620000
303.536469	146.540000
303.629669	146.240000
303.722870	146.100000
303.816071	146.240000
303.909271	146.520000
304.002472	146.000000
304.095673	145.720000
304.188934	144.960000
304.282104	145.540000
304.375336	145.600000
304.468506	145.680000
304.561768	145.620000
304.654968	146.480000
304.748169	146.120000
304.841370	145.960000
304.934601	146.300000
305.027802	146.260000
305.121002	145.660000
305.214233	145.540000
305.307434	145.600000
305.400665	146.160000
305.493866	145.980000
305.587097	146.160000
305.680298	146.040000
305.773499	146.560000
305.866730	145.780000
305.959930	146.420000
306.053162	146.820000
306.146393	146.440000
306.239594	145.620000
306.332825	145.640000
306.426025	145.740000
306.519287	145.360000
306.612488	145.880000
306.705719	146.040000
306.798920	146.240000
306.892181	145.740000
306.985352	145.480000
307.078613	144.760000
307.171844	145.020000
307.265045	144.420000
307.358276	144.180000
307.451508	144.820000
307.544739	145.560000
307.637970	145.040000
307.731201	145.200000
307.824402	146.040000
307.917633	145.820000
308.010864	146.280000
308.104095	147.160000
308.197327	147.440000
308.290558	147.320000
308.383789	146.860000
308.477020	146.320000
308.570251	145.440000
308.663483	145.180000
308.756714	144.920000
308.849976	145.300000
308.943176	145.800000
309.036438	145.900000
309.129639	145.820000
309.222900	145.900000
309.316101	145.920000
309.409393	145.120000
309.502625	144.880000
309.595856	145.240000
309.689087	145.400000
309.782318	145.380000
309.875580	145.560000
309.968811	145.960000
310.062042	145.600000
310.155273	145.360000
310.248535	145.820000
310.341766	145.740000
310.434998	145.560000
310.528259	145.760000
310.621490	146.260000
310.714722	145.500000
310.807983	145.640000
310.901215	145.740000
310.994476	145.680000
311.087708	145.160000
311.181000	145.380000
311.274200	144.900000
311.367462	144.840000
311.460693	144.840000
311.553986	145.380000
311.647186	145.800000
311.740479	146.700000
311.833710	146.840000
311.926971	146.820000
312.020203	146.000000
312.113464	145.580000
312.206726	144.960000
312.299957	144.940000
312.393219	145.340000
312.486481	145.820000
312.579712	145.960000
312.672974	146.220000
312.766235	146.300000
312.859497	146.260000
312.952759	146.040000
313.045990	146.700000
313.139252	146.040000
313.232513	146.380000
313.325775	146.500000
313.419037	146.460000
313.512299	145.740000
313.605530	146.600000
313.698822	146.320000
313.792053	146.280000
313.885345	145.980000
313.978577	146.020000
314.071869	145.320000
314.165131	145.840000
314.258392	145.920000
314.351654	146.360000
314.444916	146.000000
314.538177	146.860000
314.631439	146.580000
314.724701	146.380000
314.817993	145.940000
314.911255	145.980000
315.004517	145.200000
315.097778	144.940000
315.191040	145.420000
315.284302	145.980000
315.377594	146.120000
315.470856	146.240000
315.564117	146.240000
315.657379	145.660000
315.750671	145.380000
315.843933	145.640000
315.937195	145.280000
316.030518	145.060000
316.123749	145.040000
316.217041	145.640000
316.310303	145.500000
316.403595	146.080000
316.496857	146.160000
316.590149	146.480000
316.683411	146.160000
316.776703	145.900000
316.869965	145.960000
316.963257	145.860000
317.056519	145.140000
317.149811	144.720000
317.243073	144.700000
317.336365	144.680000
317.429626	145.220000
317.522919	145.780000
317.616180	145.580000
317.709473	145.680000
317.802765	145.700000
317.896027	145.400000
317.989319	145.600000
318.082611	146.180000
318.175873	145.920000
318.269165	145.680000
318.362488	145.820000
318.455750	145.240000
318.549042	145.480000
318.642303	146.280000
318.735626	146.200000
318.828888	146.140000
318.922211	146.160000
319.015472	146.600000
319.108765	145.880000
319.202057	145.700000
319.295349	145.640000
319.388641	145.840000
319.481934	145.160000
319.575226	145.060000
319.668518	145.500000
319.761810	145.720000
319.855103	145.800000
319.948395	145.720000
320.041687	146.340000
320.134979	146.020000
320.228271	145.640000
320.321564	145.400000
320.414856	145.640000
320.508148	144.760000
320.601440	145.020000
320.694763	145.080000
320.788025	145.900000
320.881348	145.700000
320.974640	145.960000
321.067963	145.260000
321.161224	145.460000
321.254547	144.520000
321.347839	144.980000
321.441162	145.000000
321.534454	145.440000
321.627747	145.280000
321.721069	146.140000
321.814362	145.980000
321.907654	145.940000
322.000946	146.140000
322.094269	146.440000
322.187561	146.020000
322.280884	146.140000
322.374176	146.660000
322.467468	146.840000
322.560791	146.800000
322.654083	147.020000
322.747406	146.860000
322.840698	146.700000
322.934021	146.820000
323.027344	146.920000
323.120636	146.480000
323.213959	146.400000
323.307251	146.080000
323.400574	146.100000
323.493866	145.760000
323.587219	146.180000
323.680511	146.360000
323.773834	146.580000
323.867157	146.300000
323.960449	146.260000
324.053772	145.720000
324.147095	145.560000
324.240387	146.040000
324.333710	146.080000
324.427032	146.360000
324.520355	146.360000
324.613647	145.940000
324.706970	145.600000
324.800293	145.680000
324.893616	146.100000
324.986938	146.520000
325.080231	146.760000
325.173553	147.140000
325.266876	147.480000
325.360199	147.180000
325.453522	146.440000
325.546875	145.980000
325.640167	145.800000
325.733521	145.860000
325.826813	146.080000
325.920166	146.400000
326.013489	146.580000
326.106812	145.980000
326.200134	145.320000
326.293457	144.360000
326.386780	144.600000
326.480103	144.800000
326.573425	144.940000
326.666748	145.020000
326.760071	145.880000
326.853424	145.800000
326.946747	145.540000
327.040070	146.180000
327.133392	146.120000
327.226715	145.360000
327.320068	145.160000
327.413391	145.940000
327.506714	145.200000
327.600037	145.280000
327.693390	145.600000
327.786713	145.340000
327.880066	144.940000
327.973358	145.320000
328.066742	145.720000
328.160034	145.980000
328.253418	146.840000
328.346710	146.620000
328.440063	146.500000
328.533417	146.220000
328.626740	146.500000
328.720093	146.040000
328.813416	146.100000
328.906769	146.000000
329.000092	146.040000
329.093445	145.400000
329.186768	145.240000
329.280121	145.760000
329.373444	146.140000
329.466797	146.180000
329.560120	146.360000
329.653473	146.480000
329.746796	146.000000
329.840149	145.600000
329.933502	145.440000
330.026825	145.080000
330.120178	145.200000
330.213562	145.300000
330.306854	145.500000
330.400238	145.500000
330.493561	145.440000
330.586945	146.120000
330.680237	146.160000
330.773621	146.340000
330.866974	146.320000
330.960327	147.080000
331.053680	146.280000
331.147003	146.600000
331.240356	146.680000
331.333710	146.800000
331.427063	146.260000
331.520416	146.280000
331.613770	145.960000
331.707123	145.940000
331.800476	146.220000
331.893829	147.340000
331.987152	147.440000
332.080505	147.460000
332.173859	147.320000
332.267212	146.880000
332.360565	146.060000
332.453918	146.060000
332.547333	146.080000
332.640656	146.100000
332.734039	146.240000
332.827362	145.860000
332.920746	146.180000
333.014069	146.180000
333.107452	146.380000
333.200806	146.760000
333.294159	147.140000
333.387543	146.360000
333.480896	146.100000
333.574249	145.800000
333.667603	145.240000
333.760956	145.400000
333.854340	145.760000
333.947693	145.760000
334.041046	145.820000
334.134430	146.240000
334.227783	146.040000
334.321136	146.180000
334.414520	145.980000
334.507874	145.900000
334.601227	145.860000
334.694611	145.740000
334.787964	145.740000
334.881348	146.420000
334.974701	146.700000
335.068085	146.260000
335.161438	146.480000
335.254822	146.360000
335.348175	146.060000
335.441559	145.640000
335.534943	146.380000
335.628296	146.040000
335.721680	145.980000
335.815033	146.160000
335.908417	146.340000
336.001770	146.020000
336.095154	146.100000
336.188538	145.800000
336.281891	145.520000
336.375275	145.180000
336.468658	144.900000
336.562012	144.900000
336.655396	145.280000
336.748779	145.620000
336.842133	146.040000
336.935516	146.360000
337.028900	146.280000
337.122284	146.620000
337.215637	146.680000
337.309021	146.300000
337.402435	145.820000
337.495789	145.700000
337.589203	145.360000
337.682526	144.920000
337.775940	145.380000
337.869324	145.820000
337.962708	145.820000
338.056091	146.240000
338.149475	145.880000
338.242859	145.700000
338.336243	145.200000
338.429626	145.560000
338.523010	145.240000
338.616394	145.560000
338.709778	145.600000
338.803162	146.380000
338.896545	146.360000
338.989929	146.000000
339.083313	146.260000
339.176697	146.000000
339.270081	145.320000
339.363464	145.800000
339.456848	146.380000
339.550232	145.680000
339.643616	145.640000
339.737030	145.960000
339.830383	145.540000
339.923828	145.600000
340.017181	146.120000
340.110596	146.500000
340.203949	146.320000
340.297363	145.960000
340.390778	145.740000
340.484161	145.820000
340.577545	145.640000
340.670959	145.880000
340.764343	145.860000
340.857727	146.020000
340.951111	145.260000
341.044525	145.660000
341.137909	145.100000
341.231293	144.960000
341.324707	144.500000
341.418091	145.840000
341.511505	145.480000
341.604889	146.120000
341.698303	146.480000
341.791687	146.540000
341.885071	145.820000
341.978485	145.740000
342.071899	145.720000
342.165283	146.140000
342.258698	146.420000
342.352081	146.900000
342.445496	147.280000
342.538879	146.900000
342.632324	146.020000
342.725708	145.980000
342.819122	145.540000
342.912506	145.180000
343.005920	145.400000
343.099335	146.360000
343.192719	146.240000
343.286133	146.100000
343.379547	146.480000
343.472931	146.320000
343.566345	145.820000
343.659760	145.920000
343.753143	145.540000
343.846558	145.080000
343.939972	145.200000
344.033386	145.860000
344.126770	145.600000
344.220184	146.060000
344.313599	146.560000
344.407043	146.480000
344.500427	145.560000
344.593872	146.300000
344.687225	145.860000
344.780670	145.520000
344.874054	145.420000
344.967499	146.160000
345.060913	145.660000
345.154327	146.000000
345.247742	145.800000
345.341156	145.640000
345.434570	145.000000
345.527985	144.940000
345.621399	145.100000
345.714813	145.120000
345.808228	145.440000
345.901642	145.120000
345.995056	144.920000
346.088470	145.020000
346.181885	144.980000
346.275299	144.740000
346.368713	145.080000
346.462128	144.920000
346.555573	144.680000
346.648987	145.020000
346.742401	144.940000
346.835815	145.600000
346.929260	145.560000
347.022644	145.620000
347.116119	145.660000
347.209503	146.200000
347.302948	146.380000
347.396362	147.240000
347.489807	147.400000
347.583221	147.560000
347.676636	146.980000
347.770050	145.960000
347.863495	145.380000
347.956909	145.160000
348.050323	144.460000
348.143768	144.540000
348.237183	144.660000
348.330597	145.040000
348.424042	145.620000
348.517456	146.360000
348.610901	146.900000
348.704315	146.940000
348.797760	146.180000
348.891174	145.260000
348.984619	144.560000
349.078033	144.500000
349.171448	145.220000
349.264923	145.300000
349.358337	145.660000
349.451782	146.120000
349.545197	145.640000
349.638641	144.780000
349.732086	144.580000
349.825500	145.000000
349.918945	144.640000
350.012390	144.800000
350.105804	145.420000
350.199249	145.680000
350.292664	145.840000
350.386108	146.100000
350.479553	146.840000
350.572968	146.480000
350.666412	146.640000
350.759857	146.400000
350.853302	146.960000
350.946716	146.300000
351.040161	146.440000
351.133606	146.360000
351.227081	146.240000
351.320465	146.420000
351.413940	146.660000
351.507355	146.880000
351.600830	147.200000
351.694244	146.700000
351.787720	146.340000
351.881104	146.120000
351.974579	146.020000
352.067993	146.800000
352.161469	147.140000
352.254883	146.600000
352.348358	146.600000
352.441803	146.580000
352.535248	145.880000
352.628693	146.380000
352.722137	146.360000
352.815582	146.640000
352.909027	146.640000
353.002472	146.260000
353.095917	145.920000
353.189362	146.160000
353.282806	145.980000
353.376251	145.760000
353.469696	145.720000
353.563141	146.140000
353.656586	146.040000
353.750061	145.420000
353.843475	145.260000
353.936981	146.060000
354.030396	145.460000
354.123871	145.500000
354.217285	147.000000
354.310760	147.520000
354.404175	147.020000
354.497681	146.900000
354.591095	146.780000
354.684570	145.400000
354.777985	145.020000
354.871490	144.500000
354.964935	145.020000
355.058380	145.060000
355.151855	144.840000
355.245300	145.140000
355.338745	145.860000
355.432220	145.700000
355.525665	145.440000
355.619110	146.460000
355.712585	145.900000
355.806030	145.360000
355.899475	144.960000
355.992950	145.320000
356.086426	145.240000
356.179871	145.580000
356.273346	145.980000
356.366791	146.260000
356.460266	146.280000
356.553711	145.740000
356.647186	145.820000
356.740631	145.540000
356.834106	145.380000
356.927551	145.580000
357.021027	145.560000
357.114471	145.760000
357.207947	145.780000
357.301422	145.960000
357.394867	145.800000
357.488342	146.340000
357.581818	146.320000
357.675262	146.740000
357.768738	146.420000
357.862213	145.780000
357.955658	145.540000
358.049133	145.180000
358.142609	145.400000
358.236053	145.420000
358.329529	145.680000
358.423035	145.900000
358.516449	145.740000
358.609955	145.820000
358.703400	146.720000
358.796906	147.200000
358.890350	146.640000
358.983826	146.960000
359.077271	146.140000
359.170776	145.360000
359.264221	144.780000
359.357727	145.220000
359.451172	145.660000
359.544647	145.940000
359.638123	145.900000
359.731598	146.400000
359.825073	146.260000
359.918549	145.920000
360.012024	145.860000
360.105499	145.360000
360.198975	145.460000
360.292450	145.520000
360.385925	145.200000
360.479401	144.780000
360.572876	145.200000
360.666351	145.360000
360.759857	145.260000
360.853302	145.620000
360.946808	145.760000
361.040253	146.120000
361.133759	145.300000
361.227203	145.340000
361.320709	144.740000
361.414154	145.140000
361.507660	145.260000
361.601105	146.260000
361.694641	146.840000
361.788086	147.160000
361.881592	147.300000
361.975067	146.740000
362.068542	146.720000
362.162018	146.200000
362.255524	145.800000
362.348999	145.720000
362.442474	146.200000
362.535950	145.500000
362.629456	145.520000
362.722931	145.700000
362.816406	145.900000
362.909882	146.060000
363.003387	146.080000
363.096863	146.300000
363.190338	146.300000
363.283875	145.840000
363.377319	145.380000
363.470825	146.000000
363.564301	145.600000
363.657806	145.680000
363.751282	145.640000
363.844788	146.620000
363.938232	145.940000
364.031769	146.280000
364.125214	146.480000
364.218750	147.200000
364.312225	145.720000
364.405731	145.840000
364.499207	145.380000
364.592712	145.300000
364.686188	144.880000
364.779694	145.700000
364.873169	145.600000
364.966675	145.860000
365.060150	145.760000
365.153656	146.160000
365.247131	146.020000
365.340637	146.280000
365.434143	146.660000
365.527618	146.860000
365.621155	146.100000
365.714600	145.980000
365.808136	146.080000
365.901611	145.100000
365.995117	145.040000
366.088593	144.960000
366.182129	145.120000
366.275604	144.900000
366.369110	145.360000
366.462585	145.060000
366.556122	145.920000
366.649567	145.980000
366.743103	146.320000
366.836609	146.320000
366.930115	146.620000
367.023590	146.420000
367.117096	146.000000
367.210602	145.640000
367.304108	146.280000
367.397614	146.880000
367.491119	146.960000
367.584595	147.420000
367.678101	148.120000
367.771606	147.660000
367.865112	146.880000
367.958649	146.140000
368.052124	145.840000
368.145660	145.320000
368.239136	145.660000
368.332672	145.840000
368.426147	146.180000
368.519684	146.200000
368.613159	146.420000
368.706696	145.980000
368.800171	145.920000
368.893707	145.860000
368.987183	145.940000
369.080719	145.780000
369.174225	145.360000
369.267731	145.500000
369.361237	145.600000
369.454742	145.640000
369.548248	145.820000
369.641754	146.140000
369.735260	145.840000
369.828766	145.120000
369.922272	145.660000
370.015808	145.080000
370.109314	144.860000
370.202820	144.960000
370.296356	146.000000
370.389832	145.160000
370.483368	145.220000
370.576874	145.060000
370.670410	145.300000
370.763885	144.380000
370.857422	144.880000
370.950928	144.640000
371.044464	145.740000
371.137939	146.100000
371.231476	146.720000
371.324982	147.080000
371.418518	147.640000
371.512024	147.380000
371.605560	146.780000
371.699066	146.900000
371.792572	146.260000
371.886108	146.500000
371.979614	146.180000
372.073120	146.880000
372.166656	146.760000
372.260162	147.080000
372.353668	146.800000
372.447205	146.460000
372.540710	146.160000
372.634277	146.040000
372.727753	146.100000
372.821320	145.880000
372.914795	146.040000
373.008362	145.780000
373.101837	145.900000
373.195404	145.420000
373.288879	145.540000
373.382446	146.120000
373.475922	146.260000
373.569489	146.860000
373.662964	147.600000
373.756531	147.460000
373.850037	147.540000
373.943573	147.520000
374.037109	146.460000
374.130615	146.300000
374.224152	146.560000
374.317657	145.960000
374.411194	146.640000
374.504730	146.680000
374.598236	146.260000
374.691772	146.460000
374.785309	146.700000
374.878815	145.920000
374.972351	146.520000
375.065887	146.500000
375.159454	147.000000
375.252930	146.980000
375.346497	147.220000
375.440002	147.600000
375.533569	147.500000
375.627045	146.480000
375.720612	146.260000
375.814117	146.480000
375.907684	145.800000
376.001160	145.660000
376.094727	145.540000
376.188232	146.300000
376.281799	146.140000
376.375336	146.340000
376.468872	147.000000
376.562408	147.380000
376.655914	146.560000
376.749451	146.580000
376.842987	146.380000
376.936523	146.080000
377.030060	146.040000
377.123596	146.580000
377.217133	145.980000
377.310669	145.960000
377.404205	146.320000
377.497772	146.760000
377.591278	146.080000
377.684845	146.940000
377.778351	147.160000
377.871918	146.600000
377.965424	145.760000
378.058990	146.040000
378.152496	145.760000
378.246063	145.900000
378.339569	146.080000
378.433136	146.200000
378.526642	146.640000
378.620209	146.280000
378.713745	145.780000
378.807312	146.180000
378.900848	146.340000
378.994385	146.020000
379.087921	145.700000
379.181458	146.020000
379.274994	145.380000
379.368530	145.500000
379.462097	145.880000
379.555634	146.400000
379.649170	145.800000
379.742706	145.720000
379.836273	146.000000
379.929810	145.440000
380.023376	145.260000
380.116882	145.500000
380.210449	145.680000
380.303986	145.080000
380.397552	144.740000
380.491058	144.840000
380.584656	144.680000
380.678162	144.880000
380.771729	144.940000
380.865265	146.300000
380.958832	146.440000
381.052368	146.860000
381.145935	147.180000
381.239471	147.540000
381.333008	146.600000
381.426575	146.420000
381.520111	146.680000
381.613647	146.940000
381.707214	146.520000
381.800751	146.260000
381.894318	146.380000
381.987854	145.820000
382.081421	145.180000
382.174988	145.320000
382.268524	145.220000
382.362091	145.220000
382.455627	146.060000
382.549194	145.600000
382.642731	145.100000
382.736298	145.240000
382.829834	144.960000
382.923401	145.140000
383.016937	145.840000
383.110504	146.600000
383.204041	146.860000
383.297607	147.320000
383.391174	146.520000
383.484741	147.080000
383.578278	146.740000
383.671844	146.400000
383.765411	145.340000
383.858948	145.740000
383.952515	145.160000
384.046051	145.240000
384.139618	145.580000
384.233185	146.360000
384.326721	146.240000
384.420288	146.780000
384.513855	146.840000
384.607422	147.120000
384.700989	147.160000
384.794525	146.880000
384.888123	146.340000
384.981659	146.260000
385.075226	145.980000
385.168762	145.600000
385.262360	145.580000
385.355896	144.960000
385.449463	145.200000
385.542999	145.080000
385.636597	146.040000
385.730164	146.400000
385.823730	146.460000
385.917267	146.080000
386.010834	146.200000
386.104401	145.700000
386.197968	145.720000
386.291534	146.220000
386.385101	146.260000
386.478668	146.540000
386.572235	146.360000
386.665802	145.660000
386.759338	145.080000
386.852905	145.040000
386.946472	144.660000
387.040070	144.880000
387.133606	145.520000
387.227203	145.320000
387.320740	145.740000
387.414337	145.400000
387.507874	145.020000
387.601471	144.840000
387.695007	145.280000
387.788605	144.760000
387.882141	145.120000
387.975739	145.480000
388.069275	145.320000
388.162872	145.600000
388.256439	146.120000
388.350037	146.160000
388.443604	145.880000
388.537170	145.980000
388.630737	146.140000
388.724304	146.000000
388.817871	145.700000
388.911438	145.940000
389.005005	146.360000
389.098602	146.540000
389.192169	146.120000
389.285736	146.880000
389.379333	146.980000
389.472870	146.160000
389.566467	145.920000
389.660034	146.180000
389.753632	145.340000
389.847168	145.480000
389.940765	146.080000
390.034332	146.020000
390.127930	145.680000
390.221466	145.800000
390.315063	145.180000
390.408630	144.200000
390.502228	143.580000
390.595795	143.780000
390.689362	144.180000
390.782959	144.540000
390.876526	145.480000
390.970093	145.740000
391.063690	146.500000
391.157257	146.120000
391.250824	146.600000
391.344421	146.340000
391.437988	146.700000
391.531555	146.360000
391.625153	146.560000
391.718750	146.300000
391.812317	146.260000
391.905914	146.100000
391.999481	146.220000
392.093079	146.220000
392.186615	146.340000
392.280243	146.380000
392.373779	146.120000
392.467407	146.480000
392.560944	146.440000
392.654572	146.080000
392.748108	146.020000
392.841736	146.460000
392.935303	145.820000
393.028900	145.780000
393.122467	145.900000
393.216064	145.640000
393.309631	145.280000
393.403229	144.760000
393.496796	144.620000
393.590393	144.060000
393.683990	144.620000
393.777557	145.060000
393.871155	145.660000
393.964722	146.000000
394.058350	146.200000
394.151917	145.920000
394.245514	145.760000
394.339081	145.900000
394.432678	146.120000
394.526245	146.140000
394.619873	145.880000
394.713409	145.800000
394.807037	145.440000
394.900604	145.600000
394.994202	145.540000
395.087769	145.900000
395.181396	145.740000
395.274994	146.420000
395.368561	145.460000
395.462158	146.020000
395.555756	145.720000
395.649353	145.940000
395.742920	145.300000
395.836517	146.440000
395.930115	145.340000
396.023712	145.640000
396.117279	145.700000
396.210876	145.580000
396.304474	145.120000
396.398071	146.040000
396.491669	146.220000
396.585266	146.020000
396.678833	145.960000
396.772461	146.180000
396.866028	145.840000
396.959656	145.800000
397.053223	146.080000
397.146851	146.240000
397.240417	146.200000
397.334015	146.980000
397.427582	146.860000
397.521210	147.120000
397.614807	147.600000
397.708405	148.040000
397.802002	148.240000
397.895599	149.560000
397.989197	150.140000
398.082794	151.260000
398.176392	152.460000
398.269989	153.540000
398.363586	154.480000
398.457184	156.580000
398.550781	157.840000
398.644379	158.760000
398.737976	159.960000
398.831573	161.400000
398.925201	161.580000
399.018768	162.380000
399.112396	163.160000
399.205963	164.040000
399.299591	164.140000
399.393158	164.140000
399.486786	164.160000
399.580353	163.320000
399.673981	162.540000
399.767578	162.440000
399.861206	163.320000
399.954773	164.560000
400.048401	166.040000
400.141998	167.440000
400.235596	169.060000
400.329193	169.480000
400.422791	169.480000
400.516418	170.020000
400.610016	170.220000
400.703613	170.920000
400.797211	170.620000
400.890808	170.460000
400.984436	170.280000
401.078033	169.460000
401.171631	167.020000
401.265259	165.900000
401.358826	164.500000
401.452484	162.900000
401.546051	161.340000
401.639679	159.520000
401.733246	157.880000
401.826904	156.320000
401.920471	153.820000
402.014099	152.540000
402.107697	151.780000
402.201324	151.020000
402.294891	150.280000
402.388550	150.180000
402.482147	149.680000
402.575745	148.760000
402.669373	147.620000
402.762970	147.080000
402.856567	146.620000
402.950195	146.280000
403.043793	146.380000
403.137390	147.200000
403.231018	146.220000
403.324615	146.800000
403.418243	146.300000
403.511841	146.640000
403.605469	146.300000
403.699066	146.920000
403.792694	146.700000
403.886292	147.260000
403.979919	146.920000
404.073517	146.540000
404.167145	146.880000
404.260712	146.700000
404.354370	146.300000
404.447937	146.500000
404.541595	146.920000
404.635162	147.040000
404.728821	147.520000
404.822418	147.220000
404.916046	146.700000
405.009644	147.080000
405.103271	146.860000
405.196899	146.120000
405.290497	146.580000
405.384125	146.980000
405.477722	146.220000
405.571350	145.960000
405.664948	146.120000
405.758575	145.600000
405.852203	145.160000
405.945801	145.060000
406.039429	145.080000
406.133057	144.960000
406.226654	145.200000
406.320312	145.400000
406.413879	145.780000
406.507538	146.140000
406.601135	145.760000
406.694763	146.100000
406.788361	145.880000
406.882019	145.600000
406.975586	145.580000
407.069244	146.340000
407.162872	146.000000
407.256470	146.220000
407.350098	145.980000
407.443726	145.600000
407.537323	145.080000
407.630951	145.480000
407.724579	145.240000
407.818207	145.920000
407.911804	145.780000
408.005432	145.700000
408.099060	145.760000
408.192688	146.040000
408.286285	145.620000
408.379913	145.580000
408.473572	145.900000
408.567169	145.060000
408.660828	144.860000
408.754395	144.720000
408.848053	144.640000
408.941650	144.620000
409.035309	144.940000
409.128906	145.100000
409.222565	145.120000
409.316132	145.380000
409.409790	145.240000
409.503387	145.200000
409.597046	145.160000
409.690674	145.560000
409.784302	145.400000
409.877930	145.180000
409.971558	145.640000
410.065186	145.440000
410.158783	145.200000
410.252411	145.500000
410.346039	146.160000
410.439667	146.080000
410.533295	146.540000
410.626923	146.680000
410.720551	146.340000
410.814209	146.260000
410.907806	146.100000
411.001465	145.540000
411.095062	145.800000
411.188721	146.260000
411.282318	146.020000
411.375977	145.860000
411.469574	146.040000
411.563232	145.700000
411.656830	145.520000
411.750488	145.380000
411.844086	145.240000
411.937744	145.580000
412.031372	145.440000
412.125000	145.160000
412.218628	145.320000
412.312256	146.080000
412.405884	146.220000
412.499512	146.200000
412.593170	146.920000
412.686798	146.800000
412.780426	146.200000
412.874054	146.240000
412.967682	146.420000
413.061310	146.620000
413.154968	146.960000
413.248566	147.180000
413.342224	146.820000
413.435852	146.860000
413.529510	146.220000
413.623108	145.420000
413.716766	145.220000
413.810364	145.780000
413.904022	145.180000
413.997650	144.920000
414.091309	145.820000
414.184906	145.680000
414.278564	145.040000
414.372192	145.760000
414.465851	146.040000
414.559479	145.520000
414.653107	146.320000
414.746735	146.060000
414.840393	145.960000
414.934021	146.180000
415.027649	145.760000
415.121277	145.460000
415.214935	145.840000
415.308563	145.940000
415.402191	145.500000
415.495850	145.960000
415.589478	145.540000
415.683136	145.360000
415.776733	145.560000
415.870422	146.240000
415.964020	145.720000
416.057678	145.720000
416.151306	145.920000
416.244965	145.400000
416.338562	145.040000
416.432251	145.960000
416.525848	146.600000
416.619507	147.020000
416.713165	147.300000
416.806793	146.980000
416.900421	146.860000
416.994080	146.000000
417.087708	145.500000
417.181366	145.280000
417.274994	145.120000
417.368622	145.300000
417.462280	146.080000
417.555908	145.960000
417.649567	146.040000
417.743195	146.440000
417.836853	146.200000
417.930481	146.240000
418.024170	146.580000
418.117767	147.100000
418.211426	147.000000
418.305054	147.100000
418.398712	146.280000
418.492340	146.100000
418.585999	146.040000
418.679626	146.400000
418.773285	146.480000
418.866913	147.280000
418.960571	147.480000
419.054230	147.560000
419.147858	147.380000
419.241516	147.220000
419.335144	146.840000
419.428802	146.600000
419.522461	146.040000
419.616089	145.980000
419.709747	146.000000
419.803375	146.060000
419.897034	145.920000
419.990662	145.700000
420.084320	146.020000
420.177979	146.260000
420.271606	146.540000
420.365295	147.020000
420.458893	147.560000
420.552582	147.740000
420.646210	147.680000
420.739868	147.260000
420.833496	147.020000
420.927155	146.440000
421.020782	145.940000
421.114471	145.440000
421.208069	145.620000
421.301758	145.580000
421.395386	145.860000
421.489044	145.640000
421.582703	145.920000
421.676361	146.280000
421.769989	146.100000
421.863647	146.600000
421.957306	146.820000
422.050934	146.740000
422.144592	146.400000
422.238251	146.340000
422.331909	145.760000
422.425537	145.440000
422.519196	145.280000
422.612854	144.800000
422.706543	144.540000
422.800140	145.000000
422.893829	144.740000
422.987457	144.440000
423.081146	144.600000
423.174744	145.340000
423.268433	144.580000
423.362061	144.820000
423.455750	145.080000
423.549347	145.520000
423.643036	144.860000
423.736664	145.820000
423.830353	146.040000
423.924011	146.540000
424.017639	145.880000
424.111298	145.900000
424.204956	145.340000
424.298615	145.400000
424.392273	144.980000
424.485931	145.320000
424.579559	145.360000
424.673218	145.400000
424.766876	145.480000
424.860535	145.200000
424.954193	145.040000
425.047882	145.540000
425.141510	145.720000
425.235199	145.820000
425.328796	145.920000
425.422485	145.680000
425.516113	145.120000
425.609802	145.020000
425.703430	144.780000
425.797119	144.780000
425.890747	145.120000
425.984436	145.220000
426.078064	145.020000
426.171753	145.260000
426.265411	145.200000
426.359070	145.280000
426.452728	145.220000
426.546356	145.040000
426.640015	144.880000
426.733673	145.120000
426.827332	144.940000
426.920990	145.580000
427.014648	145.500000
427.108307	145.620000
427.201965	145.920000
427.295624	146.340000
427.389282	145.700000
427.482941	146.060000
427.576630	145.740000
427.670258	145.040000
427.763947	144.820000
427.857574	144.980000
427.951263	145.020000
428.044922	144.620000
428.138611	144.820000
428.232239	145.120000
428.325928	145.440000
428.419556	145.960000
428.513245	146.080000
428.606903	146.380000
428.700562	145.660000
428.794220	144.980000
428.887878	144.000000
428.981537	144.500000
429.075195	144.340000
429.168854	145.060000
429.262512	145.620000
429.356201	146.080000
429.449860	146.200000
429.543518	146.200000
429.637177	146.360000
429.730835	146.220000
429.824493	145.760000
429.918182	145.760000
430.011810	145.400000
430.105530	144.520000
430.199158	144.800000
430.292847	144.900000
430.386475	144.420000
430.480164	144.680000
430.573792	144.560000
430.667511	144.180000
430.761139	144.400000
430.854828	144.920000
430.948456	145.060000
431.042145	145.820000
431.135834	145.720000
431.229492	146.020000
431.323151	146.160000
431.416809	145.880000
431.510468	145.680000
431.604156	145.680000
431.697815	145.420000
431.791473	144.540000
431.885132	144.160000
431.978821	144.460000
432.072479	144.600000
432.166138	145.180000
432.259827	145.460000
432.353485	146.160000
432.447174	146.100000
432.540802	145.960000
432.634491	145.620000
432.728149	146.040000
432.821838	146.340000
432.915466	145.920000
433.009186	146.100000
433.102814	145.620000
433.196503	145.280000
433.290131	145.100000
433.383850	145.600000
433.477509	145.620000
433.571167	146.700000
433.664856	147.160000
433.758514	147.560000
433.852173	147.320000
433.945862	147.160000
434.039520	146.560000
434.133179	145.900000
434.226868	145.180000
434.320526	144.520000
434.414185	144.980000
434.507874	144.720000
434.601562	145.120000
434.695221	145.180000
434.788910	145.680000
434.882538	145.720000
434.976257	145.400000
435.069885	145.500000
435.163574	145.640000
435.257233	145.260000
435.350922	145.080000
435.444580	145.280000
435.538269	145.120000
435.631897	145.380000
435.725616	146.100000
435.819275	146.460000
435.912964	147.020000
436.006622	147.400000
436.100311	147.380000
436.193970	146.500000
436.287628	146.200000
436.381317	145.660000
436.474976	144.860000
436.568665	144.580000
436.662323	144.820000
436.756012	144.720000
436.849670	144.900000
436.943390	145.240000
437.037018	145.220000
437.130737	145.680000
437.224365	145.200000
437.318085	145.260000
437.411713	145.300000
437.505432	145.580000
437.599060	145.600000
437.692780	146.700000
437.786407	146.660000
437.880127	146.620000
437.973755	146.300000
438.067474	146.100000
438.161133	145.800000
438.254822	146.020000
438.348480	145.960000
438.442169	146.520000
438.535828	146.720000
438.629517	146.320000
438.723175	145.640000
438.816864	146.060000
438.910553	145.660000
439.004211	145.400000
439.097900	145.260000
439.191559	145.740000
439.285248	145.040000
439.378906	145.040000
439.472626	145.160000
439.566284	145.140000
439.659973	145.200000
439.753632	145.380000
439.847321	145.840000
439.940979	145.860000
440.034698	146.060000
440.128326	145.620000
440.222046	145.460000
440.315674	144.700000
440.409393	144.880000
440.503082	144.540000
440.596741	144.840000
440.690430	145.320000
440.784088	145.140000
440.877777	144.520000
440.971466	144.760000
441.065125	144.460000
441.158813	144.020000
441.252502	144.460000
441.346161	144.860000
441.439850	145.180000
441.533539	145.380000
441.627197	146.060000
441.720886	145.780000
441.814606	145.960000
441.908234	145.980000
442.001953	145.800000
442.095612	145.900000
442.189301	146.060000
442.282959	146.240000
442.376678	145.580000
442.470306	146.320000
442.564026	145.720000
442.657684	146.120000
442.751404	145.800000
442.845032	147.220000
442.938751	146.540000
443.032440	146.660000
443.126099	145.940000
443.219788	146.640000
443.313477	145.940000
443.407166	146.240000
443.500824	146.300000
443.594513	146.920000
443.688202	146.340000
443.781891	145.660000
443.875549	145.340000
443.969238	145.180000
444.062927	145.020000
444.156647	144.980000
444.250275	145.480000
444.343994	145.660000
444.437653	145.760000
444.531372	145.740000
444.625031	145.580000
444.718719	145.260000
444.812378	145.220000
444.906097	145.180000
444.999756	144.800000
445.093445	144.900000
445.187103	144.980000
445.280823	145.520000
445.374512	144.720000
445.468201	145.080000
445.561859	144.680000
445.655548	144.620000
445.749237	143.960000
445.842926	144.580000
445.936615	144.880000
446.030304	145.160000
446.123962	145.340000
446.217651	145.300000
446.311340	145.780000
446.405029	145.400000
446.498749	145.140000
446.592407	145.000000
446.686096	145.080000
446.779755	145.000000
446.873474	145.200000
446.967133	145.240000
447.060852	145.180000
447.154510	145.140000
447.248230	144.980000
447.341858	144.700000
447.435577	144.740000
447.529236	144.420000
447.622955	144.400000
447.716644	144.580000
447.810333	145.000000
447.904022	145.660000
447.997711	146.040000
448.091400	146.540000
448.185059	146.180000
448.278748	146.140000
448.372437	145.760000
448.466125	145.780000
448.559814	145.480000
448.653503	145.900000
448.747192	145.940000
448.840912	146.540000
448.934570	146.600000
449.028290	146.980000
449.121948	146.480000
449.215637	146.300000
449.309296	145.380000
449.403015	145.620000
449.496674	145.600000
449.590393	145.880000
449.684052	145.720000
449.777771	146.660000
449.871429	145.760000
449.965149	145.540000
450.058838	145.600000
450.152527	146.100000
450.246216	145.420000
450.339905	145.760000
450.433594	145.440000
450.527283	146.060000
450.620972	145.560000
450.714661	145.860000
450.808350	146.100000
450.902039	146.400000
450.995728	145.700000
451.089417	145.520000
451.183105	145.320000
451.276794	145.660000
451.370514	145.260000
451.464172	144.820000
451.557892	144.900000
451.651550	145.060000
451.745270	144.840000
451.838928	144.680000
451.932648	145.180000
452.026306	145.420000
452.120026	144.960000
452.213684	144.940000
452.307404	145.320000
452.401062	145.600000
452.494781	145.700000
452.588470	146.000000
452.682159	145.780000
452.775848	145.940000
452.869537	145.380000
452.963226	144.920000
453.056915	144.520000
453.150604	144.860000
453.244293	144.880000
453.337982	145.800000
453.431671	146.560000
453.525360	147.460000
453.619049	147.220000
453.712769	147.260000
453.806427	146.340000
453.900146	145.600000
453.993805	145.100000
454.087555	145.500000
454.181213	145.380000
454.274933	145.360000
454.368591	145.580000
454.462311	145.500000
454.555969	144.960000
454.649689	145.480000
454.743347	145.940000
454.837067	146.820000
454.930756	147.320000
455.024445	147.860000
455.118134	147.340000
455.211853	147.280000
455.305542	146.600000
455.399231	146.360000
455.492920	145.920000
455.586609	146.200000
455.680298	146.220000
455.773987	145.880000
455.867676	145.680000
455.961365	145.820000
456.055084	145.580000
456.148773	145.240000
456.242493	145.420000
456.336151	145.540000
456.429871	145.780000
456.523529	145.900000
456.617249	145.680000
456.710907	146.180000
456.804626	146.000000
456.898315	145.480000
456.992035	145.400000
457.085693	145.660000
457.179413	144.840000
457.273102	145.620000
457.366791	146.040000
457.460480	146.480000
457.554199	146.980000
457.647888	147.420000
457.741577	146.720000
457.835266	146.820000
457.928955	146.720000
458.022644	146.540000
458.116364	146.720000
458.210052	146.820000
458.303741	146.820000
458.397461	146.120000
458.491119	145.660000
458.584839	145.400000
458.678528	144.940000
458.772247	144.520000
458.865906	144.760000
458.959625	145.960000
459.053284	146.000000
459.147003	145.960000
459.240692	146.720000
459.334412	147.020000
459.428070	146.260000
459.521790	146.000000
459.615479	146.000000
459.709198	145.940000
459.802887	145.740000
459.896576	145.440000
459.990265	145.640000
460.083954	146.240000
460.177673	145.680000
460.271362	146.140000
460.365051	146.040000
460.458740	145.880000
460.552429	145.260000
460.646149	145.340000
460.739838	144.500000
460.833527	144.760000
460.927246	144.680000
461.020905	144.940000
461.114655	145.040000
461.208313	145.460000
461.302032	145.180000
461.395691	145.400000
461.489441	145.420000
461.583099	145.360000
461.676819	145.100000
461.770477	145.480000
461.864197	145.040000
461.957916	144.720000
462.051605	144.380000
462.145294	145.200000
462.238983	144.600000
462.332703	145.520000
462.426392	146.360000
462.520081	146.420000
462.613770	145.820000
462.707489	146.460000
462.801178	145.940000
462.894867	145.180000
462.988556	145.220000
463.082275	145.160000
463.175964	144.780000
463.269684	145.260000
463.363342	145.540000
463.457092	145.260000
463.550751	145.760000
463.644470	145.920000
463.738129	145.460000
463.831879	145.960000
463.925537	146.640000
464.019257	146.160000
464.112946	146.040000
464.206665	145.980000
464.300323	145.740000
464.394043	145.640000
464.487762	145.860000
464.581451	146.520000
464.675140	146.440000
464.768829	146.500000
464.862549	146.440000
464.956238	146.300000
465.049927	145.960000
465.143646	146.080000
465.237335	145.860000
465.331024	146.240000
465.424713	146.300000
465.518433	146.240000
465.612152	146.080000
465.705811	146.060000
465.799561	145.720000
465.893219	145.540000
465.986938	145.120000
466.080597	145.180000
466.174347	145.420000
466.268005	145.560000
466.361725	145.500000
466.455414	145.800000
466.549133	145.460000
466.642792	145.340000
466.736542	144.800000
466.830231	144.920000
466.923920	144.940000
467.017609	145.460000
467.111328	145.240000
467.205017	145.420000
467.298706	145.660000
467.392426	145.620000
467.486115	145.680000
467.579803	145.400000
467.673523	145.680000
467.767212	145.720000
467.860901	145.680000
467.954651	145.900000
468.048309	146.300000
468.142029	146.100000
468.235718	146.000000
468.329437	145.960000
468.423096	145.680000
468.516846	145.600000
468.610504	145.340000
468.704224	144.780000
468.797913	144.680000
468.891632	144.820000
468.985291	144.840000
469.079010	145.340000
469.172729	145.380000
469.266418	146.320000
469.360107	146.240000
469.453827	146.220000
469.547516	145.760000
469.641205	146.380000
469.734924	146.080000
469.828613	146.480000
469.922302	146.660000
470.016022	146.820000
470.109711	146.400000
470.203430	145.680000
470.297150	144.860000
470.390808	145.120000
470.484558	145.300000
470.578217	145.920000
470.671936	146.580000
470.765625	147.380000
470.859344	146.860000
470.953003	147.140000
471.046753	146.660000
471.140411	146.140000
471.234131	145.880000
471.327820	146.380000
471.421539	146.220000
471.515228	145.820000
471.608948	145.960000
471.702637	145.580000
471.796326	145.420000
471.890045	145.700000
471.983734	145.900000
472.077423	145.740000
472.171143	146.180000
472.264832	145.860000
472.358521	145.440000
472.452240	145.340000
472.545929	146.080000
472.639648	146.000000
472.733337	146.480000
472.827057	146.640000
472.920746	146.800000
473.014465	146.820000
473.108124	146.920000
473.201874	146.980000
473.295532	146.900000
473.389252	147.300000
473.482941	146.920000
473.576660	146.440000
473.670319	145.960000
473.764069	145.880000
473.857727	146.080000
473.951477	146.020000
474.045166	146.680000
474.138855	146.600000
474.232574	146.500000
474.326263	146.300000
474.419952	146.580000
474.513672	146.240000
474.607361	146.120000
474.701050	146.240000
474.794769	146.220000
474.888458	146.060000
474.982178	146.320000
475.075867	146.420000
475.169586	146.500000
475.263275	146.240000
475.356995	146.240000
475.450653	145.780000
475.544403	145.560000
475.638062	146.060000
475.731812	145.700000
475.825470	145.420000
475.919189	145.860000
476.012878	146.320000
476.106598	145.680000
476.200256	146.300000
476.294006	146.420000
476.387695	146.220000
476.481384	146.100000
476.575104	146.060000
476.668793	145.500000
476.762512	145.080000
476.856201	145.460000
476.949890	145.460000
477.043610	145.200000
477.137299	145.560000
477.230988	146.080000
477.324707	145.480000
477.418396	145.800000
477.512146	146.040000
477.605804	145.780000
477.699524	145.960000
477.793213	146.060000
477.886932	145.720000
477.980591	145.640000
478.074341	145.600000
478.167999	145.260000
478.261749	145.240000
478.355408	145.280000
478.449127	145.440000
478.542816	146.440000
478.636536	146.920000
478.730225	147.240000
478.823944	147.340000
478.917633	147.280000
479.011322	146.860000
479.105042	146.540000
479.198730	146.340000
479.292450	146.220000
479.386139	146.420000
479.479828	146.620000
479.573547	146.900000
479.667267	146.980000
479.760925	146.960000
479.854675	147.020000
479.948334	146.700000
480.042084	145.940000
480.135742	146.220000
480.229462	145.900000
480.323151	145.860000
480.416870	145.300000
480.510529	145.860000
480.604279	144.900000
480.697937	145.440000
480.791656	145.100000
480.885345	145.140000
480.979065	144.880000
481.072754	145.720000
481.166473	145.920000
481.260132	145.900000
481.353882	146.060000
481.447540	146.040000
481.541260	146.100000
481.635010	145.400000
481.728668	145.380000
481.822388	145.280000
481.916077	145.360000
482.009796	144.980000
482.103485	145.800000
482.197205	145.980000
482.290863	146.100000
482.384613	145.880000
482.478271	145.440000
482.571991	144.700000
482.665680	144.240000
482.759399	145.180000
482.853058	145.660000
482.946808	145.640000
483.040466	145.700000
483.134216	145.980000
483.227875	145.080000
483.321594	145.420000
483.415283	145.640000
483.509003	145.640000
483.602661	145.340000
483.696411	145.440000
483.790070	144.620000
483.883789	144.760000
483.977478	145.080000
484.071198	145.240000
484.164917	144.980000
484.258606	144.780000
484.352325	145.000000
484.445984	145.100000
484.539734	145.340000
484.633392	145.160000
484.727142	145.840000
484.820801	145.860000
484.914520	145.660000
485.008209	145.720000
485.101929	146.400000
485.195587	146.380000
485.289337	146.360000
485.382996	146.340000
485.476715	146.460000
485.570404	146.720000
485.664124	146.140000
485.757782	146.300000
485.851532	146.040000
485.945190	145.940000
486.038910	145.520000
486.132599	146.240000
486.226318	145.620000
486.319977	145.600000
486.413727	145.860000
486.507446	145.560000
486.601105	144.660000
486.694855	144.600000
486.788513	144.320000
486.882233	144.160000
486.975922	144.200000
487.069641	144.280000
487.163300	144.160000
487.257050	145.480000
487.350708	145.100000
487.444427	144.780000
487.538116	144.960000
487.631836	145.140000
487.725494	144.200000
487.819214	144.180000
487.912903	144.360000
488.006622	144.720000
488.100281	145.080000
488.194031	145.260000
488.287689	145.720000
488.381409	146.480000
488.475098	146.320000
488.568817	146.260000
488.662476	146.160000
488.756226	145.780000
488.849945	144.720000
488.943604	144.780000
489.037354	144.920000
489.131012	144.720000
489.224731	144.420000
489.318390	144.500000
489.412140	144.660000
489.505798	144.200000
489.599518	143.920000
489.693207	144.740000
489.786926	144.900000
489.880585	144.820000
489.974335	145.180000
490.067993	146.440000
490.161713	146.440000
490.255371	147.340000
490.349121	147.400000
490.442780	147.480000
490.536499	146.660000
490.630188	146.440000
490.723907	145.660000
490.817566	145.440000
490.911285	145.420000
491.004974	145.420000
491.098694	144.960000
491.192413	145.700000
491.286102	145.660000
491.379822	145.460000
491.473480	145.540000
491.567200	145.800000
491.660889	145.120000
491.754608	145.260000
491.848267	145.340000
491.941986	145.300000
492.035675	145.180000
492.129395	145.700000
492.223053	145.480000
492.316772	145.620000
492.410461	145.640000
492.504181	146.000000
492.597839	145.280000
492.691559	145.600000
492.785248	145.440000
492.878967	145.280000
492.972626	144.660000
493.066345	145.040000
493.160034	144.520000
493.253754	144.620000
493.347412	144.240000
493.441132	144.540000
493.534882	144.940000
493.628540	145.660000
493.722260	145.860000
493.815918	146.300000
493.909668	146.960000
494.003326	147.200000
494.097046	146.720000
494.190704	146.220000
494.284454	146.380000
494.378113	146.260000
494.471832	145.640000
494.565491	145.560000
494.659210	145.900000
494.752899	146.020000
494.846619	145.620000
494.940277	145.500000
495.033997	145.300000
495.127686	144.820000
495.221405	144.360000
495.315063	144.380000
495.408783	144.820000
495.502441	145.320000
495.596191	145.680000
495.689850	145.860000
495.783569	145.940000
495.877228	145.900000
495.970947	145.500000
496.064697	145.520000
496.158356	146.480000
496.252075	146.380000
496.345734	145.980000
496.439453	147.040000
496.533142	147.120000
496.626862	146.960000
496.720520	147.060000
496.814240	147.020000
496.907898	146.220000
497.001617	146.460000
497.095306	145.720000
497.189026	145.740000
497.282684	145.900000
497.376404	146.340000
497.470062	145.820000
497.563782	146.040000
497.657471	145.960000
497.751190	145.700000
497.844849	145.140000
497.938568	145.540000
498.032227	145.480000
498.125946	145.460000
498.219635	145.760000
498.313354	146.040000
498.407074	145.860000
498.500732	145.980000
498.594452	146.040000
498.688110	145.540000
498.781830	145.360000
498.875519	145.060000
498.969238	144.780000
499.062897	144.520000
499.156616	145.060000
499.250275	145.060000
499.343994	144.600000
499.437653	144.700000
499.531372	145.120000
499.625061	146.040000
499.718781	146.340000
499.812439	147.440000
499.906158	147.360000
499.999817	147.140000
500.093536	146.120000
500.187195	145.980000
500.280914	145.780000
500.374573	146.180000
500.468323	145.960000
500.561981	146.380000
500.655701	146.120000
500.749420	146.160000
500.843079	146.180000
500.936798	146.680000
501.030457	146.600000
501.124176	146.700000
501.217834	146.500000
501.311554	146.340000
501.405212	145.900000
501.498962	145.360000
501.592621	145.360000
501.686340	145.740000
501.779999	145.580000
501.873718	145.720000
501.967377	146.100000
502.061096	146.480000
502.154755	145.800000
502.248474	146.080000
502.342133	146.500000
502.435852	146.340000
502.529510	146.780000
502.623230	147.520000
502.716888	146.860000
502.810608	146.620000
502.904266	146.900000
502.997986	146.000000
503.091705	145.280000
503.185364	145.340000
503.279083	145.180000
503.372772	144.920000
503.466492	144.760000
503.560150	145.160000
503.653870	145.480000
503.747528	145.580000
503.841248	145.540000
503.934906	145.920000
504.028625	145.600000
504.122284	145.840000
504.216003	146.480000
504.309662	146.220000
504.403381	146.300000
504.497040	146.240000
504.590759	146.080000
504.684418	145.680000
504.778137	146.440000
504.871796	146.600000
504.965515	146.540000
505.059174	146.460000
505.152893	146.200000
505.246521	145.660000
505.340240	145.040000
505.433899	145.280000
505.527618	145.260000
505.621338	145.660000
505.714996	145.360000
505.808716	145.840000
505.902374	146.400000
505.996094	146.440000
506.089752	146.020000
506.183472	146.540000
506.277130	146.320000
506.370850	145.920000
506.464508	145.720000
506.558228	145.680000
506.651886	145.200000
506.745605	145.660000
506.839264	145.720000
506.932983	145.880000
507.026611	145.880000
507.120331	146.400000
507.213989	145.580000
507.307709	145.580000
507.401367	145.700000
507.495087	146.480000
507.588745	146.320000
507.682465	147.220000
507.776123	147.160000
507.869843	147.160000
507.963531	146.840000
508.057190	146.960000
508.150909	146.320000
508.244568	146.360000
508.338287	146.000000
508.431946	145.440000
508.525665	145.240000
508.619324	145.140000
508.713013	145.360000
508.806671	145.940000
508.900391	146.840000
508.994049	147.040000
509.087769	146.980000
509.181427	146.540000
509.275146	146.340000
509.368774	145.460000
509.462494	145.320000
509.556152	145.480000
509.649872	145.940000
509.743530	146.040000
509.837250	146.340000
509.930878	146.520000
510.024597	146.480000
510.118256	146.380000
510.211975	146.140000
510.305695	145.740000
510.399353	145.800000
510.493042	146.420000
510.586700	146.460000
510.680420	146.900000
510.774078	147.140000
510.867798	147.160000
510.961426	146.300000
511.055145	145.940000
511.148804	145.460000
511.242523	145.900000
511.336151	146.020000
511.429871	146.800000
511.523529	146.980000
511.617249	146.740000
511.710876	146.300000
511.804596	145.800000
511.898254	145.380000
511.991974	145.400000
512.085632	145.520000
512.179321	145.720000
512.272949	145.840000
512.366699	146.420000
512.460327	146.520000
512.554077	147.280000
512.647766	147.220000
512.741394	147.320000
512.835144	147.420000
512.928772	146.920000
513.022461	146.720000
513.116150	146.200000
513.209839	146.700000
513.303467	145.980000
513.397217	146.200000
513.490845	145.980000
513.584595	146.100000
513.678223	145.480000
513.771912	144.940000
513.865601	144.840000
513.959290	144.420000
514.052917	144.580000
514.146667	145.280000
514.240295	145.780000
514.333984	146.120000
514.427673	146.080000
514.521362	146.440000
514.614990	145.740000
514.708740	146.100000
514.802368	146.220000
514.896057	146.620000
514.989746	146.900000
515.083435	146.860000
515.177124	146.820000
515.270752	146.560000
515.364502	146.420000
515.458130	146.180000
515.551819	146.160000
515.645508	146.060000
515.739197	146.080000
515.832825	146.100000
515.926575	145.840000
516.020203	145.980000
516.113892	146.540000
516.207520	146.620000
516.301270	146.860000
516.394897	147.140000
516.488586	147.420000
516.582275	147.360000
516.675964	146.580000
516.769592	145.960000
516.863281	146.220000
516.956970	146.400000
517.050659	145.860000
517.144287	146.420000
517.238037	146.720000
517.331665	145.980000
517.425354	145.720000
517.519043	145.520000
517.612732	145.920000
517.706421	146.000000
517.800049	146.060000
517.893738	145.660000
517.987427	145.620000
518.081116	145.040000
518.174744	144.940000
518.268433	145.200000
518.362122	146.000000
518.455811	146.180000
518.549438	146.900000
518.643127	147.720000
518.736816	147.560000
518.830505	146.880000
518.924133	146.920000
519.017822	146.580000
519.111511	146.100000
519.205200	146.540000
519.298828	146.480000
519.392517	145.980000
519.486206	146.340000
519.579895	146.260000
519.673523	146.080000
519.767212	146.220000
519.860901	147.040000
519.954590	146.260000
520.048279	145.760000
520.141907	145.480000
520.235596	146.380000
520.329224	146.200000
520.422974	146.420000
520.516602	146.800000
520.610291	146.720000
520.703918	146.160000
520.797607	145.800000
520.891296	145.840000
520.984985	145.860000
521.078613	146.460000
521.172302	146.280000
521.265930	147.440000
521.359680	147.920000
521.453308	147.780000
521.546997	147.480000
521.640625	147.440000
521.734314	146.600000
521.827942	146.140000
521.921692	146.560000
522.015320	146.160000
522.109009	145.780000
522.202698	145.680000
522.296326	145.840000
522.390015	145.840000
522.483704	146.260000
522.577393	146.460000
522.671021	146.400000
522.764709	145.980000
522.858337	146.300000
522.952026	145.980000
523.045654	146.260000
523.139404	146.600000
523.233032	147.000000
523.326721	146.520000
523.420349	146.920000
523.514038	146.480000
523.607666	146.800000
523.701355	146.340000
523.795044	146.160000
523.888733	146.320000
523.982361	146.500000
524.076050	145.740000
524.169678	146.440000
524.263367	146.300000
524.356995	145.600000
524.450684	145.600000
524.544373	145.640000
524.638062	145.380000
524.731750	145.620000
524.825378	145.740000
524.919067	145.520000
525.012695	145.720000
525.106384	145.640000
525.200012	145.780000
525.293701	145.760000
525.387329	146.200000
525.481018	146.260000
525.574646	146.500000
525.668396	146.320000
525.762024	146.780000
525.855713	146.680000
525.949341	146.300000
526.043030	146.180000
526.136658	145.900000
526.230347	145.500000
526.323975	145.260000
526.417664	145.480000
526.511292	145.580000
526.604980	145.860000
526.698608	146.060000
526.792297	146.360000
526.885925	146.500000
526.979614	146.740000
527.073303	146.820000
527.166931	146.700000
527.260620	146.720000
527.354309	146.920000
527.447998	146.380000
527.541626	145.740000
527.635315	145.780000
527.728943	146.140000
527.822632	146.180000
527.916260	146.220000
528.009949	146.780000
528.103577	146.380000
528.197266	145.600000
528.290894	145.380000
528.384583	145.720000
528.478210	145.620000
528.571899	146.100000
528.665527	146.560000
528.759216	146.960000
528.852844	147.100000
528.946533	147.080000
529.040161	146.980000
529.133850	146.680000
529.227478	146.760000
529.321167	146.820000
529.414856	147.160000
529.508484	147.820000
529.602173	147.640000
529.695801	147.020000
529.789490	146.760000
529.883057	146.340000
529.976746	145.900000
530.070374	146.380000
530.164062	146.640000
530.257690	146.560000
530.351379	146.900000
530.445007	146.640000
530.538696	146.220000
530.632324	146.340000
530.726013	146.220000
530.819641	146.400000
530.913330	146.500000
531.006958	146.600000
531.100647	146.520000
531.194275	146.400000
531.287964	145.920000
531.381592	145.840000
531.475220	145.860000
531.568848	145.860000
531.662537	146.000000
531.756226	146.580000
531.849854	146.580000
531.943542	146.620000
532.037170	146.000000
532.130859	146.400000
532.224487	145.820000
532.318176	145.280000
532.411804	145.760000
532.505432	146.060000
532.599060	145.700000
532.692749	145.600000
532.786377	146.480000
532.880066	145.780000
532.973694	145.640000
533.067383	145.420000
533.161011	145.640000
533.254639	145.020000
533.348267	144.960000
533.441956	145.280000
533.535583	145.220000
533.629272	145.340000
533.722900	145.460000
533.816589	145.720000
533.910156	145.800000
534.003845	145.580000
534.097534	145.980000
534.191162	146.620000
534.284851	146.700000
534.378479	146.320000
534.472107	146.620000
534.565735	146.020000
534.659424	145.900000
534.753052	145.880000
534.846741	145.800000
534.940369	146.660000
535.033997	147.020000
535.127625	146.880000
535.221313	147.440000
535.314941	147.680000
535.408630	146.780000
535.502197	146.960000
535.595886	146.800000
535.689514	146.120000
535.783203	146.380000
535.876831	146.820000
535.970459	146.600000
536.064087	146.360000
536.157776	146.680000
536.251404	146.580000
536.345093	146.200000
536.438721	146.220000
536.532349	146.620000
536.626038	146.220000
536.719666	146.500000
536.813293	146.420000
536.906921	146.340000
537.000610	146.460000
537.094238	146.680000
537.187866	146.440000
537.281494	146.400000
537.375183	146.560000
537.468811	146.080000
537.562439	146.080000
537.656067	146.020000
537.749756	146.300000
537.843384	146.720000
537.937012	146.980000
538.030640	146.880000
538.124329	146.960000
538.217896	147.340000
538.311584	146.700000
538.405212	146.480000
538.498901	146.440000
538.592468	146.740000
538.686157	146.020000
538.779785	145.560000
538.873413	145.640000
538.967102	145.420000
539.060730	144.800000
539.154358	145.200000
539.247986	145.700000
539.341675	145.820000
539.435242	145.880000
539.528931	146.320000
539.622559	145.840000
539.716187	146.200000
539.809814	145.860000
539.903503	146.020000
539.997070	145.760000
540.090759	146.280000
540.184387	145.960000
540.278015	146.740000
540.371643	146.880000
540.465332	147.140000
540.558899	146.880000
540.652588	147.000000
540.746216	146.300000
540.839844	146.700000
540.933472	146.540000
541.027100	146.380000
541.120728	146.320000
541.214417	146.700000
541.308044	146.720000
541.401672	146.620000
541.495300	146.600000
541.588928	146.480000
541.682617	146.280000
541.776184	145.700000
541.869873	146.060000
541.963440	146.420000
542.057129	146.340000
542.150757	146.380000
542.244385	146.320000
542.338013	145.820000
542.431641	145.920000
542.525269	145.640000
542.618958	145.960000
542.712524	146.400000
542.806213	146.060000
542.899780	146.020000
542.993469	146.140000
543.087036	145.860000
543.180725	145.320000
543.274292	145.900000
543.367981	145.620000
543.461548	145.760000
543.555237	145.600000
543.648926	146.020000
543.742493	146.520000
543.836182	146.760000
543.929749	146.780000
544.023437	147.020000
544.117004	147.100000
544.210693	147.020000
544.304260	146.700000
544.397949	146.740000
544.491516	146.940000
544.585205	146.720000
544.678772	146.060000
544.772461	146.720000
544.866028	146.580000
544.959717	146.360000
545.053284	146.040000
545.146973	146.080000
545.240540	145.600000
545.334229	146.100000
545.427795	146.380000
545.521423	146.620000
545.615051	146.880000
545.708679	147.340000
545.802307	147.200000
545.895935	147.200000
545.989624	147.860000
546.083191	147.600000
546.176880	147.400000
546.270447	147.100000
546.364136	147.340000
546.457703	146.620000
546.551331	146.820000
546.644958	147.040000
546.738586	147.280000
546.832214	146.760000
546.925842	146.860000
547.019409	146.860000
547.113098	146.280000
547.206665	145.960000
547.300354	146.300000
547.393921	146.740000
547.487549	147.120000
547.581177	146.980000
547.674805	146.760000
547.768433	145.920000
547.862061	145.640000
547.955627	145.000000
548.049316	145.800000
548.142883	146.280000
548.236572	147.040000
548.330139	147.200000
548.423767	146.880000
548.517456	146.380000
548.611023	146.480000
548.704651	145.560000
548.798279	145.560000
548.891907	146.420000
548.985474	146.300000
549.079163	146.340000
549.172729	146.580000
549.266357	146.220000
549.359985	145.760000
549.453613	145.460000
549.547180	145.240000
549.640869	146.020000
549.734436	146.040000
549.828064	146.420000
549.921631	146.560000
550.015320	146.140000
550.108887	146.060000
550.202515	145.820000
550.296143	145.400000
550.389771	145.480000
550.483337	145.720000
550.576965	145.460000
550.670593	146.080000
550.764221	146.080000
550.857849	146.140000
550.951477	145.820000
551.045105	145.440000
551.138672	145.200000
551.232300	144.820000
551.325928	145.040000
551.419556	145.500000
551.513123	145.900000
551.606750	145.600000
551.700378	145.900000
551.794006	145.720000
551.887573	145.560000
551.981201	145.780000
552.074768	145.760000
552.168457	145.720000
552.262024	146.900000
552.355652	146.700000
552.449219	146.920000
552.542847	147.540000
552.636475	147.320000
552.730103	146.000000
552.823669	146.120000
552.917297	145.720000
553.010864	145.120000
553.104553	145.800000
553.198181	145.560000
553.291748	146.100000
553.385376	146.160000
553.478943	146.340000
553.572571	146.340000
553.666199	146.720000
553.759827	146.260000
553.853394	145.520000
553.947021	145.620000
554.040588	145.380000
554.134216	145.480000
554.227783	146.220000
554.321411	147.100000
554.415039	146.600000
554.508667	146.500000
554.602234	146.600000
554.695862	145.780000
554.789429	145.780000
554.883057	145.960000
554.976624	145.860000
555.070251	145.720000
555.163818	145.740000
555.257507	145.540000
555.351074	145.900000
555.444702	147.020000
555.538330	146.740000
555.631897	146.980000
555.725525	146.920000
555.819092	146.520000
555.912720	145.280000
556.006287	145.880000
556.099915	145.420000
556.193481	145.500000
556.287109	146.140000
556.380676	146.180000
556.474304	146.140000
556.567871	146.600000
556.661499	146.120000
556.755066	145.980000
556.848694	146.260000
556.942261	145.980000
557.035889	146.000000
557.129517	146.220000
557.223145	146.400000
557.316711	146.300000
557.410339	146.640000
557.503906	146.620000
557.597473	147.000000
557.691040	146.660000
557.784668	146.620000
557.878296	146.360000
557.971863	146.380000
558.065491	146.280000
558.159058	145.880000
558.252686	146.720000
558.346252	147.340000
558.439880	146.860000
558.533447	146.540000
558.627075	146.580000
558.720642	145.840000
558.814270	145.500000
558.907837	145.600000
559.001465	145.320000
559.095032	146.060000
559.188660	146.300000
559.282227	145.460000
559.375854	146.200000
559.469360	146.320000
559.562988	146.260000
559.656555	146.060000
559.750183	146.440000
559.843750	146.280000
559.937378	146.460000
560.030945	146.100000
560.124573	0.000000
560.218140	0.000000
560.311707	0.000000
560.405334	0.000000
560.498901	0.000000
560.592529	0.000000
560.686096	0.000000
560.779724	0.000000
560.873291	0.000000
560.966858	0.000000
561.060425	0.000000
561.154053	0.000000
561.247620	0.000000
561.341248	0.000000
561.434814	0.000000
561.528381	0.000000
561.621948	0.000000
561.715576	0.000000
561.809143	0.000000
561.902771	0.000000
561.996277	0.000000
562.089905	0.000000
562.183472	0.000000
562.277100	0.000000
