Model Number: SPM-001-M   
Serial Number: 10090201
Firmware Version: 004.17.6
Exposure Time: 300000.000000us
Data Taken on: 21-01-2021 14:07:22.096
Wavelength	Amplitude
733.770752	0.000000
733.808716	0.000000
733.846619	0.000000
733.884583	0.000000
733.922546	0.000000
733.960449	0.000000
733.998413	0.000000
734.036377	0.000000
734.074219	0.000000
734.112183	0.000000
734.150085	0.000000
734.188049	0.000000
734.226013	0.000000
734.263916	0.000000
734.301819	0.000000
734.339783	0.000000
734.377686	0.000000
734.415588	0.000000
734.453552	0.000000
734.491455	0.000000
734.529419	0.000000
734.567322	0.000000
734.605225	0.000000
734.643127	0.000000
734.681091	0.000000
734.718994	0.000000
734.756897	0.000000
734.794800	0.000000
734.832703	0.000000
734.870667	0.000000
734.908508	0.000000
734.946472	0.000000
734.984375	0.000000
735.022278	0.000000
735.060181	0.000000
735.098083	0.000000
735.135986	0.000000
735.173889	0.000000
735.211792	0.000000
735.249695	0.000000
735.287598	0.000000
735.325439	0.000000
735.363403	0.000000
735.401306	0.000000
735.439148	0.000000
735.477051	0.000000
735.515015	0.000000
735.552856	0.000000
735.590759	0.000000
735.628662	0.000000
735.666504	0.000000
735.704407	0.000000
735.742310	0.000000
735.780212	0.000000
735.818115	0.000000
735.856018	0.000000
735.893860	0.000000
735.931763	0.000000
735.969604	0.000000
736.007507	0.000000
736.045410	0.000000
736.083252	0.000000
736.121094	0.000000
736.158997	0.000000
736.196838	0.000000
736.234741	0.000000
736.272644	0.000000
736.310486	0.000000
736.348389	0.000000
736.386230	0.000000
736.424072	0.000000
736.461975	0.000000
736.499878	0.000000
736.537720	0.000000
736.575562	0.000000
736.613403	0.000000
736.651306	0.000000
736.689148	0.000000
736.726990	0.000000
736.764893	0.000000
736.802734	0.000000
736.840576	0.000000
736.878418	0.000000
736.916321	0.000000
736.954102	0.000000
736.992004	0.000000
737.029846	0.000000
737.067688	0.000000
737.105530	0.000000
737.143372	0.000000
737.181213	0.000000
737.219116	0.000000
737.256897	0.000000
737.294739	0.000000
737.332642	0.000000
737.370422	0.000000
737.408325	0.000000
737.446167	0.000000
737.483948	0.000000
737.521790	0.000000
737.559692	0.000000
737.597473	0.000000
737.635315	0.000000
737.673157	0.000000
737.710999	0.000000
737.748840	0.000000
737.786621	0.000000
737.824463	0.000000
737.862305	0.000000
737.900085	0.000000
737.937927	0.000000
737.975769	0.000000
738.013550	0.000000
738.051392	0.000000
738.089233	0.000000
738.127014	0.000000
738.164856	0.000000
738.202698	0.000000
738.240479	0.000000
738.278320	0.000000
738.316162	0.000000
738.353943	0.000000
738.391785	0.000000
738.429565	0.000000
738.467407	0.000000
738.505188	0.000000
738.542969	0.000000
738.580811	0.000000
738.618652	0.000000
738.656372	0.000000
738.694214	0.000000
738.732056	0.000000
738.769836	0.000000
738.807617	0.000000
738.845459	0.000000
738.883240	0.000000
738.921021	0.000000
738.958862	0.000000
738.996582	0.000000
739.034424	0.000000
739.072205	0.000000
739.109985	0.000000
739.147827	0.000000
739.185547	0.000000
739.223389	0.000000
739.261169	0.000000
739.298889	0.000000
739.336731	0.000000
739.374512	0.000000
739.412292	0.000000
739.450073	0.000000
739.487854	0.000000
739.525635	0.000000
739.563416	0.000000
739.601135	0.000000
739.638977	0.000000
739.676758	0.000000
739.714478	0.000000
739.752258	0.000000
739.790100	0.000000
739.827820	0.000000
739.865601	0.000000
739.903381	0.000000
739.941101	0.000000
739.978882	194.000000
740.016724	189.800000
740.054443	194.300000
740.092224	189.900000
740.130005	188.000000
740.167725	189.500000
740.205505	188.200000
740.243225	196.400000
740.281006	191.300000
740.318787	186.500000
740.356506	196.000000
740.394287	195.800000
740.432068	188.200000
740.469727	186.200000
740.507507	194.300000
740.545288	191.200000
740.583008	192.800000
740.620789	191.800000
740.658569	186.400000
740.696228	192.400000
740.734009	194.900000
740.771790	184.100000
740.809509	193.300000
740.847229	187.500000
740.884949	190.900000
740.922729	186.100000
740.960449	189.600000
740.998169	189.700000
741.035950	188.300000
741.073669	192.300000
741.111389	192.700000
741.149170	198.700000
741.186890	197.200000
741.224609	195.900000
741.262329	193.200000
741.300110	197.700000
741.337769	188.700000
741.375549	185.800000
741.413208	192.500000
741.450989	188.300000
741.488708	189.500000
741.526367	189.200000
741.564148	194.600000
741.601868	193.500000
741.639526	192.500000
741.677307	192.300000
741.715027	193.400000
741.752686	187.700000
741.790466	197.200000
741.828186	193.400000
741.865845	187.400000
741.903564	184.900000
741.941345	190.300000
741.979004	187.400000
742.016724	195.200000
742.054382	191.700000
742.092102	195.300000
742.129822	185.900000
742.167480	189.700000
742.205200	188.700000
742.242920	193.900000
742.280640	192.900000
742.318359	188.700000
742.356079	189.700000
742.393738	195.500000
742.431396	189.600000
742.469116	193.800000
742.506775	186.000000
742.544495	192.600000
742.582214	194.700000
742.619873	191.300000
742.657593	196.700000
742.695251	195.400000
742.732971	190.500000
742.770630	193.800000
742.808289	193.100000
742.846008	191.400000
742.883728	192.900000
742.921326	192.000000
742.959045	189.700000
742.996765	191.600000
743.034424	191.300000
743.072083	188.000000
743.109802	190.300000
743.147400	187.000000
743.185120	191.300000
743.222839	190.800000
743.260437	197.000000
743.298157	192.200000
743.335754	184.900000
743.373474	190.500000
743.411133	187.100000
743.448792	191.200000
743.486450	191.200000
743.524170	185.800000
743.561768	191.100000
743.599487	195.500000
743.637146	199.700000
743.674744	189.500000
743.712463	190.900000
743.750122	191.200000
743.787720	193.300000
743.825439	189.800000
743.863037	191.600000
743.900696	189.900000
743.938416	217.300000
743.976013	191.200000
744.013672	197.300000
744.051331	196.300000
744.088928	199.000000
744.126587	195.300000
744.164307	193.500000
744.201904	188.900000
744.239563	192.600000
744.277222	193.600000
744.314819	192.400000
744.352478	196.700000
744.390137	194.800000
744.427734	193.700000
744.465393	189.100000
744.502991	189.100000
744.540649	193.600000
744.578308	192.300000
744.615906	187.600000
744.653564	183.300000
744.691223	192.800000
744.728821	186.200000
744.766418	191.100000
744.804077	192.300000
744.841675	190.200000
744.879333	186.700000
744.916992	190.200000
744.954529	190.800000
744.992187	194.200000
745.029785	190.600000
745.067444	189.200000
745.105042	192.000000
745.142639	193.500000
745.180298	199.700000
745.217896	188.800000
745.255493	190.700000
745.293152	194.800000
745.330750	197.300000
745.368347	196.700000
745.405945	193.300000
745.443604	191.500000
745.481140	194.600000
745.518799	191.800000
745.556396	194.200000
745.593994	193.000000
745.631592	191.500000
745.669189	187.300000
745.706787	192.300000
745.744385	190.200000
745.781982	194.800000
745.819580	189.000000
745.857178	191.200000
745.894775	191.100000
745.932373	193.800000
745.969971	192.600000
746.007568	184.700000
746.045166	198.200000
746.082764	195.600000
746.120300	192.800000
746.157898	193.800000
746.195557	190.900000
746.233093	186.600000
746.270691	193.900000
746.308228	192.800000
746.345825	194.700000
746.383423	194.600000
746.420959	188.900000
746.458557	187.500000
746.496155	190.000000
746.533691	191.700000
746.571289	188.200000
746.608887	191.700000
746.646423	192.100000
746.684021	192.400000
746.721619	189.700000
746.759155	193.700000
746.796753	187.300000
746.834351	186.200000
746.871826	188.200000
746.909424	196.100000
746.946960	191.800000
746.984558	190.400000
747.022156	190.200000
747.059631	198.200000
747.097229	194.800000
747.134827	189.500000
747.172363	196.000000
747.209900	194.600000
747.247498	187.700000
747.285034	195.600000
747.322571	197.600000
747.360168	190.700000
747.397644	186.300000
747.435242	195.600000
747.472778	195.400000
747.510315	189.400000
747.547913	190.900000
747.585388	195.600000
747.622925	189.400000
747.660522	186.100000
747.697998	189.300000
747.735596	191.600000
747.773132	189.200000
747.810669	191.200000
747.848206	192.800000
747.885742	188.200000
747.923279	186.500000
747.960815	192.900000
747.998352	190.400000
748.035889	195.200000
748.073425	193.700000
748.110901	189.900000
748.148437	187.600000
748.185974	192.100000
748.223511	198.900000
748.261047	193.700000
748.298584	191.000000
748.336060	191.300000
748.373596	192.800000
748.411133	216.900000
748.448608	189.700000
748.486145	194.100000
748.523682	195.200000
748.561218	198.000000
748.598755	192.800000
748.636292	194.400000
748.673706	191.000000
748.711243	197.000000
748.748718	193.000000
748.786255	193.000000
748.823792	191.500000
748.861267	188.300000
748.898804	194.500000
748.936340	193.500000
748.973816	188.800000
749.011292	197.900000
749.048828	192.900000
749.086304	193.700000
749.123840	200.300000
749.161316	189.200000
749.198792	197.800000
749.236328	196.300000
749.273743	191.200000
749.311279	192.100000
749.348816	194.500000
749.386230	190.800000
749.423767	183.100000
749.461304	193.800000
749.498718	191.800000
749.536255	195.400000
749.573730	200.700000
749.611206	196.800000
749.648682	191.000000
749.686218	190.900000
749.723633	192.700000
749.761169	190.400000
749.798645	188.600000
749.836060	191.400000
749.873596	188.600000
749.911011	192.800000
749.948547	196.300000
749.986023	191.900000
750.023437	191.500000
750.060913	188.400000
750.098450	187.900000
750.135864	192.600000
750.173340	192.100000
750.210815	194.700000
750.248291	189.400000
750.285767	192.400000
750.323242	195.400000
750.360657	194.800000
750.398132	188.700000
750.435608	193.200000
750.473022	189.700000
750.510498	189.900000
750.547974	188.800000
750.585449	189.300000
750.622925	184.800000
750.660339	200.800000
750.697815	193.700000
750.735291	190.800000
750.772644	189.600000
750.810120	191.800000
750.847595	193.900000
750.885010	187.400000
750.922485	198.100000
750.959961	190.900000
750.997375	195.900000
751.034851	194.100000
751.072266	194.300000
751.109680	187.200000
751.147156	196.700000
751.184570	193.200000
751.221985	192.200000
751.259460	186.600000
751.296875	192.100000
751.334290	191.800000
751.371765	195.900000
751.409180	195.600000
751.446594	197.000000
751.484070	193.400000
751.521423	192.800000
751.558899	193.500000
751.596375	198.700000
751.633728	196.700000
751.671204	201.000000
751.708618	190.500000
751.746033	192.500000
751.783447	187.100000
751.820801	189.900000
751.858276	195.200000
751.895691	192.000000
751.933105	191.600000
751.970520	187.200000
752.007935	192.000000
752.045349	196.300000
752.082764	192.800000
752.120178	189.600000
752.157532	190.000000
752.195007	189.200000
752.232422	193.100000
752.269775	194.600000
752.307190	194.000000
752.344543	188.200000
752.382019	192.000000
752.419434	189.200000
752.456787	193.800000
752.494202	196.100000
752.531616	192.800000
752.568970	193.700000
752.606384	192.100000
752.643799	193.200000
752.681152	196.900000
752.718567	194.100000
752.755981	185.500000
752.793335	193.100000
752.830750	185.400000
752.868164	195.400000
752.905518	188.400000
752.942932	194.500000
752.980225	186.200000
753.017639	193.700000
753.055054	194.000000
753.092407	192.700000
753.129822	195.000000
753.167175	199.900000
753.204529	191.800000
753.241943	190.000000
753.279358	188.100000
753.316650	193.700000
753.354065	193.400000
753.391479	196.600000
753.428772	197.300000
753.466187	193.800000
753.503479	188.900000
753.540894	189.000000
753.578308	187.500000
753.615601	189.600000
753.653015	191.500000
753.690369	189.400000
753.727722	189.600000
753.765076	186.000000
753.802490	187.300000
753.839783	185.600000
753.877136	189.000000
753.914551	201.500000
753.951843	189.100000
753.989258	195.700000
754.026611	192.000000
754.063904	193.700000
754.101257	188.400000
754.138611	185.200000
754.175964	192.200000
754.213318	200.400000
754.250610	186.900000
754.288025	188.900000
754.325378	187.400000
754.362671	194.300000
754.400024	190.400000
754.437378	198.100000
754.474670	196.700000
754.512085	189.300000
754.549438	191.200000
754.586731	188.300000
754.624084	190.400000
754.661438	188.600000
754.698730	197.700000
754.736084	190.500000
754.773376	191.300000
754.810730	192.400000
754.848083	191.700000
754.885315	195.600000
754.922668	185.300000
754.960022	189.400000
754.997314	194.400000
755.034668	191.500000
755.072021	193.400000
755.109253	190.200000
755.146606	196.700000
755.183960	191.200000
755.221252	198.900000
755.258545	196.100000
755.295898	198.700000
755.333191	196.500000
755.370544	193.800000
755.407776	192.700000
755.445129	192.700000
755.482422	195.900000
755.519714	189.700000
755.557068	187.500000
755.594360	186.000000
755.631653	195.400000
755.668945	198.000000
755.706299	192.900000
755.743530	201.400000
755.780884	198.700000
755.818176	195.000000
755.855408	196.500000
755.892761	194.800000
755.930054	192.400000
755.967346	193.600000
756.004639	193.900000
756.041870	192.600000
756.079224	197.000000
756.116516	190.500000
756.153748	195.100000
756.191040	200.100000
756.228394	195.400000
756.265625	189.300000
756.302917	193.500000
756.340210	190.600000
756.377441	197.300000
756.414795	200.900000
756.452087	192.700000
756.489319	188.800000
756.526611	197.400000
756.563843	193.900000
756.601135	200.600000
756.638428	202.100000
756.675659	193.700000
756.712952	196.800000
756.750244	197.500000
756.787476	195.200000
756.824768	198.800000
756.862061	193.700000
756.899292	241.000000
756.936584	197.600000
756.973816	203.200000
757.011047	202.300000
757.048340	193.300000
757.085632	195.100000
757.122864	209.100000
757.160156	191.600000
757.197327	196.400000
757.234619	199.800000
757.271912	193.700000
757.309082	200.200000
757.346375	192.500000
757.383667	198.800000
757.420837	196.500000
757.458130	196.500000
757.495422	192.900000
757.532593	198.700000
757.569885	190.600000
757.607117	193.800000
757.644348	197.800000
757.681580	207.400000
757.718811	186.600000
757.756042	195.700000
757.793335	194.000000
757.830505	198.200000
757.867798	193.900000
757.905029	194.000000
757.942200	196.200000
757.979492	194.600000
758.016724	195.900000
758.053894	195.900000
758.091187	210.600000
758.128418	197.900000
758.165588	195.800000
758.202820	206.700000
758.240112	197.200000
758.277283	205.400000
758.314514	198.100000
758.351685	195.700000
758.388916	203.400000
758.426147	203.000000
758.463379	204.400000
758.500610	199.200000
758.537842	199.100000
758.575012	203.600000
758.612244	194.100000
758.649475	207.100000
758.686646	193.600000
758.723877	202.700000
758.761108	205.100000
758.798279	198.100000
758.835510	200.600000
758.872742	204.100000
758.909851	201.100000
758.947083	201.300000
758.984253	201.100000
759.021484	202.300000
759.058716	203.800000
759.095886	203.800000
759.133057	199.900000
759.170288	202.400000
759.207458	198.400000
759.244690	208.400000
759.281860	207.200000
759.319031	201.700000
759.356262	199.600000
759.393433	200.000000
759.430603	201.300000
759.467773	200.600000
759.505005	205.900000
759.542175	205.900000
759.579346	201.900000
759.616516	202.000000
759.653687	205.800000
759.690918	201.000000
759.728027	201.800000
759.765259	204.300000
759.802429	207.000000
759.839539	203.500000
759.876770	207.000000
759.913940	210.900000
759.951111	202.800000
759.988281	203.100000
760.025452	200.500000
760.062561	201.100000
760.099792	211.900000
760.136963	205.600000
760.174072	202.600000
760.211243	201.300000
760.248413	201.500000
760.285583	201.100000
760.322754	211.800000
760.359863	209.600000
760.397034	211.100000
760.434204	204.900000
760.471375	204.600000
760.508545	204.700000
760.545715	205.200000
760.582825	200.400000
760.619995	206.800000
760.657166	201.800000
760.694275	210.000000
760.731445	207.600000
760.768555	207.700000
760.805664	208.900000
760.842834	207.700000
760.879944	209.300000
760.917114	206.700000
760.954285	205.900000
760.991394	202.600000
761.028564	212.100000
761.065674	207.300000
761.102783	204.200000
761.139954	210.400000
761.177124	210.100000
761.214172	212.200000
761.251343	206.500000
761.288452	208.600000
761.325562	210.200000
761.362732	205.800000
761.399841	208.200000
761.436951	209.500000
761.474121	206.000000
761.511169	208.800000
761.548340	213.900000
761.585449	211.200000
761.622559	211.900000
761.659668	209.100000
761.696838	213.300000
761.733887	211.900000
761.771057	210.400000
761.808167	209.900000
761.845276	213.300000
761.882385	220.300000
761.919434	210.800000
761.956604	226.000000
761.993713	209.200000
762.030762	217.300000
762.067871	210.800000
762.105042	210.500000
762.142090	216.700000
762.179199	212.700000
762.216309	216.800000
762.253418	222.800000
762.290527	219.600000
762.327637	217.000000
762.364685	210.600000
762.401794	216.200000
762.438904	216.200000
762.475952	211.200000
762.513062	211.200000
762.550110	212.800000
762.587219	221.400000
762.624329	221.800000
762.661377	218.700000
762.698486	216.500000
762.735596	216.000000
762.772644	213.600000
762.809753	210.600000
762.846863	214.800000
762.883911	220.600000
762.921021	218.700000
762.958069	214.700000
762.995117	223.700000
763.032227	223.000000
763.069336	216.700000
763.106323	214.600000
763.143433	214.700000
763.180481	217.200000
763.217590	218.200000
763.254639	216.300000
763.291687	218.400000
763.328735	224.500000
763.365845	217.300000
763.402893	217.700000
763.439941	218.600000
763.477051	221.300000
763.514038	221.000000
763.551147	217.900000
763.588196	220.700000
763.625244	219.600000
763.662292	225.400000
763.699402	227.400000
763.736389	221.900000
763.773499	230.100000
763.810486	224.900000
763.847534	223.200000
763.884644	224.700000
763.921631	222.000000
763.958679	230.300000
763.995728	224.500000
764.032776	230.000000
764.069824	220.300000
764.106873	226.600000
764.143860	231.800000
764.180969	224.700000
764.218018	231.800000
764.255005	224.300000
764.292053	226.300000
764.329102	234.200000
764.366089	235.000000
764.403137	231.000000
764.440125	228.000000
764.477173	230.200000
764.514221	233.000000
764.551208	229.400000
764.588257	226.800000
764.625305	232.700000
764.662292	236.500000
764.699341	240.200000
764.736389	234.500000
764.773376	244.800000
764.810425	235.600000
764.847473	241.200000
764.884399	238.100000
764.921448	244.000000
764.958435	242.300000
764.995483	236.300000
765.032532	247.500000
765.069458	236.200000
765.106506	238.900000
765.143555	235.700000
765.180481	239.300000
765.217529	246.700000
765.254578	236.000000
765.291504	243.300000
765.328552	241.200000
765.365540	239.500000
765.402527	251.400000
765.439575	239.000000
765.476501	237.000000
765.513550	237.800000
765.550537	242.100000
765.587463	248.100000
765.624512	239.000000
765.661499	235.900000
765.698486	246.900000
765.735474	239.900000
765.772461	242.900000
765.809448	249.100000
765.846436	246.200000
765.883423	251.800000
765.920410	244.900000
765.957397	243.300000
765.994385	249.200000
766.031311	255.100000
766.068359	248.000000
766.105286	250.000000
766.142273	254.200000
766.179260	250.500000
766.216187	244.300000
766.253174	242.600000
766.290161	249.400000
766.327148	251.600000
766.364136	252.000000
766.401123	262.900000
766.438049	247.900000
766.475037	258.800000
766.512024	255.700000
766.548950	265.500000
766.585937	259.900000
766.622864	255.900000
766.659790	256.500000
766.696777	248.100000
766.733704	259.000000
766.770691	251.700000
766.807678	261.900000
766.844604	260.300000
766.881531	260.300000
766.918518	263.700000
766.955444	264.400000
766.992432	261.100000
767.029358	262.400000
767.066284	263.500000
767.103271	263.300000
767.140198	294.800000
767.177124	272.500000
767.214050	266.300000
767.251038	266.300000
767.287964	262.600000
767.324890	262.100000
767.361816	264.300000
767.398743	272.300000
767.435730	264.600000
767.472595	267.800000
767.509583	271.200000
767.546509	263.800000
767.583374	266.600000
767.620361	263.100000
767.657288	267.300000
767.694214	267.300000
767.731140	265.400000
767.768066	269.000000
767.804993	269.900000
767.841919	264.200000
767.878845	269.700000
767.915710	275.600000
767.952698	268.800000
767.989563	271.200000
768.026489	271.400000
768.063416	266.300000
768.100281	265.500000
768.137207	275.500000
768.174133	274.000000
768.211060	274.000000
768.247986	274.000000
768.284912	271.100000
768.321777	273.800000
768.358704	271.100000
768.395630	275.400000
768.432495	269.000000
768.469421	275.500000
768.506348	276.700000
768.543152	282.700000
768.580078	280.500000
768.616943	282.800000
768.653870	283.900000
768.690796	281.500000
768.727661	279.500000
768.764587	281.800000
768.801453	277.900000
768.838318	287.100000
768.875244	284.000000
768.912109	291.300000
768.948975	282.000000
768.985901	285.800000
769.022766	282.800000
769.059631	286.600000
769.096558	284.700000
769.133362	284.900000
769.170288	285.600000
769.207214	284.800000
769.244019	288.100000
769.280945	287.300000
769.317810	295.800000
769.354675	290.200000
769.391541	297.500000
769.428406	293.900000
769.465271	301.000000
769.502136	292.700000
769.539062	298.100000
769.575867	295.300000
769.612732	297.600000
769.649597	299.800000
769.686462	301.900000
769.723328	298.900000
769.760193	299.600000
769.797058	299.900000
769.833923	306.900000
769.870728	302.000000
769.907593	306.400000
769.944519	305.700000
769.981323	308.500000
770.018188	308.200000
770.055054	307.000000
770.091858	309.400000
770.128723	314.500000
770.165588	319.400000
770.202393	309.600000
770.239258	318.000000
770.276062	315.400000
770.312927	315.600000
770.349792	320.800000
770.386597	319.300000
770.423462	329.000000
770.460327	334.800000
770.497131	322.600000
770.533997	318.000000
770.570862	328.200000
770.607605	330.300000
770.644470	330.200000
770.681335	329.700000
770.718140	330.800000
770.754944	324.200000
770.791809	323.300000
770.828613	326.900000
770.865479	328.300000
770.902222	336.600000
770.939087	329.500000
770.975952	325.000000
771.012695	329.600000
771.049561	340.800000
771.086365	333.300000
771.123169	330.600000
771.159973	332.700000
771.196838	335.100000
771.233582	336.200000
771.270447	337.600000
771.307251	341.500000
771.344055	336.000000
771.380859	339.000000
771.417664	337.100000
771.454468	344.500000
771.491272	342.300000
771.528076	343.900000
771.564880	339.500000
771.601685	348.000000
771.638428	343.800000
771.675293	346.100000
771.712097	338.300000
771.748840	352.900000
771.785645	347.300000
771.822449	351.000000
771.859253	353.600000
771.896057	350.300000
771.932861	360.500000
771.969604	353.500000
772.006409	349.900000
772.043213	357.200000
772.079956	356.900000
772.116760	350.400000
772.153503	355.600000
772.190308	364.100000
772.227112	354.900000
772.263855	350.300000
772.300659	354.900000
772.337463	359.500000
772.374207	356.400000
772.411011	353.000000
772.447754	355.200000
772.484497	370.500000
772.521301	360.800000
772.558105	358.800000
772.594849	360.100000
772.631592	365.300000
772.668396	364.600000
772.705139	365.800000
772.741882	364.100000
772.778625	374.800000
772.815430	374.400000
772.852173	373.000000
772.888916	379.300000
772.925720	381.300000
772.962463	384.700000
772.999207	379.000000
773.035950	381.100000
773.072754	383.700000
773.109436	380.500000
773.146240	379.100000
773.182922	378.100000
773.219727	387.000000
773.256470	381.300000
773.293152	373.300000
773.329956	378.600000
773.366699	383.400000
773.403381	375.300000
773.440186	384.600000
773.476929	383.800000
773.513611	382.300000
773.550354	380.400000
773.587158	382.700000
773.623840	380.700000
773.660583	385.600000
773.697327	392.100000
773.734009	387.800000
773.770813	385.100000
773.807495	383.300000
773.844238	384.500000
773.880981	398.000000
773.917664	393.800000
773.954407	399.300000
773.991150	390.700000
774.027832	396.100000
774.064575	388.900000
774.101318	396.900000
774.138000	398.700000
774.174744	398.100000
774.211487	396.300000
774.248108	390.100000
774.284851	390.100000
774.321594	394.000000
774.358276	399.300000
774.395020	407.400000
774.431702	405.600000
774.468384	399.000000
774.505127	396.000000
774.541809	401.000000
774.578491	408.500000
774.615234	409.100000
774.651917	404.200000
774.688599	406.100000
774.725342	413.900000
774.762024	414.900000
774.798706	415.400000
774.835449	418.500000
774.872070	423.000000
774.908813	421.700000
774.945496	420.600000
774.982178	416.000000
775.018860	419.300000
775.055542	422.100000
775.092224	424.800000
775.128967	430.500000
775.165588	428.200000
775.202271	422.000000
775.239014	433.200000
775.275635	436.900000
775.312317	432.300000
775.349060	436.100000
775.385681	435.200000
775.422363	430.500000
775.459045	433.000000
775.495667	437.800000
775.532410	443.000000
775.569092	447.400000
775.605713	443.300000
775.642395	442.600000
775.679016	440.700000
775.715698	442.500000
775.752380	446.000000
775.789001	445.600000
775.825684	444.300000
775.862366	448.000000
775.898987	457.000000
775.935669	450.300000
775.972351	466.800000
776.008972	466.500000
776.045654	465.400000
776.082336	459.300000
776.118958	462.300000
776.155640	466.600000
776.192322	470.000000
776.228882	472.900000
776.265564	473.400000
776.302185	474.600000
776.338867	476.400000
776.375488	468.400000
776.412109	475.800000
776.448792	479.100000
776.485413	488.100000
776.522034	483.800000
776.558716	475.900000
776.595337	480.900000
776.631958	485.200000
776.668579	487.600000
776.705261	490.800000
776.741882	488.300000
776.778503	489.600000
776.815186	489.200000
776.851746	491.900000
776.888367	491.400000
776.924988	501.800000
776.961609	492.100000
776.998291	495.400000
777.034851	491.500000
777.071472	497.900000
777.108154	494.000000
777.144714	505.900000
777.181335	507.400000
777.218018	501.900000
777.254578	509.300000
777.291199	505.800000
777.327759	509.100000
777.364380	514.700000
777.401062	521.900000
777.437622	531.500000
777.474243	520.600000
777.510864	524.600000
777.547424	518.500000
777.584045	522.100000
777.620667	521.300000
777.657227	523.600000
777.693848	525.600000
777.730469	538.700000
777.767029	531.300000
777.803650	537.700000
777.840271	531.300000
777.876831	532.100000
777.913452	543.000000
777.950012	525.800000
777.986633	526.100000
778.023193	528.300000
778.059753	527.200000
778.096375	529.400000
778.132996	543.300000
778.169556	535.100000
778.206116	535.000000
778.242737	528.200000
778.279297	537.000000
778.315857	529.100000
778.352478	534.200000
778.389038	539.500000
778.425598	541.500000
778.462219	544.400000
778.498718	539.500000
778.535339	547.700000
778.571838	550.300000
778.608459	553.700000
778.645020	543.400000
778.681580	553.000000
778.718140	552.800000
778.754761	542.100000
778.791260	548.700000
778.827881	557.400000
778.864441	557.400000
778.900940	564.800000
778.937561	563.800000
778.974121	557.700000
779.010620	552.900000
779.047241	557.900000
779.083801	565.400000
779.120300	564.200000
779.156860	567.300000
779.193359	566.700000
779.229980	569.800000
779.266541	571.300000
779.303040	570.600000
779.339600	566.700000
779.376160	563.900000
779.412659	563.700000
779.449219	565.200000
779.485779	570.400000
779.522278	570.000000
779.558838	571.700000
779.595398	570.200000
779.631897	569.600000
779.668457	568.800000
779.705017	571.700000
779.741516	564.500000
779.778076	564.100000
779.814575	565.600000
779.851074	567.000000
779.887634	568.700000
779.924133	577.300000
779.960693	565.200000
779.997253	572.700000
780.033691	578.200000
780.070251	577.800000
780.106812	589.400000
780.143250	585.900000
780.179810	579.900000
780.216370	581.100000
780.252808	582.900000
780.289368	590.400000
780.325867	593.600000
780.362366	595.100000
780.398865	600.000000
780.435364	594.100000
780.471863	599.500000
780.508423	599.500000
780.544861	603.500000
780.581421	601.500000
780.617920	590.300000
780.654419	590.700000
780.690918	598.100000
780.727417	604.700000
780.763916	603.600000
780.800415	613.900000
780.836914	602.400000
780.873352	610.100000
780.909912	598.800000
780.946411	607.600000
780.982849	614.400000
781.019348	623.300000
781.055786	622.000000
781.092346	619.700000
781.128845	620.900000
781.165283	624.400000
781.201782	638.200000
781.238281	635.500000
781.274719	636.100000
781.311218	635.800000
781.347717	648.200000
781.384155	641.700000
781.420654	644.300000
781.457092	650.600000
781.493591	646.800000
781.530090	643.700000
781.566528	644.800000
781.602966	642.800000
781.639465	643.000000
781.675903	639.500000
781.712402	647.900000
781.748901	657.400000
781.785278	646.400000
781.821777	651.000000
781.858276	651.900000
781.894714	666.200000
781.931152	657.800000
781.967651	669.600000
782.004089	659.600000
782.040527	667.000000
782.076965	668.900000
782.113403	673.900000
782.149902	676.700000
782.186340	673.300000
782.222778	684.400000
782.259277	673.900000
782.295654	676.900000
782.332092	681.900000
782.368591	679.800000
782.404968	682.200000
782.441467	681.500000
782.477905	674.900000
782.514282	661.400000
782.550781	665.200000
782.587219	648.600000
782.623596	630.400000
782.660095	605.900000
782.696472	600.100000
782.732910	608.900000
782.769348	634.300000
782.805786	683.500000
782.842224	708.400000
782.878662	715.600000
782.915039	717.000000
782.951477	728.700000
782.987915	720.100000
783.024292	727.500000
783.060730	729.800000
783.097168	722.400000
783.133545	718.800000
783.169983	719.100000
783.206421	713.700000
783.242798	705.900000
783.279236	705.800000
783.315613	704.200000
783.352051	707.600000
783.388489	702.700000
783.424866	696.200000
783.461304	702.100000
783.497681	707.400000
783.534058	709.100000
783.570496	705.900000
783.606934	703.800000
783.643250	705.100000
783.679687	709.100000
783.716125	705.000000
783.752441	718.800000
783.788879	740.300000
783.825317	747.700000
783.861633	750.800000
783.898071	752.500000
783.934448	764.600000
783.970825	778.300000
784.007263	778.800000
784.043579	779.100000
784.080017	776.900000
784.116394	777.000000
784.152710	780.700000
784.189148	784.100000
784.225525	783.700000
784.261902	775.900000
784.298279	768.900000
784.334656	769.500000
784.371033	765.600000
784.407410	764.100000
784.443787	753.500000
784.480164	743.900000
784.516541	732.600000
784.552856	732.000000
784.589233	723.700000
784.625610	723.500000
784.661987	746.000000
784.698364	739.800000
784.734741	737.100000
784.771057	740.300000
784.807434	744.600000
784.843811	754.700000
784.880127	755.000000
784.916504	773.700000
784.952881	776.400000
784.989197	778.600000
785.025574	783.200000
785.061951	789.500000
785.098267	805.600000
785.134644	795.200000
785.170959	794.800000
785.207275	802.200000
785.243652	793.300000
785.279968	780.800000
785.316345	781.700000
785.352722	783.100000
785.388977	780.700000
785.425354	763.600000
785.461731	746.000000
785.498047	747.500000
785.534363	742.500000
785.570679	737.900000
785.606995	736.100000
785.643372	741.900000
785.679687	736.200000
785.716003	730.400000
785.752380	724.800000
785.788635	731.900000
785.825012	743.300000
785.861328	750.000000
785.897644	741.500000
785.933960	752.100000
785.970337	760.000000
786.006592	778.200000
786.042908	786.500000
786.079285	790.600000
786.115540	800.700000
786.151855	809.300000
786.188171	811.000000
786.224487	812.200000
786.260803	809.500000
786.297119	816.400000
786.333435	817.000000
786.369751	804.900000
786.406006	802.000000
786.442322	795.300000
786.478638	781.600000
786.514954	784.000000
786.551270	780.600000
786.587585	785.800000
786.623840	770.900000
786.660156	769.700000
786.696472	760.900000
786.732727	756.900000
786.769043	760.000000
786.805298	754.000000
786.841614	758.500000
786.877930	764.300000
786.914124	754.700000
786.950439	772.400000
786.986755	780.500000
787.023010	791.200000
787.059326	800.800000
787.095642	809.200000
787.131836	824.600000
787.168152	822.600000
787.204468	829.800000
787.240723	839.400000
787.276978	846.600000
787.313293	855.200000
787.349548	858.100000
787.385803	850.600000
787.422058	843.000000
787.458313	846.400000
787.494629	840.500000
787.530823	839.200000
787.567139	828.100000
787.603455	816.500000
787.639648	805.100000
787.675903	807.200000
787.712219	802.800000
787.748413	803.800000
787.784729	807.900000
787.820984	798.900000
787.857178	796.300000
787.893494	791.800000
787.929749	792.900000
787.965942	803.900000
788.002258	816.000000
788.038452	826.400000
788.074707	819.300000
788.110962	828.600000
788.147217	830.400000
788.183472	844.500000
788.219727	853.900000
788.255920	865.300000
788.292175	870.800000
788.328430	868.000000
788.364624	861.100000
788.400879	858.000000
788.437134	862.500000
788.473328	867.000000
788.509583	869.100000
788.545837	865.700000
788.582031	860.900000
788.618286	867.300000
788.654480	859.300000
788.690735	865.500000
788.726990	878.200000
788.763184	884.500000
788.799377	890.500000
788.835632	883.500000
788.871826	893.900000
788.908081	885.100000
788.944336	879.100000
788.980469	900.300000
789.016724	892.000000
789.052979	891.900000
789.089111	877.100000
789.125366	884.300000
789.161621	868.800000
789.197754	878.900000
789.234009	875.500000
789.270142	869.400000
789.306396	860.700000
789.342590	858.800000
789.378784	845.100000
789.414978	835.200000
789.451233	847.900000
789.487366	847.800000
789.523621	858.000000
789.559814	855.400000
789.595947	857.000000
789.632202	867.300000
789.668335	875.700000
789.704529	897.700000
789.740784	916.600000
789.776917	917.300000
789.813110	910.100000
789.849304	912.000000
789.885498	910.000000
789.921692	929.300000
789.957886	938.600000
789.994019	946.900000
790.030212	947.400000
790.066406	945.000000
790.102539	936.600000
790.138733	951.000000
790.174927	952.100000
790.211060	963.700000
790.247253	959.200000
790.283386	950.000000
790.319580	932.000000
790.355774	916.400000
790.391907	917.600000
790.428101	934.700000
790.464294	934.600000
790.500427	939.900000
790.536621	917.500000
790.572754	903.300000
790.608887	899.400000
790.645081	907.700000
790.681274	923.900000
790.717346	923.800000
790.753540	911.500000
790.789734	897.900000
790.825867	881.600000
790.862000	882.100000
790.898132	896.300000
790.934265	896.000000
790.970459	894.900000
791.006592	891.400000
791.042725	888.400000
791.078918	883.400000
791.114990	878.400000
791.151184	883.800000
791.187317	899.000000
791.223389	902.300000
791.259583	894.200000
791.295715	891.400000
791.331848	902.000000
791.367981	906.000000
791.404114	907.400000
791.440247	910.600000
791.476379	916.600000
791.512451	893.900000
791.548584	896.200000
791.584778	888.900000
791.620850	898.800000
791.656982	909.800000
791.693115	904.300000
791.729187	906.000000
791.765381	900.000000
791.801514	900.500000
791.837585	894.600000
791.873718	905.100000
791.909851	910.300000
791.945923	923.500000
791.982056	897.900000
792.018188	896.400000
792.054260	897.000000
792.090393	903.500000
792.126465	900.100000
792.162598	905.200000
792.198669	895.100000
792.234741	897.800000
792.270874	890.300000
792.307007	874.400000
792.343079	871.500000
792.379150	880.600000
792.415283	871.700000
792.451355	875.900000
792.487488	860.300000
792.523560	856.700000
792.559631	847.900000
792.595764	817.900000
792.631836	785.500000
792.667908	768.000000
792.703979	751.500000
792.740051	761.600000
792.776184	790.700000
792.812256	800.400000
792.848328	817.400000
792.884399	828.300000
792.920471	828.500000
792.956543	824.800000
792.992615	818.200000
793.028748	825.300000
793.064758	831.800000
793.100830	850.900000
793.136963	864.100000
793.172974	866.000000
793.209045	857.700000
793.245178	866.400000
793.281189	853.100000
793.317261	854.500000
793.353271	855.500000
793.389404	871.000000
793.425476	862.500000
793.461487	847.200000
793.497559	844.500000
793.533630	837.400000
793.569641	837.200000
793.605713	850.500000
793.641785	844.300000
793.677795	850.700000
793.713867	846.200000
793.749878	847.100000
793.785950	857.900000
793.822021	868.800000
793.858032	864.000000
793.894104	875.400000
793.930176	867.400000
793.966187	873.700000
794.002258	858.900000
794.038269	864.600000
794.074280	862.300000
794.110352	890.400000
794.146423	877.400000
794.182373	878.200000
794.218445	862.500000
794.254517	856.100000
794.290466	842.200000
794.326538	846.700000
794.362549	851.400000
794.398560	859.300000
794.434631	864.900000
794.470581	847.300000
794.506653	833.000000
794.542664	836.400000
794.578674	841.600000
794.614685	840.100000
794.650757	842.000000
794.686707	842.300000
794.722778	826.800000
794.758789	839.800000
794.794739	846.500000
794.830811	868.500000
794.866821	891.700000
794.902771	889.900000
794.938843	884.700000
794.974792	882.700000
795.010803	886.800000
795.046814	895.900000
795.082825	884.500000
795.118835	900.500000
795.154846	882.100000
795.190796	886.100000
795.226807	857.000000
795.262817	867.700000
795.298767	870.400000
795.334778	874.600000
795.370850	866.200000
795.406799	868.600000
795.442810	859.000000
795.478821	849.800000
795.514709	849.100000
795.550720	876.300000
795.586670	855.800000
795.622681	862.800000
795.658691	865.600000
795.694641	864.300000
795.730652	854.300000
795.766663	860.700000
795.802551	870.500000
795.838562	883.300000
795.874573	872.400000
795.910522	876.100000
795.946472	866.300000
795.982483	869.200000
796.018433	868.200000
796.054382	875.800000
796.090393	863.900000
796.126282	856.900000
796.162292	851.700000
796.198242	839.800000
796.234192	832.800000
796.270203	832.000000
796.306091	844.300000
796.342041	858.200000
796.378052	848.300000
796.413940	844.500000
796.449951	850.900000
796.485901	852.500000
796.521790	851.500000
796.557800	861.900000
796.593689	869.400000
796.629639	863.600000
796.665649	862.100000
796.701599	854.600000
796.737488	857.000000
796.773437	864.900000
796.809387	870.500000
796.845337	871.800000
796.881287	863.600000
796.917175	844.700000
796.953125	842.200000
796.989075	846.500000
797.024963	850.100000
797.060913	849.800000
797.096863	846.900000
797.132751	841.300000
797.168701	828.200000
797.204590	829.200000
797.240540	829.400000
797.276489	834.800000
797.312439	842.000000
797.348328	842.400000
797.384277	837.800000
797.420166	825.800000
797.456055	827.300000
797.492004	826.100000
797.527893	832.900000
797.563843	838.800000
797.599731	834.300000
797.635620	829.000000
797.671570	836.300000
797.707520	829.300000
797.743347	824.000000
797.779297	832.900000
797.815125	838.900000
797.851074	835.300000
797.887024	822.900000
797.922913	808.700000
797.958801	811.000000
797.994690	806.900000
798.030579	814.800000
798.066467	820.500000
798.102356	811.700000
798.138245	801.400000
798.174133	792.800000
798.210083	808.700000
798.245911	815.000000
798.281799	815.100000
798.317749	818.800000
798.353577	813.000000
798.389465	805.600000
798.425293	811.600000
798.461243	808.200000
798.497131	812.300000
798.532959	814.200000
798.568848	814.500000
798.604736	801.000000
798.640564	797.000000
798.676453	794.400000
798.712402	794.800000
798.748230	804.200000
798.784119	809.600000
798.820007	812.900000
798.855835	804.500000
798.891724	796.300000
798.927551	786.600000
798.963379	793.100000
798.999268	794.200000
799.035095	785.300000
799.070984	780.500000
799.106873	765.000000
799.142700	768.300000
799.178528	761.700000
799.214417	774.500000
799.250244	786.300000
799.286133	778.500000
799.321960	776.000000
799.357788	774.200000
799.393677	775.000000
799.429504	775.800000
799.465332	770.600000
799.501221	773.000000
799.537048	779.500000
799.572876	768.600000
799.608704	763.700000
799.644531	777.900000
799.680359	779.200000
799.716248	791.100000
799.752014	796.300000
799.787903	788.800000
799.823730	789.600000
799.859558	775.000000
799.895386	768.500000
799.931213	772.800000
799.967041	768.300000
800.002869	774.600000
800.038696	788.300000
800.074463	767.200000
800.110352	767.100000
800.146179	759.300000
800.181946	769.400000
800.217773	771.000000
800.253540	761.600000
800.289429	767.100000
800.325256	755.300000
800.361023	751.400000
800.396851	759.800000
800.432678	761.400000
800.468445	763.300000
800.504272	763.700000
800.540100	755.000000
800.575867	749.200000
800.611694	752.000000
800.647461	748.300000
800.683289	756.100000
800.719116	756.200000
800.754883	751.500000
800.790649	745.500000
800.826477	738.000000
800.862244	747.100000
800.898071	737.300000
800.933838	747.100000
800.969604	749.000000
801.005432	742.900000
801.041199	743.200000
801.076965	732.400000
801.112793	727.200000
801.148560	719.300000
801.184326	727.900000
801.220154	727.500000
801.255859	716.800000
801.291687	723.500000
801.327454	718.000000
801.363281	716.400000
801.398987	712.700000
801.434814	709.100000
801.470520	719.800000
801.506287	714.600000
801.542114	707.000000
801.577820	703.700000
801.613647	697.600000
801.649414	700.800000
801.685120	709.500000
801.720886	712.000000
801.756714	697.600000
801.792419	693.800000
801.828186	692.100000
801.863892	693.000000
801.899719	690.500000
801.935486	691.200000
801.971252	697.700000
802.006958	692.800000
802.042725	685.300000
802.078430	682.700000
802.114197	679.800000
802.149963	694.300000
802.185669	682.600000
802.221436	684.300000
802.257202	681.700000
802.292908	677.400000
802.328674	680.900000
802.364441	685.300000
802.400146	687.300000
802.435913	692.700000
802.471558	689.100000
802.507324	678.200000
802.543091	672.000000
802.578796	681.400000
802.614502	683.200000
802.650269	690.800000
802.685974	682.900000
802.721741	683.000000
802.757446	678.300000
802.793152	680.700000
802.828918	690.600000
802.864624	685.600000
802.900330	687.500000
802.936035	687.300000
802.971802	682.500000
803.007446	674.300000
803.043213	661.700000
803.078857	670.400000
803.114624	662.100000
803.150330	665.800000
803.185974	660.700000
803.221741	660.000000
803.257446	663.000000
803.293152	670.100000
803.328857	661.800000
803.364563	659.000000
803.400208	656.500000
803.435974	662.800000
803.471680	652.900000
803.507324	654.500000
803.543030	659.700000
803.578735	653.700000
803.614441	654.500000
803.650146	666.800000
803.685791	654.400000
803.721497	652.700000
803.757202	640.600000
803.792847	650.500000
803.828552	646.400000
803.864258	645.800000
803.899902	638.300000
803.935608	629.800000
803.971313	630.700000
804.006958	628.500000
804.042664	629.200000
804.078308	643.800000
804.113953	626.700000
804.149658	634.200000
804.185364	621.900000
804.221008	638.300000
804.256714	622.300000
804.292297	622.900000
804.328003	619.300000
804.363708	618.300000
804.399292	616.700000
804.434998	613.900000
804.470703	609.300000
804.506287	621.600000
804.541992	615.300000
804.577637	616.500000
804.613281	604.800000
804.648926	596.700000
804.684570	598.400000
804.720215	592.700000
804.755920	596.900000
804.791565	601.100000
804.827209	606.200000
804.862854	598.300000
804.898437	592.300000
804.934143	595.200000
804.969788	591.200000
805.005371	595.600000
805.041077	596.700000
805.076721	595.000000
805.112305	588.600000
805.147949	583.700000
805.183655	581.800000
805.219238	586.300000
805.254883	583.500000
805.290466	588.800000
805.326111	581.600000
805.361755	572.600000
805.397400	579.600000
805.432983	575.100000
805.468628	570.000000
805.504211	573.800000
805.539856	577.000000
805.575500	580.100000
805.611084	577.000000
805.646729	568.300000
805.682373	568.500000
805.717957	574.500000
805.753601	579.500000
805.789246	571.100000
805.824768	580.200000
805.860413	576.300000
805.895996	567.400000
805.931641	567.500000
805.967224	568.000000
806.002869	563.800000
806.038452	573.500000
806.074036	577.100000
806.109619	561.400000
806.145264	560.700000
806.180847	562.200000
806.216431	560.300000
806.252014	560.200000
806.287659	564.300000
806.323181	568.200000
806.358826	566.300000
806.394409	552.600000
806.429993	552.300000
806.465576	556.600000
806.501160	548.200000
806.536743	543.900000
806.572327	550.000000
806.607910	550.300000
806.643494	544.800000
806.679077	539.900000
806.714661	545.600000
806.750244	542.600000
806.785828	538.300000
806.821350	543.100000
806.856934	540.800000
806.892517	533.600000
806.928101	531.400000
806.963684	531.200000
806.999268	539.600000
807.034790	526.500000
807.070374	527.400000
807.105896	520.700000
807.141479	518.800000
807.177063	522.900000
807.212585	517.500000
807.248169	519.400000
807.283752	524.900000
807.319275	520.200000
807.354858	525.400000
807.390381	519.200000
807.425903	515.500000
807.461487	511.800000
807.497070	508.400000
807.532593	508.700000
807.568115	501.700000
807.603699	500.300000
807.639221	500.700000
807.674744	499.000000
807.710266	506.800000
807.745850	506.300000
807.781372	502.500000
807.816895	502.200000
807.852417	498.500000
807.888000	494.800000
807.923523	494.900000
807.959045	496.400000
807.994629	491.300000
808.030090	492.100000
808.065613	497.800000
808.101135	498.200000
808.136658	491.100000
808.172241	491.000000
808.207764	495.100000
808.243225	489.100000
808.278809	485.400000
808.314270	492.300000
808.349792	483.300000
808.385315	483.400000
808.420837	483.800000
808.456360	488.300000
808.491882	487.800000
808.527344	483.100000
808.562866	490.900000
808.598389	482.100000
808.633850	483.600000
808.669434	478.800000
808.704895	483.200000
808.740417	490.600000
808.775940	483.300000
808.811462	478.500000
808.846924	471.600000
808.882385	471.800000
808.917847	474.300000
808.953369	474.800000
808.988892	469.700000
809.024353	475.600000
809.059875	473.800000
809.095398	468.200000
809.130798	461.800000
809.166321	464.200000
809.201843	463.100000
809.237305	465.500000
809.272766	471.100000
809.308228	461.600000
809.343750	462.000000
809.379211	463.400000
809.414734	460.300000
809.450134	462.600000
809.485657	452.400000
809.521118	457.100000
809.556580	452.000000
809.592102	453.300000
809.627502	450.900000
809.663025	446.600000
809.698486	445.700000
809.733887	441.100000
809.769409	445.000000
809.804871	439.600000
809.840271	442.400000
809.875793	441.700000
809.911194	446.600000
809.946655	436.400000
809.982178	432.000000
810.017639	437.200000
810.053040	432.900000
810.088501	435.300000
810.123901	433.300000
810.159424	428.000000
810.194885	425.800000
810.230286	429.900000
810.265747	423.100000
810.301208	422.200000
810.336609	424.700000
810.372070	418.300000
810.407532	417.800000
810.442932	423.000000
810.478394	425.500000
810.513794	417.100000
810.549255	416.900000
810.584717	414.500000
810.620117	407.100000
810.655518	415.200000
810.690979	410.600000
810.726379	411.000000
810.761841	403.100000
810.797302	402.300000
810.832642	398.100000
810.868103	409.200000
810.903564	397.400000
810.938904	406.700000
810.974365	398.200000
811.009827	401.200000
811.045166	394.300000
811.080627	388.900000
811.115967	391.800000
811.151428	398.600000
811.186829	392.700000
811.222229	392.800000
811.257629	386.600000
811.293091	391.000000
811.328430	394.400000
811.363892	389.000000
811.399292	391.100000
811.434631	388.300000
811.470093	392.400000
811.505493	384.100000
811.540833	382.200000
811.576294	386.100000
811.611694	381.400000
811.647034	379.900000
811.682434	382.400000
811.717773	382.900000
811.753235	390.300000
811.788635	381.100000
811.823975	378.500000
811.859375	384.100000
811.894775	377.300000
811.930115	377.900000
811.965515	376.300000
812.000916	380.700000
812.036255	375.000000
812.071655	375.500000
812.106995	368.500000
812.142395	370.700000
812.177795	378.000000
812.213196	373.700000
812.248474	374.300000
812.283875	366.100000
812.319214	367.300000
812.354614	371.900000
812.390015	364.800000
812.425293	364.300000
812.460693	368.100000
812.496094	361.500000
812.531433	358.400000
812.566772	360.800000
812.602173	360.500000
812.637451	359.100000
812.672852	355.600000
812.708191	357.300000
812.743530	349.600000
812.778931	345.800000
812.814270	348.100000
812.849609	353.100000
812.884949	348.700000
812.920227	345.900000
812.955627	353.400000
812.990967	347.300000
813.026306	343.600000
813.061646	334.400000
813.096985	332.900000
813.132324	329.900000
813.167664	333.900000
813.203003	338.100000
813.238281	329.100000
813.273682	327.400000
813.308960	324.400000
813.344299	328.700000
813.379639	332.000000
813.414978	331.000000
813.450256	325.800000
813.485596	329.000000
813.520874	322.600000
813.556213	325.200000
813.591614	325.000000
813.626831	320.500000
813.662170	324.300000
813.697510	331.600000
813.732788	318.200000
813.768127	323.500000
813.803467	320.800000
813.838745	318.300000
813.874084	320.400000
813.909363	320.200000
813.944641	320.600000
813.979980	312.700000
814.015320	316.600000
814.050598	314.300000
814.085876	315.200000
814.121155	311.000000
814.156494	309.600000
814.191772	310.700000
814.227051	307.700000
814.262390	309.300000
814.297668	307.800000
814.332947	309.000000
814.368225	304.300000
814.403564	305.700000
814.438782	303.500000
814.474121	304.400000
814.509338	301.900000
814.544617	306.800000
814.579956	299.700000
814.615173	307.300000
814.650513	304.600000
814.685791	299.400000
814.721008	302.700000
814.756348	301.700000
814.791626	299.200000
814.826843	298.000000
814.862122	298.000000
814.897400	297.400000
814.932678	296.600000
814.967957	293.800000
815.003235	296.400000
815.038452	291.800000
815.073730	289.600000
815.108948	299.800000
815.144226	296.100000
815.179504	299.000000
815.214722	289.100000
815.250000	287.700000
815.285278	292.600000
815.320496	288.400000
815.355774	289.200000
815.391052	289.900000
815.426270	289.300000
815.461487	286.300000
815.496765	282.800000
815.531982	278.600000
815.567261	281.800000
815.602539	290.200000
815.637695	284.900000
815.672974	285.200000
815.708191	286.600000
815.743408	286.900000
815.778687	278.500000
815.813904	287.000000
815.849121	274.400000
815.884399	276.100000
815.919556	275.300000
815.954834	274.700000
815.990051	278.500000
816.025269	279.100000
816.060486	272.000000
816.095703	271.600000
816.130920	275.000000
816.166199	271.300000
816.201416	273.600000
816.236572	276.300000
816.271851	267.600000
816.307007	272.900000
816.342224	264.600000
816.377441	268.500000
816.412659	261.500000
816.447876	270.900000
816.483093	265.900000
816.518250	264.500000
816.553467	263.600000
816.588745	267.400000
816.623901	258.600000
816.659119	255.400000
816.694275	261.600000
816.729492	258.200000
816.764709	285.500000
816.799927	256.300000
816.835083	258.500000
816.870300	252.900000
816.905457	257.300000
816.940674	256.100000
816.975830	252.700000
817.010986	250.200000
817.046204	251.900000
817.081421	246.800000
817.116577	248.900000
817.151733	254.800000
817.186951	254.100000
817.222107	251.200000
817.257324	253.400000
817.292419	251.500000
817.327637	245.200000
817.362854	246.200000
817.398010	243.900000
817.433167	245.800000
817.468323	244.300000
817.503479	245.700000
817.538635	252.900000
817.573853	244.600000
817.608948	244.900000
817.644165	241.000000
817.679321	242.200000
817.714478	239.700000
817.749634	243.400000
817.784790	249.800000
817.819946	247.500000
817.855103	235.300000
817.890198	238.600000
817.925415	234.500000
817.960571	241.600000
817.995667	241.300000
818.030823	241.200000
818.066040	236.400000
818.101135	239.300000
818.136292	237.500000
818.171448	233.400000
818.206543	236.200000
818.241699	239.200000
818.276855	237.900000
818.311951	235.100000
818.347107	231.300000
818.382263	238.100000
818.417358	239.100000
818.452515	239.400000
818.487610	238.200000
818.522766	231.000000
818.557922	238.400000
818.593018	234.400000
818.628113	231.800000
818.663269	227.500000
818.698364	232.600000
818.733521	228.000000
818.768677	232.100000
818.803711	226.600000
818.838867	228.600000
818.874023	227.100000
818.909058	226.000000
818.944214	223.100000
818.979370	227.600000
819.014404	227.600000
819.049561	223.300000
819.084595	226.800000
819.119751	220.400000
819.154846	227.100000
819.189941	223.400000
819.225037	219.900000
819.260193	218.300000
819.295227	217.200000
819.330322	215.200000
819.365479	215.700000
819.400513	249.600000
819.435608	213.600000
819.470764	211.900000
819.505798	213.800000
819.540894	217.400000
819.575989	213.900000
819.611084	220.400000
819.646179	223.300000
819.681213	217.500000
819.716309	214.600000
819.751404	215.200000
819.786438	219.100000
819.821533	210.300000
819.856628	214.600000
819.891663	217.500000
819.926758	223.600000
819.961853	220.000000
819.996887	210.900000
820.031982	214.100000
820.067017	213.000000
820.102112	244.000000
820.137207	210.700000
820.172302	221.900000
820.207275	210.000000
820.242371	208.900000
820.277405	208.900000
820.312500	209.600000
820.347534	211.900000
820.382568	213.600000
820.417664	208.900000
820.452759	207.600000
820.487732	207.100000
820.522827	209.000000
820.557861	205.300000
820.592896	206.600000
820.627930	209.700000
820.662964	206.500000
820.698059	208.600000
820.733093	205.600000
820.768127	209.700000
820.803162	208.000000
820.838196	204.300000
820.873230	207.400000
820.908264	208.700000
820.943298	203.600000
820.978333	208.600000
821.013367	207.100000
821.048401	209.600000
821.083435	209.000000
821.118469	200.300000
821.153503	209.300000
821.188477	207.900000
821.223511	201.600000
821.258484	206.400000
821.293579	205.400000
821.328613	201.000000
821.363647	202.700000
821.398621	199.200000
821.433655	202.400000
821.468628	215.100000
821.503662	202.400000
821.538696	206.500000
821.573669	199.800000
821.608704	205.900000
821.643677	202.300000
821.678650	206.100000
821.713684	209.600000
821.748718	202.900000
821.783691	203.500000
821.818726	201.600000
821.853638	205.500000
821.888672	202.700000
821.923706	202.600000
821.958618	201.100000
821.993652	200.500000
822.028687	205.500000
822.063599	208.400000
822.098633	202.800000
822.133667	198.100000
822.168579	201.300000
822.203613	203.900000
822.238586	198.600000
822.273560	204.400000
822.308533	199.500000
822.343567	200.600000
822.378479	201.300000
822.413452	200.000000
822.448425	197.900000
822.483398	206.600000
822.518372	204.400000
822.553345	199.600000
822.588318	208.500000
822.623291	200.900000
822.658203	198.600000
822.693237	202.500000
822.728210	198.500000
822.763123	201.100000
822.798096	198.100000
822.833069	199.700000
822.867981	199.400000
822.902954	202.200000
822.937927	201.500000
822.972900	207.300000
823.007874	194.100000
823.042725	203.000000
823.077698	208.800000
823.112671	197.400000
823.147583	199.700000
823.182556	201.600000
823.217529	203.200000
823.252441	198.400000
823.287415	209.600000
823.322388	202.100000
823.357239	198.600000
823.392212	204.200000
823.427185	206.300000
823.462097	196.500000
823.497009	201.400000
823.531982	198.700000
823.566895	201.200000
823.601807	196.600000
823.636719	200.300000
823.671631	201.100000
823.706604	198.900000
823.741455	203.500000
823.776428	196.200000
823.811340	203.500000
823.846252	204.900000
823.881165	204.500000
823.916138	200.200000
823.950989	206.800000
823.985901	198.900000
824.020813	199.400000
824.055725	198.500000
824.090637	195.400000
824.125610	201.200000
824.160461	202.100000
824.195374	199.200000
824.230225	203.200000
824.265198	194.200000
824.300110	197.400000
824.334961	208.100000
824.369873	193.300000
824.404785	201.700000
824.439636	203.100000
824.474548	193.000000
824.509460	190.500000
824.544312	202.900000
824.579224	200.200000
824.614075	199.800000
824.648987	197.600000
824.683899	198.600000
824.718811	196.000000
824.753662	201.700000
824.788574	202.500000
824.823364	199.300000
824.858276	196.300000
824.893188	200.600000
824.928040	201.600000
824.962952	199.700000
824.997803	201.800000
825.032654	198.100000
825.067566	200.600000
825.102417	195.800000
825.137268	197.000000
825.172119	195.700000
825.206970	194.200000
825.241882	196.000000
825.276733	193.000000
825.311646	196.700000
825.346436	192.600000
825.381348	192.900000
825.416138	196.200000
825.450989	193.300000
825.485901	190.100000
825.520691	191.400000
825.555542	191.000000
825.590454	194.300000
825.625244	190.300000
825.660095	199.700000
825.695007	197.800000
825.729797	194.900000
825.764648	192.500000
825.799438	194.200000
825.834290	195.300000
825.869202	188.500000
825.903992	195.000000
825.938843	192.300000
825.973694	188.900000
826.008484	201.500000
826.043335	190.400000
826.078186	187.800000
826.112976	197.200000
826.147827	196.900000
826.182678	199.700000
826.217468	186.600000
826.252319	197.600000
826.287109	188.900000
826.321899	195.500000
826.356750	191.300000
826.391541	188.200000
826.426392	195.600000
826.461182	191.000000
826.495972	188.400000
826.530823	184.300000
826.565613	193.100000
826.600403	186.900000
826.635254	194.500000
826.670044	186.100000
826.704834	187.100000
826.739685	187.700000
826.774475	193.500000
826.809265	191.100000
826.844055	189.700000
826.878906	196.300000
826.913635	193.400000
826.948425	194.200000
826.983215	195.000000
827.018005	195.100000
827.052856	191.400000
827.087585	195.000000
827.122375	187.000000
827.157227	190.500000
827.191956	201.900000
827.226746	187.500000
827.261536	193.500000
827.296265	187.300000
827.331116	190.000000
827.365906	193.400000
827.400635	189.700000
827.435425	186.100000
827.470215	195.700000
827.504944	189.700000
827.539734	194.800000
827.574463	189.200000
827.609253	197.200000
827.644043	190.600000
827.678772	195.000000
827.713562	188.900000
827.748352	189.500000
827.783081	189.100000
827.817871	192.900000
827.852600	186.800000
827.887329	191.000000
827.922119	184.400000
827.956848	192.800000
827.991638	201.600000
828.026367	193.400000
828.061157	190.400000
828.095886	192.200000
828.130615	204.800000
828.165344	184.800000
828.200073	191.300000
828.234863	190.700000
828.269592	190.800000
828.304321	193.300000
828.339111	191.400000
828.373779	188.400000
828.408569	195.100000
828.443298	195.200000
828.477966	189.700000
828.512756	191.100000
828.547424	188.700000
828.582214	189.900000
828.616943	189.800000
828.651672	190.200000
828.686340	194.700000
828.721130	187.600000
828.755798	192.200000
828.790527	189.100000
828.825256	190.900000
828.859924	193.600000
828.894714	193.900000
828.929443	198.000000
828.964111	188.800000
828.998840	194.000000
829.033569	188.100000
829.068237	189.700000
829.102966	189.200000
829.137634	192.600000
829.172363	193.200000
829.207092	192.400000
829.241821	185.700000
829.276489	185.400000
829.311157	191.700000
829.345825	189.000000
829.380554	195.200000
829.415283	186.700000
829.449951	185.700000
829.484619	198.500000
829.519348	196.100000
829.554016	192.300000
829.588745	191.700000
829.623413	187.800000
829.658081	200.500000
829.692749	187.600000
829.727417	196.500000
829.762146	193.700000
829.796814	189.900000
829.831482	189.400000
829.866150	190.300000
829.900879	189.500000
829.935486	191.200000
829.970154	189.700000
830.004883	200.400000
830.039490	192.800000
830.074219	188.100000
830.108887	191.500000
830.143494	189.900000
830.178223	186.700000
830.212891	190.500000
830.247498	191.000000
830.282166	196.900000
830.316772	195.500000
830.351501	187.600000
830.386169	188.600000
830.420776	190.600000
830.455444	190.800000
830.490112	188.300000
830.524719	184.800000
830.559387	191.500000
830.594055	192.100000
830.628662	191.200000
830.663330	190.400000
830.697998	197.900000
830.732605	191.000000
830.767273	192.700000
830.801941	188.700000
830.836487	198.200000
830.871155	192.300000
830.905762	194.100000
830.940430	186.200000
830.975098	187.400000
831.009644	190.300000
831.044312	197.100000
831.078979	193.200000
831.113525	184.800000
831.148193	192.900000
831.182861	190.000000
831.217407	193.600000
831.252075	203.800000
831.286621	189.300000
831.321289	188.300000
831.355896	191.800000
831.390564	196.600000
831.425110	192.000000
831.459778	196.400000
831.494324	200.000000
831.528931	193.300000
831.563599	196.200000
831.598145	186.100000
831.632751	191.500000
831.667419	188.300000
831.701965	193.200000
831.736572	193.000000
831.771179	187.600000
831.805786	188.900000
831.840393	196.400000
831.874939	185.300000
831.909546	193.500000
831.944153	184.400000
831.978760	190.700000
832.013306	186.800000
832.047913	195.900000
832.082458	197.700000
832.117065	188.800000
832.151672	198.100000
832.186218	192.500000
832.220825	193.900000
832.255432	185.400000
832.289978	189.900000
832.324585	192.000000
832.359192	191.500000
832.393677	189.400000
832.428284	192.200000
832.462830	189.800000
832.497437	191.000000
832.531982	195.100000
832.566589	189.400000
832.601135	193.600000
832.635681	184.600000
832.670227	191.100000
832.704773	197.100000
832.739380	192.800000
832.773926	191.200000
832.808472	189.400000
832.843079	190.500000
832.877563	194.600000
832.912170	189.700000
832.946716	185.700000
832.981201	194.700000
833.015808	192.900000
833.050293	189.700000
833.084839	188.300000
833.119446	188.800000
833.153992	193.500000
833.188477	189.600000
833.223022	187.500000
833.257568	192.400000
833.292114	194.700000
833.326660	200.500000
833.361145	188.400000
833.395691	185.600000
833.430237	191.600000
833.464783	192.700000
833.499329	188.200000
833.533875	188.300000
833.568359	192.800000
833.602905	194.700000
833.637390	194.000000
833.671875	189.600000
833.706421	190.000000
833.740906	188.700000
833.775452	182.300000
833.809998	188.900000
833.844482	198.700000
833.879028	190.800000
833.913513	188.600000
833.947998	192.700000
833.982544	187.600000
834.017090	189.500000
834.051514	183.600000
834.086060	192.900000
834.120544	190.500000
834.155029	194.300000
834.189575	190.100000
834.223999	192.700000
834.258545	192.700000
834.293030	191.400000
834.327515	189.300000
834.362000	189.600000
834.396545	194.100000
834.430969	189.300000
834.465454	194.200000
834.500000	185.300000
834.534424	191.800000
834.568970	183.500000
834.603455	185.400000
834.637878	187.500000
834.672363	192.100000
834.706909	191.200000
834.741333	190.800000
834.775818	184.600000
834.810242	186.800000
834.844727	190.200000
834.879211	189.900000
834.913635	190.700000
834.948181	191.700000
834.982666	191.600000
835.017090	189.500000
835.051575	192.100000
835.086060	189.300000
835.120483	192.700000
835.154907	194.200000
835.189331	190.700000
835.223816	194.300000
835.258301	187.500000
835.292786	188.000000
835.327209	193.900000
835.361694	188.200000
835.396057	189.600000
835.430542	193.100000
835.465027	189.600000
835.499390	188.100000
835.533875	216.700000
835.568359	188.500000
835.602722	185.300000
835.637207	191.600000
835.671692	185.300000
835.706055	206.500000
835.740540	192.300000
835.774902	191.100000
835.809387	192.400000
835.843811	186.800000
835.878235	195.800000
835.912659	187.400000
835.947083	188.800000
835.981506	191.400000
836.015930	185.600000
836.050354	194.400000
836.084778	198.100000
836.119202	193.800000
836.153625	203.700000
836.187988	188.600000
836.222473	187.800000
836.256897	191.600000
836.291260	190.000000
836.325684	193.400000
836.360046	190.100000
836.394470	190.100000
836.428894	196.700000
836.463318	188.400000
836.497681	193.100000
836.532104	195.300000
836.566467	192.100000
836.600891	189.600000
836.635315	195.600000
836.669678	191.900000
836.704102	194.300000
836.738525	193.100000
836.772888	184.800000
836.807251	188.400000
836.841675	194.000000
836.876038	187.100000
836.910461	187.600000
836.944763	193.600000
836.979187	187.300000
837.013611	193.400000
837.047974	187.300000
837.082336	200.300000
837.116699	193.800000
837.151062	192.000000
837.185486	186.700000
837.219849	189.700000
837.254211	193.400000
837.288574	189.700000
837.322937	187.600000
837.357300	183.300000
837.391663	200.900000
837.426086	194.900000
837.460388	192.000000
837.494751	193.600000
837.529114	189.100000
837.563477	196.400000
837.597839	191.700000
837.632141	189.600000
837.666565	189.300000
837.700928	193.600000
837.735229	192.300000
837.769592	193.200000
837.803955	193.700000
837.838257	188.500000
837.872620	187.600000
837.906982	195.200000
837.941284	189.900000
837.975647	193.300000
838.010010	196.900000
838.044312	190.500000
838.078674	189.300000
838.112976	191.000000
838.147339	193.200000
838.181702	190.500000
838.216003	198.300000
838.250366	192.200000
838.284668	193.800000
838.318970	185.500000
838.353333	189.900000
838.387634	192.500000
838.421936	190.100000
838.456299	192.200000
838.490601	197.600000
838.524902	194.600000
838.559265	193.900000
838.593567	195.400000
838.627869	185.600000
838.662170	192.600000
838.696472	185.900000
838.730774	188.800000
838.765137	194.500000
838.799377	180.700000
838.833740	191.100000
838.868042	196.000000
838.902283	184.800000
838.936646	195.000000
838.970947	190.800000
839.005188	195.700000
839.039551	185.900000
839.073792	194.500000
839.108093	188.700000
839.142395	198.500000
839.176697	185.300000
839.210937	192.500000
839.245300	199.300000
839.279541	186.000000
839.313843	189.100000
839.348145	191.800000
839.382385	194.300000
839.416687	195.400000
839.450989	192.900000
839.485229	189.200000
839.519531	187.800000
839.553833	195.500000
839.588013	190.200000
839.622314	192.400000
839.656555	192.400000
839.690857	190.900000
839.725159	188.000000
839.759460	190.400000
839.793640	187.900000
839.827942	191.400000
839.862183	187.300000
839.896423	192.200000
839.930725	201.800000
839.964966	197.900000
839.999207	196.200000
840.033508	197.400000
840.067688	189.100000
840.101990	197.600000
840.136230	191.100000
840.170471	197.300000
840.204712	187.200000
840.238953	188.500000
840.273193	191.300000
840.307434	193.800000
840.341736	188.200000
840.375916	185.800000
840.410217	187.900000
840.444397	195.900000
840.478638	192.600000
840.512878	196.000000
840.547119	190.500000
840.581360	193.800000
840.615601	197.400000
840.649780	199.900000
840.684021	190.300000
840.718262	198.400000
840.752441	195.900000
840.786682	191.700000
840.820862	192.000000
840.855103	197.200000
840.889343	191.200000
840.923584	195.900000
840.957764	192.700000
840.992004	192.300000
841.026184	202.400000
841.060425	190.400000
841.094666	188.900000
841.128845	194.100000
841.163025	193.400000
841.197266	193.500000
841.231445	190.000000
841.265686	194.100000
841.299866	189.000000
841.334045	196.700000
841.368286	190.900000
841.402405	197.000000
841.436646	192.300000
841.470825	189.100000
841.505005	189.700000
841.539185	188.600000
841.573425	188.800000
841.607544	191.300000
841.641785	189.400000
841.675964	188.600000
841.710144	192.000000
841.744324	189.800000
841.778503	190.600000
841.812683	187.400000
841.846863	197.000000
841.881042	197.600000
841.915222	188.100000
841.949402	200.700000
841.983521	186.000000
842.017700	190.800000
842.051880	190.300000
842.086060	192.700000
842.120239	191.300000
842.154419	189.800000
842.188538	191.600000
842.222717	188.600000
842.256897	198.200000
842.291016	189.900000
842.325195	193.000000
842.359375	199.400000
842.393494	196.800000
842.427673	191.900000
842.461853	193.500000
842.495911	199.400000
842.530090	194.900000
842.564209	190.600000
842.598389	193.400000
842.632568	192.300000
842.666626	194.600000
842.700806	190.600000
842.734985	189.500000
842.769043	192.200000
842.803223	191.300000
842.837402	189.700000
842.871460	188.600000
842.905640	199.500000
842.939697	188.800000
842.973877	192.100000
843.007996	196.400000
843.042175	199.600000
843.076233	188.700000
843.110413	193.400000
843.144470	197.200000
843.178589	196.300000
843.212769	188.800000
843.246826	194.500000
843.280945	189.500000
843.315125	190.800000
843.349182	189.500000
843.383301	195.200000
843.417419	200.900000
843.451538	192.200000
843.485657	189.400000
843.519714	191.000000
843.553833	191.100000
843.587952	190.500000
843.622070	188.900000
843.656128	195.000000
843.690247	189.100000
843.724304	191.400000
843.758423	192.600000
843.792542	190.200000
843.826599	190.400000
843.860718	190.100000
843.894836	186.100000
843.928894	192.500000
843.963013	192.300000
843.997070	189.400000
844.031128	187.900000
844.065247	195.400000
844.099304	195.000000
844.133362	192.500000
844.167480	192.900000
844.201599	197.200000
844.235596	194.200000
844.269714	193.900000
844.303711	194.000000
844.337830	186.000000
844.371948	194.400000
844.405945	191.400000
844.440063	187.300000
844.474121	202.800000
844.508118	190.100000
844.542236	190.500000
844.576294	191.000000
844.610352	186.400000
844.644409	190.900000
844.678406	185.200000
844.712524	194.500000
844.746582	195.300000
844.780640	191.100000
844.814636	191.500000
844.848755	202.800000
844.882751	190.000000
844.916809	195.500000
844.950867	194.000000
844.984863	198.000000
845.018921	190.400000
845.052979	189.000000
845.086975	191.600000
845.121033	186.000000
845.155090	189.300000
845.189087	198.300000
845.223145	190.400000
845.257141	193.100000
845.291199	195.100000
845.325256	198.100000
845.359253	194.000000
845.393250	204.000000
845.427307	189.700000
845.461304	192.000000
845.495361	190.400000
845.529358	200.300000
845.563354	190.700000
845.597412	189.500000
845.631409	199.100000
845.665405	198.700000
845.699463	194.500000
845.733459	190.100000
845.767456	199.200000
845.801453	192.200000
845.835449	196.800000
845.869446	195.200000
845.903503	195.300000
845.937439	189.700000
845.971497	198.100000
846.005493	187.200000
846.039429	196.600000
846.073486	200.200000
846.107483	190.400000
846.141418	191.200000
846.175476	191.800000
846.209473	196.000000
846.243408	187.600000
846.277405	192.000000
846.311401	189.100000
846.345337	191.100000
846.379395	195.800000
846.413330	188.600000
846.447327	201.100000
846.481323	187.500000
846.515259	189.900000
846.549255	190.000000
846.583252	194.200000
846.617187	188.700000
846.651184	193.700000
846.685120	191.000000
846.719055	200.300000
846.753052	194.200000
846.786987	195.000000
846.820984	186.900000
846.854980	199.100000
846.888916	188.700000
846.922852	192.900000
846.956848	196.700000
846.990723	189.600000
847.024719	192.500000
847.058716	191.800000
847.092590	197.500000
847.126587	193.200000
847.160522	189.000000
847.194458	195.200000
847.228455	188.400000
847.262390	187.800000
847.296265	190.800000
847.330261	195.700000
847.364136	189.400000
847.398132	190.000000
847.432068	192.600000
847.466003	189.200000
847.499939	190.900000
847.533875	193.600000
847.567749	190.500000
847.601746	191.100000
847.635681	194.100000
847.669556	186.300000
847.703491	196.900000
847.737427	201.400000
847.771301	188.400000
847.805237	193.300000
847.839233	192.800000
847.873108	191.000000
847.907043	190.700000
847.940918	197.100000
847.974854	192.800000
848.008789	194.800000
848.042664	191.900000
848.076538	193.700000
848.110474	192.400000
848.144348	192.000000
848.178284	186.000000
848.212219	193.100000
848.246094	191.200000
848.279968	192.300000
848.313904	194.900000
848.347778	192.900000
848.381653	191.300000
848.415588	189.400000
848.449463	189.000000
848.483337	193.600000
848.517212	198.600000
848.551086	192.100000
848.585022	189.300000
848.618835	201.400000
848.652771	190.000000
848.686646	188.500000
848.720520	197.300000
848.754395	190.800000
848.788330	194.900000
848.822144	194.200000
848.856018	190.700000
848.889954	199.800000
848.923767	188.500000
848.957642	190.100000
848.991577	193.300000
849.025391	191.100000
849.059265	190.400000
849.093079	188.200000
849.126953	187.400000
849.160828	197.000000
849.194641	192.400000
849.228577	191.300000
849.262451	190.600000
849.296265	191.400000
849.330139	189.100000
849.364014	192.600000
849.397827	192.600000
849.431702	192.500000
849.465515	194.600000
849.499329	184.500000
849.533203	188.600000
849.567078	184.500000
849.600891	193.900000
849.634766	191.900000
849.668518	194.200000
849.702393	192.600000
849.736267	187.500000
849.770020	200.700000
849.803894	193.800000
849.837769	193.200000
849.871521	192.000000
849.905396	195.000000
849.939270	188.800000
849.973022	190.700000
850.006897	194.800000
850.040710	195.600000
850.074524	195.200000
850.108337	190.600000
850.142151	197.400000
850.175964	196.900000
850.209778	190.000000
850.243530	182.200000
850.277405	194.700000
850.311218	191.400000
850.344971	189.200000
850.378845	197.900000
850.412659	189.300000
850.446411	193.100000
850.480225	192.100000
850.514038	194.900000
850.547791	194.800000
850.581665	191.200000
850.615417	188.900000
850.649231	191.500000
850.683044	190.500000
850.716858	190.500000
850.750610	193.700000
850.784424	194.600000
850.818176	188.000000
850.851929	191.000000
850.885742	190.000000
850.919495	192.000000
850.953308	198.600000
850.987122	198.500000
851.020874	187.500000
851.054626	188.200000
851.088440	194.500000
851.122192	194.300000
851.156006	193.700000
851.189697	191.600000
851.223511	187.000000
851.257263	196.500000
851.291077	194.600000
851.324829	191.300000
851.358582	190.800000
851.392334	191.300000
851.426086	189.800000
851.459900	198.900000
851.493591	193.500000
851.527344	191.200000
851.561157	191.800000
851.594849	194.000000
851.628662	192.400000
851.662415	199.700000
851.696106	193.700000
851.729858	196.400000
851.763611	187.500000
851.797363	192.500000
851.831116	187.500000
851.864868	193.700000
851.898560	195.800000
851.932312	191.500000
851.966064	193.600000
851.999817	190.600000
852.033569	190.900000
852.067261	197.400000
852.101013	190.500000
852.134766	191.500000
852.168457	184.100000
852.202209	197.800000
852.235901	187.300000
852.269592	195.100000
852.303345	199.100000
852.337036	194.400000
852.370789	193.200000
852.404541	195.800000
852.438171	187.200000
852.471924	194.100000
852.505676	187.000000
852.539307	193.400000
852.573059	190.100000
852.606812	191.600000
852.640442	190.400000
852.674194	196.900000
852.707886	201.700000
852.741577	198.500000
852.775269	189.300000
852.809021	192.300000
852.842651	193.800000
852.876404	198.500000
852.910034	192.700000
852.943787	196.000000
852.977478	194.700000
853.011108	189.500000
853.044861	189.800000
853.078552	197.700000
853.112183	193.300000
853.145874	192.400000
853.179626	185.700000
853.213257	192.300000
853.246948	188.900000
853.280640	199.500000
853.314270	190.600000
853.347961	196.800000
853.381653	194.500000
853.415283	196.400000
853.448975	190.500000
853.482605	192.800000
853.516296	192.700000
853.549988	188.600000
853.583618	194.300000
853.617310	192.200000
853.651001	192.700000
853.684631	188.600000
853.718323	188.800000
853.751953	196.600000
853.785583	186.400000
853.819275	193.900000
853.852966	195.300000
853.886536	187.600000
853.920227	187.300000
853.953918	195.100000
853.987488	192.500000
854.021179	195.100000
854.054749	198.900000
854.088440	194.300000
854.122131	188.300000
854.155701	193.500000
854.189331	190.000000
854.223022	194.000000
854.256592	194.800000
854.290283	189.300000
854.323914	195.400000
854.357483	193.300000
854.391174	194.200000
854.424744	199.700000
854.458374	193.400000
854.492065	204.200000
854.525696	191.700000
854.559265	197.200000
854.592896	201.800000
854.626465	192.100000
854.660095	191.800000
854.693787	194.000000
854.727356	189.400000
854.760986	195.000000
854.794617	195.100000
854.828186	190.500000
854.861816	194.800000
854.895447	193.000000
854.929016	193.000000
854.962585	193.700000
854.996155	199.600000
855.029785	193.700000
855.063416	192.900000
855.097046	196.500000
855.130615	189.300000
855.164185	197.000000
855.197754	192.300000
855.231384	194.700000
855.264954	191.400000
855.298523	196.300000
855.332153	192.600000
855.365723	197.900000
855.399292	189.900000
855.432922	192.000000
855.466492	193.900000
855.500061	189.200000
855.533630	188.900000
855.567200	194.700000
855.600769	196.600000
855.634338	197.300000
855.667969	193.100000
855.701477	190.400000
855.735046	189.000000
855.768616	186.000000
855.802185	194.900000
855.835754	203.400000
855.869324	185.900000
855.902893	191.200000
855.936401	195.600000
855.969971	192.400000
856.003540	188.400000
856.037109	194.300000
856.070618	190.300000
856.104187	187.700000
856.137695	190.200000
856.171265	184.500000
856.204834	192.700000
856.238403	195.000000
856.271912	190.100000
856.305481	194.300000
856.338989	187.300000
856.372559	195.500000
856.406128	193.700000
856.439636	197.000000
856.473145	190.500000
856.506653	198.400000
856.540222	192.600000
856.573792	196.600000
856.607300	196.300000
856.640808	187.500000
856.674377	191.900000
856.707825	226.800000
856.741394	197.400000
856.774902	188.800000
856.808472	186.800000
856.841980	193.600000
856.875488	196.700000
856.908936	186.900000
856.942505	192.100000
856.976013	190.500000
857.009521	189.000000
857.043030	191.400000
857.076477	190.300000
857.110046	198.000000
857.143555	192.400000
857.177063	193.800000
857.210571	191.000000
857.244080	186.200000
857.277527	193.500000
857.311035	191.700000
857.344543	196.400000
857.378052	191.100000
857.411499	197.200000
857.445068	198.100000
857.478516	191.300000
857.512024	187.700000
857.545532	190.900000
857.578979	194.000000
857.612427	192.800000
857.645874	190.000000
857.679382	193.400000
857.712891	196.400000
857.746399	192.100000
857.779846	196.200000
857.813354	196.800000
857.846741	192.400000
857.880249	187.700000
857.913757	194.600000
857.947266	191.900000
857.980652	196.200000
858.014160	192.700000
858.047546	190.400000
858.081055	191.700000
858.114563	203.100000
858.147949	186.800000
858.181458	194.700000
858.214844	191.400000
858.248352	186.400000
858.281799	195.000000
858.315308	202.700000
858.348694	195.400000
858.382141	200.100000
858.415588	196.000000
858.449036	195.600000
858.482483	194.600000
858.515930	190.700000
858.549377	193.300000
858.582825	198.100000
858.616211	194.700000
858.649658	195.100000
858.683105	189.300000
858.716553	189.500000
858.750000	188.500000
858.783386	191.100000
858.816833	186.500000
858.850281	191.500000
858.883728	193.000000
858.917114	192.800000
858.950562	199.000000
858.983948	197.100000
859.017395	197.300000
859.050781	191.700000
859.084167	188.600000
859.117615	188.700000
859.151062	195.400000
859.184448	188.800000
859.217834	191.100000
859.251282	190.800000
859.284668	189.200000
859.318054	186.900000
859.351440	191.600000
859.384888	197.600000
859.418274	186.800000
859.451721	186.400000
859.485046	194.600000
859.518494	194.500000
859.551819	189.900000
859.585266	194.700000
859.618652	197.700000
859.652039	188.100000
859.685425	186.900000
859.718811	187.900000
859.752197	184.400000
859.785583	197.200000
859.819031	196.900000
859.852356	193.200000
859.885742	189.200000
859.919067	192.000000
859.952454	190.300000
859.985901	195.800000
860.019287	192.200000
860.052612	0.000000
860.085999	0.000000
860.119324	0.000000
860.152710	0.000000
860.186096	0.000000
860.219421	0.000000
860.252808	0.000000
860.286133	0.000000
860.319519	0.000000
860.352905	0.000000
860.386292	0.000000
860.419617	0.000000
860.452942	0.000000
860.486267	0.000000
860.519653	0.000000
860.553040	0.000000
860.586365	0.000000
860.619690	0.000000
860.653076	0.000000
860.686340	0.000000
860.719727	0.000000
860.753113	0.000000
860.786377	0.000000
860.819763	0.000000
860.853027	0.000000
860.886414	0.000000
860.919739	0.000000
860.953125	0.000000
860.986389	0.000000
861.019714	0.000000
861.053040	0.000000
861.086365	0.000000
861.119690	0.000000
861.153076	0.000000
861.186340	0.000000
861.219666	0.000000
861.252930	0.000000
861.286316	0.000000
861.319641	0.000000
861.352905	0.000000
861.386230	0.000000
861.419495	0.000000
861.452820	0.000000
861.486145	0.000000
861.519470	0.000000
861.552734	0.000000
861.586060	0.000000
861.619324	0.000000
861.652649	0.000000
861.685974	0.000000
861.719238	0.000000
861.752563	0.000000
861.785828	0.000000
861.819092	0.000000
861.852417	0.000000
861.885742	0.000000
861.918945	0.000000
861.952271	0.000000
861.985535	0.000000
862.018799	0.000000
862.052124	0.000000
862.085449	0.000000
862.118652	0.000000
862.151978	0.000000
862.185181	0.000000
862.218506	0.000000
862.251770	0.000000
862.285034	0.000000
862.318298	0.000000
862.351562	0.000000
862.384827	0.000000
862.418091	0.000000
862.451355	0.000000
862.484619	0.000000
862.517883	0.000000
862.551086	0.000000
862.584351	0.000000
862.617676	0.000000
862.650940	0.000000
862.684143	0.000000
862.717407	0.000000
862.750610	0.000000
862.783875	0.000000
862.817139	0.000000
862.850342	0.000000
862.883606	0.000000
862.916870	0.000000
862.950073	0.000000
862.983337	0.000000
863.016602	0.000000
863.049805	0.000000
863.083069	0.000000
863.116211	0.000000
863.149475	0.000000
863.182739	0.000000
863.216003	0.000000
863.249146	0.000000
863.282410	0.000000
863.315613	0.000000
863.348816	0.000000
863.382080	0.000000
863.415222	0.000000
863.448486	0.000000
863.481689	0.000000
863.514893	0.000000
863.548157	0.000000
863.581360	0.000000
863.614502	0.000000
863.647766	0.000000
863.680908	0.000000
863.714172	0.000000
863.747375	0.000000
863.780579	0.000000
863.813721	0.000000
863.846985	0.000000
863.880127	0.000000
863.913330	0.000000
863.946533	0.000000
863.979675	0.000000
864.012939	0.000000
