Model Number: SPM-001-M   
Serial Number: 10090201
Firmware Version: 004.17.6
Exposure Time: 300000.000000us
Data Taken on: 21-01-2021 14:57:47.565
Wavelength	Amplitude
733.770752	0.000000
733.808716	0.000000
733.846619	0.000000
733.884583	0.000000
733.922546	0.000000
733.960449	0.000000
733.998413	0.000000
734.036377	0.000000
734.074219	0.000000
734.112183	0.000000
734.150085	0.000000
734.188049	0.000000
734.226013	0.000000
734.263916	0.000000
734.301819	0.000000
734.339783	0.000000
734.377686	0.000000
734.415588	0.000000
734.453552	0.000000
734.491455	0.000000
734.529419	0.000000
734.567322	0.000000
734.605225	0.000000
734.643127	0.000000
734.681091	0.000000
734.718994	0.000000
734.756897	0.000000
734.794800	0.000000
734.832703	0.000000
734.870667	0.000000
734.908508	0.000000
734.946472	0.000000
734.984375	0.000000
735.022278	0.000000
735.060181	0.000000
735.098083	0.000000
735.135986	0.000000
735.173889	0.000000
735.211792	0.000000
735.249695	0.000000
735.287598	0.000000
735.325439	0.000000
735.363403	0.000000
735.401306	0.000000
735.439148	0.000000
735.477051	0.000000
735.515015	0.000000
735.552856	0.000000
735.590759	0.000000
735.628662	0.000000
735.666504	0.000000
735.704407	0.000000
735.742310	0.000000
735.780212	0.000000
735.818115	0.000000
735.856018	0.000000
735.893860	0.000000
735.931763	0.000000
735.969604	0.000000
736.007507	0.000000
736.045410	0.000000
736.083252	0.000000
736.121094	0.000000
736.158997	0.000000
736.196838	0.000000
736.234741	0.000000
736.272644	0.000000
736.310486	0.000000
736.348389	0.000000
736.386230	0.000000
736.424072	0.000000
736.461975	0.000000
736.499878	0.000000
736.537720	0.000000
736.575562	0.000000
736.613403	0.000000
736.651306	0.000000
736.689148	0.000000
736.726990	0.000000
736.764893	0.000000
736.802734	0.000000
736.840576	0.000000
736.878418	0.000000
736.916321	0.000000
736.954102	0.000000
736.992004	0.000000
737.029846	0.000000
737.067688	0.000000
737.105530	0.000000
737.143372	0.000000
737.181213	0.000000
737.219116	0.000000
737.256897	0.000000
737.294739	0.000000
737.332642	0.000000
737.370422	0.000000
737.408325	0.000000
737.446167	0.000000
737.483948	0.000000
737.521790	0.000000
737.559692	0.000000
737.597473	0.000000
737.635315	0.000000
737.673157	0.000000
737.710999	0.000000
737.748840	0.000000
737.786621	0.000000
737.824463	0.000000
737.862305	0.000000
737.900085	0.000000
737.937927	0.000000
737.975769	0.000000
738.013550	0.000000
738.051392	0.000000
738.089233	0.000000
738.127014	0.000000
738.164856	0.000000
738.202698	0.000000
738.240479	0.000000
738.278320	0.000000
738.316162	0.000000
738.353943	0.000000
738.391785	0.000000
738.429565	0.000000
738.467407	0.000000
738.505188	0.000000
738.542969	0.000000
738.580811	0.000000
738.618652	0.000000
738.656372	0.000000
738.694214	0.000000
738.732056	0.000000
738.769836	0.000000
738.807617	0.000000
738.845459	0.000000
738.883240	0.000000
738.921021	0.000000
738.958862	0.000000
738.996582	0.000000
739.034424	0.000000
739.072205	0.000000
739.109985	0.000000
739.147827	0.000000
739.185547	0.000000
739.223389	0.000000
739.261169	0.000000
739.298889	0.000000
739.336731	0.000000
739.374512	0.000000
739.412292	0.000000
739.450073	0.000000
739.487854	0.000000
739.525635	0.000000
739.563416	0.000000
739.601135	0.000000
739.638977	0.000000
739.676758	0.000000
739.714478	0.000000
739.752258	0.000000
739.790100	0.000000
739.827820	0.000000
739.865601	0.000000
739.903381	0.000000
739.941101	0.000000
739.978882	194.500000
740.016724	190.400000
740.054443	193.800000
740.092224	189.900000
740.130005	190.200000
740.167725	187.500000
740.205505	189.800000
740.243225	195.900000
740.281006	191.500000
740.318787	185.000000
740.356506	196.900000
740.394287	195.200000
740.432068	188.900000
740.469727	185.400000
740.507507	194.800000
740.545288	191.700000
740.583008	192.400000
740.620789	191.000000
740.658569	186.800000
740.696228	191.000000
740.734009	195.400000
740.771790	183.800000
740.809509	194.100000
740.847229	187.000000
740.884949	189.300000
740.922729	186.700000
740.960449	190.300000
740.998169	188.800000
741.035950	188.900000
741.073669	191.500000
741.111389	193.100000
741.149170	201.500000
741.186890	198.300000
741.224609	195.200000
741.262329	193.700000
741.300110	199.100000
741.337769	187.800000
741.375549	188.100000
741.413208	191.800000
741.450989	187.900000
741.488708	187.600000
741.526367	188.300000
741.564148	193.100000
741.601868	195.400000
741.639526	189.700000
741.677307	192.700000
741.715027	192.000000
741.752686	189.100000
741.790466	195.300000
741.828186	192.100000
741.865845	187.800000
741.903564	185.600000
741.941345	190.700000
741.979004	187.500000
742.016724	194.000000
742.054382	191.000000
742.092102	194.700000
742.129822	187.500000
742.167480	189.800000
742.205200	192.500000
742.242920	193.600000
742.280640	195.900000
742.318359	188.200000
742.356079	191.100000
742.393738	194.400000
742.431396	190.000000
742.469116	196.500000
742.506775	183.100000
742.544495	193.900000
742.582214	194.300000
742.619873	191.000000
742.657593	196.900000
742.695251	195.600000
742.732971	190.300000
742.770630	192.400000
742.808289	192.300000
742.846008	191.900000
742.883728	192.200000
742.921326	193.600000
742.959045	191.100000
742.996765	192.000000
743.034424	191.500000
743.072083	190.800000
743.109802	191.000000
743.147400	188.800000
743.185120	191.500000
743.222839	191.600000
743.260437	196.000000
743.298157	192.900000
743.335754	184.800000
743.373474	191.000000
743.411133	185.200000
743.448792	191.900000
743.486450	192.700000
743.524170	185.600000
743.561768	190.500000
743.599487	196.800000
743.637146	199.400000
743.674744	188.700000
743.712463	189.600000
743.750122	192.500000
743.787720	192.900000
743.825439	189.200000
743.863037	190.100000
743.900696	192.100000
743.938416	217.300000
743.976013	190.700000
744.013672	197.800000
744.051331	196.500000
744.088928	200.000000
744.126587	194.900000
744.164307	193.700000
744.201904	188.700000
744.239563	194.000000
744.277222	194.100000
744.314819	193.200000
744.352478	196.500000
744.390137	193.900000
744.427734	194.100000
744.465393	189.600000
744.502991	187.700000
744.540649	195.200000
744.578308	191.100000
744.615906	188.500000
744.653564	183.700000
744.691223	194.100000
744.728821	186.300000
744.766418	191.800000
744.804077	193.600000
744.841675	191.400000
744.879333	185.900000
744.916992	190.600000
744.954529	191.100000
744.992187	195.000000
745.029785	190.800000
745.067444	189.800000
745.105042	191.700000
745.142639	192.900000
745.180298	199.000000
745.217896	191.600000
745.255493	190.400000
745.293152	194.900000
745.330750	196.600000
745.368347	196.700000
745.405945	194.400000
745.443604	192.400000
745.481140	195.100000
745.518799	191.600000
745.556396	195.400000
745.593994	193.300000
745.631592	192.100000
745.669189	187.100000
745.706787	193.300000
745.744385	188.400000
745.781982	194.500000
745.819580	189.800000
745.857178	192.600000
745.894775	191.700000
745.932373	193.400000
745.969971	191.900000
746.007568	187.400000
746.045166	196.700000
746.082764	197.600000
746.120300	194.200000
746.157898	194.900000
746.195557	191.500000
746.233093	188.300000
746.270691	193.000000
746.308228	194.500000
746.345825	195.200000
746.383423	194.300000
746.420959	189.000000
746.458557	190.900000
746.496155	188.700000
746.533691	192.600000
746.571289	187.700000
746.608887	192.300000
746.646423	194.100000
746.684021	192.400000
746.721619	189.500000
746.759155	192.500000
746.796753	185.800000
746.834351	187.600000
746.871826	190.100000
746.909424	197.200000
746.946960	191.200000
746.984558	192.200000
747.022156	189.000000
747.059631	198.900000
747.097229	194.100000
747.134827	191.000000
747.172363	196.100000
747.209900	194.000000
747.247498	187.600000
747.285034	195.600000
747.322571	198.300000
747.360168	191.100000
747.397644	187.200000
747.435242	195.000000
747.472778	197.800000
747.510315	188.500000
747.547913	191.700000
747.585388	194.600000
747.622925	191.400000
747.660522	185.500000
747.697998	191.900000
747.735596	188.300000
747.773132	190.200000
747.810669	191.000000
747.848206	194.000000
747.885742	187.800000
747.923279	188.000000
747.960815	191.800000
747.998352	192.800000
748.035889	195.500000
748.073425	193.700000
748.110901	189.500000
748.148437	189.000000
748.185974	191.500000
748.223511	199.000000
748.261047	194.400000
748.298584	193.600000
748.336060	191.500000
748.373596	194.300000
748.411133	216.200000
748.448608	189.600000
748.486145	194.100000
748.523682	196.900000
748.561218	198.300000
748.598755	192.500000
748.636292	194.100000
748.673706	191.200000
748.711243	199.100000
748.748718	192.600000
748.786255	192.000000
748.823792	191.500000
748.861267	188.100000
748.898804	193.700000
748.936340	193.600000
748.973816	188.800000
749.011292	198.600000
749.048828	191.800000
749.086304	193.300000
749.123840	200.200000
749.161316	189.400000
749.198792	198.100000
749.236328	197.700000
749.273743	191.100000
749.311279	191.500000
749.348816	195.100000
749.386230	192.900000
749.423767	183.000000
749.461304	196.500000
749.498718	191.200000
749.536255	196.400000
749.573730	199.600000
749.611206	198.600000
749.648682	190.400000
749.686218	192.100000
749.723633	191.300000
749.761169	191.700000
749.798645	188.600000
749.836060	190.700000
749.873596	187.900000
749.911011	194.300000
749.948547	196.200000
749.986023	191.700000
750.023437	191.400000
750.060913	187.800000
750.098450	188.900000
750.135864	190.700000
750.173340	192.100000
750.210815	197.300000
750.248291	188.200000
750.285767	191.500000
750.323242	196.400000
750.360657	193.500000
750.398132	188.000000
750.435608	193.000000
750.473022	189.700000
750.510498	188.800000
750.547974	188.500000
750.585449	190.100000
750.622925	185.400000
750.660339	200.200000
750.697815	193.400000
750.735291	191.100000
750.772644	192.100000
750.810120	191.100000
750.847595	194.500000
750.885010	186.800000
750.922485	199.200000
750.959961	191.300000
750.997375	196.900000
751.034851	193.200000
751.072266	196.500000
751.109680	186.400000
751.147156	198.000000
751.184570	192.600000
751.221985	192.400000
751.259460	185.600000
751.296875	191.000000
751.334290	191.800000
751.371765	195.700000
751.409180	193.400000
751.446594	197.200000
751.484070	192.900000
751.521423	193.800000
751.558899	192.900000
751.596375	198.300000
751.633728	197.800000
751.671204	201.500000
751.708618	190.200000
751.746033	192.000000
751.783447	188.700000
751.820801	189.400000
751.858276	196.500000
751.895691	191.700000
751.933105	190.800000
751.970520	188.700000
752.007935	191.500000
752.045349	195.000000
752.082764	193.700000
752.120178	189.100000
752.157532	190.900000
752.195007	189.600000
752.232422	194.700000
752.269775	195.300000
752.307190	195.800000
752.344543	186.900000
752.382019	193.500000
752.419434	191.000000
752.456787	194.900000
752.494202	196.500000
752.531616	194.600000
752.568970	193.500000
752.606384	194.500000
752.643799	192.000000
752.681152	198.900000
752.718567	193.000000
752.755981	186.100000
752.793335	193.100000
752.830750	187.900000
752.868164	196.300000
752.905518	190.200000
752.942932	195.300000
752.980225	188.300000
753.017639	195.100000
753.055054	197.000000
753.092407	193.200000
753.129822	196.600000
753.167175	199.300000
753.204529	193.000000
753.241943	189.000000
753.279358	189.400000
753.316650	195.200000
753.354065	193.400000
753.391479	196.900000
753.428772	197.900000
753.466187	195.400000
753.503479	188.800000
753.540894	192.600000
753.578308	187.900000
753.615601	189.000000
753.653015	191.500000
753.690369	192.100000
753.727722	189.400000
753.765076	188.000000
753.802490	187.000000
753.839783	186.700000
753.877136	188.900000
753.914551	201.900000
753.951843	187.200000
753.989258	196.700000
754.026611	191.200000
754.063904	194.800000
754.101257	188.000000
754.138611	186.500000
754.175964	191.600000
754.213318	200.800000
754.250610	185.900000
754.288025	190.300000
754.325378	187.200000
754.362671	195.400000
754.400024	191.400000
754.437378	199.800000
754.474670	197.100000
754.512085	190.500000
754.549438	192.400000
754.586731	191.500000
754.624084	192.200000
754.661438	189.100000
754.698730	199.300000
754.736084	192.400000
754.773376	192.500000
754.810730	193.600000
754.848083	191.600000
754.885315	196.000000
754.922668	188.200000
754.960022	188.700000
754.997314	194.600000
755.034668	192.600000
755.072021	192.700000
755.109253	189.900000
755.146606	197.400000
755.183960	189.800000
755.221252	200.100000
755.258545	193.900000
755.295898	198.000000
755.333191	195.700000
755.370544	194.700000
755.407776	191.200000
755.445129	194.500000
755.482422	194.400000
755.519714	190.500000
755.557068	186.000000
755.594360	186.700000
755.631653	195.200000
755.668945	199.300000
755.706299	191.100000
755.743530	203.300000
755.780884	197.400000
755.818176	197.700000
755.855408	197.100000
755.892761	194.500000
755.930054	193.600000
755.967346	194.200000
756.004639	194.200000
756.041870	192.700000
756.079224	198.400000
756.116516	190.000000
756.153748	196.900000
756.191040	200.900000
756.228394	196.100000
756.265625	190.900000
756.302917	194.300000
756.340210	191.000000
756.377441	197.900000
756.414795	199.600000
756.452087	195.000000
756.489319	188.600000
756.526611	198.100000
756.563843	195.000000
756.601135	201.500000
756.638428	201.000000
756.675659	195.000000
756.712952	196.000000
756.750244	197.500000
756.787476	195.400000
756.824768	200.200000
756.862061	194.000000
756.899292	242.800000
756.936584	197.400000
756.973816	203.600000
757.011047	203.400000
757.048340	194.700000
757.085632	195.100000
757.122864	210.300000
757.160156	191.900000
757.197327	197.600000
757.234619	197.200000
757.271912	194.900000
757.309082	199.400000
757.346375	193.500000
757.383667	198.100000
757.420837	197.900000
757.458130	196.400000
757.495422	194.900000
757.532593	198.300000
757.569885	192.200000
757.607117	193.900000
757.644348	197.000000
757.681580	208.100000
757.718811	188.600000
757.756042	196.500000
757.793335	195.200000
757.830505	200.100000
757.867798	195.100000
757.905029	194.100000
757.942200	196.600000
757.979492	196.000000
758.016724	196.600000
758.053894	195.500000
758.091187	209.300000
758.128418	197.600000
758.165588	195.400000
758.202820	206.700000
758.240112	198.700000
758.277283	207.000000
758.314514	198.300000
758.351685	198.500000
758.388916	202.900000
758.426147	203.700000
758.463379	204.200000
758.500610	199.200000
758.537842	198.500000
758.575012	204.300000
758.612244	194.900000
758.649475	208.200000
758.686646	191.700000
758.723877	205.400000
758.761108	206.000000
758.798279	197.100000
758.835510	201.100000
758.872742	205.900000
758.909851	202.200000
758.947083	202.800000
758.984253	200.400000
759.021484	203.300000
759.058716	203.300000
759.095886	205.600000
759.133057	200.700000
759.170288	204.900000
759.207458	199.500000
759.244690	210.100000
759.281860	208.400000
759.319031	201.500000
759.356262	200.900000
759.393433	199.300000
759.430603	201.200000
759.467773	202.300000
759.505005	207.500000
759.542175	208.300000
759.579346	202.700000
759.616516	203.100000
759.653687	206.900000
759.690918	199.300000
759.728027	204.700000
759.765259	203.300000
759.802429	206.700000
759.839539	202.800000
759.876770	209.000000
759.913940	211.600000
759.951111	204.700000
759.988281	204.600000
760.025452	202.600000
760.062561	200.500000
760.099792	213.800000
760.136963	205.900000
760.174072	203.800000
760.211243	200.200000
760.248413	203.000000
760.285583	200.500000
760.322754	213.200000
760.359863	208.600000
760.397034	210.200000
760.434204	205.300000
760.471375	207.600000
760.508545	203.900000
760.545715	206.600000
760.582825	201.600000
760.619995	210.500000
760.657166	201.800000
760.694275	212.000000
760.731445	207.800000
760.768555	208.600000
760.805664	209.700000
760.842834	207.900000
760.879944	211.300000
760.917114	207.300000
760.954285	206.500000
760.991394	202.500000
761.028564	212.000000
761.065674	209.600000
761.102783	206.100000
761.139954	212.400000
761.177124	211.000000
761.214172	211.000000
761.251343	208.500000
761.288452	207.800000
761.325562	213.700000
761.362732	206.100000
761.399841	207.800000
761.436951	210.000000
761.474121	207.200000
761.511169	207.700000
761.548340	214.100000
761.585449	211.500000
761.622559	211.900000
761.659668	209.400000
761.696838	215.200000
761.733887	211.300000
761.771057	209.500000
761.808167	209.700000
761.845276	213.900000
761.882385	220.300000
761.919434	212.600000
761.956604	226.500000
761.993713	209.600000
762.030762	216.300000
762.067871	212.600000
762.105042	212.100000
762.142090	219.400000
762.179199	215.500000
762.216309	217.500000
762.253418	223.500000
762.290527	223.000000
762.327637	218.700000
762.364685	210.600000
762.401794	217.500000
762.438904	217.400000
762.475952	212.800000
762.513062	211.100000
762.550110	212.900000
762.587219	223.800000
762.624329	222.000000
762.661377	217.200000
762.698486	218.400000
762.735596	215.800000
762.772644	213.200000
762.809753	210.000000
762.846863	216.100000
762.883911	221.300000
762.921021	220.400000
762.958069	215.000000
762.995117	222.400000
763.032227	223.000000
763.069336	215.800000
763.106323	213.800000
763.143433	215.000000
763.180481	218.200000
763.217590	221.100000
763.254639	217.800000
763.291687	216.100000
763.328735	224.100000
763.365845	218.600000
763.402893	216.700000
763.439941	221.400000
763.477051	222.400000
763.514038	223.900000
763.551147	218.500000
763.588196	221.500000
763.625244	220.800000
763.662292	226.700000
763.699402	227.700000
763.736389	224.800000
763.773499	231.100000
763.810486	226.900000
763.847534	222.900000
763.884644	225.400000
763.921631	223.500000
763.958679	231.700000
763.995728	225.200000
764.032776	231.900000
764.069824	222.700000
764.106873	229.000000
764.143860	233.700000
764.180969	224.400000
764.218018	232.900000
764.255005	224.400000
764.292053	227.000000
764.329102	235.200000
764.366089	236.300000
764.403137	232.300000
764.440125	227.100000
764.477173	231.000000
764.514221	232.500000
764.551208	230.700000
764.588257	228.200000
764.625305	234.600000
764.662292	239.200000
764.699341	239.300000
764.736389	234.700000
764.773376	245.500000
764.810425	237.100000
764.847473	241.900000
764.884399	240.700000
764.921448	245.800000
764.958435	244.200000
764.995483	237.200000
765.032532	247.800000
765.069458	239.000000
765.106506	240.700000
765.143555	237.000000
765.180481	241.400000
765.217529	248.600000
765.254578	235.800000
765.291504	243.500000
765.328552	242.300000
765.365540	239.900000
765.402527	251.200000
765.439575	242.000000
765.476501	237.600000
765.513550	239.700000
765.550537	241.300000
765.587463	250.300000
765.624512	241.700000
765.661499	236.100000
765.698486	248.500000
765.735474	243.100000
765.772461	243.400000
765.809448	249.800000
765.846436	247.000000
765.883423	252.900000
765.920410	246.600000
765.957397	246.200000
765.994385	249.400000
766.031311	257.100000
766.068359	248.800000
766.105286	250.800000
766.142273	253.300000
766.179260	252.900000
766.216187	246.900000
766.253174	245.000000
766.290161	249.700000
766.327148	254.300000
766.364136	253.400000
766.401123	264.400000
766.438049	249.500000
766.475037	260.800000
766.512024	256.600000
766.548950	268.500000
766.585937	261.000000
766.622864	257.700000
766.659790	258.200000
766.696777	250.600000
766.733704	260.200000
766.770691	254.700000
766.807678	263.000000
766.844604	259.700000
766.881531	259.900000
766.918518	264.000000
766.955444	264.900000
766.992432	260.400000
767.029358	264.500000
767.066284	264.700000
767.103271	264.100000
767.140198	294.200000
767.177124	273.500000
767.214050	267.300000
767.251038	270.100000
767.287964	263.900000
767.324890	264.200000
767.361816	267.800000
767.398743	273.100000
767.435730	265.500000
767.472595	269.700000
767.509583	273.100000
767.546509	266.800000
767.583374	268.800000
767.620361	264.500000
767.657288	267.700000
767.694214	268.400000
767.731140	267.200000
767.768066	271.900000
767.804993	271.200000
767.841919	265.600000
767.878845	271.500000
767.915710	277.100000
767.952698	270.800000
767.989563	273.400000
768.026489	273.300000
768.063416	269.900000
768.100281	268.800000
768.137207	277.700000
768.174133	276.900000
768.211060	278.900000
768.247986	275.100000
768.284912	272.900000
768.321777	273.600000
768.358704	272.900000
768.395630	275.900000
768.432495	272.100000
768.469421	279.100000
768.506348	281.800000
768.543152	287.000000
768.580078	281.700000
768.616943	284.200000
768.653870	283.200000
768.690796	284.200000
768.727661	282.000000
768.764587	284.700000
768.801453	277.400000
768.838318	287.000000
768.875244	286.100000
768.912109	291.300000
768.948975	282.600000
768.985901	285.900000
769.022766	282.200000
769.059631	288.400000
769.096558	284.800000
769.133362	288.400000
769.170288	285.800000
769.207214	286.800000
769.244019	291.200000
769.280945	292.000000
769.317810	296.400000
769.354675	291.800000
769.391541	296.200000
769.428406	295.700000
769.465271	302.000000
769.502136	297.300000
769.539062	297.600000
769.575867	297.400000
769.612732	298.100000
769.649597	302.700000
769.686462	303.900000
769.723328	300.200000
769.760193	298.400000
769.797058	299.800000
769.833923	306.100000
769.870728	303.400000
769.907593	308.400000
769.944519	307.000000
769.981323	309.400000
770.018188	310.200000
770.055054	308.600000
770.091858	307.100000
770.128723	317.900000
770.165588	320.400000
770.202393	311.700000
770.239258	319.800000
770.276062	316.300000
770.312927	319.300000
770.349792	324.900000
770.386597	319.800000
770.423462	327.900000
770.460327	334.700000
770.497131	322.800000
770.533997	316.800000
770.570862	332.300000
770.607605	331.600000
770.644470	329.600000
770.681335	327.700000
770.718140	331.500000
770.754944	326.800000
770.791809	327.100000
770.828613	329.000000
770.865479	331.500000
770.902222	335.900000
770.939087	332.700000
770.975952	327.500000
771.012695	329.600000
771.049561	342.900000
771.086365	334.700000
771.123169	334.000000
771.159973	339.100000
771.196838	338.900000
771.233582	339.000000
771.270447	339.300000
771.307251	342.100000
771.344055	339.300000
771.380859	344.600000
771.417664	340.200000
771.454468	345.900000
771.491272	345.300000
771.528076	346.400000
771.564880	343.300000
771.601685	348.700000
771.638428	345.400000
771.675293	348.700000
771.712097	342.200000
771.748840	356.100000
771.785645	350.100000
771.822449	351.700000
771.859253	358.000000
771.896057	357.100000
771.932861	361.800000
771.969604	354.800000
772.006409	349.200000
772.043213	359.200000
772.079956	360.600000
772.116760	349.500000
772.153503	354.600000
772.190308	365.600000
772.227112	356.200000
772.263855	353.500000
772.300659	360.700000
772.337463	365.900000
772.374207	357.900000
772.411011	355.200000
772.447754	357.800000
772.484497	367.900000
772.521301	365.800000
772.558105	362.700000
772.594849	366.400000
772.631592	366.800000
772.668396	367.200000
772.705139	371.400000
772.741882	368.900000
772.778625	374.300000
772.815430	376.300000
772.852173	375.400000
772.888916	381.200000
772.925720	380.700000
772.962463	389.000000
772.999207	380.700000
773.035950	384.700000
773.072754	384.100000
773.109436	379.400000
773.146240	382.200000
773.182922	378.700000
773.219727	390.600000
773.256470	387.600000
773.293152	376.400000
773.329956	380.900000
773.366699	388.700000
773.403381	378.100000
773.440186	385.900000
773.476929	385.400000
773.513611	385.300000
773.550354	384.100000
773.587158	384.800000
773.623840	378.700000
773.660583	387.600000
773.697327	396.700000
773.734009	392.300000
773.770813	387.600000
773.807495	386.900000
773.844238	387.300000
773.880981	400.200000
773.917664	393.600000
773.954407	400.100000
773.991150	391.700000
774.027832	398.300000
774.064575	391.800000
774.101318	396.800000
774.138000	398.900000
774.174744	398.600000
774.211487	397.700000
774.248108	390.400000
774.284851	391.100000
774.321594	400.400000
774.358276	401.100000
774.395020	408.300000
774.431702	407.400000
774.468384	401.300000
774.505127	399.700000
774.541809	407.200000
774.578491	412.200000
774.615234	414.000000
774.651917	406.000000
774.688599	408.600000
774.725342	419.300000
774.762024	413.800000
774.798706	419.500000
774.835449	420.100000
774.872070	427.200000
774.908813	423.900000
774.945496	421.800000
774.982178	420.400000
775.018860	419.500000
775.055542	423.700000
775.092224	429.300000
775.128967	430.800000
775.165588	431.000000
775.202271	423.700000
775.239014	434.400000
775.275635	434.100000
775.312317	433.100000
775.349060	436.800000
775.385681	441.700000
775.422363	432.400000
775.459045	438.900000
775.495667	436.400000
775.532410	442.000000
775.569092	445.200000
775.605713	446.200000
775.642395	440.600000
775.679016	442.500000
775.715698	445.300000
775.752380	447.000000
775.789001	444.600000
775.825684	445.900000
775.862366	449.500000
775.898987	459.800000
775.935669	453.100000
775.972351	464.500000
776.008972	466.800000
776.045654	469.200000
776.082336	466.300000
776.118958	461.600000
776.155640	463.500000
776.192322	470.600000
776.228882	475.100000
776.265564	478.100000
776.302185	473.600000
776.338867	477.000000
776.375488	470.400000
776.412109	479.300000
776.448792	481.700000
776.485413	485.400000
776.522034	485.500000
776.558716	478.100000
776.595337	480.600000
776.631958	484.700000
776.668579	490.300000
776.705261	495.100000
776.741882	493.200000
776.778503	492.000000
776.815186	492.000000
776.851746	490.600000
776.888367	493.100000
776.924988	503.000000
776.961609	496.900000
776.998291	496.500000
777.034851	494.300000
777.071472	502.200000
777.108154	500.900000
777.144714	511.600000
777.181335	510.500000
777.218018	504.000000
777.254578	510.500000
777.291199	508.800000
777.327759	514.300000
777.364380	521.600000
777.401062	526.300000
777.437622	530.800000
777.474243	522.600000
777.510864	527.000000
777.547424	517.900000
777.584045	527.700000
777.620667	530.800000
777.657227	529.700000
777.693848	528.500000
777.730469	539.100000
777.767029	529.300000
777.803650	534.900000
777.840271	534.100000
777.876831	535.700000
777.913452	538.200000
777.950012	524.700000
777.986633	523.300000
778.023193	527.000000
778.059753	528.900000
778.096375	531.900000
778.132996	539.700000
778.169556	534.000000
778.206116	530.800000
778.242737	529.100000
778.279297	536.900000
778.315857	532.700000
778.352478	535.000000
778.389038	544.900000
778.425598	544.600000
778.462219	545.500000
778.498718	541.200000
778.535339	548.300000
778.571838	550.400000
778.608459	553.100000
778.645020	547.000000
778.681580	554.000000
778.718140	556.400000
778.754761	549.100000
778.791260	555.200000
778.827881	560.300000
778.864441	559.400000
778.900940	566.500000
778.937561	566.000000
778.974121	565.400000
779.010620	560.400000
779.047241	561.400000
779.083801	567.800000
779.120300	567.500000
779.156860	571.900000
779.193359	564.000000
779.229980	570.000000
779.266541	569.900000
779.303040	574.900000
779.339600	568.200000
779.376160	567.200000
779.412659	566.600000
779.449219	568.400000
779.485779	572.600000
779.522278	566.800000
779.558838	576.000000
779.595398	578.100000
779.631897	567.900000
779.668457	567.700000
779.705017	568.400000
779.741516	564.000000
779.778076	564.300000
779.814575	573.000000
779.851074	573.100000
779.887634	574.300000
779.924133	573.000000
779.960693	566.300000
779.997253	572.200000
780.033691	580.800000
780.070251	581.300000
780.106812	589.000000
780.143250	583.800000
780.179810	574.300000
780.216370	582.400000
780.252808	586.100000
780.289368	588.600000
780.325867	587.400000
780.362366	585.700000
780.398865	591.900000
780.435364	591.400000
780.471863	604.200000
780.508423	600.000000
780.544861	604.400000
780.581421	598.300000
780.617920	590.800000
780.654419	591.200000
780.690918	594.700000
780.727417	604.500000
780.763916	598.100000
780.800415	611.400000
780.836914	593.800000
780.873352	604.600000
780.909912	586.100000
780.946411	589.800000
780.982849	590.400000
781.019348	596.200000
781.055786	582.000000
781.092346	568.900000
781.128845	563.300000
781.165283	554.100000
781.201782	551.400000
781.238281	539.200000
781.274719	529.200000
781.311218	515.800000
781.347717	512.500000
781.384155	494.100000
781.420654	483.200000
781.457092	483.000000
781.493591	472.500000
781.530090	464.500000
781.566528	464.500000
781.602966	460.900000
781.639465	459.800000
781.675903	455.600000
781.712402	461.500000
781.748901	467.600000
781.785278	462.200000
781.821777	467.400000
781.858276	468.700000
781.894714	479.400000
781.931152	472.200000
781.967651	476.900000
782.004089	469.500000
782.040527	473.000000
782.076965	472.800000
782.113403	472.800000
782.149902	476.300000
782.186340	466.700000
782.222778	478.800000
782.259277	469.400000
782.295654	469.300000
782.332092	474.700000
782.368591	475.200000
782.404968	480.500000
782.441467	489.000000
782.477905	489.500000
782.514282	493.400000
782.550781	505.600000
782.587219	513.500000
782.623596	529.700000
782.660095	538.600000
782.696472	554.900000
782.732910	567.000000
782.769348	575.800000
782.805786	605.000000
782.842224	620.300000
782.878662	631.000000
782.915039	642.300000
782.951477	654.600000
782.987915	659.300000
783.024292	683.400000
783.060730	692.100000
783.097168	692.600000
783.133545	698.000000
783.169983	697.900000
783.206421	690.700000
783.242798	699.800000
783.279236	697.700000
783.315613	698.400000
783.352051	701.300000
783.388489	698.500000
783.424866	691.600000
783.461304	702.600000
783.497681	703.800000
783.534058	707.800000
783.570496	705.000000
783.606934	698.300000
783.643250	704.600000
783.679687	708.500000
783.716125	707.300000
783.752441	717.600000
783.788879	734.600000
783.825317	743.600000
783.861633	743.800000
783.898071	743.400000
783.934448	760.400000
783.970825	767.100000
784.007263	766.600000
784.043579	765.200000
784.080017	769.100000
784.116394	764.300000
784.152710	772.200000
784.189148	775.900000
784.225525	772.700000
784.261902	767.100000
784.298279	765.200000
784.334656	767.900000
784.371033	761.600000
784.407410	766.400000
784.443787	749.000000
784.480164	735.400000
784.516541	724.100000
784.552856	724.800000
784.589233	725.300000
784.625610	718.400000
784.661987	742.100000
784.698364	739.200000
784.734741	733.500000
784.771057	733.900000
784.807434	738.900000
784.843811	750.600000
784.880127	752.300000
784.916504	762.900000
784.952881	775.000000
784.989197	775.200000
785.025574	777.000000
785.061951	776.100000
785.098267	796.300000
785.134644	795.700000
785.170959	786.900000
785.207275	788.800000
785.243652	787.800000
785.279968	772.100000
785.316345	771.700000
785.352722	773.900000
785.388977	773.300000
785.425354	763.300000
785.461731	745.500000
785.498047	745.800000
785.534363	738.100000
785.570679	739.700000
785.606995	735.000000
785.643372	741.500000
785.679687	737.100000
785.716003	724.900000
785.752380	714.700000
785.788635	729.100000
785.825012	743.300000
785.861328	747.900000
785.897644	739.700000
785.933960	746.900000
785.970337	757.100000
786.006592	772.600000
786.042908	776.300000
786.079285	794.600000
786.115540	801.800000
786.151855	802.000000
786.188171	804.900000
786.224487	803.400000
786.260803	800.800000
786.297119	812.100000
786.333435	814.800000
786.369751	802.600000
786.406006	793.500000
786.442322	775.500000
786.478638	767.600000
786.514954	777.100000
786.551270	779.000000
786.587585	783.700000
786.623840	768.200000
786.660156	761.200000
786.696472	755.100000
786.732727	755.200000
786.769043	759.300000
786.805298	745.800000
786.841614	752.700000
786.877930	762.000000
786.914124	755.900000
786.950439	773.100000
786.986755	777.100000
787.023010	792.200000
787.059326	798.500000
787.095642	801.600000
787.131836	816.900000
787.168152	812.300000
787.204468	824.600000
787.240723	837.200000
787.276978	846.500000
787.313293	849.300000
787.349548	845.500000
787.385803	840.500000
787.422058	830.000000
787.458313	832.600000
787.494629	824.900000
787.530823	829.100000
787.567139	822.100000
787.603455	809.500000
787.639648	799.200000
787.675903	806.100000
787.712219	798.400000
787.748413	805.600000
787.784729	811.500000
787.820984	795.300000
787.857178	796.600000
787.893494	788.000000
787.929749	784.700000
787.965942	796.700000
788.002258	809.700000
788.038452	819.400000
788.074707	809.200000
788.110962	821.300000
788.147217	830.500000
788.183472	841.700000
788.219727	845.500000
788.255920	867.300000
788.292175	869.000000
788.328430	864.800000
788.364624	860.400000
788.400879	863.000000
788.437134	861.400000
788.473328	859.500000
788.509583	856.800000
788.545837	855.200000
788.582031	855.300000
788.618286	855.100000
788.654480	842.000000
788.690735	866.300000
788.726990	887.700000
788.763184	881.400000
788.799377	883.900000
788.835632	873.600000
788.871826	879.900000
788.908081	883.400000
788.944336	875.800000
788.980469	892.400000
789.016724	883.600000
789.052979	884.500000
789.089111	872.900000
789.125366	877.300000
789.161621	864.800000
789.197754	876.500000
789.234009	873.400000
789.270142	866.300000
789.306396	864.300000
789.342590	864.000000
789.378784	844.100000
789.414978	841.300000
789.451233	843.400000
789.487366	845.000000
789.523621	855.600000
789.559814	854.100000
789.595947	854.800000
789.632202	863.700000
789.668335	871.700000
789.704529	888.700000
789.740784	901.200000
789.776917	898.400000
789.813110	898.300000
789.849304	897.800000
789.885498	897.200000
789.921692	911.200000
789.957886	922.200000
789.994019	923.400000
790.030212	924.800000
790.066406	923.900000
790.102539	923.400000
790.138733	933.800000
790.174927	934.700000
790.211060	946.400000
790.247253	942.500000
790.283386	935.100000
790.319580	922.500000
790.355774	909.800000
790.391907	910.200000
790.428101	925.800000
790.464294	920.200000
790.500427	912.800000
790.536621	900.500000
790.572754	899.200000
790.608887	901.100000
790.645081	900.700000
790.681274	922.000000
790.717346	912.700000
790.753540	897.500000
790.789734	887.300000
790.825867	879.200000
790.862000	878.400000
790.898132	884.000000
790.934265	883.400000
790.970459	878.700000
791.006592	880.500000
791.042725	871.800000
791.078918	865.000000
791.114990	867.700000
791.151184	876.100000
791.187317	889.200000
791.223389	894.100000
791.259583	879.900000
791.295715	881.100000
791.331848	887.400000
791.367981	892.600000
791.404114	895.300000
791.440247	901.300000
791.476379	904.600000
791.512451	888.100000
791.548584	886.100000
791.584778	880.600000
791.620850	888.700000
791.656982	894.400000
791.693115	893.500000
791.729187	894.800000
791.765381	888.100000
791.801514	893.300000
791.837585	887.800000
791.873718	894.900000
791.909851	897.800000
791.945923	912.300000
791.982056	891.800000
792.018188	885.500000
792.054260	878.100000
792.090393	877.700000
792.126465	876.500000
792.162598	890.500000
792.198669	880.700000
792.234741	872.100000
792.270874	867.200000
792.307007	854.900000
792.343079	858.300000
792.379150	874.200000
792.415283	865.700000
792.451355	865.900000
792.487488	846.900000
792.523560	841.600000
792.559631	829.900000
792.595764	802.700000
792.631836	772.200000
792.667908	745.000000
792.703979	718.000000
792.740051	732.300000
792.776184	770.200000
792.812256	784.600000
792.848328	802.700000
792.884399	807.300000
792.920471	811.100000
792.956543	809.300000
792.992615	811.800000
793.028748	806.700000
793.064758	811.300000
793.100830	819.600000
793.136963	834.900000
793.172974	839.000000
793.209045	829.000000
793.245178	842.500000
793.281189	834.300000
793.317261	835.000000
793.353271	842.600000
793.389404	852.800000
793.425476	846.200000
793.461487	830.500000
793.497559	826.900000
793.533630	820.700000
793.569641	816.600000
793.605713	823.800000
793.641785	828.800000
793.677795	838.900000
793.713867	831.600000
793.749878	834.600000
793.785950	848.000000
793.822021	856.100000
793.858032	852.900000
793.894104	865.000000
793.930176	861.100000
793.966187	860.600000
794.002258	847.000000
794.038269	856.800000
794.074280	848.500000
794.110352	872.700000
794.146423	850.200000
794.182373	860.500000
794.218445	850.800000
794.254517	846.000000
794.290466	826.400000
794.326538	838.800000
794.362549	835.500000
794.398560	839.300000
794.434631	844.800000
794.470581	836.400000
794.506653	816.800000
794.542664	819.900000
794.578674	827.000000
794.614685	824.000000
794.650757	821.400000
794.686707	820.900000
794.722778	813.700000
794.758789	826.000000
794.794739	828.700000
794.830811	854.000000
794.866821	872.000000
794.902771	878.400000
794.938843	865.000000
794.974792	858.800000
795.010803	855.500000
795.046814	872.000000
795.082825	859.400000
795.118835	869.800000
795.154846	856.000000
795.190796	858.800000
795.226807	843.000000
795.262817	846.200000
795.298767	848.100000
795.334778	858.200000
795.370850	846.900000
795.406799	854.000000
795.442810	841.200000
795.478821	834.000000
795.514709	835.400000
795.550720	857.800000
795.586670	828.300000
795.622681	837.900000
795.658691	846.700000
795.694641	840.500000
795.730652	832.900000
795.766663	837.700000
795.802551	846.200000
795.838562	864.600000
795.874573	860.700000
795.910522	854.000000
795.946472	839.300000
795.982483	849.500000
796.018433	854.900000
796.054382	857.800000
796.090393	852.000000
796.126282	846.900000
796.162292	828.200000
796.198242	834.900000
796.234192	827.000000
796.270203	822.400000
796.306091	826.900000
796.342041	835.600000
796.378052	831.300000
796.413940	832.300000
796.449951	825.800000
796.485901	829.500000
796.521790	830.700000
796.557800	844.800000
796.593689	848.800000
796.629639	847.900000
796.665649	838.800000
796.701599	840.000000
796.737488	846.500000
796.773437	849.200000
796.809387	849.200000
796.845337	846.200000
796.881287	838.700000
796.917175	819.300000
796.953125	820.500000
796.989075	831.600000
797.024963	829.900000
797.060913	835.700000
797.096863	832.600000
797.132751	823.900000
797.168701	811.100000
797.204590	819.700000
797.240540	814.100000
797.276489	824.300000
797.312439	825.300000
797.348328	821.700000
797.384277	815.700000
797.420166	808.700000
797.456055	805.300000
797.492004	812.100000
797.527893	818.000000
797.563843	828.900000
797.599731	823.900000
797.635620	819.000000
797.671570	819.800000
797.707520	818.100000
797.743347	819.200000
797.779297	820.500000
797.815125	818.100000
797.851074	812.100000
797.887024	802.900000
797.922913	795.400000
797.958801	795.700000
797.994690	798.300000
798.030579	801.600000
798.066467	808.500000
798.102356	797.700000
798.138245	789.400000
798.174133	781.600000
798.210083	795.900000
798.245911	802.600000
798.281799	797.200000
798.317749	798.100000
798.353577	798.400000
798.389465	790.500000
798.425293	782.500000
798.461243	791.400000
798.497131	796.700000
798.532959	799.400000
798.568848	808.400000
798.604736	790.200000
798.640564	780.300000
798.676453	786.100000
798.712402	777.500000
798.748230	784.500000
798.784119	781.800000
798.820007	793.000000
798.855835	788.100000
798.891724	774.500000
798.927551	772.300000
798.963379	781.900000
798.999268	776.200000
799.035095	768.600000
799.070984	763.100000
799.106873	756.400000
799.142700	754.900000
799.178528	749.200000
799.214417	753.300000
799.250244	763.700000
799.286133	762.000000
799.321960	763.100000
799.357788	751.800000
799.393677	750.500000
799.429504	751.500000
799.465332	753.700000
799.501221	756.800000
799.537048	767.000000
799.572876	755.900000
799.608704	749.600000
799.644531	762.600000
799.680359	762.800000
799.716248	774.800000
799.752014	774.400000
799.787903	770.400000
799.823730	762.700000
799.859558	760.400000
799.895386	757.500000
799.931213	755.900000
799.967041	753.000000
800.002869	762.000000
800.038696	763.900000
800.074463	745.500000
800.110352	747.700000
800.146179	747.200000
800.181946	753.300000
800.217773	754.600000
800.253540	754.000000
800.289429	752.700000
800.325256	743.600000
800.361023	739.900000
800.396851	741.500000
800.432678	744.700000
800.468445	743.100000
800.504272	750.800000
800.540100	730.900000
800.575867	728.300000
800.611694	735.400000
800.647461	730.900000
800.683289	740.100000
800.719116	751.200000
800.754883	742.100000
800.790649	729.500000
800.826477	718.100000
800.862244	737.300000
800.898071	727.600000
800.933838	727.400000
800.969604	728.700000
801.005432	729.000000
801.041199	728.300000
801.076965	716.700000
801.112793	709.600000
801.148560	707.700000
801.184326	709.000000
801.220154	707.800000
801.255859	701.000000
801.291687	699.700000
801.327454	695.000000
801.363281	698.200000
801.398987	700.000000
801.434814	692.400000
801.470520	702.700000
801.506287	691.400000
801.542114	684.100000
801.577820	675.600000
801.613647	683.700000
801.649414	688.300000
801.685120	696.200000
801.720886	690.900000
801.756714	680.100000
801.792419	674.400000
801.828186	674.900000
801.863892	672.500000
801.899719	675.400000
801.935486	675.500000
801.971252	684.000000
802.006958	675.100000
802.042725	670.000000
802.078430	665.900000
802.114197	662.000000
802.149963	675.800000
802.185669	666.300000
802.221436	666.700000
802.257202	665.900000
802.292908	662.100000
802.328674	672.200000
802.364441	670.400000
802.400146	668.100000
802.435913	668.300000
802.471558	666.500000
802.507324	666.300000
802.543091	661.200000
802.578796	670.100000
802.614502	672.300000
802.650269	674.000000
802.685974	661.100000
802.721741	666.200000
802.757446	664.300000
802.793152	667.500000
802.828918	671.800000
802.864624	670.500000
802.900330	663.100000
802.936035	668.800000
802.971802	668.200000
803.007446	655.400000
803.043213	650.400000
803.078857	662.000000
803.114624	647.200000
803.150330	656.400000
803.185974	648.100000
803.221741	650.800000
803.257446	652.400000
803.293152	653.100000
803.328857	651.500000
803.364563	653.600000
803.400208	649.800000
803.435974	649.900000
803.471680	632.700000
803.507324	634.400000
803.543030	639.300000
803.578735	645.400000
803.614441	638.700000
803.650146	642.400000
803.685791	634.700000
803.721497	641.200000
803.757202	626.500000
803.792847	632.900000
803.828552	626.800000
803.864258	628.000000
803.899902	623.900000
803.935608	612.500000
803.971313	618.000000
804.006958	611.400000
804.042664	613.100000
804.078308	621.300000
804.113953	615.400000
804.149658	619.900000
804.185364	614.100000
804.221008	622.300000
804.256714	610.600000
804.292297	605.200000
804.328003	607.600000
804.363708	598.500000
804.399292	601.600000
804.434998	601.100000
804.470703	593.400000
804.506287	601.400000
804.541992	593.800000
804.577637	600.000000
804.613281	591.500000
804.648926	588.700000
804.684570	594.800000
804.720215	581.500000
804.755920	578.000000
804.791565	579.200000
804.827209	591.100000
804.862854	588.800000
804.898437	579.600000
804.934143	580.700000
804.969788	586.100000
805.005371	583.700000
805.041077	582.000000
805.076721	585.400000
805.112305	574.500000
805.147949	570.900000
805.183655	562.600000
805.219238	567.300000
805.254883	568.400000
805.290466	576.100000
805.326111	574.600000
805.361755	564.500000
805.397400	562.800000
805.432983	568.900000
805.468628	563.200000
805.504211	567.800000
805.539856	565.300000
805.575500	568.900000
805.611084	560.400000
805.646729	554.800000
805.682373	553.500000
805.717957	561.100000
805.753601	566.800000
805.789246	554.700000
805.824768	562.100000
805.860413	570.900000
805.895996	561.300000
805.931641	561.700000
805.967224	558.800000
806.002869	550.000000
806.038452	560.800000
806.074036	565.200000
806.109619	550.300000
806.145264	546.900000
806.180847	547.100000
806.216431	546.200000
806.252014	543.000000
806.287659	547.600000
806.323181	551.700000
806.358826	551.500000
806.394409	537.000000
806.429993	534.800000
806.465576	537.000000
806.501160	533.000000
806.536743	527.800000
806.572327	542.500000
806.607910	531.600000
806.643494	531.400000
806.679077	523.900000
806.714661	526.400000
806.750244	529.000000
806.785828	527.900000
806.821350	527.700000
806.856934	529.500000
806.892517	520.900000
806.928101	518.400000
806.963684	520.900000
806.999268	527.900000
807.034790	511.600000
807.070374	515.300000
807.105896	508.900000
807.141479	509.100000
807.177063	517.200000
807.212585	507.600000
807.248169	508.600000
807.283752	511.200000
807.319275	506.400000
807.354858	508.800000
807.390381	506.800000
807.425903	501.000000
807.461487	501.200000
807.497070	499.600000
807.532593	501.300000
807.568115	494.900000
807.603699	491.100000
807.639221	488.000000
807.674744	488.900000
807.710266	489.700000
807.745850	495.500000
807.781372	491.600000
807.816895	488.700000
807.852417	491.400000
807.888000	486.100000
807.923523	479.700000
807.959045	487.100000
807.994629	480.300000
808.030090	480.300000
808.065613	487.300000
808.101135	487.100000
808.136658	480.500000
808.172241	479.400000
808.207764	481.000000
808.243225	476.600000
808.278809	472.400000
808.314270	482.400000
808.349792	467.500000
808.385315	471.100000
808.420837	475.400000
808.456360	479.100000
808.491882	480.300000
808.527344	474.900000
808.562866	480.900000
808.598389	472.600000
808.633850	470.000000
808.669434	461.700000
808.704895	466.100000
808.740417	476.300000
808.775940	473.400000
808.811462	468.300000
808.846924	463.400000
808.882385	459.800000
808.917847	459.500000
808.953369	461.700000
808.988892	459.800000
809.024353	460.600000
809.059875	466.400000
809.095398	460.600000
809.130798	455.000000
809.166321	453.100000
809.201843	452.500000
809.237305	452.600000
809.272766	459.400000
809.308228	449.900000
809.343750	448.000000
809.379211	450.100000
809.414734	450.900000
809.450134	453.700000
809.485657	443.200000
809.521118	448.400000
809.556580	446.100000
809.592102	444.700000
809.627502	443.100000
809.663025	440.200000
809.698486	439.300000
809.733887	434.800000
809.769409	439.800000
809.804871	430.300000
809.840271	431.900000
809.875793	435.600000
809.911194	433.300000
809.946655	429.300000
809.982178	426.200000
810.017639	426.700000
810.053040	424.800000
810.088501	424.600000
810.123901	422.500000
810.159424	421.700000
810.194885	418.400000
810.230286	422.000000
810.265747	414.000000
810.301208	411.600000
810.336609	414.900000
810.372070	408.700000
810.407532	410.100000
810.442932	411.800000
810.478394	415.100000
810.513794	408.400000
810.549255	407.200000
810.584717	403.900000
810.620117	401.100000
810.655518	408.100000
810.690979	407.200000
810.726379	401.900000
810.761841	391.600000
810.797302	394.600000
810.832642	391.000000
810.868103	401.400000
810.903564	393.000000
810.938904	399.000000
810.974365	389.400000
811.009827	390.200000
811.045166	385.800000
811.080627	383.600000
811.115967	384.500000
811.151428	387.300000
811.186829	382.900000
811.222229	383.700000
811.257629	378.000000
811.293091	383.000000
811.328430	388.600000
811.363892	382.000000
811.399292	384.500000
811.434631	378.700000
811.470093	384.500000
811.505493	375.400000
811.540833	377.200000
811.576294	379.100000
811.611694	375.900000
811.647034	373.100000
811.682434	373.300000
811.717773	372.700000
811.753235	380.000000
811.788635	375.200000
811.823975	376.400000
811.859375	377.900000
811.894775	367.800000
811.930115	369.600000
811.965515	366.700000
812.000916	371.000000
812.036255	367.100000
812.071655	369.400000
812.106995	366.700000
812.142395	366.100000
812.177795	371.300000
812.213196	366.900000
812.248474	371.300000
812.283875	358.200000
812.319214	364.200000
812.354614	362.700000
812.390015	359.900000
812.425293	359.800000
812.460693	359.200000
812.496094	358.400000
812.531433	351.800000
812.566772	352.500000
812.602173	355.400000
812.637451	353.800000
812.672852	353.200000
812.708191	355.900000
812.743530	349.300000
812.778931	344.000000
812.814270	345.000000
812.849609	350.300000
812.884949	347.900000
812.920227	340.300000
812.955627	351.500000
812.990967	344.400000
813.026306	340.300000
813.061646	330.700000
813.096985	329.400000
813.132324	328.200000
813.167664	330.200000
813.203003	338.000000
813.238281	323.600000
813.273682	326.700000
813.308960	322.000000
813.344299	324.500000
813.379639	330.800000
813.414978	325.600000
813.450256	323.400000
813.485596	325.400000
813.520874	317.000000
813.556213	323.700000
813.591614	321.600000
813.626831	317.300000
813.662170	321.400000
813.697510	327.700000
813.732788	313.700000
813.768127	317.900000
813.803467	316.100000
813.838745	313.400000
813.874084	316.500000
813.909363	315.700000
813.944641	316.700000
813.979980	309.600000
814.015320	312.600000
814.050598	309.700000
814.085876	310.300000
814.121155	311.000000
814.156494	308.600000
814.191772	308.900000
814.227051	306.400000
814.262390	306.300000
814.297668	306.300000
814.332947	305.700000
814.368225	301.400000
814.403564	302.400000
814.438782	301.000000
814.474121	300.400000
814.509338	299.800000
814.544617	303.200000
814.579956	298.600000
814.615173	304.200000
814.650513	302.900000
814.685791	293.500000
814.721008	300.000000
814.756348	295.700000
814.791626	297.100000
814.826843	293.800000
814.862122	296.800000
814.897400	292.300000
814.932678	295.300000
814.967957	294.100000
815.003235	294.400000
815.038452	287.400000
815.073730	287.400000
815.108948	295.500000
815.144226	293.900000
815.179504	295.500000
815.214722	285.800000
815.250000	284.100000
815.285278	290.700000
815.320496	281.900000
815.355774	284.100000
815.391052	286.100000
815.426270	286.400000
815.461487	283.900000
815.496765	281.600000
815.531982	279.000000
815.567261	281.200000
815.602539	287.400000
815.637695	283.500000
815.672974	286.200000
815.708191	283.300000
815.743408	284.400000
815.778687	278.600000
815.813904	286.200000
815.849121	272.800000
815.884399	274.600000
815.919556	273.700000
815.954834	273.300000
815.990051	276.600000
816.025269	279.200000
816.060486	270.300000
816.095703	272.000000
816.130920	271.000000
816.166199	268.600000
816.201416	270.600000
816.236572	274.300000
816.271851	267.900000
816.307007	274.500000
816.342224	262.800000
816.377441	269.400000
816.412659	260.100000
816.447876	267.800000
816.483093	263.400000
816.518250	264.800000
816.553467	262.600000
816.588745	266.500000
816.623901	258.400000
816.659119	255.000000
816.694275	259.400000
816.729492	256.600000
816.764709	285.600000
816.799927	254.100000
816.835083	257.600000
816.870300	252.200000
816.905457	254.800000
816.940674	254.700000
816.975830	250.700000
817.010986	248.300000
817.046204	249.500000
817.081421	246.400000
817.116577	248.800000
817.151733	257.200000
817.186951	255.100000
817.222107	252.200000
817.257324	254.400000
817.292419	251.800000
817.327637	244.200000
817.362854	247.500000
817.398010	244.800000
817.433167	243.700000
817.468323	244.700000
817.503479	245.000000
817.538635	254.500000
817.573853	245.200000
817.608948	244.000000
817.644165	241.700000
817.679321	242.900000
817.714478	240.500000
817.749634	244.000000
817.784790	250.000000
817.819946	249.000000
817.855103	233.200000
817.890198	240.300000
817.925415	235.000000
817.960571	244.000000
817.995667	240.900000
818.030823	241.200000
818.066040	236.000000
818.101135	240.000000
818.136292	236.800000
818.171448	234.700000
818.206543	236.700000
818.241699	240.200000
818.276855	236.400000
818.311951	236.000000
818.347107	231.000000
818.382263	238.000000
818.417358	240.200000
818.452515	240.400000
818.487610	240.100000
818.522766	231.100000
818.557922	239.200000
818.593018	233.900000
818.628113	234.800000
818.663269	228.800000
818.698364	232.200000
818.733521	229.000000
818.768677	232.700000
818.803711	225.400000
818.838867	226.900000
818.874023	227.900000
818.909058	226.000000
818.944214	224.100000
818.979370	228.500000
819.014404	226.700000
819.049561	224.600000
819.084595	226.300000
819.119751	223.400000
819.154846	225.800000
819.189941	222.900000
819.225037	220.200000
819.260193	217.500000
819.295227	217.700000
819.330322	215.400000
819.365479	214.800000
819.400513	250.500000
819.435608	213.600000
819.470764	212.100000
819.505798	213.700000
819.540894	218.300000
819.575989	214.100000
819.611084	220.300000
819.646179	223.000000
819.681213	217.000000
819.716309	212.900000
819.751404	214.800000
819.786438	221.100000
819.821533	211.500000
819.856628	215.000000
819.891663	218.000000
819.926758	224.900000
819.961853	218.400000
819.996887	211.300000
820.031982	216.300000
820.067017	213.500000
820.102112	245.800000
820.137207	209.700000
820.172302	223.100000
820.207275	210.600000
820.242371	209.100000
820.277405	209.500000
820.312500	211.500000
820.347534	213.100000
820.382568	214.200000
820.417664	208.500000
820.452759	207.300000
820.487732	207.900000
820.522827	207.400000
820.557861	206.000000
820.592896	204.900000
820.627930	209.100000
820.662964	204.700000
820.698059	211.700000
820.733093	206.000000
820.768127	210.500000
820.803162	206.300000
820.838196	206.500000
820.873230	206.000000
820.908264	208.000000
820.943298	203.800000
820.978333	210.100000
821.013367	205.000000
821.048401	210.800000
821.083435	210.800000
821.118469	200.700000
821.153503	209.400000
821.188477	207.300000
821.223511	202.600000
821.258484	206.500000
821.293579	205.200000
821.328613	200.600000
821.363647	203.900000
821.398621	201.200000
821.433655	202.800000
821.468628	214.800000
821.503662	203.300000
821.538696	206.800000
821.573669	200.600000
821.608704	205.200000
821.643677	203.200000
821.678650	205.900000
821.713684	209.400000
821.748718	202.700000
821.783691	204.400000
821.818726	203.200000
821.853638	205.200000
821.888672	202.700000
821.923706	202.200000
821.958618	201.300000
821.993652	203.000000
822.028687	205.700000
822.063599	209.500000
822.098633	202.500000
822.133667	199.600000
822.168579	201.000000
822.203613	204.300000
822.238586	198.300000
822.273560	205.000000
822.308533	198.800000
822.343567	200.200000
822.378479	200.600000
822.413452	200.700000
822.448425	197.200000
822.483398	205.800000
822.518372	204.600000
822.553345	199.500000
822.588318	207.600000
822.623291	200.800000
822.658203	199.800000
822.693237	201.700000
822.728210	198.100000
822.763123	201.600000
822.798096	198.800000
822.833069	199.500000
822.867981	200.400000
822.902954	202.700000
822.937927	202.700000
822.972900	207.700000
823.007874	195.500000
823.042725	203.000000
823.077698	210.200000
823.112671	197.000000
823.147583	200.900000
823.182556	201.500000
823.217529	205.500000
823.252441	197.400000
823.287415	209.500000
823.322388	202.600000
823.357239	199.800000
823.392212	203.800000
823.427185	206.300000
823.462097	196.800000
823.497009	202.200000
823.531982	199.500000
823.566895	200.300000
823.601807	194.300000
823.636719	200.100000
823.671631	201.900000
823.706604	197.500000
823.741455	201.700000
823.776428	194.600000
823.811340	202.800000
823.846252	207.500000
823.881165	204.400000
823.916138	201.800000
823.950989	206.200000
823.985901	198.800000
824.020813	199.900000
824.055725	199.700000
824.090637	195.800000
824.125610	202.800000
824.160461	202.400000
824.195374	201.300000
824.230225	203.500000
824.265198	194.100000
824.300110	196.900000
824.334961	206.500000
824.369873	191.700000
824.404785	200.800000
824.439636	203.300000
824.474548	193.100000
824.509460	192.200000
824.544312	202.000000
824.579224	201.200000
824.614075	199.500000
824.648987	196.500000
824.683899	197.300000
824.718811	197.100000
824.753662	201.500000
824.788574	202.400000
824.823364	198.200000
824.858276	195.100000
824.893188	201.500000
824.928040	202.100000
824.962952	198.400000
824.997803	200.700000
825.032654	197.900000
825.067566	199.400000
825.102417	194.900000
825.137268	196.500000
825.172119	196.300000
825.206970	196.000000
825.241882	196.400000
825.276733	194.900000
825.311646	195.500000
825.346436	192.400000
825.381348	192.300000
825.416138	198.700000
825.450989	194.900000
825.485901	189.800000
825.520691	191.600000
825.555542	191.000000
825.590454	196.100000
825.625244	190.700000
825.660095	200.500000
825.695007	196.700000
825.729797	195.400000
825.764648	192.200000
825.799438	195.200000
825.834290	196.000000
825.869202	190.200000
825.903992	193.900000
825.938843	192.000000
825.973694	188.800000
826.008484	203.300000
826.043335	189.900000
826.078186	188.200000
826.112976	195.400000
826.147827	198.100000
826.182678	200.700000
826.217468	188.000000
826.252319	196.900000
826.287109	189.900000
826.321899	195.800000
826.356750	193.100000
826.391541	187.200000
826.426392	197.900000
826.461182	191.200000
826.495972	189.000000
826.530823	185.000000
826.565613	194.000000
826.600403	188.100000
826.635254	194.600000
826.670044	185.700000
826.704834	186.700000
826.739685	188.800000
826.774475	196.100000
826.809265	191.600000
826.844055	190.500000
826.878906	196.900000
826.913635	192.600000
826.948425	193.900000
826.983215	195.700000
827.018005	195.000000
827.052856	190.500000
827.087585	194.700000
827.122375	185.700000
827.157227	191.200000
827.191956	202.700000
827.226746	189.200000
827.261536	194.100000
827.296265	187.300000
827.331116	190.600000
827.365906	194.200000
827.400635	189.400000
827.435425	186.000000
827.470215	194.900000
827.504944	190.800000
827.539734	195.400000
827.574463	191.000000
827.609253	197.900000
827.644043	192.500000
827.678772	194.200000
827.713562	191.100000
827.748352	190.300000
827.783081	188.700000
827.817871	191.500000
827.852600	188.600000
827.887329	191.300000
827.922119	185.700000
827.956848	194.000000
827.991638	203.600000
828.026367	193.500000
828.061157	192.200000
828.095886	190.200000
828.130615	206.200000
828.165344	185.100000
828.200073	191.300000
828.234863	190.500000
828.269592	191.700000
828.304321	194.600000
828.339111	192.800000
828.373779	189.900000
828.408569	194.600000
828.443298	196.000000
828.477966	190.800000
828.512756	192.700000
828.547424	188.000000
828.582214	191.600000
828.616943	190.100000
828.651672	191.200000
828.686340	194.300000
828.721130	189.300000
828.755798	190.800000
828.790527	193.500000
828.825256	191.900000
828.859924	194.100000
828.894714	195.500000
828.929443	199.300000
828.964111	189.400000
828.998840	194.800000
829.033569	188.500000
829.068237	191.400000
829.102966	188.900000
829.137634	191.700000
829.172363	191.900000
829.207092	192.600000
829.241821	187.400000
829.276489	187.000000
829.311157	191.500000
829.345825	190.700000
829.380554	196.000000
829.415283	188.500000
829.449951	185.700000
829.484619	199.900000
829.519348	196.700000
829.554016	192.300000
829.588745	191.400000
829.623413	188.800000
829.658081	200.600000
829.692749	188.300000
829.727417	196.300000
829.762146	193.400000
829.796814	189.100000
829.831482	190.500000
829.866150	191.900000
829.900879	190.700000
829.935486	192.600000
829.970154	190.500000
830.004883	201.500000
830.039490	193.300000
830.074219	188.100000
830.108887	191.500000
830.143494	191.100000
830.178223	186.800000
830.212891	191.800000
830.247498	190.900000
830.282166	197.100000
830.316772	195.100000
830.351501	189.400000
830.386169	188.900000
830.420776	191.300000
830.455444	191.400000
830.490112	189.000000
830.524719	184.700000
830.559387	193.700000
830.594055	192.800000
830.628662	192.800000
830.663330	190.200000
830.697998	197.100000
830.732605	191.700000
830.767273	194.000000
830.801941	190.800000
830.836487	200.300000
830.871155	194.400000
830.905762	193.300000
830.940430	186.700000
830.975098	189.400000
831.009644	192.600000
831.044312	198.500000
831.078979	193.900000
831.113525	185.900000
831.148193	192.500000
831.182861	191.600000
831.217407	194.600000
831.252075	203.600000
831.286621	190.200000
831.321289	188.700000
831.355896	192.100000
831.390564	197.000000
831.425110	192.500000
831.459778	196.900000
831.494324	201.600000
831.528931	192.500000
831.563599	195.900000
831.598145	187.000000
831.632751	191.200000
831.667419	189.600000
831.701965	194.200000
831.736572	192.700000
831.771179	189.300000
831.805786	189.000000
831.840393	195.900000
831.874939	185.200000
831.909546	194.200000
831.944153	183.100000
831.978760	192.400000
832.013306	187.200000
832.047913	195.800000
832.082458	198.400000
832.117065	190.100000
832.151672	197.800000
832.186218	193.800000
832.220825	193.300000
832.255432	185.400000
832.289978	188.700000
832.324585	193.500000
832.359192	192.300000
832.393677	192.400000
832.428284	193.500000
832.462830	190.800000
832.497437	190.100000
832.531982	193.800000
832.566589	189.000000
832.601135	192.900000
832.635681	186.000000
832.670227	191.700000
832.704773	197.200000
832.739380	192.400000
832.773926	192.700000
832.808472	189.100000
832.843079	192.900000
832.877563	193.100000
832.912170	191.200000
832.946716	186.200000
832.981201	194.900000
833.015808	194.400000
833.050293	192.500000
833.084839	186.300000
833.119446	191.500000
833.153992	194.100000
833.188477	190.900000
833.223022	188.100000
833.257568	195.500000
833.292114	195.500000
833.326660	201.900000
833.361145	187.800000
833.395691	185.600000
833.430237	191.300000
833.464783	196.000000
833.499329	188.900000
833.533875	189.200000
833.568359	192.100000
833.602905	195.400000
833.637390	195.500000
833.671875	191.600000
833.706421	189.400000
833.740906	189.500000
833.775452	184.300000
833.809998	191.100000
833.844482	198.000000
833.879028	191.800000
833.913513	190.200000
833.947998	194.200000
833.982544	187.600000
834.017090	189.500000
834.051514	184.900000
834.086060	194.500000
834.120544	192.200000
834.155029	193.700000
834.189575	190.300000
834.223999	192.800000
834.258545	192.400000
834.293030	193.000000
834.327515	191.900000
834.362000	189.000000
834.396545	193.700000
834.430969	189.900000
834.465454	195.100000
834.500000	184.800000
834.534424	193.400000
834.568970	183.900000
834.603455	185.300000
834.637878	188.500000
834.672363	193.800000
834.706909	191.400000
834.741333	191.500000
834.775818	185.800000
834.810242	189.300000
834.844727	190.000000
834.879211	191.100000
834.913635	192.000000
834.948181	192.900000
834.982666	191.200000
835.017090	190.300000
835.051575	192.900000
835.086060	190.400000
835.120483	192.900000
835.154907	193.800000
835.189331	190.500000
835.223816	194.400000
835.258301	185.300000
835.292786	189.600000
835.327209	193.400000
835.361694	188.200000
835.396057	190.400000
835.430542	194.000000
835.465027	191.100000
835.499390	188.200000
835.533875	217.000000
835.568359	189.500000
835.602722	186.900000
835.637207	193.100000
835.671692	187.700000
835.706055	208.100000
835.740540	193.900000
835.774902	193.600000
835.809387	193.100000
835.843811	186.200000
835.878235	197.000000
835.912659	186.000000
835.947083	188.800000
835.981506	190.000000
836.015930	186.500000
836.050354	194.500000
836.084778	198.700000
836.119202	195.000000
836.153625	205.500000
836.187988	187.100000
836.222473	190.300000
836.256897	192.300000
836.291260	190.400000
836.325684	192.100000
836.360046	189.800000
836.394470	188.600000
836.428894	197.400000
836.463318	189.100000
836.497681	195.200000
836.532104	195.900000
836.566467	191.700000
836.600891	189.100000
836.635315	195.200000
836.669678	192.100000
836.704102	194.900000
836.738525	194.300000
836.772888	184.700000
836.807251	190.600000
836.841675	193.600000
836.876038	188.500000
836.910461	188.500000
836.944763	194.100000
836.979187	189.100000
837.013611	195.500000
837.047974	186.800000
837.082336	201.200000
837.116699	192.800000
837.151062	191.200000
837.185486	187.000000
837.219849	189.800000
837.254211	195.400000
837.288574	190.800000
837.322937	187.200000
837.357300	183.300000
837.391663	200.200000
837.426086	195.400000
837.460388	191.500000
837.494751	196.600000
837.529114	188.100000
837.563477	198.900000
837.597839	191.900000
837.632141	190.400000
837.666565	187.900000
837.700928	194.500000
837.735229	192.200000
837.769592	193.500000
837.803955	194.400000
837.838257	190.500000
837.872620	188.000000
837.906982	197.500000
837.941284	190.900000
837.975647	194.300000
838.010010	196.600000
838.044312	190.600000
838.078674	189.500000
838.112976	191.900000
838.147339	193.600000
838.181702	192.000000
838.216003	197.400000
838.250366	193.800000
838.284668	194.800000
838.318970	185.900000
838.353333	190.700000
838.387634	191.000000
838.421936	192.000000
838.456299	193.500000
838.490601	198.900000
838.524902	195.400000
838.559265	195.400000
838.593567	194.700000
838.627869	187.200000
838.662170	192.100000
838.696472	186.700000
838.730774	189.600000
838.765137	195.300000
838.799377	180.500000
838.833740	193.200000
838.868042	194.300000
838.902283	186.300000
838.936646	195.800000
838.970947	192.800000
839.005188	195.800000
839.039551	187.200000
839.073792	195.500000
839.108093	191.200000
839.142395	198.100000
839.176697	187.100000
839.210937	192.000000
839.245300	200.000000
839.279541	186.900000
839.313843	191.000000
839.348145	193.100000
839.382385	194.300000
839.416687	194.300000
839.450989	193.500000
839.485229	190.100000
839.519531	188.800000
839.553833	196.400000
839.588013	192.100000
839.622314	192.100000
839.656555	192.900000
839.690857	191.700000
839.725159	187.200000
839.759460	192.000000
839.793640	189.600000
839.827942	191.000000
839.862183	188.400000
839.896423	193.000000
839.930725	202.300000
839.964966	199.000000
839.999207	195.600000
840.033508	198.300000
840.067688	188.800000
840.101990	197.700000
840.136230	190.100000
840.170471	199.100000
840.204712	186.800000
840.238953	188.600000
840.273193	191.300000
840.307434	195.300000
840.341736	187.900000
840.375916	187.500000
840.410217	189.300000
840.444397	195.700000
840.478638	192.200000
840.512878	196.000000
840.547119	191.600000
840.581360	195.900000
840.615601	198.700000
840.649780	201.800000
840.684021	189.200000
840.718262	199.700000
840.752441	196.800000
840.786682	193.200000
840.820862	192.400000
840.855103	199.100000
840.889343	192.300000
840.923584	197.800000
840.957764	192.900000
840.992004	193.900000
841.026184	203.700000
841.060425	192.400000
841.094666	188.800000
841.128845	195.000000
841.163025	192.800000
841.197266	194.000000
841.231445	192.700000
841.265686	194.400000
841.299866	189.700000
841.334045	196.400000
841.368286	192.700000
841.402405	197.200000
841.436646	194.000000
841.470825	191.000000
841.505005	191.800000
841.539185	188.000000
841.573425	189.100000
841.607544	189.500000
841.641785	192.100000
841.675964	186.700000
841.710144	193.400000
841.744324	188.200000
841.778503	191.300000
841.812683	187.800000
841.846863	198.800000
841.881042	196.700000
841.915222	189.900000
841.949402	203.000000
841.983521	186.100000
842.017700	189.900000
842.051880	192.900000
842.086060	193.100000
842.120239	192.400000
842.154419	189.100000
842.188538	192.900000
842.222717	188.700000
842.256897	200.100000
842.291016	191.600000
842.325195	193.400000
842.359375	200.000000
842.393494	197.900000
842.427673	192.000000
842.461853	194.400000
842.495911	199.000000
842.530090	193.900000
842.564209	190.900000
842.598389	193.700000
842.632568	193.500000
842.666626	193.600000
842.700806	190.200000
842.734985	189.800000
842.769043	194.800000
842.803223	191.400000
842.837402	190.900000
842.871460	189.500000
842.905640	201.600000
842.939697	188.800000
842.973877	192.900000
843.007996	196.500000
843.042175	200.900000
843.076233	188.400000
843.110413	194.500000
843.144470	197.000000
843.178589	196.000000
843.212769	189.800000
843.246826	196.600000
843.280945	189.100000
843.315125	191.600000
843.349182	189.300000
843.383301	197.800000
843.417419	200.400000
843.451538	192.300000
843.485657	189.100000
843.519714	193.000000
843.553833	192.900000
843.587952	191.100000
843.622070	188.900000
843.656128	195.200000
843.690247	188.700000
843.724304	191.400000
843.758423	193.100000
843.792542	190.200000
843.826599	191.500000
843.860718	190.600000
843.894836	186.500000
843.928894	193.800000
843.963013	192.100000
843.997070	188.600000
844.031128	187.600000
844.065247	196.100000
844.099304	195.000000
844.133362	193.100000
844.167480	194.000000
844.201599	196.000000
844.235596	193.400000
844.269714	193.600000
844.303711	193.500000
844.337830	185.200000
844.371948	194.300000
844.405945	190.000000
844.440063	189.100000
844.474121	202.600000
844.508118	192.100000
844.542236	191.400000
844.576294	193.100000
844.610352	186.200000
844.644409	192.100000
844.678406	184.800000
844.712524	196.600000
844.746582	195.500000
844.780640	192.000000
844.814636	189.500000
844.848755	201.300000
844.882751	190.200000
844.916809	195.600000
844.950867	192.100000
844.984863	199.200000
845.018921	190.100000
845.052979	189.600000
845.086975	193.500000
845.121033	188.300000
845.155090	189.000000
845.189087	198.600000
845.223145	189.500000
845.257141	194.000000
845.291199	195.300000
845.325256	196.600000
845.359253	194.600000
845.393250	204.800000
845.427307	191.500000
845.461304	195.000000
845.495361	192.800000
845.529358	199.900000
845.563354	192.800000
845.597412	188.500000
845.631409	201.100000
845.665405	198.100000
845.699463	195.300000
845.733459	190.400000
845.767456	201.600000
845.801453	190.800000
845.835449	197.400000
845.869446	193.500000
845.903503	196.700000
845.937439	187.500000
845.971497	198.200000
846.005493	186.600000
846.039429	195.800000
846.073486	200.700000
846.107483	190.700000
846.141418	190.900000
846.175476	193.800000
846.209473	197.500000
846.243408	190.200000
846.277405	193.500000
846.311401	190.200000
846.345337	190.800000
846.379395	199.200000
846.413330	189.900000
846.447327	201.700000
846.481323	188.700000
846.515259	190.700000
846.549255	192.000000
846.583252	194.700000
846.617187	189.500000
846.651184	194.100000
846.685120	191.600000
846.719055	200.400000
846.753052	195.500000
846.786987	195.800000
846.820984	187.900000
846.854980	197.200000
846.888916	190.500000
846.922852	194.100000
846.956848	196.900000
846.990723	188.900000
847.024719	194.600000
847.058716	191.100000
847.092590	198.100000
847.126587	194.300000
847.160522	190.300000
847.194458	195.900000
847.228455	189.900000
847.262390	187.900000
847.296265	192.200000
847.330261	195.700000
847.364136	191.500000
847.398132	190.300000
847.432068	194.600000
847.466003	190.600000
847.499939	193.200000
847.533875	194.200000
847.567749	192.500000
847.601746	190.800000
847.635681	195.100000
847.669556	185.900000
847.703491	198.300000
847.737427	202.700000
847.771301	188.300000
847.805237	193.900000
847.839233	193.400000
847.873108	191.400000
847.907043	191.800000
847.940918	198.400000
847.974854	193.700000
848.008789	195.400000
848.042664	192.800000
848.076538	194.000000
848.110474	193.100000
848.144348	194.300000
848.178284	187.100000
848.212219	194.100000
848.246094	190.200000
848.279968	193.200000
848.313904	195.400000
848.347778	193.900000
848.381653	189.900000
848.415588	190.900000
848.449463	188.900000
848.483337	195.400000
848.517212	199.100000
848.551086	194.000000
848.585022	188.400000
848.618835	202.400000
848.652771	188.700000
848.686646	191.700000
848.720520	198.400000
848.754395	192.200000
848.788330	194.200000
848.822144	195.300000
848.856018	189.800000
848.889954	199.600000
848.923767	189.300000
848.957642	189.900000
848.991577	193.600000
849.025391	192.600000
849.059265	190.800000
849.093079	189.700000
849.126953	187.000000
849.160828	196.600000
849.194641	191.700000
849.228577	191.400000
849.262451	190.400000
849.296265	192.000000
849.330139	189.200000
849.364014	193.000000
849.397827	193.500000
849.431702	194.200000
849.465515	196.000000
849.499329	185.900000
849.533203	190.300000
849.567078	185.000000
849.600891	195.100000
849.634766	192.100000
849.668518	195.100000
849.702393	193.100000
849.736267	187.900000
849.770020	200.500000
849.803894	194.600000
849.837769	192.800000
849.871521	192.800000
849.905396	194.900000
849.939270	191.000000
849.973022	190.700000
850.006897	195.200000
850.040710	193.800000
850.074524	197.500000
850.108337	190.200000
850.142151	196.700000
850.175964	195.300000
850.209778	191.600000
850.243530	184.300000
850.277405	196.700000
850.311218	191.200000
850.344971	190.900000
850.378845	199.200000
850.412659	190.000000
850.446411	193.300000
850.480225	192.100000
850.514038	194.900000
850.547791	196.200000
850.581665	192.100000
850.615417	189.900000
850.649231	193.900000
850.683044	191.500000
850.716858	190.700000
850.750610	193.700000
850.784424	195.100000
850.818176	189.500000
850.851929	192.300000
850.885742	189.500000
850.919495	191.900000
850.953308	198.500000
850.987122	199.200000
851.020874	188.300000
851.054626	188.000000
851.088440	195.000000
851.122192	195.700000
851.156006	192.800000
851.189697	191.800000
851.223511	187.700000
851.257263	196.800000
851.291077	193.800000
851.324829	192.000000
851.358582	191.500000
851.392334	193.500000
851.426086	189.600000
851.459900	200.300000
851.493591	192.800000
851.527344	192.600000
851.561157	190.200000
851.594849	196.600000
851.628662	191.800000
851.662415	199.200000
851.696106	193.700000
851.729858	197.900000
851.763611	186.600000
851.797363	193.400000
851.831116	187.700000
851.864868	194.700000
851.898560	196.500000
851.932312	191.200000
851.966064	193.500000
851.999817	192.900000
852.033569	192.100000
852.067261	197.100000
852.101013	190.200000
852.134766	191.700000
852.168457	185.300000
852.202209	197.200000
852.235901	188.200000
852.269592	195.000000
852.303345	199.100000
852.337036	194.900000
852.370789	193.000000
852.404541	196.100000
852.438171	190.100000
852.471924	193.000000
852.505676	189.800000
852.539307	194.300000
852.573059	190.100000
852.606812	192.300000
852.640442	190.500000
852.674194	196.900000
852.707886	202.600000
852.741577	198.100000
852.775269	189.800000
852.809021	193.200000
852.842651	195.100000
852.876404	197.700000
852.910034	195.100000
852.943787	197.700000
852.977478	195.100000
853.011108	189.100000
853.044861	190.500000
853.078552	197.800000
853.112183	194.300000
853.145874	193.800000
853.179626	187.600000
853.213257	192.000000
853.246948	190.100000
853.280640	199.500000
853.314270	191.900000
853.347961	197.400000
853.381653	195.400000
853.415283	197.700000
853.448975	190.400000
853.482605	193.200000
853.516296	192.600000
853.549988	187.900000
853.583618	195.000000
853.617310	193.600000
853.651001	195.300000
853.684631	189.900000
853.718323	191.200000
853.751953	198.700000
853.785583	185.900000
853.819275	197.600000
853.852966	194.700000
853.886536	187.000000
853.920227	188.100000
853.953918	196.900000
853.987488	190.900000
854.021179	196.200000
854.054749	198.400000
854.088440	196.400000
854.122131	190.100000
854.155701	195.300000
854.189331	188.400000
854.223022	195.300000
854.256592	192.100000
854.290283	191.700000
854.323914	194.200000
854.357483	194.000000
854.391174	194.300000
854.424744	199.700000
854.458374	191.700000
854.492065	203.400000
854.525696	192.900000
854.559265	198.900000
854.592896	202.300000
854.626465	192.300000
854.660095	192.700000
854.693787	195.400000
854.727356	191.800000
854.760986	197.200000
854.794617	194.000000
854.828186	191.800000
854.861816	195.700000
854.895447	194.900000
854.929016	192.700000
854.962585	193.500000
854.996155	201.300000
855.029785	193.600000
855.063416	194.100000
855.097046	196.400000
855.130615	189.200000
855.164185	197.900000
855.197754	194.700000
855.231384	195.300000
855.264954	192.000000
855.298523	195.500000
855.332153	194.100000
855.365723	196.800000
855.399292	191.700000
855.432922	193.100000
855.466492	195.100000
855.500061	188.400000
855.533630	190.600000
855.567200	193.300000
855.600769	196.800000
855.634338	196.500000
855.667969	194.300000
855.701477	188.800000
855.735046	191.600000
855.768616	184.800000
855.802185	194.800000
855.835754	203.200000
855.869324	186.200000
855.902893	191.600000
855.936401	198.400000
855.969971	192.700000
856.003540	189.100000
856.037109	195.400000
856.070618	192.000000
856.104187	188.300000
856.137695	191.100000
856.171265	185.400000
856.204834	193.900000
856.238403	196.900000
856.271912	191.100000
856.305481	195.600000
856.338989	188.300000
856.372559	195.300000
856.406128	195.700000
856.439636	196.900000
856.473145	191.700000
856.506653	200.400000
856.540222	192.800000
856.573792	198.800000
856.607300	197.200000
856.640808	189.400000
856.674377	193.000000
856.707825	226.200000
856.741394	197.300000
856.774902	189.700000
856.808472	185.600000
856.841980	196.400000
856.875488	197.300000
856.908936	187.800000
856.942505	192.000000
856.976013	192.200000
857.009521	188.900000
857.043030	195.400000
857.076477	189.800000
857.110046	199.700000
857.143555	192.800000
857.177063	195.300000
857.210571	191.200000
857.244080	189.300000
857.277527	194.600000
857.311035	192.700000
857.344543	196.600000
857.378052	193.800000
857.411499	196.700000
857.445068	198.600000
857.478516	190.500000
857.512024	189.800000
857.545532	191.800000
857.578979	194.400000
857.612427	193.500000
857.645874	190.100000
857.679382	194.000000
857.712891	196.800000
857.746399	193.200000
857.779846	196.000000
857.813354	198.500000
857.846741	193.300000
857.880249	190.400000
857.913757	194.400000
857.947266	194.200000
857.980652	196.800000
858.014160	192.600000
858.047546	190.700000
858.081055	194.200000
858.114563	203.700000
858.147949	188.600000
858.181458	193.100000
858.214844	192.500000
858.248352	186.800000
858.281799	196.600000
858.315308	201.600000
858.348694	196.500000
858.382141	198.800000
858.415588	198.300000
858.449036	195.900000
858.482483	195.400000
858.515930	190.600000
858.549377	194.300000
858.582825	197.400000
858.616211	196.500000
858.649658	194.200000
858.683105	190.000000
858.716553	190.600000
858.750000	188.200000
858.783386	190.600000
858.816833	188.000000
858.850281	193.300000
858.883728	194.100000
858.917114	192.600000
858.950562	199.500000
858.983948	198.900000
859.017395	196.400000
859.050781	191.100000
859.084167	189.100000
859.117615	190.800000
859.151062	195.700000
859.184448	190.800000
859.217834	192.000000
859.251282	191.700000
859.284668	189.400000
859.318054	186.000000
859.351440	190.900000
859.384888	197.900000
859.418274	186.000000
859.451721	187.000000
859.485046	193.300000
859.518494	195.100000
859.551819	189.100000
859.585266	196.300000
859.618652	196.300000
859.652039	188.100000
859.685425	186.800000
859.718811	189.100000
859.752197	183.800000
859.785583	199.000000
859.819031	197.500000
859.852356	195.900000
859.885742	189.800000
859.919067	193.400000
859.952454	190.100000
859.985901	196.800000
860.019287	192.000000
860.052612	0.000000
860.085999	0.000000
860.119324	0.000000
860.152710	0.000000
860.186096	0.000000
860.219421	0.000000
860.252808	0.000000
860.286133	0.000000
860.319519	0.000000
860.352905	0.000000
860.386292	0.000000
860.419617	0.000000
860.452942	0.000000
860.486267	0.000000
860.519653	0.000000
860.553040	0.000000
860.586365	0.000000
860.619690	0.000000
860.653076	0.000000
860.686340	0.000000
860.719727	0.000000
860.753113	0.000000
860.786377	0.000000
860.819763	0.000000
860.853027	0.000000
860.886414	0.000000
860.919739	0.000000
860.953125	0.000000
860.986389	0.000000
861.019714	0.000000
861.053040	0.000000
861.086365	0.000000
861.119690	0.000000
861.153076	0.000000
861.186340	0.000000
861.219666	0.000000
861.252930	0.000000
861.286316	0.000000
861.319641	0.000000
861.352905	0.000000
861.386230	0.000000
861.419495	0.000000
861.452820	0.000000
861.486145	0.000000
861.519470	0.000000
861.552734	0.000000
861.586060	0.000000
861.619324	0.000000
861.652649	0.000000
861.685974	0.000000
861.719238	0.000000
861.752563	0.000000
861.785828	0.000000
861.819092	0.000000
861.852417	0.000000
861.885742	0.000000
861.918945	0.000000
861.952271	0.000000
861.985535	0.000000
862.018799	0.000000
862.052124	0.000000
862.085449	0.000000
862.118652	0.000000
862.151978	0.000000
862.185181	0.000000
862.218506	0.000000
862.251770	0.000000
862.285034	0.000000
862.318298	0.000000
862.351562	0.000000
862.384827	0.000000
862.418091	0.000000
862.451355	0.000000
862.484619	0.000000
862.517883	0.000000
862.551086	0.000000
862.584351	0.000000
862.617676	0.000000
862.650940	0.000000
862.684143	0.000000
862.717407	0.000000
862.750610	0.000000
862.783875	0.000000
862.817139	0.000000
862.850342	0.000000
862.883606	0.000000
862.916870	0.000000
862.950073	0.000000
862.983337	0.000000
863.016602	0.000000
863.049805	0.000000
863.083069	0.000000
863.116211	0.000000
863.149475	0.000000
863.182739	0.000000
863.216003	0.000000
863.249146	0.000000
863.282410	0.000000
863.315613	0.000000
863.348816	0.000000
863.382080	0.000000
863.415222	0.000000
863.448486	0.000000
863.481689	0.000000
863.514893	0.000000
863.548157	0.000000
863.581360	0.000000
863.614502	0.000000
863.647766	0.000000
863.680908	0.000000
863.714172	0.000000
863.747375	0.000000
863.780579	0.000000
863.813721	0.000000
863.846985	0.000000
863.880127	0.000000
863.913330	0.000000
863.946533	0.000000
863.979675	0.000000
864.012939	0.000000
