Model Number: SPM-001-M   
Serial Number: 10090201
Firmware Version: 004.17.6
Exposure Time: 300000.000000us
Data Taken on: 21-01-2021 14:28:01.678
Wavelength	Amplitude
733.770752	0.000000
733.808716	0.000000
733.846619	0.000000
733.884583	0.000000
733.922546	0.000000
733.960449	0.000000
733.998413	0.000000
734.036377	0.000000
734.074219	0.000000
734.112183	0.000000
734.150085	0.000000
734.188049	0.000000
734.226013	0.000000
734.263916	0.000000
734.301819	0.000000
734.339783	0.000000
734.377686	0.000000
734.415588	0.000000
734.453552	0.000000
734.491455	0.000000
734.529419	0.000000
734.567322	0.000000
734.605225	0.000000
734.643127	0.000000
734.681091	0.000000
734.718994	0.000000
734.756897	0.000000
734.794800	0.000000
734.832703	0.000000
734.870667	0.000000
734.908508	0.000000
734.946472	0.000000
734.984375	0.000000
735.022278	0.000000
735.060181	0.000000
735.098083	0.000000
735.135986	0.000000
735.173889	0.000000
735.211792	0.000000
735.249695	0.000000
735.287598	0.000000
735.325439	0.000000
735.363403	0.000000
735.401306	0.000000
735.439148	0.000000
735.477051	0.000000
735.515015	0.000000
735.552856	0.000000
735.590759	0.000000
735.628662	0.000000
735.666504	0.000000
735.704407	0.000000
735.742310	0.000000
735.780212	0.000000
735.818115	0.000000
735.856018	0.000000
735.893860	0.000000
735.931763	0.000000
735.969604	0.000000
736.007507	0.000000
736.045410	0.000000
736.083252	0.000000
736.121094	0.000000
736.158997	0.000000
736.196838	0.000000
736.234741	0.000000
736.272644	0.000000
736.310486	0.000000
736.348389	0.000000
736.386230	0.000000
736.424072	0.000000
736.461975	0.000000
736.499878	0.000000
736.537720	0.000000
736.575562	0.000000
736.613403	0.000000
736.651306	0.000000
736.689148	0.000000
736.726990	0.000000
736.764893	0.000000
736.802734	0.000000
736.840576	0.000000
736.878418	0.000000
736.916321	0.000000
736.954102	0.000000
736.992004	0.000000
737.029846	0.000000
737.067688	0.000000
737.105530	0.000000
737.143372	0.000000
737.181213	0.000000
737.219116	0.000000
737.256897	0.000000
737.294739	0.000000
737.332642	0.000000
737.370422	0.000000
737.408325	0.000000
737.446167	0.000000
737.483948	0.000000
737.521790	0.000000
737.559692	0.000000
737.597473	0.000000
737.635315	0.000000
737.673157	0.000000
737.710999	0.000000
737.748840	0.000000
737.786621	0.000000
737.824463	0.000000
737.862305	0.000000
737.900085	0.000000
737.937927	0.000000
737.975769	0.000000
738.013550	0.000000
738.051392	0.000000
738.089233	0.000000
738.127014	0.000000
738.164856	0.000000
738.202698	0.000000
738.240479	0.000000
738.278320	0.000000
738.316162	0.000000
738.353943	0.000000
738.391785	0.000000
738.429565	0.000000
738.467407	0.000000
738.505188	0.000000
738.542969	0.000000
738.580811	0.000000
738.618652	0.000000
738.656372	0.000000
738.694214	0.000000
738.732056	0.000000
738.769836	0.000000
738.807617	0.000000
738.845459	0.000000
738.883240	0.000000
738.921021	0.000000
738.958862	0.000000
738.996582	0.000000
739.034424	0.000000
739.072205	0.000000
739.109985	0.000000
739.147827	0.000000
739.185547	0.000000
739.223389	0.000000
739.261169	0.000000
739.298889	0.000000
739.336731	0.000000
739.374512	0.000000
739.412292	0.000000
739.450073	0.000000
739.487854	0.000000
739.525635	0.000000
739.563416	0.000000
739.601135	0.000000
739.638977	0.000000
739.676758	0.000000
739.714478	0.000000
739.752258	0.000000
739.790100	0.000000
739.827820	0.000000
739.865601	0.000000
739.903381	0.000000
739.941101	0.000000
739.978882	194.500000
740.016724	191.000000
740.054443	193.800000
740.092224	190.500000
740.130005	188.700000
740.167725	189.400000
740.205505	189.400000
740.243225	197.100000
740.281006	192.700000
740.318787	188.100000
740.356506	197.900000
740.394287	195.500000
740.432068	190.300000
740.469727	188.000000
740.507507	193.300000
740.545288	192.700000
740.583008	193.700000
740.620789	192.700000
740.658569	185.500000
740.696228	193.300000
740.734009	195.600000
740.771790	184.500000
740.809509	194.900000
740.847229	188.900000
740.884949	189.500000
740.922729	188.200000
740.960449	190.100000
740.998169	190.300000
741.035950	187.600000
741.073669	193.400000
741.111389	193.000000
741.149170	201.000000
741.186890	199.800000
741.224609	196.500000
741.262329	193.400000
741.300110	199.600000
741.337769	187.600000
741.375549	188.800000
741.413208	193.100000
741.450989	189.900000
741.488708	190.500000
741.526367	190.800000
741.564148	194.900000
741.601868	195.400000
741.639526	192.300000
741.677307	194.100000
741.715027	193.100000
741.752686	188.800000
741.790466	195.800000
741.828186	193.300000
741.865845	189.200000
741.903564	187.100000
741.941345	192.000000
741.979004	188.200000
742.016724	195.000000
742.054382	190.800000
742.092102	195.600000
742.129822	188.800000
742.167480	190.900000
742.205200	190.800000
742.242920	194.100000
742.280640	196.000000
742.318359	188.000000
742.356079	190.900000
742.393738	196.000000
742.431396	190.300000
742.469116	197.200000
742.506775	186.000000
742.544495	194.000000
742.582214	194.700000
742.619873	191.300000
742.657593	196.100000
742.695251	197.000000
742.732971	191.100000
742.770630	193.900000
742.808289	192.200000
742.846008	193.300000
742.883728	193.800000
742.921326	193.800000
742.959045	191.000000
742.996765	191.300000
743.034424	191.400000
743.072083	190.100000
743.109802	190.600000
743.147400	188.000000
743.185120	191.400000
743.222839	191.600000
743.260437	197.000000
743.298157	193.200000
743.335754	185.600000
743.373474	191.700000
743.411133	187.300000
743.448792	191.500000
743.486450	192.900000
743.524170	187.200000
743.561768	190.700000
743.599487	196.400000
743.637146	201.300000
743.674744	190.300000
743.712463	189.000000
743.750122	191.900000
743.787720	192.900000
743.825439	189.400000
743.863037	190.600000
743.900696	190.700000
743.938416	218.500000
743.976013	189.800000
744.013672	198.700000
744.051331	195.800000
744.088928	199.300000
744.126587	195.800000
744.164307	193.600000
744.201904	188.200000
744.239563	193.600000
744.277222	193.600000
744.314819	193.200000
744.352478	196.300000
744.390137	193.900000
744.427734	194.000000
744.465393	190.500000
744.502991	188.700000
744.540649	194.100000
744.578308	192.100000
744.615906	189.400000
744.653564	184.500000
744.691223	194.000000
744.728821	187.500000
744.766418	193.500000
744.804077	192.800000
744.841675	191.000000
744.879333	188.100000
744.916992	191.600000
744.954529	190.000000
744.992187	196.500000
745.029785	190.300000
745.067444	189.800000
745.105042	192.900000
745.142639	191.700000
745.180298	199.900000
745.217896	190.900000
745.255493	191.400000
745.293152	194.100000
745.330750	196.400000
745.368347	197.000000
745.405945	194.900000
745.443604	191.600000
745.481140	195.900000
745.518799	191.700000
745.556396	195.500000
745.593994	193.300000
745.631592	192.900000
745.669189	189.000000
745.706787	194.200000
745.744385	189.800000
745.781982	195.500000
745.819580	189.700000
745.857178	193.600000
745.894775	191.500000
745.932373	194.500000
745.969971	192.800000
746.007568	187.800000
746.045166	199.000000
746.082764	197.800000
746.120300	194.500000
746.157898	194.600000
746.195557	190.700000
746.233093	188.600000
746.270691	194.000000
746.308228	194.100000
746.345825	195.300000
746.383423	194.300000
746.420959	189.200000
746.458557	189.200000
746.496155	188.900000
746.533691	192.100000
746.571289	187.700000
746.608887	190.900000
746.646423	193.400000
746.684021	192.700000
746.721619	189.900000
746.759155	194.100000
746.796753	187.000000
746.834351	188.000000
746.871826	190.500000
746.909424	198.000000
746.946960	193.300000
746.984558	191.400000
747.022156	192.300000
747.059631	197.900000
747.097229	194.800000
747.134827	190.400000
747.172363	196.600000
747.209900	194.300000
747.247498	189.500000
747.285034	197.000000
747.322571	197.300000
747.360168	191.800000
747.397644	187.500000
747.435242	194.000000
747.472778	198.300000
747.510315	191.300000
747.547913	192.200000
747.585388	196.700000
747.622925	191.500000
747.660522	186.800000
747.697998	190.900000
747.735596	191.200000
747.773132	191.400000
747.810669	193.100000
747.848206	194.600000
747.885742	189.500000
747.923279	188.700000
747.960815	193.900000
747.998352	194.100000
748.035889	195.600000
748.073425	194.300000
748.110901	190.500000
748.148437	188.800000
748.185974	191.700000
748.223511	200.300000
748.261047	193.500000
748.298584	191.700000
748.336060	192.100000
748.373596	193.200000
748.411133	216.500000
748.448608	188.700000
748.486145	196.200000
748.523682	196.200000
748.561218	200.500000
748.598755	192.700000
748.636292	194.700000
748.673706	191.400000
748.711243	199.400000
748.748718	192.400000
748.786255	193.100000
748.823792	191.300000
748.861267	189.000000
748.898804	194.400000
748.936340	194.600000
748.973816	189.900000
749.011292	198.400000
749.048828	193.800000
749.086304	195.300000
749.123840	201.200000
749.161316	190.900000
749.198792	199.300000
749.236328	197.700000
749.273743	191.200000
749.311279	191.900000
749.348816	195.100000
749.386230	193.300000
749.423767	184.600000
749.461304	195.400000
749.498718	193.300000
749.536255	197.500000
749.573730	201.700000
749.611206	198.000000
749.648682	190.900000
749.686218	192.100000
749.723633	194.700000
749.761169	190.600000
749.798645	189.100000
749.836060	189.900000
749.873596	188.900000
749.911011	192.600000
749.948547	197.300000
749.986023	191.300000
750.023437	190.800000
750.060913	187.700000
750.098450	187.700000
750.135864	191.000000
750.173340	194.000000
750.210815	197.100000
750.248291	190.300000
750.285767	192.700000
750.323242	196.500000
750.360657	193.200000
750.398132	189.100000
750.435608	193.400000
750.473022	188.900000
750.510498	189.200000
750.547974	189.300000
750.585449	191.800000
750.622925	184.600000
750.660339	202.100000
750.697815	194.800000
750.735291	192.300000
750.772644	192.900000
750.810120	191.700000
750.847595	195.100000
750.885010	187.500000
750.922485	199.100000
750.959961	190.900000
750.997375	198.000000
751.034851	196.200000
751.072266	195.400000
751.109680	187.100000
751.147156	196.800000
751.184570	194.600000
751.221985	192.300000
751.259460	187.500000
751.296875	193.900000
751.334290	191.100000
751.371765	194.400000
751.409180	196.900000
751.446594	195.800000
751.484070	194.200000
751.521423	192.700000
751.558899	193.700000
751.596375	200.700000
751.633728	198.400000
751.671204	200.100000
751.708618	189.000000
751.746033	194.100000
751.783447	188.500000
751.820801	189.800000
751.858276	196.300000
751.895691	192.700000
751.933105	191.900000
751.970520	189.200000
752.007935	190.900000
752.045349	195.800000
752.082764	195.100000
752.120178	189.200000
752.157532	190.400000
752.195007	189.500000
752.232422	194.600000
752.269775	195.200000
752.307190	195.700000
752.344543	189.300000
752.382019	193.600000
752.419434	189.700000
752.456787	194.400000
752.494202	195.200000
752.531616	193.800000
752.568970	194.900000
752.606384	193.500000
752.643799	194.000000
752.681152	197.600000
752.718567	194.300000
752.755981	187.700000
752.793335	195.000000
752.830750	185.800000
752.868164	195.900000
752.905518	187.700000
752.942932	196.600000
752.980225	188.500000
753.017639	195.000000
753.055054	195.500000
753.092407	195.100000
753.129822	196.000000
753.167175	200.200000
753.204529	192.300000
753.241943	190.800000
753.279358	189.400000
753.316650	195.600000
753.354065	194.800000
753.391479	196.700000
753.428772	198.700000
753.466187	194.600000
753.503479	187.700000
753.540894	191.900000
753.578308	188.600000
753.615601	188.200000
753.653015	193.100000
753.690369	190.600000
753.727722	191.200000
753.765076	188.000000
753.802490	189.100000
753.839783	187.400000
753.877136	191.600000
753.914551	201.600000
753.951843	189.200000
753.989258	196.100000
754.026611	193.100000
754.063904	194.600000
754.101257	188.800000
754.138611	186.700000
754.175964	192.100000
754.213318	201.200000
754.250610	186.600000
754.288025	190.300000
754.325378	189.000000
754.362671	195.800000
754.400024	192.200000
754.437378	199.100000
754.474670	199.000000
754.512085	189.700000
754.549438	195.500000
754.586731	189.300000
754.624084	192.400000
754.661438	190.900000
754.698730	199.300000
754.736084	190.400000
754.773376	191.700000
754.810730	192.700000
754.848083	192.900000
754.885315	195.200000
754.922668	187.800000
754.960022	188.600000
754.997314	196.900000
755.034668	193.200000
755.072021	193.700000
755.109253	189.100000
755.146606	198.700000
755.183960	191.300000
755.221252	198.900000
755.258545	195.700000
755.295898	198.700000
755.333191	197.300000
755.370544	194.900000
755.407776	193.800000
755.445129	193.700000
755.482422	196.400000
755.519714	192.400000
755.557068	188.400000
755.594360	186.600000
755.631653	195.400000
755.668945	199.800000
755.706299	193.900000
755.743530	203.300000
755.780884	200.600000
755.818176	194.900000
755.855408	197.100000
755.892761	195.900000
755.930054	193.400000
755.967346	195.800000
756.004639	194.000000
756.041870	193.600000
756.079224	198.400000
756.116516	190.600000
756.153748	196.200000
756.191040	201.100000
756.228394	196.400000
756.265625	190.400000
756.302917	195.400000
756.340210	192.100000
756.377441	197.800000
756.414795	199.000000
756.452087	193.500000
756.489319	189.600000
756.526611	199.500000
756.563843	195.300000
756.601135	201.600000
756.638428	201.700000
756.675659	195.300000
756.712952	197.500000
756.750244	198.900000
756.787476	195.500000
756.824768	200.000000
756.862061	193.900000
756.899292	242.800000
756.936584	198.400000
756.973816	203.700000
757.011047	205.000000
757.048340	193.900000
757.085632	196.300000
757.122864	209.000000
757.160156	193.900000
757.197327	198.500000
757.234619	198.900000
757.271912	195.500000
757.309082	200.600000
757.346375	192.500000
757.383667	200.200000
757.420837	197.300000
757.458130	197.400000
757.495422	194.100000
757.532593	199.000000
757.569885	189.900000
757.607117	193.500000
757.644348	198.700000
757.681580	207.600000
757.718811	187.100000
757.756042	197.700000
757.793335	194.300000
757.830505	198.500000
757.867798	194.500000
757.905029	195.200000
757.942200	195.900000
757.979492	195.100000
758.016724	195.800000
758.053894	195.400000
758.091187	211.300000
758.128418	198.900000
758.165588	196.500000
758.202820	205.600000
758.240112	198.900000
758.277283	207.100000
758.314514	198.100000
758.351685	196.300000
758.388916	205.500000
758.426147	204.800000
758.463379	204.700000
758.500610	200.800000
758.537842	198.900000
758.575012	203.700000
758.612244	195.700000
758.649475	209.400000
758.686646	193.700000
758.723877	204.300000
758.761108	206.700000
758.798279	199.800000
758.835510	201.000000
758.872742	204.600000
758.909851	202.800000
758.947083	202.700000
758.984253	201.400000
759.021484	204.900000
759.058716	203.900000
759.095886	204.200000
759.133057	201.800000
759.170288	202.500000
759.207458	200.200000
759.244690	209.200000
759.281860	208.900000
759.319031	201.000000
759.356262	201.600000
759.393433	201.500000
759.430603	204.100000
759.467773	200.300000
759.505005	208.600000
759.542175	207.300000
759.579346	202.700000
759.616516	202.500000
759.653687	207.100000
759.690918	199.600000
759.728027	204.800000
759.765259	204.900000
759.802429	206.700000
759.839539	205.400000
759.876770	209.400000
759.913940	211.900000
759.951111	204.100000
759.988281	205.700000
760.025452	203.800000
760.062561	202.000000
760.099792	215.200000
760.136963	206.700000
760.174072	203.400000
760.211243	200.900000
760.248413	201.900000
760.285583	201.100000
760.322754	214.000000
760.359863	210.200000
760.397034	210.300000
760.434204	205.000000
760.471375	206.800000
760.508545	204.300000
760.545715	207.000000
760.582825	203.400000
760.619995	209.100000
760.657166	202.900000
760.694275	211.600000
760.731445	208.100000
760.768555	207.400000
760.805664	211.200000
760.842834	207.700000
760.879944	210.600000
760.917114	208.900000
760.954285	208.000000
760.991394	202.700000
761.028564	212.900000
761.065674	209.800000
761.102783	205.000000
761.139954	212.200000
761.177124	210.900000
761.214172	212.600000
761.251343	208.700000
761.288452	207.200000
761.325562	213.500000
761.362732	206.600000
761.399841	209.700000
761.436951	211.000000
761.474121	207.000000
761.511169	207.600000
761.548340	214.200000
761.585449	212.000000
761.622559	213.600000
761.659668	210.500000
761.696838	215.900000
761.733887	211.600000
761.771057	209.600000
761.808167	210.600000
761.845276	214.000000
761.882385	221.800000
761.919434	211.600000
761.956604	225.300000
761.993713	210.500000
762.030762	217.600000
762.067871	212.600000
762.105042	212.200000
762.142090	218.900000
762.179199	214.100000
762.216309	216.900000
762.253418	225.600000
762.290527	222.100000
762.327637	219.200000
762.364685	210.500000
762.401794	216.800000
762.438904	217.100000
762.475952	213.500000
762.513062	211.400000
762.550110	213.200000
762.587219	222.900000
762.624329	223.000000
762.661377	218.800000
762.698486	217.800000
762.735596	216.800000
762.772644	214.400000
762.809753	210.300000
762.846863	216.300000
762.883911	219.400000
762.921021	219.000000
762.958069	215.800000
762.995117	223.700000
763.032227	224.200000
763.069336	216.500000
763.106323	214.400000
763.143433	214.200000
763.180481	220.200000
763.217590	221.900000
763.254639	217.100000
763.291687	216.900000
763.328735	224.700000
763.365845	219.000000
763.402893	218.500000
763.439941	221.600000
763.477051	223.400000
763.514038	222.300000
763.551147	220.000000
763.588196	222.000000
763.625244	221.000000
763.662292	227.100000
763.699402	228.100000
763.736389	223.100000
763.773499	232.000000
763.810486	225.100000
763.847534	223.100000
763.884644	225.500000
763.921631	224.400000
763.958679	230.600000
763.995728	226.000000
764.032776	231.200000
764.069824	222.800000
764.106873	228.600000
764.143860	235.000000
764.180969	225.200000
764.218018	233.600000
764.255005	225.600000
764.292053	228.300000
764.329102	235.100000
764.366089	237.000000
764.403137	232.700000
764.440125	227.900000
764.477173	230.900000
764.514221	233.600000
764.551208	232.500000
764.588257	227.800000
764.625305	233.700000
764.662292	238.300000
764.699341	240.400000
764.736389	236.100000
764.773376	246.500000
764.810425	237.200000
764.847473	240.800000
764.884399	239.700000
764.921448	246.000000
764.958435	242.500000
764.995483	237.400000
765.032532	249.400000
765.069458	236.900000
765.106506	240.000000
765.143555	237.400000
765.180481	239.900000
765.217529	249.000000
765.254578	236.600000
765.291504	242.800000
765.328552	241.500000
765.365540	240.800000
765.402527	249.900000
765.439575	240.800000
765.476501	237.200000
765.513550	239.500000
765.550537	242.200000
765.587463	250.300000
765.624512	240.900000
765.661499	236.300000
765.698486	247.800000
765.735474	240.700000
765.772461	242.600000
765.809448	250.800000
765.846436	248.400000
765.883423	252.000000
765.920410	247.800000
765.957397	243.700000
765.994385	249.500000
766.031311	255.900000
766.068359	250.700000
766.105286	250.700000
766.142273	254.800000
766.179260	249.600000
766.216187	246.700000
766.253174	245.600000
766.290161	251.400000
766.327148	254.600000
766.364136	254.500000
766.401123	264.700000
766.438049	250.300000
766.475037	258.500000
766.512024	255.200000
766.548950	265.200000
766.585937	261.600000
766.622864	257.000000
766.659790	258.300000
766.696777	249.400000
766.733704	262.600000
766.770691	254.500000
766.807678	265.200000
766.844604	259.300000
766.881531	261.100000
766.918518	263.800000
766.955444	263.400000
766.992432	258.600000
767.029358	265.300000
767.066284	262.600000
767.103271	264.100000
767.140198	295.500000
767.177124	274.800000
767.214050	267.000000
767.251038	267.600000
767.287964	263.700000
767.324890	263.800000
767.361816	267.200000
767.398743	271.900000
767.435730	267.400000
767.472595	269.700000
767.509583	271.000000
767.546509	263.600000
767.583374	267.800000
767.620361	264.400000
767.657288	269.400000
767.694214	268.600000
767.731140	266.600000
767.768066	270.100000
767.804993	271.100000
767.841919	266.400000
767.878845	270.800000
767.915710	277.700000
767.952698	270.200000
767.989563	274.000000
768.026489	274.000000
768.063416	269.800000
768.100281	268.500000
768.137207	278.300000
768.174133	276.100000
768.211060	276.300000
768.247986	276.000000
768.284912	271.900000
768.321777	274.800000
768.358704	272.700000
768.395630	274.800000
768.432495	270.100000
768.469421	277.400000
768.506348	278.700000
768.543152	285.400000
768.580078	281.100000
768.616943	284.400000
768.653870	284.700000
768.690796	284.700000
768.727661	281.200000
768.764587	283.800000
768.801453	279.600000
768.838318	287.500000
768.875244	285.300000
768.912109	290.200000
768.948975	283.000000
768.985901	286.300000
769.022766	283.800000
769.059631	288.500000
769.096558	283.000000
769.133362	287.400000
769.170288	284.700000
769.207214	287.300000
769.244019	291.200000
769.280945	289.400000
769.317810	294.800000
769.354675	292.700000
769.391541	299.200000
769.428406	296.400000
769.465271	301.500000
769.502136	294.700000
769.539062	296.900000
769.575867	295.100000
769.612732	297.400000
769.649597	301.700000
769.686462	305.200000
769.723328	301.800000
769.760193	298.600000
769.797058	299.400000
769.833923	307.900000
769.870728	302.400000
769.907593	308.200000
769.944519	304.400000
769.981323	309.200000
770.018188	308.100000
770.055054	310.200000
770.091858	307.400000
770.128723	316.500000
770.165588	319.400000
770.202393	312.700000
770.239258	318.900000
770.276062	317.500000
770.312927	316.100000
770.349792	321.100000
770.386597	318.700000
770.423462	329.600000
770.460327	332.700000
770.497131	321.700000
770.533997	319.400000
770.570862	330.600000
770.607605	332.300000
770.644470	328.600000
770.681335	331.300000
770.718140	330.600000
770.754944	325.700000
770.791809	325.500000
770.828613	328.500000
770.865479	329.800000
770.902222	336.200000
770.939087	333.600000
770.975952	327.200000
771.012695	330.000000
771.049561	342.300000
771.086365	335.100000
771.123169	331.800000
771.159973	334.700000
771.196838	334.300000
771.233582	334.600000
771.270447	338.700000
771.307251	342.000000
771.344055	339.400000
771.380859	342.800000
771.417664	339.700000
771.454468	342.700000
771.491272	341.800000
771.528076	343.900000
771.564880	342.900000
771.601685	349.500000
771.638428	344.000000
771.675293	349.300000
771.712097	339.800000
771.748840	352.900000
771.785645	345.700000
771.822449	349.800000
771.859253	352.100000
771.896057	351.500000
771.932861	361.300000
771.969604	356.000000
772.006409	346.700000
772.043213	358.700000
772.079956	355.400000
772.116760	348.900000
772.153503	351.000000
772.190308	362.000000
772.227112	355.900000
772.263855	353.200000
772.300659	355.700000
772.337463	362.800000
772.374207	353.900000
772.411011	353.000000
772.447754	354.700000
772.484497	365.300000
772.521301	362.400000
772.558105	362.500000
772.594849	362.900000
772.631592	366.400000
772.668396	364.100000
772.705139	367.600000
772.741882	366.900000
772.778625	374.700000
772.815430	375.200000
772.852173	371.600000
772.888916	377.400000
772.925720	380.100000
772.962463	384.300000
772.999207	380.000000
773.035950	380.500000
773.072754	384.000000
773.109436	378.900000
773.146240	382.800000
773.182922	380.500000
773.219727	387.800000
773.256470	380.600000
773.293152	375.100000
773.329956	381.100000
773.366699	384.600000
773.403381	379.700000
773.440186	389.400000
773.476929	388.100000
773.513611	386.100000
773.550354	383.400000
773.587158	383.700000
773.623840	379.700000
773.660583	385.500000
773.697327	396.800000
773.734009	387.100000
773.770813	386.200000
773.807495	386.200000
773.844238	387.300000
773.880981	398.400000
773.917664	392.500000
773.954407	399.300000
773.991150	391.000000
774.027832	398.300000
774.064575	391.100000
774.101318	397.200000
774.138000	400.500000
774.174744	395.400000
774.211487	398.800000
774.248108	387.600000
774.284851	391.200000
774.321594	396.600000
774.358276	396.700000
774.395020	404.900000
774.431702	404.900000
774.468384	398.900000
774.505127	395.900000
774.541809	401.000000
774.578491	410.200000
774.615234	411.400000
774.651917	408.000000
774.688599	408.300000
774.725342	414.800000
774.762024	411.200000
774.798706	416.000000
774.835449	418.100000
774.872070	425.000000
774.908813	420.400000
774.945496	422.800000
774.982178	417.500000
775.018860	418.800000
775.055542	422.800000
775.092224	424.600000
775.128967	429.200000
775.165588	430.200000
775.202271	424.000000
775.239014	434.900000
775.275635	434.700000
775.312317	434.800000
775.349060	439.300000
775.385681	436.000000
775.422363	430.300000
775.459045	434.900000
775.495667	437.500000
775.532410	441.000000
775.569092	440.700000
775.605713	441.100000
775.642395	440.900000
775.679016	443.100000
775.715698	447.600000
775.752380	448.700000
775.789001	443.700000
775.825684	446.100000
775.862366	448.700000
775.898987	456.800000
775.935669	452.200000
775.972351	469.500000
776.008972	465.600000
776.045654	465.500000
776.082336	464.300000
776.118958	463.100000
776.155640	463.600000
776.192322	470.200000
776.228882	474.900000
776.265564	476.800000
776.302185	473.100000
776.338867	477.200000
776.375488	471.000000
776.412109	477.600000
776.448792	480.400000
776.485413	489.100000
776.522034	484.500000
776.558716	479.400000
776.595337	480.900000
776.631958	482.600000
776.668579	486.400000
776.705261	497.600000
776.741882	490.200000
776.778503	489.700000
776.815186	491.800000
776.851746	491.500000
776.888367	489.100000
776.924988	500.700000
776.961609	495.800000
776.998291	497.400000
777.034851	492.300000
777.071472	500.800000
777.108154	494.100000
777.144714	505.500000
777.181335	505.900000
777.218018	504.000000
777.254578	505.100000
777.291199	505.400000
777.327759	511.100000
777.364380	518.700000
777.401062	520.300000
777.437622	532.100000
777.474243	524.000000
777.510864	527.100000
777.547424	520.400000
777.584045	521.100000
777.620667	523.900000
777.657227	528.400000
777.693848	527.700000
777.730469	540.000000
777.767029	530.300000
777.803650	534.900000
777.840271	530.500000
777.876831	530.200000
777.913452	538.000000
777.950012	528.900000
777.986633	528.800000
778.023193	525.400000
778.059753	526.600000
778.096375	528.100000
778.132996	538.400000
778.169556	529.300000
778.206116	529.200000
778.242737	528.200000
778.279297	539.300000
778.315857	525.600000
778.352478	534.100000
778.389038	539.700000
778.425598	539.200000
778.462219	548.100000
778.498718	546.600000
778.535339	549.400000
778.571838	551.500000
778.608459	551.200000
778.645020	545.100000
778.681580	553.700000
778.718140	555.400000
778.754761	551.600000
778.791260	557.500000
778.827881	559.700000
778.864441	556.300000
778.900940	563.100000
778.937561	562.300000
778.974121	557.400000
779.010620	556.200000
779.047241	555.200000
779.083801	567.900000
779.120300	566.000000
779.156860	570.500000
779.193359	564.500000
779.229980	567.900000
779.266541	565.500000
779.303040	570.000000
779.339600	565.500000
779.376160	565.600000
779.412659	568.400000
779.449219	566.100000
779.485779	566.200000
779.522278	567.000000
779.558838	570.100000
779.595398	573.100000
779.631897	566.800000
779.668457	565.800000
779.705017	572.900000
779.741516	563.400000
779.778076	559.600000
779.814575	568.000000
779.851074	567.300000
779.887634	568.000000
779.924133	575.100000
779.960693	561.500000
779.997253	570.700000
780.033691	576.000000
780.070251	577.800000
780.106812	587.600000
780.143250	584.000000
780.179810	578.900000
780.216370	581.500000
780.252808	589.700000
780.289368	593.700000
780.325867	592.000000
780.362366	591.000000
780.398865	592.800000
780.435364	589.700000
780.471863	600.500000
780.508423	595.200000
780.544861	601.800000
780.581421	604.200000
780.617920	599.000000
780.654419	596.600000
780.690918	599.000000
780.727417	610.800000
780.763916	612.200000
780.800415	618.600000
780.836914	597.400000
780.873352	609.900000
780.909912	601.800000
780.946411	604.700000
780.982849	612.900000
781.019348	623.500000
781.055786	618.800000
781.092346	616.400000
781.128845	617.800000
781.165283	622.000000
781.201782	631.200000
781.238281	638.600000
781.274719	639.600000
781.311218	638.500000
781.347717	641.600000
781.384155	629.800000
781.420654	637.200000
781.457092	642.200000
781.493591	644.800000
781.530090	638.600000
781.566528	639.600000
781.602966	641.400000
781.639465	643.100000
781.675903	639.000000
781.712402	645.300000
781.748901	652.500000
781.785278	646.300000
781.821777	649.100000
781.858276	645.300000
781.894714	654.800000
781.931152	653.400000
781.967651	655.000000
782.004089	649.700000
782.040527	647.300000
782.076965	649.200000
782.113403	638.100000
782.149902	606.600000
782.186340	543.700000
782.222778	485.500000
782.259277	408.600000
782.295654	384.200000
782.332092	417.900000
782.368591	487.000000
782.404968	564.000000
782.441467	631.000000
782.477905	661.000000
782.514282	661.800000
782.550781	674.700000
782.587219	668.500000
782.623596	668.200000
782.660095	651.000000
782.696472	638.300000
782.732910	626.300000
782.769348	617.600000
782.805786	622.400000
782.842224	584.000000
782.878662	518.600000
782.915039	436.400000
782.951477	371.100000
782.987915	323.400000
783.024292	318.800000
783.060730	334.700000
783.097168	377.700000
783.133545	446.700000
783.169983	533.900000
783.206421	614.000000
783.242798	663.400000
783.279236	688.900000
783.315613	695.700000
783.352051	697.200000
783.388489	699.300000
783.424866	694.200000
783.461304	691.700000
783.497681	705.100000
783.534058	702.700000
783.570496	701.700000
783.606934	702.600000
783.643250	705.800000
783.679687	710.500000
783.716125	704.000000
783.752441	711.500000
783.788879	725.500000
783.825317	732.000000
783.861633	735.500000
783.898071	741.500000
783.934448	756.900000
783.970825	764.800000
784.007263	767.200000
784.043579	776.800000
784.080017	778.000000
784.116394	769.800000
784.152710	772.300000
784.189148	774.900000
784.225525	778.600000
784.261902	774.500000
784.298279	767.300000
784.334656	762.000000
784.371033	757.600000
784.407410	763.000000
784.443787	748.700000
784.480164	736.500000
784.516541	722.000000
784.552856	726.200000
784.589233	720.200000
784.625610	715.400000
784.661987	740.300000
784.698364	743.400000
784.734741	732.500000
784.771057	734.800000
784.807434	737.500000
784.843811	758.400000
784.880127	751.500000
784.916504	772.300000
784.952881	777.600000
784.989197	772.500000
785.025574	774.000000
785.061951	785.200000
785.098267	800.800000
785.134644	799.200000
785.170959	793.600000
785.207275	792.300000
785.243652	792.700000
785.279968	780.300000
785.316345	776.700000
785.352722	778.600000
785.388977	777.100000
785.425354	761.000000
785.461731	747.400000
785.498047	737.500000
785.534363	734.800000
785.570679	737.200000
785.606995	740.500000
785.643372	741.200000
785.679687	737.200000
785.716003	726.200000
785.752380	720.400000
785.788635	731.500000
785.825012	742.300000
785.861328	749.000000
785.897644	742.800000
785.933960	750.000000
785.970337	756.500000
786.006592	775.300000
786.042908	786.400000
786.079285	791.500000
786.115540	799.800000
786.151855	804.700000
786.188171	801.100000
786.224487	799.600000
786.260803	801.400000
786.297119	807.000000
786.333435	813.500000
786.369751	804.500000
786.406006	800.900000
786.442322	787.600000
786.478638	780.300000
786.514954	785.400000
786.551270	772.900000
786.587585	783.000000
786.623840	766.700000
786.660156	763.000000
786.696472	756.500000
786.732727	755.500000
786.769043	762.900000
786.805298	751.400000
786.841614	758.000000
786.877930	772.200000
786.914124	765.100000
786.950439	776.400000
786.986755	781.000000
787.023010	792.400000
787.059326	796.800000
787.095642	811.500000
787.131836	828.600000
787.168152	815.700000
787.204468	821.100000
787.240723	829.000000
787.276978	837.800000
787.313293	854.100000
787.349548	847.300000
787.385803	848.000000
787.422058	840.200000
787.458313	834.000000
787.494629	836.400000
787.530823	836.400000
787.567139	819.700000
787.603455	814.200000
787.639648	804.800000
787.675903	811.000000
787.712219	805.700000
787.748413	805.200000
787.784729	812.800000
787.820984	802.200000
787.857178	788.200000
787.893494	793.100000
787.929749	796.700000
787.965942	804.500000
788.002258	816.100000
788.038452	820.200000
788.074707	810.900000
788.110962	827.400000
788.147217	829.800000
788.183472	839.300000
788.219727	846.000000
788.255920	858.000000
788.292175	867.000000
788.328430	865.100000
788.364624	856.400000
788.400879	852.300000
788.437134	857.500000
788.473328	861.800000
788.509583	869.200000
788.545837	866.000000
788.582031	857.900000
788.618286	855.700000
788.654480	845.400000
788.690735	854.600000
788.726990	882.700000
788.763184	868.700000
788.799377	883.200000
788.835632	879.500000
788.871826	889.000000
788.908081	887.900000
788.944336	881.600000
788.980469	896.600000
789.016724	889.700000
789.052979	886.400000
789.089111	877.900000
789.125366	882.400000
789.161621	865.700000
789.197754	883.600000
789.234009	879.300000
789.270142	865.800000
789.306396	864.200000
789.342590	858.400000
789.378784	846.200000
789.414978	841.800000
789.451233	853.500000
789.487366	849.100000
789.523621	857.100000
789.559814	855.500000
789.595947	857.200000
789.632202	868.400000
789.668335	872.200000
789.704529	893.100000
789.740784	906.500000
789.776917	906.100000
789.813110	899.900000
789.849304	905.900000
789.885498	898.800000
789.921692	923.800000
789.957886	938.300000
789.994019	939.200000
790.030212	941.900000
790.066406	933.600000
790.102539	931.800000
790.138733	937.300000
790.174927	934.300000
790.211060	948.400000
790.247253	956.000000
790.283386	944.500000
790.319580	925.200000
790.355774	908.900000
790.391907	910.800000
790.428101	927.200000
790.464294	925.400000
790.500427	930.200000
790.536621	911.900000
790.572754	901.200000
790.608887	899.100000
790.645081	905.200000
790.681274	915.900000
790.717346	918.000000
790.753540	903.400000
790.789734	890.000000
790.825867	877.600000
790.862000	884.400000
790.898132	899.500000
790.934265	888.500000
790.970459	888.600000
791.006592	886.600000
791.042725	882.300000
791.078918	877.900000
791.114990	879.900000
791.151184	879.300000
791.187317	890.400000
791.223389	895.500000
791.259583	879.000000
791.295715	885.900000
791.331848	894.000000
791.367981	904.200000
791.404114	905.700000
791.440247	911.800000
791.476379	904.100000
791.512451	884.300000
791.548584	884.100000
791.584778	877.500000
791.620850	889.500000
791.656982	897.500000
791.693115	902.400000
791.729187	899.700000
791.765381	895.300000
791.801514	891.700000
791.837585	897.600000
791.873718	902.800000
791.909851	906.400000
791.945923	914.300000
791.982056	895.300000
792.018188	888.300000
792.054260	879.500000
792.090393	884.200000
792.126465	882.400000
792.162598	897.900000
792.198669	893.200000
792.234741	884.000000
792.270874	874.200000
792.307007	861.700000
792.343079	866.100000
792.379150	879.900000
792.415283	871.500000
792.451355	875.800000
792.487488	855.800000
792.523560	849.800000
792.559631	841.000000
792.595764	804.500000
792.631836	776.500000
792.667908	760.100000
792.703979	739.000000
792.740051	751.200000
792.776184	784.400000
792.812256	792.000000
792.848328	803.100000
792.884399	812.600000
792.920471	819.100000
792.956543	817.300000
792.992615	813.000000
793.028748	806.800000
793.064758	812.000000
793.100830	831.700000
793.136963	852.100000
793.172974	852.600000
793.209045	846.300000
793.245178	859.700000
793.281189	838.200000
793.317261	850.200000
793.353271	849.300000
793.389404	859.900000
793.425476	853.200000
793.461487	846.000000
793.497559	834.900000
793.533630	836.600000
793.569641	829.300000
793.605713	843.700000
793.641785	841.600000
793.677795	851.600000
793.713867	837.400000
793.749878	851.600000
793.785950	854.100000
793.822021	861.700000
793.858032	854.200000
793.894104	870.100000
793.930176	862.800000
793.966187	864.700000
794.002258	843.600000
794.038269	861.000000
794.074280	863.400000
794.110352	882.200000
794.146423	871.200000
794.182373	866.400000
794.218445	861.700000
794.254517	853.600000
794.290466	841.800000
794.326538	846.200000
794.362549	850.400000
794.398560	859.800000
794.434631	859.300000
794.470581	841.000000
794.506653	824.300000
794.542664	829.500000
794.578674	833.500000
794.614685	833.600000
794.650757	837.200000
794.686707	836.000000
794.722778	822.600000
794.758789	829.900000
794.794739	840.200000
794.830811	864.400000
794.866821	884.700000
794.902771	887.200000
794.938843	879.800000
794.974792	878.500000
795.010803	878.500000
795.046814	882.600000
795.082825	871.800000
795.118835	884.700000
795.154846	862.000000
795.190796	870.300000
795.226807	858.900000
795.262817	862.500000
795.298767	860.600000
795.334778	864.100000
795.370850	862.100000
795.406799	861.800000
795.442810	853.000000
795.478821	843.700000
795.514709	836.900000
795.550720	865.300000
795.586670	844.600000
795.622681	852.200000
795.658691	859.100000
795.694641	856.900000
795.730652	851.200000
795.766663	860.000000
795.802551	862.000000
795.838562	877.300000
795.874573	862.900000
795.910522	859.900000
795.946472	844.400000
795.982483	853.600000
796.018433	855.600000
796.054382	864.800000
796.090393	858.800000
796.126282	850.300000
796.162292	838.900000
796.198242	833.800000
796.234192	829.500000
796.270203	827.100000
796.306091	833.100000
796.342041	844.500000
796.378052	842.900000
796.413940	844.000000
796.449951	847.700000
796.485901	845.200000
796.521790	856.100000
796.557800	864.700000
796.593689	859.700000
796.629639	857.800000
796.665649	858.700000
796.701599	849.600000
796.737488	845.800000
796.773437	854.700000
796.809387	862.600000
796.845337	867.400000
796.881287	859.000000
796.917175	835.500000
796.953125	828.800000
796.989075	839.700000
797.024963	844.100000
797.060913	844.100000
797.096863	842.900000
797.132751	836.400000
797.168701	822.000000
797.204590	822.600000
797.240540	822.600000
797.276489	834.800000
797.312439	838.100000
797.348328	840.000000
797.384277	837.200000
797.420166	816.100000
797.456055	815.800000
797.492004	817.700000
797.527893	828.300000
797.563843	836.100000
797.599731	825.000000
797.635620	817.700000
797.671570	824.800000
797.707520	825.400000
797.743347	818.800000
797.779297	824.200000
797.815125	826.700000
797.851074	821.500000
797.887024	811.100000
797.922913	802.700000
797.958801	805.200000
797.994690	796.600000
798.030579	806.600000
798.066467	811.400000
798.102356	803.100000
798.138245	799.400000
798.174133	797.500000
798.210083	805.200000
798.245911	814.000000
798.281799	809.800000
798.317749	809.100000
798.353577	811.900000
798.389465	808.500000
798.425293	797.600000
798.461243	807.000000
798.497131	808.700000
798.532959	808.500000
798.568848	818.400000
798.604736	803.100000
798.640564	790.700000
798.676453	792.200000
798.712402	784.700000
798.748230	789.700000
798.784119	790.400000
798.820007	796.200000
798.855835	796.900000
798.891724	794.300000
798.927551	780.700000
798.963379	787.000000
798.999268	784.700000
799.035095	776.500000
799.070984	772.500000
799.106873	766.300000
799.142700	770.500000
799.178528	762.700000
799.214417	763.600000
799.250244	770.500000
799.286133	766.100000
799.321960	770.400000
799.357788	758.300000
799.393677	752.500000
799.429504	759.900000
799.465332	764.900000
799.501221	770.400000
799.537048	772.200000
799.572876	769.500000
799.608704	765.100000
799.644531	770.200000
799.680359	771.600000
799.716248	775.200000
799.752014	778.900000
799.787903	778.000000
799.823730	771.400000
799.859558	768.800000
799.895386	760.700000
799.931213	766.000000
799.967041	762.100000
800.002869	768.800000
800.038696	775.500000
800.074463	760.800000
800.110352	764.700000
800.146179	754.200000
800.181946	764.200000
800.217773	768.900000
800.253540	765.900000
800.289429	762.300000
800.325256	747.400000
800.361023	743.100000
800.396851	754.200000
800.432678	758.600000
800.468445	761.800000
800.504272	761.500000
800.540100	749.100000
800.575867	747.400000
800.611694	747.500000
800.647461	741.400000
800.683289	744.800000
800.719116	749.900000
800.754883	748.400000
800.790649	735.800000
800.826477	731.900000
800.862244	745.500000
800.898071	728.500000
800.933838	731.700000
800.969604	735.800000
801.005432	740.600000
801.041199	739.400000
801.076965	725.300000
801.112793	712.800000
801.148560	711.600000
801.184326	719.100000
801.220154	721.000000
801.255859	717.300000
801.291687	718.200000
801.327454	706.800000
801.363281	705.400000
801.398987	701.100000
801.434814	705.300000
801.470520	715.800000
801.506287	701.900000
801.542114	696.400000
801.577820	694.500000
801.613647	691.600000
801.649414	692.700000
801.685120	700.300000
801.720886	701.400000
801.756714	694.500000
801.792419	690.100000
801.828186	679.200000
801.863892	683.600000
801.899719	677.700000
801.935486	681.500000
801.971252	690.000000
802.006958	687.200000
802.042725	677.800000
802.078430	675.600000
802.114197	670.100000
802.149963	689.600000
802.185669	680.400000
802.221436	679.000000
802.257202	679.500000
802.292908	673.400000
802.328674	682.800000
802.364441	681.600000
802.400146	676.900000
802.435913	682.400000
802.471558	677.800000
802.507324	670.200000
802.543091	662.000000
802.578796	679.400000
802.614502	681.200000
802.650269	691.100000
802.685974	670.500000
802.721741	678.200000
802.757446	676.900000
802.793152	675.200000
802.828918	679.700000
802.864624	672.900000
802.900330	679.300000
802.936035	679.100000
802.971802	671.300000
803.007446	662.200000
803.043213	654.800000
803.078857	669.600000
803.114624	657.400000
803.150330	656.800000
803.185974	657.000000
803.221741	650.600000
803.257446	653.700000
803.293152	660.800000
803.328857	654.800000
803.364563	654.100000
803.400208	658.200000
803.435974	656.900000
803.471680	647.600000
803.507324	647.100000
803.543030	654.700000
803.578735	657.500000
803.614441	649.600000
803.650146	659.700000
803.685791	646.400000
803.721497	644.000000
803.757202	639.500000
803.792847	644.500000
803.828552	638.100000
803.864258	636.700000
803.899902	628.600000
803.935608	617.600000
803.971313	624.500000
804.006958	622.200000
804.042664	619.000000
804.078308	630.800000
804.113953	626.500000
804.149658	630.900000
804.185364	622.400000
804.221008	629.700000
804.256714	613.700000
804.292297	613.200000
804.328003	614.500000
804.363708	612.800000
804.399292	612.200000
804.434998	608.900000
804.470703	599.500000
804.506287	612.000000
804.541992	609.800000
804.577637	607.000000
804.613281	596.000000
804.648926	592.900000
804.684570	598.400000
804.720215	595.900000
804.755920	596.300000
804.791565	597.400000
804.827209	603.000000
804.862854	600.200000
804.898437	591.900000
804.934143	594.300000
804.969788	586.600000
805.005371	589.400000
805.041077	587.900000
805.076721	587.500000
805.112305	581.400000
805.147949	581.300000
805.183655	576.100000
805.219238	577.400000
805.254883	577.300000
805.290466	583.500000
805.326111	577.400000
805.361755	573.800000
805.397400	572.800000
805.432983	573.200000
805.468628	567.600000
805.504211	571.400000
805.539856	570.700000
805.575500	572.900000
805.611084	569.300000
805.646729	558.800000
805.682373	563.300000
805.717957	571.300000
805.753601	574.500000
805.789246	561.900000
805.824768	572.900000
805.860413	578.900000
805.895996	561.600000
805.931641	564.100000
805.967224	568.600000
806.002869	561.500000
806.038452	570.800000
806.074036	572.000000
806.109619	554.200000
806.145264	555.700000
806.180847	557.600000
806.216431	554.700000
806.252014	553.800000
806.287659	557.300000
806.323181	563.800000
806.358826	559.600000
806.394409	546.500000
806.429993	548.800000
806.465576	555.200000
806.501160	544.000000
806.536743	536.300000
806.572327	547.600000
806.607910	547.500000
806.643494	549.600000
806.679077	537.800000
806.714661	536.200000
806.750244	535.800000
806.785828	533.100000
806.821350	534.700000
806.856934	536.900000
806.892517	534.000000
806.928101	529.500000
806.963684	529.700000
806.999268	536.700000
807.034790	518.800000
807.070374	522.300000
807.105896	521.400000
807.141479	520.600000
807.177063	520.500000
807.212585	514.800000
807.248169	517.000000
807.283752	523.400000
807.319275	518.000000
807.354858	520.500000
807.390381	510.300000
807.425903	509.400000
807.461487	511.200000
807.497070	506.300000
807.532593	504.100000
807.568115	501.300000
807.603699	500.400000
807.639221	495.400000
807.674744	498.800000
807.710266	501.000000
807.745850	504.100000
807.781372	500.500000
807.816895	499.200000
807.852417	496.400000
807.888000	493.900000
807.923523	489.500000
807.959045	497.100000
807.994629	489.800000
808.030090	488.800000
808.065613	494.800000
808.101135	493.900000
808.136658	492.300000
808.172241	489.600000
808.207764	492.600000
808.243225	481.200000
808.278809	480.500000
808.314270	486.600000
808.349792	477.300000
808.385315	474.400000
808.420837	485.100000
808.456360	489.500000
808.491882	486.000000
808.527344	481.500000
808.562866	489.800000
808.598389	480.900000
808.633850	478.000000
808.669434	474.800000
808.704895	478.500000
808.740417	483.000000
808.775940	478.200000
808.811462	474.600000
808.846924	474.100000
808.882385	468.400000
808.917847	467.400000
808.953369	471.400000
808.988892	465.600000
809.024353	472.900000
809.059875	472.300000
809.095398	464.200000
809.130798	459.000000
809.166321	460.300000
809.201843	461.800000
809.237305	466.500000
809.272766	468.900000
809.308228	457.100000
809.343750	455.800000
809.379211	454.600000
809.414734	455.300000
809.450134	462.100000
809.485657	451.500000
809.521118	452.600000
809.556580	449.700000
809.592102	450.500000
809.627502	446.000000
809.663025	447.100000
809.698486	444.800000
809.733887	441.900000
809.769409	441.900000
809.804871	434.500000
809.840271	435.800000
809.875793	438.400000
809.911194	441.300000
809.946655	434.800000
809.982178	431.300000
810.017639	436.900000
810.053040	433.800000
810.088501	430.600000
810.123901	425.600000
810.159424	426.500000
810.194885	423.100000
810.230286	428.800000
810.265747	421.000000
810.301208	421.300000
810.336609	419.400000
810.372070	413.500000
810.407532	416.800000
810.442932	419.600000
810.478394	422.600000
810.513794	414.900000
810.549255	414.100000
810.584717	411.800000
810.620117	405.300000
810.655518	412.300000
810.690979	412.100000
810.726379	408.000000
810.761841	400.400000
810.797302	400.100000
810.832642	396.400000
810.868103	404.000000
810.903564	396.500000
810.938904	404.400000
810.974365	392.300000
811.009827	395.300000
811.045166	392.900000
811.080627	386.400000
811.115967	390.000000
811.151428	390.500000
811.186829	391.700000
811.222229	391.800000
811.257629	383.100000
811.293091	387.200000
811.328430	394.600000
811.363892	385.000000
811.399292	390.400000
811.434631	385.900000
811.470093	389.800000
811.505493	382.000000
811.540833	382.500000
811.576294	386.200000
811.611694	380.700000
811.647034	377.100000
811.682434	379.700000
811.717773	382.500000
811.753235	387.300000
811.788635	377.200000
811.823975	380.100000
811.859375	385.300000
811.894775	374.400000
811.930115	377.600000
811.965515	372.900000
812.000916	376.800000
812.036255	373.800000
812.071655	375.100000
812.106995	369.400000
812.142395	372.300000
812.177795	377.200000
812.213196	373.100000
812.248474	371.300000
812.283875	367.400000
812.319214	369.200000
812.354614	369.700000
812.390015	361.500000
812.425293	365.600000
812.460693	364.500000
812.496094	361.700000
812.531433	356.400000
812.566772	358.300000
812.602173	361.400000
812.637451	361.300000
812.672852	355.100000
812.708191	358.500000
812.743530	352.900000
812.778931	347.400000
812.814270	347.500000
812.849609	354.600000
812.884949	350.000000
812.920227	346.000000
812.955627	355.400000
812.990967	348.200000
813.026306	342.300000
813.061646	333.600000
813.096985	332.600000
813.132324	329.600000
813.167664	333.900000
813.203003	342.700000
813.238281	329.800000
813.273682	329.100000
813.308960	329.500000
813.344299	328.800000
813.379639	332.100000
813.414978	328.500000
813.450256	324.400000
813.485596	329.400000
813.520874	324.500000
813.556213	325.700000
813.591614	327.400000
813.626831	322.400000
813.662170	323.800000
813.697510	329.700000
813.732788	319.500000
813.768127	321.600000
813.803467	322.700000
813.838745	318.700000
813.874084	321.800000
813.909363	319.500000
813.944641	323.500000
813.979980	312.200000
814.015320	315.800000
814.050598	314.400000
814.085876	316.000000
814.121155	311.700000
814.156494	310.200000
814.191772	312.200000
814.227051	308.600000
814.262390	308.600000
814.297668	310.900000
814.332947	308.300000
814.368225	301.400000
814.403564	305.800000
814.438782	302.600000
814.474121	303.300000
814.509338	303.000000
814.544617	309.500000
814.579956	300.200000
814.615173	309.400000
814.650513	305.700000
814.685791	300.900000
814.721008	302.800000
814.756348	301.500000
814.791626	297.000000
814.826843	298.300000
814.862122	299.700000
814.897400	295.600000
814.932678	297.200000
814.967957	295.500000
815.003235	295.500000
815.038452	291.700000
815.073730	288.900000
815.108948	299.400000
815.144226	295.200000
815.179504	299.500000
815.214722	286.400000
815.250000	287.700000
815.285278	294.100000
815.320496	290.600000
815.355774	288.400000
815.391052	291.400000
815.426270	287.100000
815.461487	287.500000
815.496765	281.500000
815.531982	282.400000
815.567261	282.600000
815.602539	290.200000
815.637695	283.100000
815.672974	286.900000
815.708191	287.400000
815.743408	289.800000
815.778687	279.000000
815.813904	287.600000
815.849121	273.600000
815.884399	277.300000
815.919556	277.600000
815.954834	276.300000
815.990051	277.800000
816.025269	281.900000
816.060486	275.300000
816.095703	272.600000
816.130920	274.400000
816.166199	271.200000
816.201416	272.700000
816.236572	277.000000
816.271851	269.900000
816.307007	274.300000
816.342224	266.900000
816.377441	270.000000
816.412659	262.500000
816.447876	271.700000
816.483093	265.400000
816.518250	266.100000
816.553467	264.400000
816.588745	268.900000
816.623901	261.600000
816.659119	257.600000
816.694275	263.700000
816.729492	258.300000
816.764709	287.300000
816.799927	255.500000
816.835083	258.700000
816.870300	253.500000
816.905457	258.700000
816.940674	258.000000
816.975830	254.600000
817.010986	250.900000
817.046204	252.400000
817.081421	248.000000
817.116577	249.700000
817.151733	256.700000
817.186951	255.700000
817.222107	251.300000
817.257324	256.300000
817.292419	251.500000
817.327637	245.800000
817.362854	249.100000
817.398010	244.800000
817.433167	246.400000
817.468323	246.900000
817.503479	246.100000
817.538635	257.100000
817.573853	248.700000
817.608948	247.100000
817.644165	243.700000
817.679321	243.400000
817.714478	243.100000
817.749634	244.100000
817.784790	250.900000
817.819946	246.900000
817.855103	234.200000
817.890198	241.500000
817.925415	235.800000
817.960571	243.900000
817.995667	241.200000
818.030823	241.000000
818.066040	237.900000
818.101135	240.000000
818.136292	238.600000
818.171448	233.600000
818.206543	237.500000
818.241699	240.000000
818.276855	239.200000
818.311951	237.500000
818.347107	233.300000
818.382263	239.200000
818.417358	241.400000
818.452515	239.200000
818.487610	240.300000
818.522766	232.000000
818.557922	238.700000
818.593018	234.900000
818.628113	235.300000
818.663269	230.800000
818.698364	232.500000
818.733521	228.900000
818.768677	232.400000
818.803711	229.000000
818.838867	228.800000
818.874023	228.100000
818.909058	227.600000
818.944214	225.200000
818.979370	230.700000
819.014404	229.200000
819.049561	224.800000
819.084595	228.800000
819.119751	223.000000
819.154846	229.100000
819.189941	225.000000
819.225037	223.400000
819.260193	218.900000
819.295227	219.000000
819.330322	217.300000
819.365479	216.900000
819.400513	250.800000
819.435608	215.400000
819.470764	213.200000
819.505798	215.300000
819.540894	216.800000
819.575989	217.500000
819.611084	221.600000
819.646179	223.100000
819.681213	219.200000
819.716309	215.900000
819.751404	214.500000
819.786438	223.300000
819.821533	210.800000
819.856628	217.400000
819.891663	217.000000
819.926758	226.000000
819.961853	219.400000
819.996887	213.400000
820.031982	214.500000
820.067017	212.800000
820.102112	246.800000
820.137207	211.100000
820.172302	222.900000
820.207275	211.300000
820.242371	209.600000
820.277405	210.700000
820.312500	210.700000
820.347534	215.800000
820.382568	215.900000
820.417664	209.100000
820.452759	210.300000
820.487732	209.600000
820.522827	207.600000
820.557861	206.800000
820.592896	208.100000
820.627930	209.100000
820.662964	206.000000
820.698059	211.700000
820.733093	207.600000
820.768127	210.500000
820.803162	207.800000
820.838196	206.700000
820.873230	207.900000
820.908264	209.200000
820.943298	206.800000
820.978333	210.300000
821.013367	208.200000
821.048401	208.800000
821.083435	210.500000
821.118469	201.600000
821.153503	210.900000
821.188477	207.600000
821.223511	201.900000
821.258484	206.600000
821.293579	205.200000
821.328613	199.700000
821.363647	204.500000
821.398621	199.800000
821.433655	202.400000
821.468628	214.800000
821.503662	203.200000
821.538696	206.300000
821.573669	202.000000
821.608704	208.500000
821.643677	203.300000
821.678650	207.700000
821.713684	210.300000
821.748718	203.800000
821.783691	205.200000
821.818726	203.600000
821.853638	206.500000
821.888672	202.600000
821.923706	203.600000
821.958618	202.400000
821.993652	202.400000
822.028687	209.100000
822.063599	211.400000
822.098633	203.500000
822.133667	200.300000
822.168579	203.400000
822.203613	204.200000
822.238586	199.500000
822.273560	205.700000
822.308533	201.700000
822.343567	201.200000
822.378479	202.400000
822.413452	200.300000
822.448425	198.500000
822.483398	207.200000
822.518372	206.100000
822.553345	198.800000
822.588318	208.900000
822.623291	200.400000
822.658203	199.700000
822.693237	200.700000
822.728210	199.300000
822.763123	200.900000
822.798096	199.400000
822.833069	199.100000
822.867981	201.000000
822.902954	201.600000
822.937927	204.300000
822.972900	208.300000
823.007874	196.900000
823.042725	203.600000
823.077698	209.700000
823.112671	197.500000
823.147583	201.700000
823.182556	203.000000
823.217529	206.300000
823.252441	199.400000
823.287415	209.400000
823.322388	203.700000
823.357239	201.100000
823.392212	206.400000
823.427185	206.200000
823.462097	197.600000
823.497009	203.100000
823.531982	199.500000
823.566895	201.700000
823.601807	197.700000
823.636719	200.500000
823.671631	203.100000
823.706604	199.100000
823.741455	203.500000
823.776428	196.900000
823.811340	202.800000
823.846252	205.800000
823.881165	207.100000
823.916138	202.300000
823.950989	207.400000
823.985901	197.300000
824.020813	201.100000
824.055725	198.700000
824.090637	196.700000
824.125610	201.000000
824.160461	203.200000
824.195374	200.400000
824.230225	203.500000
824.265198	194.800000
824.300110	198.000000
824.334961	205.500000
824.369873	193.300000
824.404785	201.400000
824.439636	203.800000
824.474548	194.000000
824.509460	192.900000
824.544312	203.000000
824.579224	201.700000
824.614075	201.900000
824.648987	199.600000
824.683899	199.200000
824.718811	197.900000
824.753662	203.600000
824.788574	203.800000
824.823364	198.600000
824.858276	198.100000
824.893188	203.000000
824.928040	202.500000
824.962952	200.500000
824.997803	203.200000
825.032654	199.900000
825.067566	199.900000
825.102417	197.200000
825.137268	196.400000
825.172119	198.000000
825.206970	196.200000
825.241882	197.300000
825.276733	194.400000
825.311646	195.600000
825.346436	193.200000
825.381348	193.900000
825.416138	196.300000
825.450989	195.000000
825.485901	189.400000
825.520691	191.500000
825.555542	190.200000
825.590454	195.700000
825.625244	188.200000
825.660095	201.100000
825.695007	197.200000
825.729797	195.000000
825.764648	191.100000
825.799438	195.100000
825.834290	195.700000
825.869202	191.100000
825.903992	195.000000
825.938843	193.700000
825.973694	189.400000
826.008484	205.000000
826.043335	190.100000
826.078186	188.300000
826.112976	196.700000
826.147827	198.700000
826.182678	201.500000
826.217468	188.300000
826.252319	198.300000
826.287109	191.000000
826.321899	196.800000
826.356750	192.600000
826.391541	188.900000
826.426392	196.400000
826.461182	192.900000
826.495972	189.200000
826.530823	185.800000
826.565613	193.300000
826.600403	189.600000
826.635254	194.100000
826.670044	186.600000
826.704834	187.600000
826.739685	189.200000
826.774475	194.200000
826.809265	193.200000
826.844055	190.400000
826.878906	198.900000
826.913635	193.000000
826.948425	193.900000
826.983215	191.800000
827.018005	195.700000
827.052856	190.100000
827.087585	196.300000
827.122375	186.800000
827.157227	191.600000
827.191956	201.700000
827.226746	190.300000
827.261536	194.800000
827.296265	188.700000
827.331116	189.600000
827.365906	194.100000
827.400635	189.600000
827.435425	186.400000
827.470215	196.700000
827.504944	192.100000
827.539734	196.300000
827.574463	190.400000
827.609253	198.600000
827.644043	191.900000
827.678772	196.000000
827.713562	191.400000
827.748352	190.800000
827.783081	189.200000
827.817871	193.000000
827.852600	189.500000
827.887329	192.100000
827.922119	185.300000
827.956848	195.900000
827.991638	202.300000
828.026367	193.900000
828.061157	192.500000
828.095886	192.500000
828.130615	204.200000
828.165344	186.500000
828.200073	192.900000
828.234863	191.100000
828.269592	192.400000
828.304321	196.300000
828.339111	191.700000
828.373779	190.600000
828.408569	194.600000
828.443298	195.900000
828.477966	190.700000
828.512756	191.300000
828.547424	187.800000
828.582214	191.700000
828.616943	189.700000
828.651672	192.800000
828.686340	194.100000
828.721130	189.000000
828.755798	190.900000
828.790527	193.400000
828.825256	192.000000
828.859924	193.100000
828.894714	195.700000
828.929443	199.800000
828.964111	190.000000
828.998840	195.800000
829.033569	189.300000
829.068237	191.300000
829.102966	190.800000
829.137634	192.700000
829.172363	192.700000
829.207092	193.700000
829.241821	189.800000
829.276489	188.200000
829.311157	193.000000
829.345825	190.000000
829.380554	195.500000
829.415283	189.600000
829.449951	187.500000
829.484619	199.200000
829.519348	198.600000
829.554016	191.800000
829.588745	195.000000
829.623413	188.300000
829.658081	200.200000
829.692749	188.100000
829.727417	197.500000
829.762146	192.400000
829.796814	190.500000
829.831482	189.300000
829.866150	193.300000
829.900879	189.200000
829.935486	194.500000
829.970154	189.200000
830.004883	200.900000
830.039490	192.900000
830.074219	190.200000
830.108887	191.900000
830.143494	191.300000
830.178223	187.100000
830.212891	190.400000
830.247498	191.100000
830.282166	199.000000
830.316772	195.700000
830.351501	190.000000
830.386169	191.100000
830.420776	191.900000
830.455444	192.200000
830.490112	189.900000
830.524719	185.600000
830.559387	193.800000
830.594055	195.400000
830.628662	193.200000
830.663330	191.600000
830.697998	197.900000
830.732605	192.500000
830.767273	193.600000
830.801941	190.900000
830.836487	200.000000
830.871155	193.100000
830.905762	192.600000
830.940430	187.200000
830.975098	187.900000
831.009644	193.100000
831.044312	197.900000
831.078979	194.700000
831.113525	184.700000
831.148193	193.500000
831.182861	191.300000
831.217407	195.100000
831.252075	202.500000
831.286621	191.200000
831.321289	188.700000
831.355896	191.800000
831.390564	196.800000
831.425110	193.800000
831.459778	196.800000
831.494324	203.000000
831.528931	192.700000
831.563599	196.800000
831.598145	187.400000
831.632751	192.300000
831.667419	189.800000
831.701965	195.200000
831.736572	193.100000
831.771179	188.900000
831.805786	189.900000
831.840393	197.400000
831.874939	186.400000
831.909546	196.100000
831.944153	187.000000
831.978760	193.100000
832.013306	187.100000
832.047913	196.900000
832.082458	199.700000
832.117065	190.100000
832.151672	199.000000
832.186218	193.500000
832.220825	194.500000
832.255432	186.200000
832.289978	190.700000
832.324585	193.200000
832.359192	193.100000
832.393677	190.800000
832.428284	192.300000
832.462830	190.800000
832.497437	192.300000
832.531982	194.700000
832.566589	191.400000
832.601135	192.600000
832.635681	185.000000
832.670227	190.800000
832.704773	197.900000
832.739380	191.600000
832.773926	192.100000
832.808472	187.900000
832.843079	194.500000
832.877563	193.500000
832.912170	190.600000
832.946716	185.600000
832.981201	195.400000
833.015808	193.200000
833.050293	193.200000
833.084839	187.700000
833.119446	190.800000
833.153992	195.400000
833.188477	191.100000
833.223022	189.900000
833.257568	192.700000
833.292114	196.800000
833.326660	201.300000
833.361145	190.800000
833.395691	186.000000
833.430237	193.200000
833.464783	194.700000
833.499329	188.800000
833.533875	188.800000
833.568359	194.100000
833.602905	195.200000
833.637390	197.100000
833.671875	191.100000
833.706421	190.700000
833.740906	190.100000
833.775452	184.900000
833.809998	188.400000
833.844482	197.800000
833.879028	189.900000
833.913513	191.000000
833.947998	193.300000
833.982544	189.200000
834.017090	188.400000
834.051514	185.000000
834.086060	194.600000
834.120544	191.200000
834.155029	192.200000
834.189575	192.400000
834.223999	193.200000
834.258545	193.300000
834.293030	191.000000
834.327515	191.400000
834.362000	188.900000
834.396545	194.600000
834.430969	189.800000
834.465454	197.500000
834.500000	186.600000
834.534424	193.900000
834.568970	184.400000
834.603455	186.500000
834.637878	188.500000
834.672363	193.400000
834.706909	191.300000
834.741333	191.500000
834.775818	186.200000
834.810242	189.300000
834.844727	191.400000
834.879211	191.600000
834.913635	192.000000
834.948181	193.400000
834.982666	193.000000
835.017090	190.300000
835.051575	192.700000
835.086060	191.300000
835.120483	195.200000
835.154907	192.600000
835.189331	192.300000
835.223816	194.100000
835.258301	186.800000
835.292786	188.400000
835.327209	194.800000
835.361694	188.900000
835.396057	190.100000
835.430542	192.700000
835.465027	191.900000
835.499390	188.300000
835.533875	217.600000
835.568359	189.300000
835.602722	187.400000
835.637207	191.800000
835.671692	187.700000
835.706055	206.200000
835.740540	194.800000
835.774902	190.500000
835.809387	193.800000
835.843811	187.300000
835.878235	196.200000
835.912659	186.100000
835.947083	189.500000
835.981506	190.400000
836.015930	186.400000
836.050354	195.400000
836.084778	196.800000
836.119202	195.600000
836.153625	206.000000
836.187988	189.600000
836.222473	190.300000
836.256897	192.400000
836.291260	190.700000
836.325684	194.000000
836.360046	190.500000
836.394470	190.100000
836.428894	198.500000
836.463318	188.800000
836.497681	194.100000
836.532104	197.300000
836.566467	192.900000
836.600891	191.300000
836.635315	195.500000
836.669678	193.300000
836.704102	194.400000
836.738525	193.800000
836.772888	184.300000
836.807251	189.300000
836.841675	193.500000
836.876038	188.600000
836.910461	187.500000
836.944763	195.300000
836.979187	189.500000
837.013611	197.000000
837.047974	185.300000
837.082336	201.500000
837.116699	194.000000
837.151062	191.600000
837.185486	186.500000
837.219849	189.900000
837.254211	194.900000
837.288574	192.400000
837.322937	186.700000
837.357300	184.500000
837.391663	201.400000
837.426086	196.400000
837.460388	193.100000
837.494751	194.800000
837.529114	189.100000
837.563477	197.900000
837.597839	193.000000
837.632141	191.200000
837.666565	189.800000
837.700928	193.400000
837.735229	193.500000
837.769592	193.900000
837.803955	195.100000
837.838257	190.400000
837.872620	189.800000
837.906982	198.000000
837.941284	192.100000
837.975647	192.600000
838.010010	198.200000
838.044312	190.200000
838.078674	191.300000
838.112976	191.700000
838.147339	194.400000
838.181702	191.300000
838.216003	198.400000
838.250366	191.800000
838.284668	194.800000
838.318970	186.200000
838.353333	190.800000
838.387634	190.000000
838.421936	192.200000
838.456299	191.700000
838.490601	196.800000
838.524902	192.500000
838.559265	196.600000
838.593567	195.200000
838.627869	188.900000
838.662170	192.800000
838.696472	187.500000
838.730774	189.500000
838.765137	195.200000
838.799377	183.000000
838.833740	193.500000
838.868042	196.400000
838.902283	186.600000
838.936646	196.000000
838.970947	192.400000
839.005188	197.600000
839.039551	186.700000
839.073792	196.600000
839.108093	191.400000
839.142395	199.300000
839.176697	187.100000
839.210937	193.300000
839.245300	200.800000
839.279541	186.600000
839.313843	190.700000
839.348145	194.100000
839.382385	194.500000
839.416687	196.700000
839.450989	192.700000
839.485229	191.500000
839.519531	187.800000
839.553833	196.500000
839.588013	191.200000
839.622314	194.200000
839.656555	192.300000
839.690857	191.000000
839.725159	186.800000
839.759460	192.300000
839.793640	187.600000
839.827942	192.300000
839.862183	188.100000
839.896423	194.100000
839.930725	203.100000
839.964966	199.900000
839.999207	194.800000
840.033508	198.700000
840.067688	188.200000
840.101990	198.600000
840.136230	192.000000
840.170471	198.700000
840.204712	188.900000
840.238953	189.100000
840.273193	192.000000
840.307434	195.100000
840.341736	189.600000
840.375916	187.100000
840.410217	188.400000
840.444397	196.200000
840.478638	193.600000
840.512878	196.300000
840.547119	193.200000
840.581360	195.700000
840.615601	198.900000
840.649780	202.300000
840.684021	191.500000
840.718262	199.300000
840.752441	199.700000
840.786682	192.700000
840.820862	193.800000
840.855103	197.800000
840.889343	192.800000
840.923584	195.000000
840.957764	194.900000
840.992004	193.100000
841.026184	203.700000
841.060425	190.500000
841.094666	190.200000
841.128845	193.800000
841.163025	193.500000
841.197266	194.000000
841.231445	193.100000
841.265686	193.900000
841.299866	190.500000
841.334045	197.200000
841.368286	191.700000
841.402405	198.000000
841.436646	194.600000
841.470825	190.500000
841.505005	192.100000
841.539185	188.000000
841.573425	190.500000
841.607544	191.900000
841.641785	192.200000
841.675964	188.800000
841.710144	191.700000
841.744324	189.800000
841.778503	191.900000
841.812683	189.400000
841.846863	197.500000
841.881042	197.700000
841.915222	190.100000
841.949402	203.800000
841.983521	186.300000
842.017700	191.000000
842.051880	192.200000
842.086060	195.900000
842.120239	193.500000
842.154419	190.500000
842.188538	192.300000
842.222717	189.800000
842.256897	198.800000
842.291016	192.700000
842.325195	192.700000
842.359375	201.700000
842.393494	198.300000
842.427673	193.100000
842.461853	193.100000
842.495911	200.800000
842.530090	193.700000
842.564209	192.000000
842.598389	191.400000
842.632568	193.000000
842.666626	194.400000
842.700806	192.300000
842.734985	188.800000
842.769043	195.100000
842.803223	190.600000
842.837402	191.700000
842.871460	189.700000
842.905640	201.700000
842.939697	189.000000
842.973877	194.000000
843.007996	196.400000
843.042175	200.900000
843.076233	189.500000
843.110413	195.300000
843.144470	198.200000
843.178589	196.300000
843.212769	190.300000
843.246826	196.800000
843.280945	188.400000
843.315125	191.700000
843.349182	190.200000
843.383301	196.100000
843.417419	203.900000
843.451538	192.700000
843.485657	190.600000
843.519714	191.100000
843.553833	194.100000
843.587952	191.000000
843.622070	191.100000
843.656128	193.700000
843.690247	191.000000
843.724304	192.300000
843.758423	194.000000
843.792542	190.700000
843.826599	192.900000
843.860718	190.200000
843.894836	188.600000
843.928894	193.100000
843.963013	194.400000
843.997070	187.400000
844.031128	187.500000
844.065247	195.900000
844.099304	196.100000
844.133362	192.300000
844.167480	196.100000
844.201599	195.700000
844.235596	194.100000
844.269714	194.100000
844.303711	193.100000
844.337830	186.900000
844.371948	194.700000
844.405945	192.900000
844.440063	189.100000
844.474121	203.600000
844.508118	191.600000
844.542236	192.200000
844.576294	191.900000
844.610352	188.700000
844.644409	192.900000
844.678406	185.900000
844.712524	197.200000
844.746582	197.700000
844.780640	192.800000
844.814636	193.300000
844.848755	203.300000
844.882751	191.900000
844.916809	196.900000
844.950867	195.000000
844.984863	198.500000
845.018921	189.900000
845.052979	190.300000
845.086975	194.600000
845.121033	188.100000
845.155090	190.500000
845.189087	197.500000
845.223145	191.000000
845.257141	192.400000
845.291199	195.600000
845.325256	196.800000
845.359253	195.000000
845.393250	204.600000
845.427307	193.900000
845.461304	192.200000
845.495361	193.000000
845.529358	199.900000
845.563354	191.700000
845.597412	189.400000
845.631409	200.300000
845.665405	198.000000
845.699463	196.400000
845.733459	189.300000
845.767456	201.100000
845.801453	190.600000
845.835449	196.500000
845.869446	196.300000
845.903503	196.400000
845.937439	189.100000
845.971497	198.000000
846.005493	188.100000
846.039429	196.800000
846.073486	202.300000
846.107483	191.600000
846.141418	190.900000
846.175476	193.200000
846.209473	197.800000
846.243408	190.400000
846.277405	195.200000
846.311401	190.700000
846.345337	193.200000
846.379395	198.000000
846.413330	190.600000
846.447327	201.300000
846.481323	189.600000
846.515259	190.700000
846.549255	192.800000
846.583252	195.100000
846.617187	190.400000
846.651184	192.400000
846.685120	193.100000
846.719055	199.800000
846.753052	195.800000
846.786987	194.400000
846.820984	188.900000
846.854980	196.100000
846.888916	190.100000
846.922852	193.000000
846.956848	197.700000
846.990723	188.800000
847.024719	194.300000
847.058716	191.300000
847.092590	199.000000
847.126587	194.700000
847.160522	191.300000
847.194458	195.100000
847.228455	190.500000
847.262390	189.000000
847.296265	190.900000
847.330261	196.000000
847.364136	190.600000
847.398132	192.100000
847.432068	194.000000
847.466003	191.400000
847.499939	193.800000
847.533875	194.700000
847.567749	191.800000
847.601746	192.000000
847.635681	194.600000
847.669556	185.900000
847.703491	196.600000
847.737427	203.700000
847.771301	187.100000
847.805237	195.800000
847.839233	193.400000
847.873108	193.000000
847.907043	192.100000
847.940918	198.000000
847.974854	192.000000
848.008789	196.500000
848.042664	192.100000
848.076538	194.600000
848.110474	191.900000
848.144348	194.100000
848.178284	186.600000
848.212219	195.700000
848.246094	190.700000
848.279968	194.400000
848.313904	194.200000
848.347778	193.900000
848.381653	191.200000
848.415588	191.600000
848.449463	189.700000
848.483337	195.700000
848.517212	198.700000
848.551086	193.300000
848.585022	189.700000
848.618835	203.300000
848.652771	190.700000
848.686646	190.200000
848.720520	199.300000
848.754395	193.100000
848.788330	195.800000
848.822144	196.300000
848.856018	191.900000
848.889954	200.300000
848.923767	189.900000
848.957642	190.600000
848.991577	195.500000
849.025391	192.200000
849.059265	192.100000
849.093079	189.600000
849.126953	189.000000
849.160828	197.300000
849.194641	193.700000
849.228577	192.000000
849.262451	192.900000
849.296265	190.500000
849.330139	190.700000
849.364014	193.500000
849.397827	194.800000
849.431702	193.300000
849.465515	196.500000
849.499329	185.900000
849.533203	188.400000
849.567078	184.900000
849.600891	195.700000
849.634766	191.300000
849.668518	195.200000
849.702393	192.100000
849.736267	187.600000
849.770020	199.900000
849.803894	196.300000
849.837769	193.400000
849.871521	193.900000
849.905396	195.700000
849.939270	189.700000
849.973022	191.300000
850.006897	195.800000
850.040710	196.000000
850.074524	197.200000
850.108337	192.400000
850.142151	198.700000
850.175964	198.000000
850.209778	191.300000
850.243530	185.300000
850.277405	197.100000
850.311218	193.400000
850.344971	191.300000
850.378845	198.500000
850.412659	190.000000
850.446411	195.500000
850.480225	191.900000
850.514038	198.400000
850.547791	194.100000
850.581665	192.000000
850.615417	188.300000
850.649231	193.600000
850.683044	192.300000
850.716858	193.600000
850.750610	192.600000
850.784424	197.400000
850.818176	190.100000
850.851929	193.200000
850.885742	189.800000
850.919495	192.500000
850.953308	198.900000
850.987122	200.000000
851.020874	187.100000
851.054626	187.600000
851.088440	194.500000
851.122192	196.700000
851.156006	193.500000
851.189697	194.100000
851.223511	188.200000
851.257263	197.300000
851.291077	195.800000
851.324829	192.200000
851.358582	190.100000
851.392334	192.700000
851.426086	190.300000
851.459900	199.300000
851.493591	193.500000
851.527344	192.500000
851.561157	193.900000
851.594849	195.100000
851.628662	194.000000
851.662415	201.000000
851.696106	194.200000
851.729858	197.200000
851.763611	188.600000
851.797363	193.600000
851.831116	189.400000
851.864868	195.400000
851.898560	197.000000
851.932312	191.100000
851.966064	196.000000
851.999817	193.000000
852.033569	193.100000
852.067261	197.100000
852.101013	191.500000
852.134766	190.200000
852.168457	185.800000
852.202209	196.200000
852.235901	189.400000
852.269592	194.700000
852.303345	199.100000
852.337036	194.500000
852.370789	192.600000
852.404541	195.200000
852.438171	188.800000
852.471924	192.400000
852.505676	188.200000
852.539307	193.400000
852.573059	190.600000
852.606812	191.700000
852.640442	192.900000
852.674194	198.100000
852.707886	202.300000
852.741577	198.800000
852.775269	190.000000
852.809021	193.700000
852.842651	195.500000
852.876404	200.400000
852.910034	194.400000
852.943787	197.600000
852.977478	195.300000
853.011108	190.800000
853.044861	190.300000
853.078552	199.200000
853.112183	194.700000
853.145874	193.200000
853.179626	187.300000
853.213257	194.200000
853.246948	190.700000
853.280640	201.000000
853.314270	193.200000
853.347961	197.800000
853.381653	196.300000
853.415283	197.900000
853.448975	190.100000
853.482605	195.600000
853.516296	192.600000
853.549988	189.500000
853.583618	194.100000
853.617310	196.300000
853.651001	193.000000
853.684631	189.600000
853.718323	190.600000
853.751953	198.800000
853.785583	186.200000
853.819275	197.000000
853.852966	193.600000
853.886536	187.200000
853.920227	189.700000
853.953918	197.700000
853.987488	192.500000
854.021179	197.000000
854.054749	200.500000
854.088440	196.500000
854.122131	189.600000
854.155701	195.000000
854.189331	189.300000
854.223022	196.500000
854.256592	195.200000
854.290283	191.000000
854.323914	195.600000
854.357483	194.200000
854.391174	195.100000
854.424744	200.000000
854.458374	193.400000
854.492065	204.600000
854.525696	191.700000
854.559265	197.700000
854.592896	202.800000
854.626465	193.600000
854.660095	192.300000
854.693787	194.300000
854.727356	191.700000
854.760986	196.200000
854.794617	196.800000
854.828186	192.300000
854.861816	196.400000
854.895447	194.700000
854.929016	195.600000
854.962585	193.600000
854.996155	201.700000
855.029785	193.800000
855.063416	194.500000
855.097046	195.300000
855.130615	189.200000
855.164185	197.800000
855.197754	193.900000
855.231384	195.600000
855.264954	192.000000
855.298523	195.800000
855.332153	196.100000
855.365723	197.000000
855.399292	192.100000
855.432922	192.200000
855.466492	194.500000
855.500061	189.000000
855.533630	190.600000
855.567200	195.500000
855.600769	197.000000
855.634338	197.200000
855.667969	193.800000
855.701477	190.000000
855.735046	191.400000
855.768616	186.300000
855.802185	194.300000
855.835754	205.500000
855.869324	186.000000
855.902893	192.600000
855.936401	197.500000
855.969971	194.500000
856.003540	188.500000
856.037109	196.300000
856.070618	192.300000
856.104187	190.900000
856.137695	190.700000
856.171265	185.700000
856.204834	193.100000
856.238403	195.400000
856.271912	190.200000
856.305481	196.900000
856.338989	186.800000
856.372559	196.500000
856.406128	194.000000
856.439636	196.700000
856.473145	191.000000
856.506653	199.800000
856.540222	193.400000
856.573792	198.500000
856.607300	195.900000
856.640808	189.700000
856.674377	192.500000
856.707825	226.700000
856.741394	198.300000
856.774902	189.500000
856.808472	187.500000
856.841980	197.100000
856.875488	197.900000
856.908936	189.300000
856.942505	192.000000
856.976013	192.000000
857.009521	190.900000
857.043030	195.400000
857.076477	192.700000
857.110046	200.100000
857.143555	194.400000
857.177063	197.300000
857.210571	192.900000
857.244080	188.000000
857.277527	195.300000
857.311035	193.400000
857.344543	197.100000
857.378052	191.400000
857.411499	198.200000
857.445068	200.400000
857.478516	192.300000
857.512024	188.400000
857.545532	193.400000
857.578979	193.700000
857.612427	195.500000
857.645874	190.000000
857.679382	193.900000
857.712891	197.500000
857.746399	192.800000
857.779846	198.200000
857.813354	197.100000
857.846741	191.900000
857.880249	190.600000
857.913757	193.200000
857.947266	194.900000
857.980652	195.200000
858.014160	193.600000
858.047546	190.800000
858.081055	191.800000
858.114563	203.900000
858.147949	189.300000
858.181458	194.400000
858.214844	193.100000
858.248352	188.100000
858.281799	195.800000
858.315308	202.600000
858.348694	197.100000
858.382141	200.100000
858.415588	196.800000
858.449036	195.600000
858.482483	194.600000
858.515930	191.500000
858.549377	192.500000
858.582825	198.000000
858.616211	195.000000
858.649658	195.200000
858.683105	189.800000
858.716553	190.800000
858.750000	188.400000
858.783386	192.400000
858.816833	186.500000
858.850281	193.900000
858.883728	193.100000
858.917114	196.000000
858.950562	200.400000
858.983948	199.600000
859.017395	196.500000
859.050781	193.500000
859.084167	188.900000
859.117615	190.200000
859.151062	194.200000
859.184448	190.700000
859.217834	190.500000
859.251282	192.500000
859.284668	187.700000
859.318054	187.000000
859.351440	191.400000
859.384888	199.600000
859.418274	187.500000
859.451721	187.700000
859.485046	194.300000
859.518494	195.700000
859.551819	188.800000
859.585266	197.000000
859.618652	198.500000
859.652039	189.300000
859.685425	187.500000
859.718811	189.300000
859.752197	185.100000
859.785583	197.600000
859.819031	199.200000
859.852356	195.300000
859.885742	191.100000
859.919067	193.200000
859.952454	191.500000
859.985901	197.300000
860.019287	193.800000
860.052612	0.000000
860.085999	0.000000
860.119324	0.000000
860.152710	0.000000
860.186096	0.000000
860.219421	0.000000
860.252808	0.000000
860.286133	0.000000
860.319519	0.000000
860.352905	0.000000
860.386292	0.000000
860.419617	0.000000
860.452942	0.000000
860.486267	0.000000
860.519653	0.000000
860.553040	0.000000
860.586365	0.000000
860.619690	0.000000
860.653076	0.000000
860.686340	0.000000
860.719727	0.000000
860.753113	0.000000
860.786377	0.000000
860.819763	0.000000
860.853027	0.000000
860.886414	0.000000
860.919739	0.000000
860.953125	0.000000
860.986389	0.000000
861.019714	0.000000
861.053040	0.000000
861.086365	0.000000
861.119690	0.000000
861.153076	0.000000
861.186340	0.000000
861.219666	0.000000
861.252930	0.000000
861.286316	0.000000
861.319641	0.000000
861.352905	0.000000
861.386230	0.000000
861.419495	0.000000
861.452820	0.000000
861.486145	0.000000
861.519470	0.000000
861.552734	0.000000
861.586060	0.000000
861.619324	0.000000
861.652649	0.000000
861.685974	0.000000
861.719238	0.000000
861.752563	0.000000
861.785828	0.000000
861.819092	0.000000
861.852417	0.000000
861.885742	0.000000
861.918945	0.000000
861.952271	0.000000
861.985535	0.000000
862.018799	0.000000
862.052124	0.000000
862.085449	0.000000
862.118652	0.000000
862.151978	0.000000
862.185181	0.000000
862.218506	0.000000
862.251770	0.000000
862.285034	0.000000
862.318298	0.000000
862.351562	0.000000
862.384827	0.000000
862.418091	0.000000
862.451355	0.000000
862.484619	0.000000
862.517883	0.000000
862.551086	0.000000
862.584351	0.000000
862.617676	0.000000
862.650940	0.000000
862.684143	0.000000
862.717407	0.000000
862.750610	0.000000
862.783875	0.000000
862.817139	0.000000
862.850342	0.000000
862.883606	0.000000
862.916870	0.000000
862.950073	0.000000
862.983337	0.000000
863.016602	0.000000
863.049805	0.000000
863.083069	0.000000
863.116211	0.000000
863.149475	0.000000
863.182739	0.000000
863.216003	0.000000
863.249146	0.000000
863.282410	0.000000
863.315613	0.000000
863.348816	0.000000
863.382080	0.000000
863.415222	0.000000
863.448486	0.000000
863.481689	0.000000
863.514893	0.000000
863.548157	0.000000
863.581360	0.000000
863.614502	0.000000
863.647766	0.000000
863.680908	0.000000
863.714172	0.000000
863.747375	0.000000
863.780579	0.000000
863.813721	0.000000
863.846985	0.000000
863.880127	0.000000
863.913330	0.000000
863.946533	0.000000
863.979675	0.000000
864.012939	0.000000
