Model Number: SPM-001-M   
Serial Number: 10090201
Firmware Version: 004.17.6
Exposure Time: 300000.000000us
Data Taken on: 21-01-2021 14:32:49.975
Wavelength	Amplitude
733.770752	0.000000
733.808716	0.000000
733.846619	0.000000
733.884583	0.000000
733.922546	0.000000
733.960449	0.000000
733.998413	0.000000
734.036377	0.000000
734.074219	0.000000
734.112183	0.000000
734.150085	0.000000
734.188049	0.000000
734.226013	0.000000
734.263916	0.000000
734.301819	0.000000
734.339783	0.000000
734.377686	0.000000
734.415588	0.000000
734.453552	0.000000
734.491455	0.000000
734.529419	0.000000
734.567322	0.000000
734.605225	0.000000
734.643127	0.000000
734.681091	0.000000
734.718994	0.000000
734.756897	0.000000
734.794800	0.000000
734.832703	0.000000
734.870667	0.000000
734.908508	0.000000
734.946472	0.000000
734.984375	0.000000
735.022278	0.000000
735.060181	0.000000
735.098083	0.000000
735.135986	0.000000
735.173889	0.000000
735.211792	0.000000
735.249695	0.000000
735.287598	0.000000
735.325439	0.000000
735.363403	0.000000
735.401306	0.000000
735.439148	0.000000
735.477051	0.000000
735.515015	0.000000
735.552856	0.000000
735.590759	0.000000
735.628662	0.000000
735.666504	0.000000
735.704407	0.000000
735.742310	0.000000
735.780212	0.000000
735.818115	0.000000
735.856018	0.000000
735.893860	0.000000
735.931763	0.000000
735.969604	0.000000
736.007507	0.000000
736.045410	0.000000
736.083252	0.000000
736.121094	0.000000
736.158997	0.000000
736.196838	0.000000
736.234741	0.000000
736.272644	0.000000
736.310486	0.000000
736.348389	0.000000
736.386230	0.000000
736.424072	0.000000
736.461975	0.000000
736.499878	0.000000
736.537720	0.000000
736.575562	0.000000
736.613403	0.000000
736.651306	0.000000
736.689148	0.000000
736.726990	0.000000
736.764893	0.000000
736.802734	0.000000
736.840576	0.000000
736.878418	0.000000
736.916321	0.000000
736.954102	0.000000
736.992004	0.000000
737.029846	0.000000
737.067688	0.000000
737.105530	0.000000
737.143372	0.000000
737.181213	0.000000
737.219116	0.000000
737.256897	0.000000
737.294739	0.000000
737.332642	0.000000
737.370422	0.000000
737.408325	0.000000
737.446167	0.000000
737.483948	0.000000
737.521790	0.000000
737.559692	0.000000
737.597473	0.000000
737.635315	0.000000
737.673157	0.000000
737.710999	0.000000
737.748840	0.000000
737.786621	0.000000
737.824463	0.000000
737.862305	0.000000
737.900085	0.000000
737.937927	0.000000
737.975769	0.000000
738.013550	0.000000
738.051392	0.000000
738.089233	0.000000
738.127014	0.000000
738.164856	0.000000
738.202698	0.000000
738.240479	0.000000
738.278320	0.000000
738.316162	0.000000
738.353943	0.000000
738.391785	0.000000
738.429565	0.000000
738.467407	0.000000
738.505188	0.000000
738.542969	0.000000
738.580811	0.000000
738.618652	0.000000
738.656372	0.000000
738.694214	0.000000
738.732056	0.000000
738.769836	0.000000
738.807617	0.000000
738.845459	0.000000
738.883240	0.000000
738.921021	0.000000
738.958862	0.000000
738.996582	0.000000
739.034424	0.000000
739.072205	0.000000
739.109985	0.000000
739.147827	0.000000
739.185547	0.000000
739.223389	0.000000
739.261169	0.000000
739.298889	0.000000
739.336731	0.000000
739.374512	0.000000
739.412292	0.000000
739.450073	0.000000
739.487854	0.000000
739.525635	0.000000
739.563416	0.000000
739.601135	0.000000
739.638977	0.000000
739.676758	0.000000
739.714478	0.000000
739.752258	0.000000
739.790100	0.000000
739.827820	0.000000
739.865601	0.000000
739.903381	0.000000
739.941101	0.000000
739.978882	194.600000
740.016724	190.900000
740.054443	194.700000
740.092224	189.800000
740.130005	189.800000
740.167725	189.800000
740.205505	189.200000
740.243225	196.600000
740.281006	192.700000
740.318787	187.100000
740.356506	196.700000
740.394287	196.000000
740.432068	188.000000
740.469727	188.100000
740.507507	196.300000
740.545288	192.300000
740.583008	193.200000
740.620789	191.300000
740.658569	187.100000
740.696228	192.300000
740.734009	195.500000
740.771790	184.100000
740.809509	194.100000
740.847229	188.100000
740.884949	189.300000
740.922729	187.200000
740.960449	189.500000
740.998169	190.200000
741.035950	187.400000
741.073669	192.800000
741.111389	191.600000
741.149170	199.900000
741.186890	199.100000
741.224609	195.200000
741.262329	192.200000
741.300110	198.600000
741.337769	186.900000
741.375549	188.300000
741.413208	191.700000
741.450989	191.000000
741.488708	190.500000
741.526367	190.300000
741.564148	195.000000
741.601868	195.900000
741.639526	190.800000
741.677307	193.900000
741.715027	192.600000
741.752686	189.600000
741.790466	198.700000
741.828186	193.500000
741.865845	188.600000
741.903564	186.700000
741.941345	191.800000
741.979004	189.400000
742.016724	195.000000
742.054382	191.800000
742.092102	195.300000
742.129822	186.500000
742.167480	190.700000
742.205200	191.100000
742.242920	194.100000
742.280640	195.900000
742.318359	189.500000
742.356079	189.900000
742.393738	194.800000
742.431396	189.700000
742.469116	195.200000
742.506775	185.000000
742.544495	193.900000
742.582214	194.200000
742.619873	191.500000
742.657593	196.200000
742.695251	195.400000
742.732971	190.700000
742.770630	192.900000
742.808289	192.100000
742.846008	191.400000
742.883728	192.500000
742.921326	192.100000
742.959045	189.600000
742.996765	191.300000
743.034424	192.200000
743.072083	190.700000
743.109802	190.200000
743.147400	188.000000
743.185120	192.500000
743.222839	192.100000
743.260437	198.000000
743.298157	193.600000
743.335754	185.900000
743.373474	191.300000
743.411133	186.800000
743.448792	193.700000
743.486450	193.200000
743.524170	187.400000
743.561768	192.800000
743.599487	197.500000
743.637146	199.600000
743.674744	191.200000
743.712463	190.800000
743.750122	193.800000
743.787720	193.500000
743.825439	190.100000
743.863037	190.700000
743.900696	191.400000
743.938416	218.300000
743.976013	191.300000
744.013672	199.100000
744.051331	195.500000
744.088928	198.500000
744.126587	195.900000
744.164307	194.500000
744.201904	189.600000
744.239563	194.300000
744.277222	194.500000
744.314819	192.500000
744.352478	196.300000
744.390137	194.300000
744.427734	192.600000
744.465393	190.600000
744.502991	188.700000
744.540649	193.600000
744.578308	192.200000
744.615906	188.100000
744.653564	184.200000
744.691223	195.100000
744.728821	186.300000
744.766418	192.400000
744.804077	194.400000
744.841675	191.300000
744.879333	187.600000
744.916992	191.600000
744.954529	191.300000
744.992187	195.800000
745.029785	191.200000
745.067444	190.200000
745.105042	192.200000
745.142639	194.100000
745.180298	201.800000
745.217896	190.700000
745.255493	191.300000
745.293152	195.300000
745.330750	197.200000
745.368347	196.700000
745.405945	194.500000
745.443604	192.400000
745.481140	194.700000
745.518799	191.100000
745.556396	195.000000
745.593994	192.600000
745.631592	193.600000
745.669189	187.700000
745.706787	191.900000
745.744385	188.000000
745.781982	194.200000
745.819580	189.400000
745.857178	191.600000
745.894775	190.800000
745.932373	194.000000
745.969971	192.500000
746.007568	186.900000
746.045166	198.100000
746.082764	197.100000
746.120300	193.300000
746.157898	194.000000
746.195557	192.400000
746.233093	187.700000
746.270691	194.200000
746.308228	194.100000
746.345825	195.500000
746.383423	194.100000
746.420959	189.900000
746.458557	191.300000
746.496155	190.400000
746.533691	194.200000
746.571289	189.400000
746.608887	193.000000
746.646423	193.500000
746.684021	193.100000
746.721619	191.000000
746.759155	195.000000
746.796753	187.200000
746.834351	186.500000
746.871826	191.700000
746.909424	195.700000
746.946960	191.500000
746.984558	191.100000
747.022156	192.100000
747.059631	197.300000
747.097229	194.600000
747.134827	189.500000
747.172363	196.000000
747.209900	194.500000
747.247498	189.800000
747.285034	196.000000
747.322571	196.800000
747.360168	190.600000
747.397644	186.500000
747.435242	192.300000
747.472778	196.200000
747.510315	188.400000
747.547913	190.500000
747.585388	196.700000
747.622925	191.100000
747.660522	186.600000
747.697998	190.700000
747.735596	190.700000
747.773132	190.500000
747.810669	192.100000
747.848206	195.000000
747.885742	188.900000
747.923279	188.100000
747.960815	191.400000
747.998352	193.700000
748.035889	195.600000
748.073425	195.200000
748.110901	190.000000
748.148437	188.200000
748.185974	192.300000
748.223511	200.000000
748.261047	194.800000
748.298584	193.300000
748.336060	192.900000
748.373596	193.600000
748.411133	217.600000
748.448608	188.700000
748.486145	195.600000
748.523682	196.400000
748.561218	198.700000
748.598755	191.100000
748.636292	195.600000
748.673706	191.900000
748.711243	199.300000
748.748718	191.600000
748.786255	192.500000
748.823792	191.900000
748.861267	188.600000
748.898804	195.000000
748.936340	194.000000
748.973816	191.500000
749.011292	197.900000
749.048828	193.600000
749.086304	194.800000
749.123840	200.500000
749.161316	188.700000
749.198792	198.600000
749.236328	196.300000
749.273743	191.200000
749.311279	192.000000
749.348816	196.400000
749.386230	193.400000
749.423767	183.200000
749.461304	196.100000
749.498718	192.800000
749.536255	197.900000
749.573730	200.700000
749.611206	198.100000
749.648682	191.700000
749.686218	192.300000
749.723633	194.700000
749.761169	192.200000
749.798645	191.400000
749.836060	190.800000
749.873596	188.600000
749.911011	192.800000
749.948547	197.400000
749.986023	191.000000
750.023437	192.000000
750.060913	186.800000
750.098450	187.900000
750.135864	191.000000
750.173340	191.000000
750.210815	196.500000
750.248291	189.500000
750.285767	191.000000
750.323242	196.300000
750.360657	193.900000
750.398132	188.600000
750.435608	193.100000
750.473022	189.200000
750.510498	187.400000
750.547974	189.400000
750.585449	191.100000
750.622925	184.600000
750.660339	201.900000
750.697815	192.800000
750.735291	191.200000
750.772644	191.800000
750.810120	193.500000
750.847595	194.800000
750.885010	188.800000
750.922485	198.700000
750.959961	191.300000
750.997375	197.300000
751.034851	195.100000
751.072266	197.400000
751.109680	186.400000
751.147156	197.700000
751.184570	193.700000
751.221985	193.500000
751.259460	186.200000
751.296875	192.300000
751.334290	192.100000
751.371765	196.000000
751.409180	196.300000
751.446594	197.600000
751.484070	193.500000
751.521423	191.800000
751.558899	193.600000
751.596375	199.500000
751.633728	196.800000
751.671204	200.300000
751.708618	188.800000
751.746033	191.700000
751.783447	187.600000
751.820801	189.300000
751.858276	194.300000
751.895691	190.500000
751.933105	191.000000
751.970520	188.200000
752.007935	189.500000
752.045349	193.900000
752.082764	192.100000
752.120178	190.000000
752.157532	190.000000
752.195007	188.200000
752.232422	195.700000
752.269775	196.300000
752.307190	195.400000
752.344543	188.700000
752.382019	192.000000
752.419434	190.900000
752.456787	194.500000
752.494202	196.100000
752.531616	194.300000
752.568970	194.600000
752.606384	195.200000
752.643799	195.100000
752.681152	198.600000
752.718567	195.300000
752.755981	187.300000
752.793335	195.100000
752.830750	187.800000
752.868164	196.300000
752.905518	189.200000
752.942932	196.500000
752.980225	189.200000
753.017639	195.100000
753.055054	196.200000
753.092407	194.200000
753.129822	196.300000
753.167175	199.100000
753.204529	191.900000
753.241943	189.900000
753.279358	188.600000
753.316650	195.200000
753.354065	193.400000
753.391479	195.300000
753.428772	196.600000
753.466187	195.200000
753.503479	187.500000
753.540894	191.400000
753.578308	188.700000
753.615601	187.300000
753.653015	192.100000
753.690369	191.500000
753.727722	189.100000
753.765076	186.900000
753.802490	187.500000
753.839783	187.200000
753.877136	189.100000
753.914551	201.300000
753.951843	190.000000
753.989258	194.800000
754.026611	192.600000
754.063904	194.900000
754.101257	189.900000
754.138611	187.500000
754.175964	194.300000
754.213318	201.500000
754.250610	187.300000
754.288025	190.600000
754.325378	187.200000
754.362671	195.700000
754.400024	192.700000
754.437378	200.700000
754.474670	198.400000
754.512085	190.100000
754.549438	192.900000
754.586731	189.300000
754.624084	191.500000
754.661438	188.600000
754.698730	198.400000
754.736084	190.800000
754.773376	190.600000
754.810730	192.500000
754.848083	192.400000
754.885315	196.200000
754.922668	186.300000
754.960022	188.300000
754.997314	195.500000
755.034668	192.100000
755.072021	192.900000
755.109253	191.100000
755.146606	197.800000
755.183960	190.500000
755.221252	198.400000
755.258545	194.600000
755.295898	197.900000
755.333191	197.300000
755.370544	194.400000
755.407776	192.000000
755.445129	193.800000
755.482422	196.200000
755.519714	190.800000
755.557068	188.000000
755.594360	187.800000
755.631653	196.100000
755.668945	199.300000
755.706299	193.700000
755.743530	203.000000
755.780884	198.200000
755.818176	197.000000
755.855408	198.100000
755.892761	195.300000
755.930054	194.300000
755.967346	195.400000
756.004639	195.100000
756.041870	193.700000
756.079224	198.700000
756.116516	189.800000
756.153748	197.100000
756.191040	201.100000
756.228394	195.900000
756.265625	190.700000
756.302917	195.100000
756.340210	190.900000
756.377441	198.600000
756.414795	198.600000
756.452087	194.100000
756.489319	188.300000
756.526611	197.500000
756.563843	194.400000
756.601135	201.400000
756.638428	200.700000
756.675659	194.500000
756.712952	196.300000
756.750244	197.000000
756.787476	195.600000
756.824768	200.200000
756.862061	193.300000
756.899292	242.500000
756.936584	197.300000
756.973816	203.000000
757.011047	203.800000
757.048340	194.800000
757.085632	196.500000
757.122864	210.900000
757.160156	194.000000
757.197327	197.300000
757.234619	200.600000
757.271912	194.800000
757.309082	199.100000
757.346375	193.600000
757.383667	201.100000
757.420837	196.500000
757.458130	198.100000
757.495422	195.800000
757.532593	198.700000
757.569885	191.700000
757.607117	192.700000
757.644348	196.900000
757.681580	207.500000
757.718811	187.000000
757.756042	195.800000
757.793335	195.300000
757.830505	199.000000
757.867798	193.900000
757.905029	195.000000
757.942200	197.500000
757.979492	195.300000
758.016724	195.000000
758.053894	195.400000
758.091187	208.500000
758.128418	198.000000
758.165588	194.100000
758.202820	207.000000
758.240112	196.500000
758.277283	206.500000
758.314514	199.500000
758.351685	196.700000
758.388916	204.000000
758.426147	203.600000
758.463379	205.200000
758.500610	201.400000
758.537842	200.400000
758.575012	205.500000
758.612244	197.100000
758.649475	208.600000
758.686646	194.100000
758.723877	205.700000
758.761108	205.700000
758.798279	199.800000
758.835510	201.100000
758.872742	205.500000
758.909851	202.100000
758.947083	202.600000
758.984253	202.900000
759.021484	204.700000
759.058716	202.700000
759.095886	205.500000
759.133057	200.900000
759.170288	203.300000
759.207458	199.700000
759.244690	209.500000
759.281860	208.600000
759.319031	202.100000
759.356262	200.400000
759.393433	200.200000
759.430603	201.600000
759.467773	199.000000
759.505005	207.000000
759.542175	205.900000
759.579346	203.100000
759.616516	202.700000
759.653687	206.500000
759.690918	200.800000
759.728027	203.200000
759.765259	205.300000
759.802429	207.500000
759.839539	204.300000
759.876770	208.000000
759.913940	211.200000
759.951111	204.600000
759.988281	205.200000
760.025452	204.000000
760.062561	201.400000
760.099792	213.600000
760.136963	207.000000
760.174072	204.500000
760.211243	202.300000
760.248413	202.300000
760.285583	202.300000
760.322754	213.300000
760.359863	209.800000
760.397034	210.100000
760.434204	205.700000
760.471375	205.300000
760.508545	204.500000
760.545715	205.900000
760.582825	203.400000
760.619995	208.200000
760.657166	202.900000
760.694275	212.200000
760.731445	208.000000
760.768555	208.600000
760.805664	210.000000
760.842834	208.600000
760.879944	209.100000
760.917114	207.600000
760.954285	207.200000
760.991394	203.000000
761.028564	212.600000
761.065674	210.000000
761.102783	205.200000
761.139954	210.600000
761.177124	209.900000
761.214172	212.800000
761.251343	208.100000
761.288452	207.800000
761.325562	210.900000
761.362732	206.900000
761.399841	208.800000
761.436951	211.200000
761.474121	207.700000
761.511169	209.100000
761.548340	213.600000
761.585449	211.700000
761.622559	212.700000
761.659668	211.200000
761.696838	215.700000
761.733887	212.700000
761.771057	211.100000
761.808167	210.700000
761.845276	215.000000
761.882385	222.000000
761.919434	214.100000
761.956604	226.600000
761.993713	210.500000
762.030762	216.600000
762.067871	212.600000
762.105042	213.100000
762.142090	218.500000
762.179199	215.000000
762.216309	216.700000
762.253418	224.800000
762.290527	221.300000
762.327637	219.600000
762.364685	210.100000
762.401794	218.300000
762.438904	216.500000
762.475952	212.100000
762.513062	211.200000
762.550110	211.700000
762.587219	222.600000
762.624329	221.600000
762.661377	217.300000
762.698486	216.600000
762.735596	217.000000
762.772644	214.100000
762.809753	209.700000
762.846863	215.400000
762.883911	219.700000
762.921021	220.100000
762.958069	215.800000
762.995117	225.000000
763.032227	223.300000
763.069336	216.100000
763.106323	213.600000
763.143433	215.600000
763.180481	219.300000
763.217590	221.200000
763.254639	218.700000
763.291687	219.600000
763.328735	223.400000
763.365845	217.500000
763.402893	218.300000
763.439941	221.600000
763.477051	224.200000
763.514038	223.100000
763.551147	220.000000
763.588196	221.900000
763.625244	220.800000
763.662292	226.600000
763.699402	228.800000
763.736389	223.500000
763.773499	231.900000
763.810486	225.900000
763.847534	223.500000
763.884644	225.000000
763.921631	223.000000
763.958679	229.500000
763.995728	225.000000
764.032776	229.500000
764.069824	221.900000
764.106873	228.200000
764.143860	233.400000
764.180969	225.500000
764.218018	232.100000
764.255005	225.000000
764.292053	227.700000
764.329102	235.300000
764.366089	234.900000
764.403137	231.900000
764.440125	226.900000
764.477173	229.600000
764.514221	234.600000
764.551208	231.000000
764.588257	229.100000
764.625305	233.900000
764.662292	238.500000
764.699341	240.700000
764.736389	234.400000
764.773376	246.200000
764.810425	235.900000
764.847473	242.800000
764.884399	240.300000
764.921448	244.800000
764.958435	244.700000
764.995483	236.600000
765.032532	249.100000
765.069458	237.300000
765.106506	239.500000
765.143555	238.300000
765.180481	240.300000
765.217529	247.600000
765.254578	238.000000
765.291504	245.100000
765.328552	242.500000
765.365540	239.800000
765.402527	250.700000
765.439575	240.200000
765.476501	238.100000
765.513550	239.000000
765.550537	243.100000
765.587463	248.500000
765.624512	240.400000
765.661499	235.700000
765.698486	247.700000
765.735474	241.800000
765.772461	242.900000
765.809448	249.300000
765.846436	247.500000
765.883423	253.400000
765.920410	247.200000
765.957397	244.000000
765.994385	247.400000
766.031311	257.100000
766.068359	249.200000
766.105286	251.600000
766.142273	255.300000
766.179260	252.100000
766.216187	247.100000
766.253174	244.400000
766.290161	250.100000
766.327148	255.300000
766.364136	254.600000
766.401123	263.400000
766.438049	250.200000
766.475037	260.100000
766.512024	255.700000
766.548950	268.400000
766.585937	262.600000
766.622864	259.400000
766.659790	258.700000
766.696777	249.400000
766.733704	261.200000
766.770691	254.700000
766.807678	264.100000
766.844604	260.400000
766.881531	260.900000
766.918518	263.900000
766.955444	263.600000
766.992432	259.700000
767.029358	263.500000
767.066284	263.700000
767.103271	263.600000
767.140198	294.000000
767.177124	274.500000
767.214050	265.900000
767.251038	267.100000
767.287964	263.200000
767.324890	264.000000
767.361816	267.600000
767.398743	270.300000
767.435730	266.300000
767.472595	269.600000
767.509583	272.100000
767.546509	264.400000
767.583374	268.400000
767.620361	263.200000
767.657288	268.100000
767.694214	270.000000
767.731140	267.600000
767.768066	269.500000
767.804993	272.600000
767.841919	265.100000
767.878845	270.200000
767.915710	276.400000
767.952698	271.000000
767.989563	273.600000
768.026489	274.600000
768.063416	268.500000
768.100281	267.300000
768.137207	279.600000
768.174133	277.400000
768.211060	277.500000
768.247986	274.200000
768.284912	273.000000
768.321777	275.600000
768.358704	274.200000
768.395630	275.500000
768.432495	271.400000
768.469421	278.100000
768.506348	280.200000
768.543152	284.400000
768.580078	279.100000
768.616943	283.500000
768.653870	283.400000
768.690796	284.800000
768.727661	282.600000
768.764587	282.200000
768.801453	276.500000
768.838318	286.800000
768.875244	285.800000
768.912109	289.800000
768.948975	281.200000
768.985901	283.500000
769.022766	283.700000
769.059631	289.900000
769.096558	283.600000
769.133362	286.900000
769.170288	286.000000
769.207214	286.600000
769.244019	290.000000
769.280945	291.700000
769.317810	296.500000
769.354675	293.100000
769.391541	297.600000
769.428406	295.900000
769.465271	301.600000
769.502136	293.600000
769.539062	297.900000
769.575867	295.400000
769.612732	297.700000
769.649597	302.700000
769.686462	303.200000
769.723328	301.900000
769.760193	298.300000
769.797058	297.700000
769.833923	307.400000
769.870728	302.700000
769.907593	307.900000
769.944519	306.500000
769.981323	307.000000
770.018188	308.700000
770.055054	308.400000
770.091858	308.200000
770.128723	316.200000
770.165588	320.500000
770.202393	310.000000
770.239258	316.600000
770.276062	316.600000
770.312927	317.000000
770.349792	323.100000
770.386597	319.400000
770.423462	329.600000
770.460327	333.200000
770.497131	322.600000
770.533997	319.900000
770.570862	330.200000
770.607605	330.800000
770.644470	330.000000
770.681335	331.200000
770.718140	331.700000
770.754944	323.800000
770.791809	327.500000
770.828613	327.200000
770.865479	333.400000
770.902222	337.600000
770.939087	332.500000
770.975952	324.000000
771.012695	330.900000
771.049561	343.200000
771.086365	335.200000
771.123169	333.600000
771.159973	335.000000
771.196838	337.000000
771.233582	337.900000
771.270447	337.200000
771.307251	342.500000
771.344055	339.700000
771.380859	343.400000
771.417664	338.500000
771.454468	344.800000
771.491272	343.100000
771.528076	344.100000
771.564880	342.300000
771.601685	350.600000
771.638428	345.300000
771.675293	350.100000
771.712097	339.600000
771.748840	353.600000
771.785645	350.000000
771.822449	351.400000
771.859253	355.500000
771.896057	351.200000
771.932861	361.200000
771.969604	353.000000
772.006409	348.800000
772.043213	359.400000
772.079956	357.500000
772.116760	350.700000
772.153503	355.000000
772.190308	366.000000
772.227112	359.200000
772.263855	352.300000
772.300659	354.500000
772.337463	360.900000
772.374207	356.600000
772.411011	354.800000
772.447754	358.800000
772.484497	368.900000
772.521301	362.600000
772.558105	364.800000
772.594849	361.700000
772.631592	365.300000
772.668396	364.700000
772.705139	366.500000
772.741882	365.300000
772.778625	374.100000
772.815430	376.500000
772.852173	376.900000
772.888916	379.400000
772.925720	379.300000
772.962463	381.900000
772.999207	378.300000
773.035950	384.400000
773.072754	382.400000
773.109436	377.900000
773.146240	382.100000
773.182922	377.900000
773.219727	386.600000
773.256470	380.900000
773.293152	373.900000
773.329956	379.700000
773.366699	383.900000
773.403381	378.300000
773.440186	386.900000
773.476929	385.200000
773.513611	383.400000
773.550354	384.000000
773.587158	386.900000
773.623840	379.100000
773.660583	387.200000
773.697327	396.100000
773.734009	388.200000
773.770813	387.100000
773.807495	387.500000
773.844238	389.000000
773.880981	401.700000
773.917664	395.700000
773.954407	399.900000
773.991150	391.300000
774.027832	394.600000
774.064575	391.800000
774.101318	400.000000
774.138000	404.200000
774.174744	397.500000
774.211487	398.200000
774.248108	386.600000
774.284851	389.500000
774.321594	398.100000
774.358276	401.600000
774.395020	406.200000
774.431702	405.100000
774.468384	397.100000
774.505127	398.500000
774.541809	402.000000
774.578491	408.000000
774.615234	414.300000
774.651917	407.300000
774.688599	407.700000
774.725342	413.100000
774.762024	412.800000
774.798706	416.300000
774.835449	417.600000
774.872070	426.000000
774.908813	421.300000
774.945496	420.200000
774.982178	420.800000
775.018860	419.000000
775.055542	426.200000
775.092224	425.200000
775.128967	431.200000
775.165588	430.100000
775.202271	426.700000
775.239014	433.600000
775.275635	430.600000
775.312317	430.200000
775.349060	434.400000
775.385681	435.700000
775.422363	431.800000
775.459045	436.500000
775.495667	437.900000
775.532410	441.800000
775.569092	442.600000
775.605713	442.400000
775.642395	443.600000
775.679016	440.900000
775.715698	443.700000
775.752380	450.900000
775.789001	445.400000
775.825684	447.200000
775.862366	448.600000
775.898987	458.000000
775.935669	451.100000
775.972351	466.700000
776.008972	465.900000
776.045654	466.600000
776.082336	462.600000
776.118958	463.000000
776.155640	463.000000
776.192322	467.300000
776.228882	473.300000
776.265564	474.000000
776.302185	468.400000
776.338867	477.200000
776.375488	471.700000
776.412109	477.300000
776.448792	483.600000
776.485413	487.900000
776.522034	485.800000
776.558716	484.000000
776.595337	485.500000
776.631958	486.700000
776.668579	486.000000
776.705261	496.600000
776.741882	488.500000
776.778503	489.400000
776.815186	492.900000
776.851746	490.000000
776.888367	492.600000
776.924988	499.100000
776.961609	494.800000
776.998291	493.200000
777.034851	489.000000
777.071472	499.300000
777.108154	493.100000
777.144714	504.400000
777.181335	506.800000
777.218018	502.900000
777.254578	504.800000
777.291199	505.300000
777.327759	509.400000
777.364380	518.300000
777.401062	521.900000
777.437622	528.200000
777.474243	517.100000
777.510864	521.600000
777.547424	515.300000
777.584045	522.300000
777.620667	524.700000
777.657227	528.600000
777.693848	528.400000
777.730469	538.800000
777.767029	529.600000
777.803650	533.700000
777.840271	529.700000
777.876831	530.400000
777.913452	539.300000
777.950012	531.000000
777.986633	525.600000
778.023193	526.500000
778.059753	525.500000
778.096375	529.200000
778.132996	539.400000
778.169556	533.400000
778.206116	532.300000
778.242737	529.100000
778.279297	532.200000
778.315857	523.500000
778.352478	532.400000
778.389038	539.100000
778.425598	539.600000
778.462219	544.600000
778.498718	543.800000
778.535339	549.400000
778.571838	548.100000
778.608459	548.800000
778.645020	542.900000
778.681580	550.000000
778.718140	550.000000
778.754761	547.800000
778.791260	550.000000
778.827881	556.700000
778.864441	560.400000
778.900940	565.400000
778.937561	560.400000
778.974121	557.000000
779.010620	551.000000
779.047241	553.900000
779.083801	564.800000
779.120300	563.100000
779.156860	566.700000
779.193359	561.800000
779.229980	565.200000
779.266541	567.800000
779.303040	574.100000
779.339600	568.200000
779.376160	561.900000
779.412659	562.300000
779.449219	564.700000
779.485779	572.300000
779.522278	569.600000
779.558838	573.700000
779.595398	574.200000
779.631897	568.200000
779.668457	564.600000
779.705017	569.900000
779.741516	560.500000
779.778076	558.400000
779.814575	566.600000
779.851074	565.200000
779.887634	564.700000
779.924133	575.300000
779.960693	565.200000
779.997253	573.200000
780.033691	573.400000
780.070251	576.800000
780.106812	586.400000
780.143250	580.200000
780.179810	574.600000
780.216370	578.100000
780.252808	589.300000
780.289368	593.000000
780.325867	592.300000
780.362366	586.400000
780.398865	593.200000
780.435364	588.100000
780.471863	599.200000
780.508423	598.600000
780.544861	605.200000
780.581421	605.400000
780.617920	594.900000
780.654419	595.100000
780.690918	598.200000
780.727417	604.700000
780.763916	606.200000
780.800415	611.900000
780.836914	598.300000
780.873352	608.200000
780.909912	596.100000
780.946411	607.300000
780.982849	610.200000
781.019348	611.000000
781.055786	606.700000
781.092346	605.200000
781.128845	612.300000
781.165283	621.400000
781.201782	626.700000
781.238281	625.900000
781.274719	628.000000
781.311218	622.900000
781.347717	631.000000
781.384155	618.900000
781.420654	628.100000
781.457092	632.600000
781.493591	626.700000
781.530090	616.300000
781.566528	606.600000
781.602966	587.900000
781.639465	538.300000
781.675903	461.800000
781.712402	399.100000
781.748901	353.400000
781.785278	317.400000
781.821777	298.200000
781.858276	269.500000
781.894714	247.900000
781.931152	222.700000
781.967651	223.800000
782.004089	215.100000
782.040527	221.900000
782.076965	221.400000
782.113403	218.600000
782.149902	220.200000
782.186340	216.400000
782.222778	228.300000
782.259277	217.300000
782.295654	212.900000
782.332092	211.200000
782.368591	212.400000
782.404968	214.300000
782.441467	225.300000
782.477905	227.300000
782.514282	222.800000
782.550781	228.400000
782.587219	222.500000
782.623596	229.100000
782.660095	226.200000
782.696472	225.100000
782.732910	221.600000
782.769348	218.100000
782.805786	233.600000
782.842224	247.700000
782.878662	273.400000
782.915039	297.400000
782.951477	309.100000
782.987915	298.900000
783.024292	293.400000
783.060730	319.000000
783.097168	385.300000
783.133545	480.000000
783.169983	576.700000
783.206421	638.900000
783.242798	677.300000
783.279236	683.700000
783.315613	679.200000
783.352051	682.500000
783.388489	687.500000
783.424866	679.300000
783.461304	684.800000
783.497681	695.200000
783.534058	695.400000
783.570496	690.500000
783.606934	687.700000
783.643250	696.200000
783.679687	708.200000
783.716125	702.300000
783.752441	710.200000
783.788879	735.900000
783.825317	740.600000
783.861633	739.900000
783.898071	740.900000
783.934448	752.400000
783.970825	757.400000
784.007263	761.300000
784.043579	770.800000
784.080017	778.000000
784.116394	773.900000
784.152710	773.100000
784.189148	778.700000
784.225525	780.600000
784.261902	774.400000
784.298279	767.900000
784.334656	765.500000
784.371033	757.000000
784.407410	760.300000
784.443787	742.500000
784.480164	734.600000
784.516541	714.900000
784.552856	724.400000
784.589233	723.200000
784.625610	719.700000
784.661987	743.300000
784.698364	736.900000
784.734741	731.700000
784.771057	738.000000
784.807434	740.300000
784.843811	752.300000
784.880127	753.300000
784.916504	774.800000
784.952881	778.200000
784.989197	768.700000
785.025574	769.800000
785.061951	780.700000
785.098267	795.800000
785.134644	795.400000
785.170959	792.000000
785.207275	793.500000
785.243652	790.900000
785.279968	776.400000
785.316345	780.800000
785.352722	778.200000
785.388977	772.200000
785.425354	765.500000
785.461731	745.400000
785.498047	741.800000
785.534363	735.900000
785.570679	734.800000
785.606995	736.400000
785.643372	743.400000
785.679687	734.000000
785.716003	724.000000
785.752380	721.100000
785.788635	726.300000
785.825012	741.500000
785.861328	746.100000
785.897644	740.400000
785.933960	754.100000
785.970337	758.500000
786.006592	770.900000
786.042908	780.700000
786.079285	791.800000
786.115540	805.000000
786.151855	803.900000
786.188171	801.600000
786.224487	800.500000
786.260803	802.000000
786.297119	805.700000
786.333435	802.100000
786.369751	791.800000
786.406006	795.800000
786.442322	782.600000
786.478638	768.600000
786.514954	774.200000
786.551270	776.100000
786.587585	780.300000
786.623840	769.900000
786.660156	761.800000
786.696472	751.300000
786.732727	751.100000
786.769043	753.700000
786.805298	749.600000
786.841614	755.300000
786.877930	765.900000
786.914124	754.600000
786.950439	769.900000
786.986755	776.900000
787.023010	790.100000
787.059326	809.000000
787.095642	808.600000
787.131836	812.900000
787.168152	809.200000
787.204468	822.900000
787.240723	841.800000
787.276978	842.700000
787.313293	842.000000
787.349548	844.700000
787.385803	847.800000
787.422058	839.300000
787.458313	831.800000
787.494629	831.800000
787.530823	834.700000
787.567139	819.100000
787.603455	805.300000
787.639648	799.400000
787.675903	803.700000
787.712219	804.500000
787.748413	802.600000
787.784729	806.000000
787.820984	799.400000
787.857178	794.000000
787.893494	789.700000
787.929749	785.900000
787.965942	797.200000
788.002258	813.000000
788.038452	823.200000
788.074707	814.600000
788.110962	820.300000
788.147217	824.900000
788.183472	840.300000
788.219727	852.300000
788.255920	863.300000
788.292175	864.400000
788.328430	862.100000
788.364624	853.300000
788.400879	858.300000
788.437134	861.100000
788.473328	857.600000
788.509583	859.600000
788.545837	857.700000
788.582031	855.600000
788.618286	860.100000
788.654480	860.300000
788.690735	863.200000
788.726990	874.300000
788.763184	877.900000
788.799377	889.900000
788.835632	878.600000
788.871826	885.700000
788.908081	890.800000
788.944336	880.400000
788.980469	886.700000
789.016724	886.200000
789.052979	885.600000
789.089111	870.200000
789.125366	878.800000
789.161621	862.500000
789.197754	875.000000
789.234009	882.900000
789.270142	869.500000
789.306396	869.900000
789.342590	865.500000
789.378784	842.600000
789.414978	840.800000
789.451233	848.200000
789.487366	846.000000
789.523621	854.300000
789.559814	851.200000
789.595947	850.000000
789.632202	864.600000
789.668335	870.000000
789.704529	885.100000
789.740784	905.900000
789.776917	903.400000
789.813110	901.500000
789.849304	911.200000
789.885498	906.700000
789.921692	918.300000
789.957886	927.600000
789.994019	932.900000
790.030212	937.600000
790.066406	941.800000
790.102539	936.300000
790.138733	951.400000
790.174927	938.100000
790.211060	942.500000
790.247253	943.800000
790.283386	942.000000
790.319580	924.600000
790.355774	913.400000
790.391907	916.100000
790.428101	930.700000
790.464294	925.700000
790.500427	926.700000
790.536621	912.600000
790.572754	895.700000
790.608887	894.500000
790.645081	901.400000
790.681274	912.900000
790.717346	911.500000
790.753540	906.600000
790.789734	892.400000
790.825867	875.500000
790.862000	872.900000
790.898132	888.200000
790.934265	885.200000
790.970459	885.600000
791.006592	892.600000
791.042725	891.800000
791.078918	883.000000
791.114990	874.500000
791.151184	877.300000
791.187317	886.400000
791.223389	894.200000
791.259583	881.900000
791.295715	883.200000
791.331848	882.800000
791.367981	894.600000
791.404114	907.500000
791.440247	910.000000
791.476379	911.900000
791.512451	896.300000
791.548584	892.400000
791.584778	888.300000
791.620850	895.800000
791.656982	899.800000
791.693115	901.300000
791.729187	897.600000
791.765381	887.300000
791.801514	880.900000
791.837585	885.200000
791.873718	894.200000
791.909851	904.400000
791.945923	911.800000
791.982056	898.900000
792.018188	890.600000
792.054260	887.300000
792.090393	888.100000
792.126465	881.700000
792.162598	895.100000
792.198669	890.400000
792.234741	892.400000
792.270874	879.100000
792.307007	864.200000
792.343079	864.600000
792.379150	879.300000
792.415283	874.300000
792.451355	867.900000
792.487488	847.300000
792.523560	846.600000
792.559631	839.000000
792.595764	807.100000
792.631836	773.600000
792.667908	754.200000
792.703979	733.200000
792.740051	746.600000
792.776184	777.600000
792.812256	790.700000
792.848328	803.100000
792.884399	818.900000
792.920471	821.300000
792.956543	825.700000
792.992615	822.400000
793.028748	815.400000
793.064758	817.800000
793.100830	830.700000
793.136963	845.900000
793.172974	842.300000
793.209045	834.600000
793.245178	850.300000
793.281189	833.100000
793.317261	838.600000
793.353271	845.900000
793.389404	857.200000
793.425476	847.500000
793.461487	833.000000
793.497559	830.900000
793.533630	832.200000
793.569641	823.700000
793.605713	832.700000
793.641785	834.700000
793.677795	845.000000
793.713867	832.200000
793.749878	842.000000
793.785950	852.200000
793.822021	858.300000
793.858032	850.000000
793.894104	866.800000
793.930176	860.200000
793.966187	859.800000
794.002258	845.200000
794.038269	858.500000
794.074280	852.700000
794.110352	883.800000
794.146423	867.600000
794.182373	864.300000
794.218445	861.500000
794.254517	850.900000
794.290466	831.400000
794.326538	846.500000
794.362549	853.400000
794.398560	848.800000
794.434631	856.600000
794.470581	839.200000
794.506653	829.200000
794.542664	830.200000
794.578674	833.500000
794.614685	834.800000
794.650757	825.700000
794.686707	823.600000
794.722778	819.000000
794.758789	827.600000
794.794739	831.700000
794.830811	853.800000
794.866821	881.200000
794.902771	887.000000
794.938843	879.000000
794.974792	880.500000
795.010803	882.900000
795.046814	872.100000
795.082825	864.100000
795.118835	877.900000
795.154846	866.700000
795.190796	874.100000
795.226807	858.600000
795.262817	858.400000
795.298767	857.600000
795.334778	859.800000
795.370850	855.100000
795.406799	856.300000
795.442810	845.100000
795.478821	845.900000
795.514709	842.500000
795.550720	872.000000
795.586670	854.000000
795.622681	850.000000
795.658691	853.900000
795.694641	854.800000
795.730652	843.300000
795.766663	854.800000
795.802551	853.600000
795.838562	868.400000
795.874573	865.800000
795.910522	866.800000
795.946472	855.700000
795.982483	852.600000
796.018433	851.400000
796.054382	862.000000
796.090393	856.200000
796.126282	849.100000
796.162292	837.100000
796.198242	837.100000
796.234192	827.500000
796.270203	825.700000
796.306091	830.400000
796.342041	851.000000
796.378052	839.300000
796.413940	830.800000
796.449951	832.600000
796.485901	837.400000
796.521790	843.300000
796.557800	858.500000
796.593689	860.000000
796.629639	848.400000
796.665649	853.000000
796.701599	853.900000
796.737488	845.600000
796.773437	848.200000
796.809387	856.400000
796.845337	857.400000
796.881287	853.200000
796.917175	839.900000
796.953125	834.100000
796.989075	842.300000
797.024963	843.600000
797.060913	838.800000
797.096863	840.800000
797.132751	834.800000
797.168701	817.600000
797.204590	827.600000
797.240540	824.600000
797.276489	829.000000
797.312439	835.700000
797.348328	835.500000
797.384277	834.800000
797.420166	825.700000
797.456055	818.500000
797.492004	816.800000
797.527893	824.500000
797.563843	829.100000
797.599731	830.300000
797.635620	819.500000
797.671570	823.200000
797.707520	831.600000
797.743347	823.200000
797.779297	825.000000
797.815125	828.200000
797.851074	819.500000
797.887024	815.200000
797.922913	800.800000
797.958801	808.400000
797.994690	800.200000
798.030579	810.700000
798.066467	813.000000
798.102356	798.500000
798.138245	790.800000
798.174133	786.800000
798.210083	795.000000
798.245911	804.200000
798.281799	807.400000
798.317749	812.000000
798.353577	807.800000
798.389465	806.500000
798.425293	805.300000
798.461243	800.100000
798.497131	803.600000
798.532959	809.700000
798.568848	819.000000
798.604736	806.200000
798.640564	792.200000
798.676453	792.500000
798.712402	792.000000
798.748230	795.600000
798.784119	799.000000
798.820007	795.500000
798.855835	789.800000
798.891724	781.100000
798.927551	773.400000
798.963379	779.800000
798.999268	780.100000
799.035095	775.100000
799.070984	773.300000
799.106873	760.100000
799.142700	764.400000
799.178528	755.700000
799.214417	762.900000
799.250244	772.200000
799.286133	769.800000
799.321960	769.200000
799.357788	759.400000
799.393677	753.800000
799.429504	758.800000
799.465332	758.200000
799.501221	766.400000
799.537048	772.900000
799.572876	765.700000
799.608704	756.100000
799.644531	762.300000
799.680359	764.500000
799.716248	777.500000
799.752014	782.600000
799.787903	779.700000
799.823730	778.100000
799.859558	771.400000
799.895386	769.200000
799.931213	765.200000
799.967041	755.700000
800.002869	763.400000
800.038696	773.900000
800.074463	755.100000
800.110352	757.400000
800.146179	747.500000
800.181946	757.400000
800.217773	765.000000
800.253540	760.000000
800.289429	754.600000
800.325256	749.800000
800.361023	739.500000
800.396851	752.400000
800.432678	756.000000
800.468445	757.100000
800.504272	761.300000
800.540100	747.700000
800.575867	746.500000
800.611694	750.900000
800.647461	745.900000
800.683289	740.400000
800.719116	751.100000
800.754883	751.000000
800.790649	732.300000
800.826477	728.500000
800.862244	743.800000
800.898071	731.300000
800.933838	737.900000
800.969604	734.700000
801.005432	731.100000
801.041199	733.300000
801.076965	725.100000
801.112793	717.700000
801.148560	712.000000
801.184326	720.100000
801.220154	717.300000
801.255859	708.600000
801.291687	705.000000
801.327454	705.100000
801.363281	704.100000
801.398987	697.200000
801.434814	698.200000
801.470520	706.100000
801.506287	706.500000
801.542114	699.500000
801.577820	694.300000
801.613647	694.100000
801.649414	692.000000
801.685120	696.700000
801.720886	698.600000
801.756714	690.700000
801.792419	690.000000
801.828186	676.800000
801.863892	679.500000
801.899719	678.900000
801.935486	675.900000
801.971252	687.800000
802.006958	685.000000
802.042725	676.600000
802.078430	674.400000
802.114197	670.300000
802.149963	689.400000
802.185669	676.700000
802.221436	676.000000
802.257202	679.200000
802.292908	672.000000
802.328674	677.000000
802.364441	682.100000
802.400146	677.200000
802.435913	677.600000
802.471558	670.300000
802.507324	668.400000
802.543091	667.300000
802.578796	678.900000
802.614502	680.700000
802.650269	682.000000
802.685974	667.800000
802.721741	678.300000
802.757446	681.000000
802.793152	675.400000
802.828918	678.100000
802.864624	675.200000
802.900330	674.700000
802.936035	676.400000
802.971802	672.700000
803.007446	662.200000
803.043213	659.300000
803.078857	670.400000
803.114624	660.300000
803.150330	661.200000
803.185974	652.700000
803.221741	654.200000
803.257446	658.900000
803.293152	664.700000
803.328857	654.100000
803.364563	655.600000
803.400208	653.400000
803.435974	655.400000
803.471680	643.200000
803.507324	641.000000
803.543030	647.600000
803.578735	652.900000
803.614441	648.100000
803.650146	655.000000
803.685791	642.700000
803.721497	643.300000
803.757202	632.800000
803.792847	642.900000
803.828552	639.900000
803.864258	640.700000
803.899902	638.200000
803.935608	623.900000
803.971313	623.600000
804.006958	623.300000
804.042664	622.500000
804.078308	634.700000
804.113953	621.200000
804.149658	630.400000
804.185364	619.200000
804.221008	635.000000
804.256714	619.100000
804.292297	614.400000
804.328003	615.700000
804.363708	612.800000
804.399292	613.200000
804.434998	605.500000
804.470703	591.900000
804.506287	607.900000
804.541992	600.700000
804.577637	604.200000
804.613281	594.000000
804.648926	593.000000
804.684570	594.600000
804.720215	591.800000
804.755920	591.500000
804.791565	590.600000
804.827209	593.300000
804.862854	590.500000
804.898437	590.100000
804.934143	589.900000
804.969788	584.300000
805.005371	585.700000
805.041077	586.200000
805.076721	589.200000
805.112305	581.500000
805.147949	579.700000
805.183655	577.000000
805.219238	586.800000
805.254883	578.200000
805.290466	585.600000
805.326111	579.000000
805.361755	572.600000
805.397400	570.500000
805.432983	572.400000
805.468628	568.700000
805.504211	576.100000
805.539856	575.800000
805.575500	581.700000
805.611084	566.600000
805.646729	554.100000
805.682373	556.900000
805.717957	568.000000
805.753601	572.800000
805.789246	563.200000
805.824768	570.700000
805.860413	571.100000
805.895996	557.700000
805.931641	557.000000
805.967224	563.000000
806.002869	559.400000
806.038452	564.400000
806.074036	568.300000
806.109619	556.200000
806.145264	553.400000
806.180847	555.700000
806.216431	557.800000
806.252014	558.000000
806.287659	558.300000
806.323181	560.800000
806.358826	559.200000
806.394409	546.400000
806.429993	544.700000
806.465576	552.900000
806.501160	545.000000
806.536743	539.900000
806.572327	547.300000
806.607910	546.700000
806.643494	543.300000
806.679077	533.500000
806.714661	533.600000
806.750244	538.600000
806.785828	536.400000
806.821350	535.100000
806.856934	534.500000
806.892517	532.400000
806.928101	526.100000
806.963684	528.400000
806.999268	530.500000
807.034790	521.100000
807.070374	524.500000
807.105896	515.500000
807.141479	514.200000
807.177063	521.400000
807.212585	512.200000
807.248169	514.600000
807.283752	518.400000
807.319275	516.400000
807.354858	520.100000
807.390381	511.800000
807.425903	509.800000
807.461487	506.900000
807.497070	505.900000
807.532593	507.200000
807.568115	501.400000
807.603699	500.000000
807.639221	496.100000
807.674744	499.800000
807.710266	497.800000
807.745850	500.300000
807.781372	501.300000
807.816895	495.700000
807.852417	496.900000
807.888000	494.900000
807.923523	489.300000
807.959045	492.400000
807.994629	486.600000
808.030090	485.300000
808.065613	493.100000
808.101135	497.200000
808.136658	490.000000
808.172241	486.900000
808.207764	488.600000
808.243225	484.500000
808.278809	482.600000
808.314270	487.800000
808.349792	476.500000
808.385315	473.300000
808.420837	480.900000
808.456360	483.200000
808.491882	486.600000
808.527344	482.000000
808.562866	486.800000
808.598389	482.300000
808.633850	476.000000
808.669434	469.900000
808.704895	475.200000
808.740417	481.700000
808.775940	480.900000
808.811462	474.900000
808.846924	472.000000
808.882385	469.000000
808.917847	468.200000
808.953369	466.900000
808.988892	464.100000
809.024353	470.000000
809.059875	470.800000
809.095398	465.200000
809.130798	457.100000
809.166321	459.500000
809.201843	457.700000
809.237305	459.600000
809.272766	467.400000
809.308228	459.500000
809.343750	457.100000
809.379211	458.400000
809.414734	457.700000
809.450134	465.500000
809.485657	452.800000
809.521118	456.400000
809.556580	447.600000
809.592102	447.300000
809.627502	447.300000
809.663025	443.800000
809.698486	441.700000
809.733887	441.300000
809.769409	443.400000
809.804871	436.400000
809.840271	435.700000
809.875793	440.400000
809.911194	435.900000
809.946655	429.300000
809.982178	429.700000
810.017639	435.400000
810.053040	432.800000
810.088501	429.800000
810.123901	428.700000
810.159424	426.900000
810.194885	425.000000
810.230286	426.800000
810.265747	422.900000
810.301208	419.100000
810.336609	419.300000
810.372070	412.200000
810.407532	416.900000
810.442932	419.000000
810.478394	424.900000
810.513794	415.900000
810.549255	412.800000
810.584717	410.000000
810.620117	406.600000
810.655518	412.700000
810.690979	407.000000
810.726379	405.400000
810.761841	397.500000
810.797302	396.700000
810.832642	397.100000
810.868103	409.300000
810.903564	398.100000
810.938904	403.700000
810.974365	388.900000
811.009827	392.600000
811.045166	389.100000
811.080627	385.300000
811.115967	390.200000
811.151428	395.900000
811.186829	391.100000
811.222229	389.600000
811.257629	381.600000
811.293091	386.100000
811.328430	393.100000
811.363892	385.300000
811.399292	387.600000
811.434631	384.300000
811.470093	390.600000
811.505493	380.800000
811.540833	383.400000
811.576294	386.100000
811.611694	382.700000
811.647034	377.100000
811.682434	381.600000
811.717773	381.500000
811.753235	385.800000
811.788635	375.300000
811.823975	378.600000
811.859375	383.200000
811.894775	372.900000
811.930115	373.000000
811.965515	372.000000
812.000916	374.800000
812.036255	370.800000
812.071655	374.300000
812.106995	369.000000
812.142395	368.900000
812.177795	375.900000
812.213196	371.100000
812.248474	371.800000
812.283875	367.600000
812.319214	367.800000
812.354614	367.900000
812.390015	362.600000
812.425293	365.100000
812.460693	365.300000
812.496094	361.400000
812.531433	352.100000
812.566772	357.800000
812.602173	359.200000
812.637451	361.700000
812.672852	354.500000
812.708191	359.600000
812.743530	353.000000
812.778931	348.700000
812.814270	347.300000
812.849609	353.700000
812.884949	350.700000
812.920227	342.800000
812.955627	352.500000
812.990967	346.400000
813.026306	343.000000
813.061646	334.200000
813.096985	333.400000
813.132324	331.300000
813.167664	334.000000
813.203003	337.500000
813.238281	325.800000
813.273682	329.000000
813.308960	328.500000
813.344299	328.500000
813.379639	334.900000
813.414978	328.800000
813.450256	327.700000
813.485596	328.000000
813.520874	322.000000
813.556213	323.000000
813.591614	327.200000
813.626831	319.800000
813.662170	323.000000
813.697510	327.800000
813.732788	317.300000
813.768127	322.200000
813.803467	320.600000
813.838745	316.700000
813.874084	318.600000
813.909363	318.400000
813.944641	320.000000
813.979980	311.500000
814.015320	316.500000
814.050598	313.500000
814.085876	316.100000
814.121155	310.500000
814.156494	311.000000
814.191772	311.900000
814.227051	307.300000
814.262390	310.400000
814.297668	308.200000
814.332947	309.100000
814.368225	302.500000
814.403564	304.000000
814.438782	302.000000
814.474121	304.700000
814.509338	302.100000
814.544617	306.600000
814.579956	300.900000
814.615173	307.000000
814.650513	303.200000
814.685791	297.300000
814.721008	303.000000
814.756348	301.700000
814.791626	298.500000
814.826843	298.800000
814.862122	298.100000
814.897400	296.200000
814.932678	296.900000
814.967957	298.000000
815.003235	298.000000
815.038452	291.800000
815.073730	288.900000
815.108948	298.600000
815.144226	294.200000
815.179504	297.800000
815.214722	287.100000
815.250000	289.000000
815.285278	291.100000
815.320496	286.300000
815.355774	286.800000
815.391052	289.000000
815.426270	288.200000
815.461487	286.300000
815.496765	279.600000
815.531982	280.600000
815.567261	283.500000
815.602539	289.100000
815.637695	284.600000
815.672974	288.200000
815.708191	288.200000
815.743408	286.100000
815.778687	280.700000
815.813904	286.100000
815.849121	274.700000
815.884399	275.300000
815.919556	276.100000
815.954834	277.700000
815.990051	278.500000
816.025269	281.700000
816.060486	274.600000
816.095703	273.800000
816.130920	275.500000
816.166199	272.300000
816.201416	273.500000
816.236572	276.600000
816.271851	269.300000
816.307007	275.000000
816.342224	266.400000
816.377441	268.900000
816.412659	262.100000
816.447876	270.200000
816.483093	267.400000
816.518250	265.500000
816.553467	264.000000
816.588745	267.000000
816.623901	262.000000
816.659119	257.300000
816.694275	262.000000
816.729492	258.800000
816.764709	289.000000
816.799927	255.100000
816.835083	260.000000
816.870300	252.900000
816.905457	257.500000
816.940674	257.500000
816.975830	254.800000
817.010986	252.200000
817.046204	252.600000
817.081421	249.200000
817.116577	251.300000
817.151733	257.000000
817.186951	255.100000
817.222107	252.300000
817.257324	255.500000
817.292419	253.000000
817.327637	247.000000
817.362854	247.200000
817.398010	245.600000
817.433167	246.300000
817.468323	247.000000
817.503479	247.100000
817.538635	254.800000
817.573853	249.300000
817.608948	247.200000
817.644165	242.800000
817.679321	242.300000
817.714478	240.400000
817.749634	243.300000
817.784790	252.200000
817.819946	249.300000
817.855103	235.500000
817.890198	241.200000
817.925415	235.300000
817.960571	242.600000
817.995667	241.200000
818.030823	242.000000
818.066040	239.200000
818.101135	239.900000
818.136292	238.900000
818.171448	234.200000
818.206543	236.700000
818.241699	239.300000
818.276855	237.200000
818.311951	234.200000
818.347107	232.700000
818.382263	238.300000
818.417358	241.700000
818.452515	238.700000
818.487610	240.800000
818.522766	231.900000
818.557922	240.800000
818.593018	235.400000
818.628113	233.900000
818.663269	230.100000
818.698364	234.000000
818.733521	228.400000
818.768677	233.400000
818.803711	228.000000
818.838867	228.000000
818.874023	228.900000
818.909058	225.800000
818.944214	224.800000
818.979370	230.700000
819.014404	229.100000
819.049561	224.900000
819.084595	227.900000
819.119751	220.500000
819.154846	229.300000
819.189941	224.900000
819.225037	220.800000
819.260193	217.300000
819.295227	219.200000
819.330322	218.000000
819.365479	216.000000
819.400513	249.200000
819.435608	215.400000
819.470764	213.800000
819.505798	216.800000
819.540894	218.400000
819.575989	215.900000
819.611084	221.300000
819.646179	222.900000
819.681213	217.300000
819.716309	216.700000
819.751404	216.200000
819.786438	220.600000
819.821533	211.700000
819.856628	216.100000
819.891663	217.100000
819.926758	225.300000
819.961853	219.900000
819.996887	211.700000
820.031982	215.400000
820.067017	212.500000
820.102112	246.600000
820.137207	212.000000
820.172302	224.000000
820.207275	211.400000
820.242371	208.900000
820.277405	211.000000
820.312500	210.800000
820.347534	214.100000
820.382568	216.000000
820.417664	208.700000
820.452759	210.400000
820.487732	209.600000
820.522827	209.200000
820.557861	206.500000
820.592896	208.600000
820.627930	209.600000
820.662964	206.600000
820.698059	210.200000
820.733093	206.900000
820.768127	211.900000
820.803162	208.800000
820.838196	205.900000
820.873230	208.300000
820.908264	208.100000
820.943298	205.200000
820.978333	208.700000
821.013367	207.900000
821.048401	209.500000
821.083435	210.800000
821.118469	201.700000
821.153503	210.300000
821.188477	207.700000
821.223511	202.700000
821.258484	204.900000
821.293579	207.100000
821.328613	200.700000
821.363647	205.700000
821.398621	200.900000
821.433655	203.900000
821.468628	215.000000
821.503662	204.400000
821.538696	207.000000
821.573669	201.600000
821.608704	206.900000
821.643677	204.000000
821.678650	207.500000
821.713684	211.600000
821.748718	203.700000
821.783691	205.000000
821.818726	204.700000
821.853638	204.900000
821.888672	203.300000
821.923706	203.700000
821.958618	202.800000
821.993652	202.000000
822.028687	207.300000
822.063599	209.000000
822.098633	205.200000
822.133667	199.800000
822.168579	203.500000
822.203613	203.800000
822.238586	199.500000
822.273560	205.300000
822.308533	200.600000
822.343567	200.800000
822.378479	202.400000
822.413452	200.200000
822.448425	201.100000
822.483398	206.000000
822.518372	206.000000
822.553345	198.500000
822.588318	208.500000
822.623291	198.600000
822.658203	200.900000
822.693237	200.700000
822.728210	198.700000
822.763123	202.300000
822.798096	196.800000
822.833069	200.000000
822.867981	199.600000
822.902954	202.700000
822.937927	203.300000
822.972900	209.200000
823.007874	196.400000
823.042725	205.400000
823.077698	210.200000
823.112671	198.000000
823.147583	200.700000
823.182556	200.400000
823.217529	203.900000
823.252441	198.900000
823.287415	210.800000
823.322388	204.800000
823.357239	200.800000
823.392212	206.400000
823.427185	207.000000
823.462097	198.600000
823.497009	203.200000
823.531982	200.800000
823.566895	200.400000
823.601807	197.900000
823.636719	198.300000
823.671631	204.000000
823.706604	198.400000
823.741455	201.700000
823.776428	195.000000
823.811340	203.200000
823.846252	206.800000
823.881165	207.200000
823.916138	201.000000
823.950989	208.100000
823.985901	197.000000
824.020813	199.400000
824.055725	199.100000
824.090637	195.400000
824.125610	202.300000
824.160461	201.800000
824.195374	201.400000
824.230225	201.900000
824.265198	194.300000
824.300110	197.900000
824.334961	206.500000
824.369873	192.300000
824.404785	202.400000
824.439636	204.600000
824.474548	194.100000
824.509460	192.400000
824.544312	203.900000
824.579224	201.000000
824.614075	201.900000
824.648987	197.800000
824.683899	198.000000
824.718811	197.700000
824.753662	203.500000
824.788574	202.400000
824.823364	199.100000
824.858276	195.600000
824.893188	201.700000
824.928040	201.800000
824.962952	199.100000
824.997803	201.600000
825.032654	199.100000
825.067566	198.500000
825.102417	196.100000
825.137268	197.200000
825.172119	197.100000
825.206970	194.400000
825.241882	197.800000
825.276733	193.100000
825.311646	197.700000
825.346436	192.100000
825.381348	192.200000
825.416138	197.200000
825.450989	195.100000
825.485901	188.700000
825.520691	190.800000
825.555542	191.200000
825.590454	194.800000
825.625244	190.500000
825.660095	200.000000
825.695007	197.700000
825.729797	194.900000
825.764648	192.500000
825.799438	195.200000
825.834290	195.400000
825.869202	191.000000
825.903992	194.500000
825.938843	192.200000
825.973694	190.700000
826.008484	203.300000
826.043335	190.400000
826.078186	187.500000
826.112976	198.800000
826.147827	197.800000
826.182678	201.400000
826.217468	188.500000
826.252319	198.900000
826.287109	190.400000
826.321899	197.400000
826.356750	191.200000
826.391541	189.400000
826.426392	197.500000
826.461182	192.600000
826.495972	188.900000
826.530823	185.500000
826.565613	193.300000
826.600403	188.400000
826.635254	194.700000
826.670044	187.200000
826.704834	186.300000
826.739685	188.700000
826.774475	193.400000
826.809265	191.600000
826.844055	190.600000
826.878906	197.200000
826.913635	193.100000
826.948425	195.200000
826.983215	193.600000
827.018005	195.900000
827.052856	191.000000
827.087585	194.900000
827.122375	186.200000
827.157227	191.200000
827.191956	203.000000
827.226746	188.800000
827.261536	193.400000
827.296265	186.600000
827.331116	189.600000
827.365906	195.500000
827.400635	189.100000
827.435425	185.500000
827.470215	195.800000
827.504944	191.600000
827.539734	195.100000
827.574463	191.500000
827.609253	198.100000
827.644043	191.000000
827.678772	196.300000
827.713562	190.700000
827.748352	190.500000
827.783081	189.200000
827.817871	193.300000
827.852600	188.600000
827.887329	192.300000
827.922119	183.700000
827.956848	194.400000
827.991638	201.000000
828.026367	194.100000
828.061157	191.900000
828.095886	191.500000
828.130615	204.500000
828.165344	185.000000
828.200073	191.300000
828.234863	191.600000
828.269592	189.900000
828.304321	195.300000
828.339111	193.100000
828.373779	189.700000
828.408569	193.900000
828.443298	195.400000
828.477966	190.100000
828.512756	192.200000
828.547424	187.000000
828.582214	191.200000
828.616943	190.400000
828.651672	192.000000
828.686340	194.600000
828.721130	190.300000
828.755798	191.100000
828.790527	193.200000
828.825256	191.400000
828.859924	192.500000
828.894714	196.800000
828.929443	198.700000
828.964111	189.600000
828.998840	195.400000
829.033569	188.600000
829.068237	190.800000
829.102966	190.200000
829.137634	192.100000
829.172363	193.700000
829.207092	193.600000
829.241821	188.900000
829.276489	188.500000
829.311157	193.100000
829.345825	189.900000
829.380554	196.900000
829.415283	188.200000
829.449951	187.400000
829.484619	198.800000
829.519348	196.300000
829.554016	192.100000
829.588745	192.000000
829.623413	187.700000
829.658081	199.600000
829.692749	187.100000
829.727417	196.100000
829.762146	193.000000
829.796814	189.400000
829.831482	189.200000
829.866150	193.400000
829.900879	190.100000
829.935486	194.900000
829.970154	189.400000
830.004883	202.300000
830.039490	192.300000
830.074219	189.500000
830.108887	191.600000
830.143494	191.800000
830.178223	187.400000
830.212891	191.500000
830.247498	191.300000
830.282166	199.400000
830.316772	196.300000
830.351501	189.400000
830.386169	191.200000
830.420776	191.300000
830.455444	192.500000
830.490112	190.200000
830.524719	186.700000
830.559387	193.000000
830.594055	192.500000
830.628662	191.000000
830.663330	192.800000
830.697998	198.100000
830.732605	191.400000
830.767273	193.100000
830.801941	190.700000
830.836487	199.000000
830.871155	192.800000
830.905762	193.300000
830.940430	186.300000
830.975098	188.500000
831.009644	192.300000
831.044312	197.600000
831.078979	194.000000
831.113525	186.000000
831.148193	193.100000
831.182861	190.000000
831.217407	194.800000
831.252075	202.700000
831.286621	191.900000
831.321289	189.200000
831.355896	192.700000
831.390564	197.300000
831.425110	191.800000
831.459778	198.000000
831.494324	202.800000
831.528931	193.700000
831.563599	196.800000
831.598145	187.200000
831.632751	192.100000
831.667419	191.100000
831.701965	194.200000
831.736572	192.600000
831.771179	188.300000
831.805786	189.000000
831.840393	196.700000
831.874939	186.300000
831.909546	194.200000
831.944153	185.200000
831.978760	191.200000
832.013306	188.700000
832.047913	196.700000
832.082458	199.700000
832.117065	188.800000
832.151672	199.400000
832.186218	193.600000
832.220825	194.400000
832.255432	183.900000
832.289978	189.500000
832.324585	192.200000
832.359192	193.000000
832.393677	190.000000
832.428284	191.500000
832.462830	189.700000
832.497437	191.100000
832.531982	194.000000
832.566589	190.300000
832.601135	192.100000
832.635681	186.800000
832.670227	192.300000
832.704773	197.900000
832.739380	192.100000
832.773926	192.700000
832.808472	189.500000
832.843079	192.500000
832.877563	193.700000
832.912170	190.800000
832.946716	186.800000
832.981201	196.100000
833.015808	193.800000
833.050293	190.700000
833.084839	187.500000
833.119446	191.000000
833.153992	194.700000
833.188477	192.400000
833.223022	189.100000
833.257568	193.600000
833.292114	195.700000
833.326660	201.300000
833.361145	189.200000
833.395691	185.500000
833.430237	191.700000
833.464783	193.900000
833.499329	187.800000
833.533875	189.100000
833.568359	195.000000
833.602905	194.000000
833.637390	196.100000
833.671875	188.600000
833.706421	191.000000
833.740906	188.800000
833.775452	185.400000
833.809998	189.800000
833.844482	197.100000
833.879028	190.500000
833.913513	190.900000
833.947998	193.900000
833.982544	189.300000
834.017090	188.600000
834.051514	184.800000
834.086060	193.600000
834.120544	192.100000
834.155029	193.500000
834.189575	191.000000
834.223999	192.800000
834.258545	192.700000
834.293030	192.400000
834.327515	192.500000
834.362000	189.300000
834.396545	195.000000
834.430969	191.300000
834.465454	196.700000
834.500000	185.200000
834.534424	193.900000
834.568970	185.500000
834.603455	185.200000
834.637878	188.000000
834.672363	193.100000
834.706909	190.600000
834.741333	191.800000
834.775818	186.700000
834.810242	187.900000
834.844727	191.200000
834.879211	189.900000
834.913635	191.500000
834.948181	192.400000
834.982666	192.500000
835.017090	189.100000
835.051575	193.600000
835.086060	189.800000
835.120483	195.100000
835.154907	193.200000
835.189331	191.900000
835.223816	194.400000
835.258301	188.600000
835.292786	188.400000
835.327209	195.100000
835.361694	188.400000
835.396057	189.700000
835.430542	192.900000
835.465027	191.700000
835.499390	188.600000
835.533875	218.500000
835.568359	189.100000
835.602722	185.900000
835.637207	192.000000
835.671692	187.900000
835.706055	207.500000
835.740540	194.400000
835.774902	192.400000
835.809387	192.500000
835.843811	187.700000
835.878235	196.000000
835.912659	186.800000
835.947083	189.000000
835.981506	191.800000
836.015930	186.800000
836.050354	195.100000
836.084778	197.500000
836.119202	195.000000
836.153625	204.900000
836.187988	188.800000
836.222473	188.700000
836.256897	192.900000
836.291260	190.200000
836.325684	193.800000
836.360046	190.800000
836.394470	191.000000
836.428894	197.200000
836.463318	189.600000
836.497681	194.000000
836.532104	197.300000
836.566467	191.400000
836.600891	189.800000
836.635315	196.200000
836.669678	193.500000
836.704102	194.200000
836.738525	194.200000
836.772888	185.000000
836.807251	190.900000
836.841675	194.600000
836.876038	187.400000
836.910461	188.700000
836.944763	194.300000
836.979187	188.700000
837.013611	195.400000
837.047974	186.200000
837.082336	202.300000
837.116699	193.600000
837.151062	192.800000
837.185486	188.100000
837.219849	190.700000
837.254211	195.800000
837.288574	191.800000
837.322937	188.300000
837.357300	183.900000
837.391663	200.900000
837.426086	196.500000
837.460388	192.700000
837.494751	195.300000
837.529114	190.000000
837.563477	197.800000
837.597839	192.400000
837.632141	191.500000
837.666565	189.000000
837.700928	193.900000
837.735229	193.700000
837.769592	194.000000
837.803955	194.500000
837.838257	188.300000
837.872620	188.700000
837.906982	196.100000
837.941284	191.600000
837.975647	193.000000
838.010010	198.100000
838.044312	189.300000
838.078674	190.000000
838.112976	191.500000
838.147339	195.900000
838.181702	191.900000
838.216003	198.900000
838.250366	191.500000
838.284668	194.500000
838.318970	185.600000
838.353333	191.200000
838.387634	191.200000
838.421936	192.400000
838.456299	193.000000
838.490601	197.800000
838.524902	195.300000
838.559265	196.000000
838.593567	194.900000
838.627869	187.700000
838.662170	193.600000
838.696472	187.100000
838.730774	188.400000
838.765137	194.500000
838.799377	181.200000
838.833740	191.500000
838.868042	196.200000
838.902283	185.300000
838.936646	199.200000
838.970947	193.000000
839.005188	197.100000
839.039551	186.700000
839.073792	197.300000
839.108093	190.200000
839.142395	198.900000
839.176697	185.800000
839.210937	193.100000
839.245300	199.000000
839.279541	187.400000
839.313843	191.000000
839.348145	195.000000
839.382385	194.700000
839.416687	196.400000
839.450989	192.700000
839.485229	191.300000
839.519531	189.200000
839.553833	195.400000
839.588013	189.200000
839.622314	194.900000
839.656555	193.900000
839.690857	193.100000
839.725159	187.700000
839.759460	191.900000
839.793640	190.100000
839.827942	191.700000
839.862183	187.700000
839.896423	193.400000
839.930725	200.900000
839.964966	200.100000
839.999207	195.100000
840.033508	198.100000
840.067688	189.000000
840.101990	198.500000
840.136230	190.200000
840.170471	198.900000
840.204712	189.100000
840.238953	189.700000
840.273193	191.600000
840.307434	194.600000
840.341736	189.400000
840.375916	185.600000
840.410217	189.300000
840.444397	195.300000
840.478638	194.100000
840.512878	195.500000
840.547119	192.500000
840.581360	193.700000
840.615601	200.300000
840.649780	201.700000
840.684021	191.300000
840.718262	197.700000
840.752441	198.300000
840.786682	192.900000
840.820862	193.200000
840.855103	197.900000
840.889343	193.700000
840.923584	195.200000
840.957764	194.700000
840.992004	193.600000
841.026184	204.600000
841.060425	191.400000
841.094666	189.600000
841.128845	194.000000
841.163025	192.600000
841.197266	192.900000
841.231445	191.900000
841.265686	194.900000
841.299866	188.500000
841.334045	197.700000
841.368286	191.800000
841.402405	198.300000
841.436646	195.400000
841.470825	190.500000
841.505005	191.700000
841.539185	188.200000
841.573425	190.300000
841.607544	191.600000
841.641785	191.700000
841.675964	189.600000
841.710144	192.900000
841.744324	190.200000
841.778503	191.900000
841.812683	189.300000
841.846863	197.900000
841.881042	197.900000
841.915222	189.800000
841.949402	203.800000
841.983521	185.800000
842.017700	191.000000
842.051880	192.600000
842.086060	194.600000
842.120239	191.200000
842.154419	190.500000
842.188538	193.500000
842.222717	190.000000
842.256897	199.600000
842.291016	192.900000
842.325195	192.700000
842.359375	201.400000
842.393494	197.900000
842.427673	192.000000
842.461853	193.000000
842.495911	199.000000
842.530090	193.400000
842.564209	191.000000
842.598389	193.600000
842.632568	194.200000
842.666626	195.200000
842.700806	190.800000
842.734985	189.600000
842.769043	194.000000
842.803223	191.500000
842.837402	191.800000
842.871460	189.000000
842.905640	201.300000
842.939697	188.900000
842.973877	193.100000
843.007996	197.000000
843.042175	201.600000
843.076233	189.400000
843.110413	195.100000
843.144470	199.600000
843.178589	195.900000
843.212769	189.700000
843.246826	195.400000
843.280945	190.400000
843.315125	190.800000
843.349182	189.500000
843.383301	197.300000
843.417419	202.100000
843.451538	191.300000
843.485657	191.000000
843.519714	191.600000
843.553833	194.000000
843.587952	191.000000
843.622070	190.600000
843.656128	194.900000
843.690247	190.200000
843.724304	191.800000
843.758423	195.100000
843.792542	189.900000
843.826599	192.900000
843.860718	190.800000
843.894836	187.800000
843.928894	192.700000
843.963013	194.500000
843.997070	188.600000
844.031128	189.300000
844.065247	196.100000
844.099304	196.900000
844.133362	193.900000
844.167480	195.300000
844.201599	196.500000
844.235596	194.600000
844.269714	194.200000
844.303711	193.800000
844.337830	186.600000
844.371948	194.300000
844.405945	191.500000
844.440063	188.500000
844.474121	202.600000
844.508118	190.900000
844.542236	192.100000
844.576294	193.100000
844.610352	187.600000
844.644409	192.400000
844.678406	186.200000
844.712524	196.300000
844.746582	197.200000
844.780640	191.500000
844.814636	192.400000
844.848755	201.600000
844.882751	190.100000
844.916809	195.200000
844.950867	195.900000
844.984863	198.500000
845.018921	192.200000
845.052979	189.800000
845.086975	193.900000
845.121033	188.400000
845.155090	189.900000
845.189087	197.400000
845.223145	192.100000
845.257141	194.800000
845.291199	195.500000
845.325256	196.900000
845.359253	194.000000
845.393250	204.900000
845.427307	192.700000
845.461304	193.800000
845.495361	192.600000
845.529358	200.400000
845.563354	192.600000
845.597412	190.300000
845.631409	200.200000
845.665405	197.600000
845.699463	195.100000
845.733459	191.000000
845.767456	201.000000
845.801453	191.700000
845.835449	197.100000
845.869446	195.700000
845.903503	195.700000
845.937439	189.300000
845.971497	197.600000
846.005493	187.600000
846.039429	196.200000
846.073486	201.500000
846.107483	191.300000
846.141418	191.600000
846.175476	193.100000
846.209473	197.500000
846.243408	188.200000
846.277405	192.700000
846.311401	189.100000
846.345337	193.300000
846.379395	196.200000
846.413330	191.300000
846.447327	199.900000
846.481323	190.700000
846.515259	189.900000
846.549255	191.900000
846.583252	195.200000
846.617187	189.600000
846.651184	192.400000
846.685120	191.700000
846.719055	199.400000
846.753052	197.100000
846.786987	196.200000
846.820984	187.000000
846.854980	199.100000
846.888916	190.100000
846.922852	194.300000
846.956848	197.900000
846.990723	191.200000
847.024719	194.900000
847.058716	191.600000
847.092590	198.900000
847.126587	194.300000
847.160522	191.000000
847.194458	194.900000
847.228455	188.500000
847.262390	188.800000
847.296265	191.600000
847.330261	196.700000
847.364136	191.000000
847.398132	191.500000
847.432068	192.900000
847.466003	191.100000
847.499939	191.500000
847.533875	194.800000
847.567749	191.400000
847.601746	190.900000
847.635681	194.100000
847.669556	186.900000
847.703491	196.700000
847.737427	204.100000
847.771301	187.900000
847.805237	195.400000
847.839233	193.000000
847.873108	192.500000
847.907043	191.600000
847.940918	198.500000
847.974854	194.000000
848.008789	196.700000
848.042664	191.800000
848.076538	195.900000
848.110474	193.300000
848.144348	194.600000
848.178284	187.400000
848.212219	196.000000
848.246094	189.900000
848.279968	194.300000
848.313904	195.200000
848.347778	193.700000
848.381653	190.700000
848.415588	190.100000
848.449463	189.100000
848.483337	194.900000
848.517212	199.300000
848.551086	193.500000
848.585022	188.700000
848.618835	201.700000
848.652771	190.000000
848.686646	188.900000
848.720520	198.700000
848.754395	192.400000
848.788330	195.300000
848.822144	195.100000
848.856018	190.000000
848.889954	201.300000
848.923767	190.400000
848.957642	190.000000
848.991577	196.000000
849.025391	192.700000
849.059265	192.100000
849.093079	189.700000
849.126953	189.700000
849.160828	196.900000
849.194641	192.900000
849.228577	191.300000
849.262451	191.400000
849.296265	191.300000
849.330139	189.100000
849.364014	192.400000
849.397827	194.500000
849.431702	192.900000
849.465515	198.000000
849.499329	186.600000
849.533203	189.700000
849.567078	185.500000
849.600891	195.100000
849.634766	192.800000
849.668518	196.200000
849.702393	192.300000
849.736267	188.600000
849.770020	200.400000
849.803894	195.400000
849.837769	192.800000
849.871521	192.900000
849.905396	195.900000
849.939270	189.400000
849.973022	189.800000
850.006897	194.900000
850.040710	194.800000
850.074524	195.500000
850.108337	191.900000
850.142151	196.500000
850.175964	198.700000
850.209778	192.800000
850.243530	184.300000
850.277405	196.800000
850.311218	191.900000
850.344971	190.200000
850.378845	199.600000
850.412659	188.600000
850.446411	194.400000
850.480225	191.800000
850.514038	196.800000
850.547791	194.600000
850.581665	192.600000
850.615417	189.600000
850.649231	194.300000
850.683044	190.500000
850.716858	192.300000
850.750610	193.400000
850.784424	196.100000
850.818176	190.400000
850.851929	191.700000
850.885742	190.500000
850.919495	192.800000
850.953308	197.900000
850.987122	198.900000
851.020874	187.800000
851.054626	187.700000
851.088440	194.700000
851.122192	196.800000
851.156006	191.700000
851.189697	193.100000
851.223511	188.100000
851.257263	196.000000
851.291077	195.300000
851.324829	192.600000
851.358582	191.000000
851.392334	191.900000
851.426086	190.100000
851.459900	199.100000
851.493591	194.100000
851.527344	192.300000
851.561157	192.700000
851.594849	194.400000
851.628662	193.800000
851.662415	199.600000
851.696106	194.500000
851.729858	196.500000
851.763611	189.000000
851.797363	192.300000
851.831116	189.100000
851.864868	194.800000
851.898560	199.000000
851.932312	191.900000
851.966064	195.800000
851.999817	192.100000
852.033569	191.800000
852.067261	197.400000
852.101013	190.200000
852.134766	191.200000
852.168457	186.300000
852.202209	198.100000
852.235901	189.800000
852.269592	195.500000
852.303345	199.400000
852.337036	194.600000
852.370789	194.000000
852.404541	195.100000
852.438171	189.600000
852.471924	193.100000
852.505676	189.100000
852.539307	194.300000
852.573059	190.900000
852.606812	192.400000
852.640442	191.500000
852.674194	197.000000
852.707886	202.400000
852.741577	196.500000
852.775269	189.500000
852.809021	193.700000
852.842651	194.500000
852.876404	198.800000
852.910034	193.900000
852.943787	198.000000
852.977478	194.900000
853.011108	189.900000
853.044861	189.500000
853.078552	198.400000
853.112183	192.900000
853.145874	194.000000
853.179626	186.000000
853.213257	194.000000
853.246948	190.400000
853.280640	200.300000
853.314270	191.600000
853.347961	199.200000
853.381653	194.900000
853.415283	199.000000
853.448975	188.800000
853.482605	195.000000
853.516296	192.100000
853.549988	189.100000
853.583618	194.600000
853.617310	195.000000
853.651001	193.800000
853.684631	189.700000
853.718323	190.500000
853.751953	198.400000
853.785583	186.800000
853.819275	196.600000
853.852966	194.300000
853.886536	185.200000
853.920227	189.100000
853.953918	197.200000
853.987488	191.900000
854.021179	196.300000
854.054749	199.500000
854.088440	196.200000
854.122131	189.200000
854.155701	193.800000
854.189331	190.500000
854.223022	195.200000
854.256592	194.900000
854.290283	190.000000
854.323914	194.400000
854.357483	193.300000
854.391174	194.100000
854.424744	198.700000
854.458374	193.800000
854.492065	202.600000
854.525696	192.500000
854.559265	197.600000
854.592896	202.600000
854.626465	191.700000
854.660095	193.600000
854.693787	193.500000
854.727356	192.000000
854.760986	195.700000
854.794617	195.500000
854.828186	191.800000
854.861816	195.800000
854.895447	193.300000
854.929016	194.300000
854.962585	194.800000
854.996155	201.500000
855.029785	193.300000
855.063416	194.400000
855.097046	196.700000
855.130615	190.100000
855.164185	196.600000
855.197754	193.600000
855.231384	195.400000
855.264954	191.700000
855.298523	195.500000
855.332153	193.900000
855.365723	198.000000
855.399292	190.600000
855.432922	191.700000
855.466492	194.200000
855.500061	189.700000
855.533630	189.000000
855.567200	194.600000
855.600769	197.300000
855.634338	197.400000
855.667969	192.900000
855.701477	191.100000
855.735046	190.000000
855.768616	187.000000
855.802185	195.000000
855.835754	205.200000
855.869324	186.400000
855.902893	191.900000
855.936401	196.000000
855.969971	193.900000
856.003540	187.300000
856.037109	197.100000
856.070618	190.300000
856.104187	189.900000
856.137695	190.700000
856.171265	185.800000
856.204834	193.800000
856.238403	197.100000
856.271912	190.900000
856.305481	195.200000
856.338989	187.600000
856.372559	195.700000
856.406128	195.400000
856.439636	197.100000
856.473145	191.700000
856.506653	199.500000
856.540222	192.600000
856.573792	197.900000
856.607300	196.200000
856.640808	189.800000
856.674377	193.200000
856.707825	225.800000
856.741394	197.700000
856.774902	189.300000
856.808472	187.300000
856.841980	195.400000
856.875488	197.900000
856.908936	186.900000
856.942505	191.800000
856.976013	190.500000
857.009521	188.700000
857.043030	192.900000
857.076477	192.300000
857.110046	197.300000
857.143555	193.200000
857.177063	194.700000
857.210571	191.700000
857.244080	188.500000
857.277527	195.100000
857.311035	192.400000
857.344543	197.800000
857.378052	191.200000
857.411499	197.700000
857.445068	198.900000
857.478516	193.300000
857.512024	190.200000
857.545532	192.000000
857.578979	194.700000
857.612427	194.500000
857.645874	190.300000
857.679382	195.400000
857.712891	198.100000
857.746399	194.100000
857.779846	197.000000
857.813354	198.400000
857.846741	192.900000
857.880249	190.100000
857.913757	193.800000
857.947266	194.300000
857.980652	196.100000
858.014160	191.900000
858.047546	190.800000
858.081055	191.100000
858.114563	203.900000
858.147949	188.100000
858.181458	193.500000
858.214844	190.600000
858.248352	186.900000
858.281799	196.100000
858.315308	202.500000
858.348694	194.200000
858.382141	200.900000
858.415588	196.100000
858.449036	196.500000
858.482483	194.200000
858.515930	191.900000
858.549377	193.300000
858.582825	199.400000
858.616211	195.700000
858.649658	196.300000
858.683105	188.800000
858.716553	190.900000
858.750000	188.100000
858.783386	191.400000
858.816833	187.400000
858.850281	193.600000
858.883728	193.400000
858.917114	196.200000
858.950562	199.500000
858.983948	201.000000
859.017395	196.900000
859.050781	192.200000
859.084167	189.400000
859.117615	189.900000
859.151062	195.000000
859.184448	191.200000
859.217834	191.200000
859.251282	191.300000
859.284668	189.700000
859.318054	186.200000
859.351440	190.800000
859.384888	200.200000
859.418274	187.400000
859.451721	186.300000
859.485046	194.000000
859.518494	195.300000
859.551819	188.800000
859.585266	196.700000
859.618652	195.900000
859.652039	188.300000
859.685425	188.800000
859.718811	187.900000
859.752197	184.600000
859.785583	197.600000
859.819031	200.100000
859.852356	194.000000
859.885742	191.200000
859.919067	192.300000
859.952454	191.200000
859.985901	195.300000
860.019287	191.600000
860.052612	0.000000
860.085999	0.000000
860.119324	0.000000
860.152710	0.000000
860.186096	0.000000
860.219421	0.000000
860.252808	0.000000
860.286133	0.000000
860.319519	0.000000
860.352905	0.000000
860.386292	0.000000
860.419617	0.000000
860.452942	0.000000
860.486267	0.000000
860.519653	0.000000
860.553040	0.000000
860.586365	0.000000
860.619690	0.000000
860.653076	0.000000
860.686340	0.000000
860.719727	0.000000
860.753113	0.000000
860.786377	0.000000
860.819763	0.000000
860.853027	0.000000
860.886414	0.000000
860.919739	0.000000
860.953125	0.000000
860.986389	0.000000
861.019714	0.000000
861.053040	0.000000
861.086365	0.000000
861.119690	0.000000
861.153076	0.000000
861.186340	0.000000
861.219666	0.000000
861.252930	0.000000
861.286316	0.000000
861.319641	0.000000
861.352905	0.000000
861.386230	0.000000
861.419495	0.000000
861.452820	0.000000
861.486145	0.000000
861.519470	0.000000
861.552734	0.000000
861.586060	0.000000
861.619324	0.000000
861.652649	0.000000
861.685974	0.000000
861.719238	0.000000
861.752563	0.000000
861.785828	0.000000
861.819092	0.000000
861.852417	0.000000
861.885742	0.000000
861.918945	0.000000
861.952271	0.000000
861.985535	0.000000
862.018799	0.000000
862.052124	0.000000
862.085449	0.000000
862.118652	0.000000
862.151978	0.000000
862.185181	0.000000
862.218506	0.000000
862.251770	0.000000
862.285034	0.000000
862.318298	0.000000
862.351562	0.000000
862.384827	0.000000
862.418091	0.000000
862.451355	0.000000
862.484619	0.000000
862.517883	0.000000
862.551086	0.000000
862.584351	0.000000
862.617676	0.000000
862.650940	0.000000
862.684143	0.000000
862.717407	0.000000
862.750610	0.000000
862.783875	0.000000
862.817139	0.000000
862.850342	0.000000
862.883606	0.000000
862.916870	0.000000
862.950073	0.000000
862.983337	0.000000
863.016602	0.000000
863.049805	0.000000
863.083069	0.000000
863.116211	0.000000
863.149475	0.000000
863.182739	0.000000
863.216003	0.000000
863.249146	0.000000
863.282410	0.000000
863.315613	0.000000
863.348816	0.000000
863.382080	0.000000
863.415222	0.000000
863.448486	0.000000
863.481689	0.000000
863.514893	0.000000
863.548157	0.000000
863.581360	0.000000
863.614502	0.000000
863.647766	0.000000
863.680908	0.000000
863.714172	0.000000
863.747375	0.000000
863.780579	0.000000
863.813721	0.000000
863.846985	0.000000
863.880127	0.000000
863.913330	0.000000
863.946533	0.000000
863.979675	0.000000
864.012939	0.000000
