Model Number: SPM-001-M   
Serial Number: 10090201
Firmware Version: 004.17.6
Exposure Time: 300000.000000us
Data Taken on: 21-01-2021 14:22:31.081
Wavelength	Amplitude
733.770752	0.000000
733.808716	0.000000
733.846619	0.000000
733.884583	0.000000
733.922546	0.000000
733.960449	0.000000
733.998413	0.000000
734.036377	0.000000
734.074219	0.000000
734.112183	0.000000
734.150085	0.000000
734.188049	0.000000
734.226013	0.000000
734.263916	0.000000
734.301819	0.000000
734.339783	0.000000
734.377686	0.000000
734.415588	0.000000
734.453552	0.000000
734.491455	0.000000
734.529419	0.000000
734.567322	0.000000
734.605225	0.000000
734.643127	0.000000
734.681091	0.000000
734.718994	0.000000
734.756897	0.000000
734.794800	0.000000
734.832703	0.000000
734.870667	0.000000
734.908508	0.000000
734.946472	0.000000
734.984375	0.000000
735.022278	0.000000
735.060181	0.000000
735.098083	0.000000
735.135986	0.000000
735.173889	0.000000
735.211792	0.000000
735.249695	0.000000
735.287598	0.000000
735.325439	0.000000
735.363403	0.000000
735.401306	0.000000
735.439148	0.000000
735.477051	0.000000
735.515015	0.000000
735.552856	0.000000
735.590759	0.000000
735.628662	0.000000
735.666504	0.000000
735.704407	0.000000
735.742310	0.000000
735.780212	0.000000
735.818115	0.000000
735.856018	0.000000
735.893860	0.000000
735.931763	0.000000
735.969604	0.000000
736.007507	0.000000
736.045410	0.000000
736.083252	0.000000
736.121094	0.000000
736.158997	0.000000
736.196838	0.000000
736.234741	0.000000
736.272644	0.000000
736.310486	0.000000
736.348389	0.000000
736.386230	0.000000
736.424072	0.000000
736.461975	0.000000
736.499878	0.000000
736.537720	0.000000
736.575562	0.000000
736.613403	0.000000
736.651306	0.000000
736.689148	0.000000
736.726990	0.000000
736.764893	0.000000
736.802734	0.000000
736.840576	0.000000
736.878418	0.000000
736.916321	0.000000
736.954102	0.000000
736.992004	0.000000
737.029846	0.000000
737.067688	0.000000
737.105530	0.000000
737.143372	0.000000
737.181213	0.000000
737.219116	0.000000
737.256897	0.000000
737.294739	0.000000
737.332642	0.000000
737.370422	0.000000
737.408325	0.000000
737.446167	0.000000
737.483948	0.000000
737.521790	0.000000
737.559692	0.000000
737.597473	0.000000
737.635315	0.000000
737.673157	0.000000
737.710999	0.000000
737.748840	0.000000
737.786621	0.000000
737.824463	0.000000
737.862305	0.000000
737.900085	0.000000
737.937927	0.000000
737.975769	0.000000
738.013550	0.000000
738.051392	0.000000
738.089233	0.000000
738.127014	0.000000
738.164856	0.000000
738.202698	0.000000
738.240479	0.000000
738.278320	0.000000
738.316162	0.000000
738.353943	0.000000
738.391785	0.000000
738.429565	0.000000
738.467407	0.000000
738.505188	0.000000
738.542969	0.000000
738.580811	0.000000
738.618652	0.000000
738.656372	0.000000
738.694214	0.000000
738.732056	0.000000
738.769836	0.000000
738.807617	0.000000
738.845459	0.000000
738.883240	0.000000
738.921021	0.000000
738.958862	0.000000
738.996582	0.000000
739.034424	0.000000
739.072205	0.000000
739.109985	0.000000
739.147827	0.000000
739.185547	0.000000
739.223389	0.000000
739.261169	0.000000
739.298889	0.000000
739.336731	0.000000
739.374512	0.000000
739.412292	0.000000
739.450073	0.000000
739.487854	0.000000
739.525635	0.000000
739.563416	0.000000
739.601135	0.000000
739.638977	0.000000
739.676758	0.000000
739.714478	0.000000
739.752258	0.000000
739.790100	0.000000
739.827820	0.000000
739.865601	0.000000
739.903381	0.000000
739.941101	0.000000
739.978882	194.000000
740.016724	189.900000
740.054443	193.400000
740.092224	189.400000
740.130005	189.200000
740.167725	189.600000
740.205505	189.500000
740.243225	195.000000
740.281006	192.000000
740.318787	187.300000
740.356506	197.600000
740.394287	194.600000
740.432068	189.400000
740.469727	186.700000
740.507507	195.100000
740.545288	191.300000
740.583008	194.000000
740.620789	192.200000
740.658569	185.600000
740.696228	191.800000
740.734009	195.300000
740.771790	183.700000
740.809509	194.000000
740.847229	188.300000
740.884949	189.200000
740.922729	187.800000
740.960449	191.700000
740.998169	189.600000
741.035950	190.600000
741.073669	192.500000
741.111389	192.000000
741.149170	200.400000
741.186890	198.300000
741.224609	195.200000
741.262329	194.500000
741.300110	199.100000
741.337769	187.900000
741.375549	188.400000
741.413208	193.500000
741.450989	190.300000
741.488708	188.300000
741.526367	189.500000
741.564148	193.200000
741.601868	194.300000
741.639526	190.800000
741.677307	193.000000
741.715027	192.900000
741.752686	188.800000
741.790466	197.500000
741.828186	193.900000
741.865845	187.200000
741.903564	186.900000
741.941345	191.000000
741.979004	189.800000
742.016724	194.600000
742.054382	191.900000
742.092102	195.800000
742.129822	186.900000
742.167480	190.000000
742.205200	190.800000
742.242920	193.400000
742.280640	194.200000
742.318359	189.400000
742.356079	190.900000
742.393738	195.100000
742.431396	191.700000
742.469116	195.400000
742.506775	185.100000
742.544495	194.100000
742.582214	195.300000
742.619873	191.800000
742.657593	197.500000
742.695251	196.700000
742.732971	190.900000
742.770630	193.100000
742.808289	192.400000
742.846008	191.300000
742.883728	192.300000
742.921326	193.000000
742.959045	189.200000
742.996765	192.800000
743.034424	191.600000
743.072083	190.500000
743.109802	192.000000
743.147400	187.800000
743.185120	192.400000
743.222839	191.400000
743.260437	196.900000
743.298157	192.400000
743.335754	185.700000
743.373474	191.100000
743.411133	185.600000
743.448792	191.200000
743.486450	192.000000
743.524170	186.700000
743.561768	190.900000
743.599487	197.500000
743.637146	200.100000
743.674744	191.600000
743.712463	191.600000
743.750122	192.300000
743.787720	193.400000
743.825439	190.400000
743.863037	191.900000
743.900696	191.800000
743.938416	217.400000
743.976013	191.800000
744.013672	199.100000
744.051331	195.600000
744.088928	199.200000
744.126587	196.000000
744.164307	194.500000
744.201904	190.600000
744.239563	195.100000
744.277222	193.700000
744.314819	192.300000
744.352478	198.200000
744.390137	193.300000
744.427734	192.800000
744.465393	190.700000
744.502991	188.900000
744.540649	194.100000
744.578308	191.100000
744.615906	189.100000
744.653564	185.000000
744.691223	195.100000
744.728821	188.000000
744.766418	192.300000
744.804077	192.600000
744.841675	190.100000
744.879333	187.300000
744.916992	192.500000
744.954529	189.800000
744.992187	196.400000
745.029785	192.600000
745.067444	189.400000
745.105042	191.400000
745.142639	193.200000
745.180298	199.800000
745.217896	191.000000
745.255493	190.600000
745.293152	193.500000
745.330750	196.300000
745.368347	197.000000
745.405945	195.100000
745.443604	192.300000
745.481140	194.700000
745.518799	192.800000
745.556396	195.000000
745.593994	193.800000
745.631592	193.500000
745.669189	187.800000
745.706787	192.900000
745.744385	189.000000
745.781982	194.800000
745.819580	189.100000
745.857178	192.800000
745.894775	191.200000
745.932373	194.000000
745.969971	192.500000
746.007568	188.100000
746.045166	199.700000
746.082764	197.500000
746.120300	194.000000
746.157898	194.000000
746.195557	190.000000
746.233093	187.000000
746.270691	194.000000
746.308228	193.700000
746.345825	194.100000
746.383423	192.600000
746.420959	187.800000
746.458557	190.400000
746.496155	189.000000
746.533691	191.600000
746.571289	188.600000
746.608887	191.300000
746.646423	193.800000
746.684021	194.700000
746.721619	190.600000
746.759155	193.800000
746.796753	187.300000
746.834351	187.600000
746.871826	189.400000
746.909424	197.800000
746.946960	191.700000
746.984558	191.300000
747.022156	190.500000
747.059631	199.400000
747.097229	194.500000
747.134827	189.900000
747.172363	196.600000
747.209900	195.800000
747.247498	189.100000
747.285034	197.800000
747.322571	198.000000
747.360168	190.900000
747.397644	187.000000
747.435242	194.700000
747.472778	196.600000
747.510315	190.300000
747.547913	191.000000
747.585388	196.100000
747.622925	190.900000
747.660522	186.800000
747.697998	191.500000
747.735596	190.300000
747.773132	189.700000
747.810669	192.500000
747.848206	194.200000
747.885742	187.600000
747.923279	188.000000
747.960815	193.000000
747.998352	193.500000
748.035889	195.200000
748.073425	194.300000
748.110901	189.700000
748.148437	188.100000
748.185974	192.100000
748.223511	198.000000
748.261047	193.300000
748.298584	192.900000
748.336060	190.900000
748.373596	194.200000
748.411133	217.400000
748.448608	190.900000
748.486145	196.100000
748.523682	195.800000
748.561218	200.000000
748.598755	192.600000
748.636292	194.900000
748.673706	190.300000
748.711243	199.100000
748.748718	193.000000
748.786255	193.400000
748.823792	192.400000
748.861267	188.500000
748.898804	194.400000
748.936340	194.200000
748.973816	190.100000
749.011292	197.500000
749.048828	193.000000
749.086304	194.100000
749.123840	199.500000
749.161316	189.000000
749.198792	199.000000
749.236328	197.000000
749.273743	190.600000
749.311279	191.800000
749.348816	194.500000
749.386230	193.600000
749.423767	183.400000
749.461304	195.800000
749.498718	192.600000
749.536255	196.200000
749.573730	200.600000
749.611206	197.900000
749.648682	189.300000
749.686218	192.500000
749.723633	195.500000
749.761169	191.100000
749.798645	189.500000
749.836060	191.300000
749.873596	189.000000
749.911011	193.200000
749.948547	196.200000
749.986023	191.600000
750.023437	192.300000
750.060913	188.200000
750.098450	187.500000
750.135864	191.400000
750.173340	193.100000
750.210815	196.200000
750.248291	189.900000
750.285767	191.700000
750.323242	197.100000
750.360657	195.000000
750.398132	189.700000
750.435608	194.400000
750.473022	189.200000
750.510498	190.700000
750.547974	189.700000
750.585449	190.700000
750.622925	184.600000
750.660339	201.400000
750.697815	192.200000
750.735291	191.100000
750.772644	192.000000
750.810120	193.200000
750.847595	193.700000
750.885010	188.600000
750.922485	197.500000
750.959961	190.500000
750.997375	197.400000
751.034851	194.500000
751.072266	195.300000
751.109680	186.800000
751.147156	196.000000
751.184570	194.200000
751.221985	190.600000
751.259460	186.700000
751.296875	193.000000
751.334290	193.100000
751.371765	195.300000
751.409180	195.400000
751.446594	197.700000
751.484070	193.200000
751.521423	193.100000
751.558899	193.600000
751.596375	198.700000
751.633728	199.200000
751.671204	200.800000
751.708618	189.300000
751.746033	193.700000
751.783447	188.200000
751.820801	188.600000
751.858276	196.100000
751.895691	191.500000
751.933105	192.000000
751.970520	188.500000
752.007935	191.100000
752.045349	196.100000
752.082764	192.500000
752.120178	189.500000
752.157532	191.200000
752.195007	191.200000
752.232422	193.700000
752.269775	194.800000
752.307190	195.000000
752.344543	188.400000
752.382019	192.800000
752.419434	189.200000
752.456787	194.600000
752.494202	196.400000
752.531616	194.400000
752.568970	193.400000
752.606384	193.500000
752.643799	193.600000
752.681152	198.600000
752.718567	195.100000
752.755981	187.800000
752.793335	195.100000
752.830750	185.600000
752.868164	196.500000
752.905518	188.900000
752.942932	195.900000
752.980225	187.200000
753.017639	195.200000
753.055054	196.000000
753.092407	194.200000
753.129822	195.800000
753.167175	200.200000
753.204529	192.100000
753.241943	189.500000
753.279358	188.000000
753.316650	197.100000
753.354065	193.700000
753.391479	196.500000
753.428772	198.700000
753.466187	195.100000
753.503479	188.700000
753.540894	191.900000
753.578308	187.900000
753.615601	189.300000
753.653015	192.500000
753.690369	192.200000
753.727722	189.600000
753.765076	187.700000
753.802490	186.900000
753.839783	186.800000
753.877136	189.000000
753.914551	201.600000
753.951843	189.300000
753.989258	195.600000
754.026611	191.300000
754.063904	194.100000
754.101257	189.600000
754.138611	188.000000
754.175964	193.400000
754.213318	199.900000
754.250610	186.700000
754.288025	191.000000
754.325378	187.300000
754.362671	196.000000
754.400024	192.400000
754.437378	199.900000
754.474670	198.800000
754.512085	189.900000
754.549438	193.000000
754.586731	189.100000
754.624084	192.000000
754.661438	189.600000
754.698730	198.900000
754.736084	191.700000
754.773376	190.800000
754.810730	193.100000
754.848083	193.200000
754.885315	196.300000
754.922668	187.000000
754.960022	187.600000
754.997314	196.900000
755.034668	192.200000
755.072021	194.200000
755.109253	190.900000
755.146606	198.100000
755.183960	190.000000
755.221252	197.800000
755.258545	196.100000
755.295898	197.700000
755.333191	196.800000
755.370544	194.200000
755.407776	190.900000
755.445129	193.600000
755.482422	196.600000
755.519714	191.600000
755.557068	187.100000
755.594360	187.400000
755.631653	194.300000
755.668945	199.800000
755.706299	194.300000
755.743530	202.200000
755.780884	198.800000
755.818176	196.900000
755.855408	196.700000
755.892761	194.800000
755.930054	194.400000
755.967346	194.500000
756.004639	193.800000
756.041870	193.400000
756.079224	198.700000
756.116516	190.300000
756.153748	197.100000
756.191040	200.900000
756.228394	196.400000
756.265625	190.000000
756.302917	195.300000
756.340210	192.600000
756.377441	198.400000
756.414795	200.200000
756.452087	194.300000
756.489319	189.000000
756.526611	198.400000
756.563843	195.700000
756.601135	200.900000
756.638428	202.000000
756.675659	194.800000
756.712952	197.300000
756.750244	197.000000
756.787476	195.100000
756.824768	198.700000
756.862061	193.100000
756.899292	242.300000
756.936584	197.100000
756.973816	203.000000
757.011047	204.000000
757.048340	196.300000
757.085632	196.000000
757.122864	208.600000
757.160156	192.400000
757.197327	197.000000
757.234619	198.800000
757.271912	194.700000
757.309082	200.000000
757.346375	193.400000
757.383667	200.100000
757.420837	198.300000
757.458130	197.500000
757.495422	195.400000
757.532593	197.700000
757.569885	192.100000
757.607117	193.300000
757.644348	198.600000
757.681580	208.500000
757.718811	187.700000
757.756042	197.200000
757.793335	194.000000
757.830505	199.000000
757.867798	195.200000
757.905029	196.200000
757.942200	198.400000
757.979492	196.300000
758.016724	195.200000
758.053894	195.700000
758.091187	209.700000
758.128418	197.400000
758.165588	196.400000
758.202820	207.100000
758.240112	198.600000
758.277283	207.100000
758.314514	198.800000
758.351685	196.800000
758.388916	203.600000
758.426147	204.100000
758.463379	203.200000
758.500610	200.600000
758.537842	198.100000
758.575012	204.100000
758.612244	195.100000
758.649475	208.900000
758.686646	194.200000
758.723877	203.700000
758.761108	205.800000
758.798279	197.800000
758.835510	200.400000
758.872742	204.100000
758.909851	200.400000
758.947083	202.800000
758.984253	201.300000
759.021484	204.200000
759.058716	203.000000
759.095886	203.800000
759.133057	201.100000
759.170288	204.200000
759.207458	199.200000
759.244690	208.500000
759.281860	209.000000
759.319031	202.600000
759.356262	202.000000
759.393433	201.200000
759.430603	201.700000
759.467773	201.900000
759.505005	207.000000
759.542175	207.300000
759.579346	201.000000
759.616516	203.300000
759.653687	206.500000
759.690918	200.700000
759.728027	204.000000
759.765259	204.100000
759.802429	206.800000
759.839539	204.400000
759.876770	209.600000
759.913940	210.900000
759.951111	205.300000
759.988281	203.900000
760.025452	202.700000
760.062561	200.600000
760.099792	212.400000
760.136963	205.300000
760.174072	202.700000
760.211243	199.600000
760.248413	202.000000
760.285583	202.000000
760.322754	213.200000
760.359863	209.900000
760.397034	210.700000
760.434204	204.600000
760.471375	206.100000
760.508545	204.200000
760.545715	205.000000
760.582825	202.100000
760.619995	208.700000
760.657166	201.600000
760.694275	209.900000
760.731445	207.600000
760.768555	207.500000
760.805664	210.500000
760.842834	208.000000
760.879944	210.900000
760.917114	207.200000
760.954285	206.500000
760.991394	203.400000
761.028564	212.200000
761.065674	209.300000
761.102783	206.000000
761.139954	211.400000
761.177124	211.100000
761.214172	212.800000
761.251343	207.300000
761.288452	207.400000
761.325562	212.300000
761.362732	205.800000
761.399841	208.900000
761.436951	208.000000
761.474121	206.200000
761.511169	208.300000
761.548340	213.600000
761.585449	209.900000
761.622559	213.300000
761.659668	211.200000
761.696838	214.700000
761.733887	211.300000
761.771057	210.400000
761.808167	210.300000
761.845276	213.900000
761.882385	219.600000
761.919434	213.000000
761.956604	225.800000
761.993713	209.500000
762.030762	216.500000
762.067871	212.300000
762.105042	211.600000
762.142090	219.700000
762.179199	213.900000
762.216309	215.800000
762.253418	225.500000
762.290527	220.300000
762.327637	218.400000
762.364685	210.400000
762.401794	218.700000
762.438904	216.500000
762.475952	212.000000
762.513062	211.900000
762.550110	211.700000
762.587219	223.000000
762.624329	222.100000
762.661377	216.600000
762.698486	218.200000
762.735596	216.500000
762.772644	213.000000
762.809753	210.400000
762.846863	215.500000
762.883911	220.100000
762.921021	218.900000
762.958069	215.200000
762.995117	223.100000
763.032227	223.000000
763.069336	216.200000
763.106323	215.300000
763.143433	212.900000
763.180481	219.800000
763.217590	220.600000
763.254639	216.400000
763.291687	219.000000
763.328735	223.300000
763.365845	217.100000
763.402893	216.700000
763.439941	219.900000
763.477051	223.600000
763.514038	223.800000
763.551147	218.500000
763.588196	220.000000
763.625244	220.900000
763.662292	226.300000
763.699402	228.800000
763.736389	223.600000
763.773499	232.200000
763.810486	225.800000
763.847534	223.700000
763.884644	225.800000
763.921631	223.700000
763.958679	230.900000
763.995728	224.900000
764.032776	230.000000
764.069824	222.200000
764.106873	228.700000
764.143860	234.200000
764.180969	224.700000
764.218018	231.500000
764.255005	226.000000
764.292053	227.100000
764.329102	233.800000
764.366089	235.700000
764.403137	232.100000
764.440125	227.800000
764.477173	227.300000
764.514221	232.700000
764.551208	231.100000
764.588257	227.300000
764.625305	233.100000
764.662292	239.700000
764.699341	240.000000
764.736389	235.000000
764.773376	245.900000
764.810425	236.800000
764.847473	241.700000
764.884399	238.300000
764.921448	245.100000
764.958435	242.400000
764.995483	235.900000
765.032532	248.400000
765.069458	237.000000
765.106506	238.700000
765.143555	237.700000
765.180481	240.900000
765.217529	248.000000
765.254578	237.300000
765.291504	243.600000
765.328552	239.600000
765.365540	239.900000
765.402527	250.500000
765.439575	240.900000
765.476501	238.300000
765.513550	238.100000
765.550537	242.100000
765.587463	249.000000
765.624512	241.500000
765.661499	236.300000
765.698486	247.500000
765.735474	241.300000
765.772461	242.400000
765.809448	249.200000
765.846436	246.200000
765.883423	252.200000
765.920410	245.200000
765.957397	244.600000
765.994385	247.700000
766.031311	254.400000
766.068359	247.800000
766.105286	249.700000
766.142273	255.000000
766.179260	249.700000
766.216187	246.100000
766.253174	245.000000
766.290161	249.600000
766.327148	254.400000
766.364136	252.400000
766.401123	264.000000
766.438049	249.700000
766.475037	260.000000
766.512024	254.900000
766.548950	265.400000
766.585937	261.200000
766.622864	257.000000
766.659790	258.300000
766.696777	250.900000
766.733704	259.300000
766.770691	253.800000
766.807678	266.400000
766.844604	259.700000
766.881531	261.300000
766.918518	265.000000
766.955444	263.800000
766.992432	258.700000
767.029358	263.200000
767.066284	262.600000
767.103271	263.800000
767.140198	292.900000
767.177124	276.600000
767.214050	267.100000
767.251038	269.000000
767.287964	263.000000
767.324890	264.500000
767.361816	266.000000
767.398743	270.100000
767.435730	264.200000
767.472595	267.200000
767.509583	272.900000
767.546509	263.300000
767.583374	267.000000
767.620361	263.400000
767.657288	266.300000
767.694214	266.800000
767.731140	266.500000
767.768066	269.800000
767.804993	271.500000
767.841919	265.600000
767.878845	269.000000
767.915710	276.600000
767.952698	270.100000
767.989563	272.200000
768.026489	273.200000
768.063416	268.300000
768.100281	268.900000
768.137207	277.200000
768.174133	274.400000
768.211060	276.100000
768.247986	275.400000
768.284912	272.200000
768.321777	273.900000
768.358704	269.900000
768.395630	275.000000
768.432495	270.900000
768.469421	277.700000
768.506348	278.700000
768.543152	284.100000
768.580078	282.600000
768.616943	283.500000
768.653870	282.700000
768.690796	282.700000
768.727661	282.400000
768.764587	281.800000
768.801453	278.900000
768.838318	287.800000
768.875244	283.400000
768.912109	289.500000
768.948975	281.800000
768.985901	284.400000
769.022766	282.100000
769.059631	289.800000
769.096558	282.600000
769.133362	284.500000
769.170288	286.700000
769.207214	287.300000
769.244019	290.600000
769.280945	288.300000
769.317810	294.700000
769.354675	291.400000
769.391541	298.400000
769.428406	295.100000
769.465271	301.900000
769.502136	294.100000
769.539062	296.900000
769.575867	296.200000
769.612732	300.200000
769.649597	302.200000
769.686462	303.400000
769.723328	298.700000
769.760193	300.400000
769.797058	301.800000
769.833923	305.600000
769.870728	302.500000
769.907593	306.600000
769.944519	306.600000
769.981323	309.000000
770.018188	306.900000
770.055054	306.600000
770.091858	307.800000
770.128723	316.400000
770.165588	321.200000
770.202393	312.100000
770.239258	316.900000
770.276062	316.100000
770.312927	316.000000
770.349792	322.500000
770.386597	318.700000
770.423462	327.400000
770.460327	332.400000
770.497131	322.200000
770.533997	316.400000
770.570862	330.200000
770.607605	328.900000
770.644470	328.100000
770.681335	327.000000
770.718140	330.000000
770.754944	324.800000
770.791809	324.500000
770.828613	327.000000
770.865479	328.200000
770.902222	336.400000
770.939087	330.900000
770.975952	323.700000
771.012695	328.000000
771.049561	340.300000
771.086365	332.200000
771.123169	331.000000
771.159973	336.800000
771.196838	336.400000
771.233582	338.300000
771.270447	336.500000
771.307251	340.300000
771.344055	339.100000
771.380859	339.600000
771.417664	339.000000
771.454468	345.400000
771.491272	343.400000
771.528076	344.100000
771.564880	339.500000
771.601685	348.000000
771.638428	342.900000
771.675293	348.200000
771.712097	341.100000
771.748840	355.500000
771.785645	346.900000
771.822449	351.100000
771.859253	353.600000
771.896057	350.500000
771.932861	359.700000
771.969604	352.100000
772.006409	351.300000
772.043213	358.300000
772.079956	355.500000
772.116760	350.200000
772.153503	355.900000
772.190308	361.500000
772.227112	356.100000
772.263855	351.700000
772.300659	355.700000
772.337463	362.100000
772.374207	355.200000
772.411011	354.800000
772.447754	357.800000
772.484497	369.300000
772.521301	360.700000
772.558105	360.400000
772.594849	362.500000
772.631592	365.500000
772.668396	365.300000
772.705139	370.200000
772.741882	364.700000
772.778625	372.900000
772.815430	376.300000
772.852173	371.900000
772.888916	378.000000
772.925720	380.300000
772.962463	386.100000
772.999207	379.900000
773.035950	381.200000
773.072754	381.300000
773.109436	378.900000
773.146240	380.900000
773.182922	376.400000
773.219727	384.300000
773.256470	381.200000
773.293152	377.300000
773.329956	379.400000
773.366699	383.800000
773.403381	375.000000
773.440186	383.500000
773.476929	383.900000
773.513611	381.300000
773.550354	381.900000
773.587158	383.200000
773.623840	377.900000
773.660583	385.400000
773.697327	394.500000
773.734009	388.600000
773.770813	386.100000
773.807495	384.800000
773.844238	386.100000
773.880981	397.400000
773.917664	393.300000
773.954407	400.700000
773.991150	390.700000
774.027832	397.700000
774.064575	390.100000
774.101318	396.000000
774.138000	400.000000
774.174744	395.300000
774.211487	398.400000
774.248108	390.900000
774.284851	391.500000
774.321594	397.500000
774.358276	401.300000
774.395020	407.700000
774.431702	404.400000
774.468384	400.200000
774.505127	397.700000
774.541809	403.500000
774.578491	409.300000
774.615234	411.100000
774.651917	404.800000
774.688599	406.200000
774.725342	415.800000
774.762024	411.100000
774.798706	416.000000
774.835449	415.600000
774.872070	424.500000
774.908813	418.400000
774.945496	418.300000
774.982178	419.200000
775.018860	420.900000
775.055542	425.300000
775.092224	423.600000
775.128967	427.100000
775.165588	428.600000
775.202271	423.300000
775.239014	431.000000
775.275635	431.900000
775.312317	432.000000
775.349060	436.800000
775.385681	437.800000
775.422363	432.400000
775.459045	435.500000
775.495667	436.900000
775.532410	439.500000
775.569092	439.100000
775.605713	443.500000
775.642395	439.900000
775.679016	443.400000
775.715698	446.000000
775.752380	445.200000
775.789001	443.300000
775.825684	446.600000
775.862366	452.600000
775.898987	459.700000
775.935669	451.000000
775.972351	466.900000
776.008972	466.800000
776.045654	464.900000
776.082336	461.600000
776.118958	460.300000
776.155640	462.600000
776.192322	470.900000
776.228882	476.100000
776.265564	474.600000
776.302185	471.900000
776.338867	475.900000
776.375488	468.600000
776.412109	480.200000
776.448792	486.900000
776.485413	491.600000
776.522034	482.000000
776.558716	475.900000
776.595337	480.800000
776.631958	484.800000
776.668579	485.500000
776.705261	489.400000
776.741882	489.600000
776.778503	489.400000
776.815186	489.200000
776.851746	494.300000
776.888367	494.000000
776.924988	497.900000
776.961609	494.100000
776.998291	493.100000
777.034851	490.100000
777.071472	500.500000
777.108154	498.600000
777.144714	507.500000
777.181335	502.900000
777.218018	499.700000
777.254578	507.300000
777.291199	504.600000
777.327759	509.400000
777.364380	516.400000
777.401062	523.200000
777.437622	530.200000
777.474243	518.700000
777.510864	528.300000
777.547424	516.300000
777.584045	518.600000
777.620667	520.500000
777.657227	527.600000
777.693848	525.700000
777.730469	536.800000
777.767029	529.300000
777.803650	531.800000
777.840271	531.800000
777.876831	532.400000
777.913452	539.000000
777.950012	524.500000
777.986633	526.000000
778.023193	523.000000
778.059753	521.900000
778.096375	529.200000
778.132996	538.700000
778.169556	530.500000
778.206116	531.200000
778.242737	528.400000
778.279297	533.700000
778.315857	527.900000
778.352478	533.900000
778.389038	541.700000
778.425598	540.400000
778.462219	548.400000
778.498718	544.300000
778.535339	545.000000
778.571838	547.100000
778.608459	552.000000
778.645020	545.800000
778.681580	545.900000
778.718140	549.300000
778.754761	546.500000
778.791260	548.000000
778.827881	556.800000
778.864441	561.100000
778.900940	566.800000
778.937561	566.900000
778.974121	563.400000
779.010620	556.700000
779.047241	558.500000
779.083801	566.300000
779.120300	565.700000
779.156860	568.400000
779.193359	564.900000
779.229980	564.600000
779.266541	565.200000
779.303040	570.700000
779.339600	563.900000
779.376160	558.900000
779.412659	565.200000
779.449219	562.600000
779.485779	569.600000
779.522278	565.600000
779.558838	571.800000
779.595398	574.100000
779.631897	567.800000
779.668457	564.400000
779.705017	571.200000
779.741516	565.400000
779.778076	564.400000
779.814575	568.100000
779.851074	564.900000
779.887634	565.300000
779.924133	574.600000
779.960693	562.700000
779.997253	571.800000
780.033691	581.000000
780.070251	577.600000
780.106812	586.900000
780.143250	582.700000
780.179810	576.200000
780.216370	579.300000
780.252808	585.000000
780.289368	591.200000
780.325867	593.000000
780.362366	592.400000
780.398865	602.000000
780.435364	596.700000
780.471863	602.300000
780.508423	600.400000
780.544861	600.400000
780.581421	601.700000
780.617920	594.200000
780.654419	595.600000
780.690918	602.200000
780.727417	605.600000
780.763916	601.500000
780.800415	614.700000
780.836914	597.800000
780.873352	611.700000
780.909912	602.100000
780.946411	609.100000
780.982849	609.500000
781.019348	616.300000
781.055786	613.900000
781.092346	617.100000
781.128845	622.700000
781.165283	626.400000
781.201782	634.500000
781.238281	637.500000
781.274719	644.400000
781.311218	630.300000
781.347717	641.100000
781.384155	631.700000
781.420654	636.700000
781.457092	647.400000
781.493591	641.700000
781.530090	640.300000
781.566528	642.100000
781.602966	640.200000
781.639465	639.600000
781.675903	637.500000
781.712402	647.200000
781.748901	648.700000
781.785278	638.500000
781.821777	644.700000
781.858276	644.300000
781.894714	657.400000
781.931152	654.400000
781.967651	659.100000
782.004089	642.800000
782.040527	639.700000
782.076965	631.600000
782.113403	623.400000
782.149902	608.000000
782.186340	591.800000
782.222778	583.800000
782.259277	563.200000
782.295654	561.300000
782.332092	565.100000
782.368591	569.500000
782.404968	569.500000
782.441467	571.300000
782.477905	571.500000
782.514282	572.700000
782.550781	585.200000
782.587219	586.000000
782.623596	588.100000
782.660095	588.800000
782.696472	593.200000
782.732910	584.600000
782.769348	583.300000
782.805786	593.800000
782.842224	581.000000
782.878662	565.600000
782.915039	551.900000
782.951477	545.100000
782.987915	532.900000
783.024292	533.500000
783.060730	537.000000
783.097168	535.800000
783.133545	534.100000
783.169983	546.600000
783.206421	554.900000
783.242798	570.000000
783.279236	585.700000
783.315613	598.600000
783.352051	618.000000
783.388489	637.800000
783.424866	644.400000
783.461304	661.300000
783.497681	678.100000
783.534058	683.400000
783.570496	690.700000
783.606934	694.000000
783.643250	696.500000
783.679687	705.900000
783.716125	704.300000
783.752441	710.000000
783.788879	727.900000
783.825317	735.800000
783.861633	744.700000
783.898071	743.100000
783.934448	753.900000
783.970825	762.200000
784.007263	765.000000
784.043579	767.400000
784.080017	770.100000
784.116394	764.400000
784.152710	768.300000
784.189148	779.300000
784.225525	776.000000
784.261902	768.100000
784.298279	762.300000
784.334656	765.000000
784.371033	755.600000
784.407410	760.900000
784.443787	743.100000
784.480164	733.400000
784.516541	720.300000
784.552856	731.500000
784.589233	730.800000
784.625610	724.100000
784.661987	742.900000
784.698364	741.500000
784.734741	730.700000
784.771057	731.600000
784.807434	739.200000
784.843811	749.500000
784.880127	746.600000
784.916504	772.600000
784.952881	775.500000
784.989197	768.600000
785.025574	774.200000
785.061951	779.000000
785.098267	792.000000
785.134644	789.600000
785.170959	791.200000
785.207275	795.700000
785.243652	793.400000
785.279968	782.800000
785.316345	778.200000
785.352722	777.900000
785.388977	774.000000
785.425354	766.000000
785.461731	748.000000
785.498047	741.300000
785.534363	733.100000
785.570679	732.200000
785.606995	736.800000
785.643372	739.000000
785.679687	736.500000
785.716003	722.700000
785.752380	718.700000
785.788635	730.600000
785.825012	738.900000
785.861328	747.900000
785.897644	742.000000
785.933960	753.500000
785.970337	761.300000
786.006592	774.800000
786.042908	783.500000
786.079285	794.200000
786.115540	805.800000
786.151855	810.800000
786.188171	808.500000
786.224487	814.500000
786.260803	806.800000
786.297119	810.400000
786.333435	804.300000
786.369751	798.300000
786.406006	792.800000
786.442322	783.400000
786.478638	773.800000
786.514954	779.200000
786.551270	775.600000
786.587585	776.900000
786.623840	764.200000
786.660156	762.300000
786.696472	754.800000
786.732727	755.800000
786.769043	764.000000
786.805298	761.400000
786.841614	762.500000
786.877930	765.200000
786.914124	751.800000
786.950439	773.400000
786.986755	785.800000
787.023010	796.700000
787.059326	797.900000
787.095642	803.400000
787.131836	818.700000
787.168152	811.500000
787.204468	825.900000
787.240723	841.700000
787.276978	837.000000
787.313293	844.300000
787.349548	846.300000
787.385803	851.400000
787.422058	846.100000
787.458313	841.100000
787.494629	830.100000
787.530823	833.800000
787.567139	826.000000
787.603455	818.000000
787.639648	805.600000
787.675903	809.900000
787.712219	804.000000
787.748413	802.600000
787.784729	809.600000
787.820984	800.500000
787.857178	799.900000
787.893494	792.100000
787.929749	789.200000
787.965942	799.500000
788.002258	806.800000
788.038452	822.600000
788.074707	818.500000
788.110962	826.500000
788.147217	824.700000
788.183472	837.400000
788.219727	848.500000
788.255920	854.600000
788.292175	866.500000
788.328430	864.800000
788.364624	856.100000
788.400879	857.800000
788.437134	856.900000
788.473328	854.900000
788.509583	861.200000
788.545837	858.400000
788.582031	862.000000
788.618286	856.100000
788.654480	847.100000
788.690735	863.500000
788.726990	875.200000
788.763184	878.500000
788.799377	886.900000
788.835632	872.700000
788.871826	882.500000
788.908081	882.700000
788.944336	877.000000
788.980469	895.700000
789.016724	889.300000
789.052979	889.300000
789.089111	878.400000
789.125366	885.700000
789.161621	868.200000
789.197754	878.800000
789.234009	880.900000
789.270142	876.300000
789.306396	879.200000
789.342590	869.000000
789.378784	843.100000
789.414978	838.500000
789.451233	847.400000
789.487366	852.400000
789.523621	861.800000
789.559814	858.400000
789.595947	854.600000
789.632202	860.000000
789.668335	874.300000
789.704529	889.600000
789.740784	911.800000
789.776917	914.500000
789.813110	914.700000
789.849304	909.600000
789.885498	902.700000
789.921692	918.300000
789.957886	930.900000
789.994019	936.100000
790.030212	941.600000
790.066406	945.100000
790.102539	939.500000
790.138733	943.000000
790.174927	938.700000
790.211060	954.100000
790.247253	942.900000
790.283386	941.000000
790.319580	929.200000
790.355774	911.100000
790.391907	913.600000
790.428101	924.900000
790.464294	923.300000
790.500427	927.400000
790.536621	915.600000
790.572754	901.200000
790.608887	889.500000
790.645081	893.300000
790.681274	916.200000
790.717346	920.000000
790.753540	908.900000
790.789734	891.700000
790.825867	876.400000
790.862000	882.600000
790.898132	889.800000
790.934265	891.500000
790.970459	892.100000
791.006592	886.800000
791.042725	876.000000
791.078918	877.200000
791.114990	875.200000
791.151184	878.600000
791.187317	891.400000
791.223389	893.400000
791.259583	889.300000
791.295715	886.900000
791.331848	884.400000
791.367981	896.600000
791.404114	901.400000
791.440247	906.500000
791.476379	917.200000
791.512451	901.500000
791.548584	892.500000
791.584778	886.500000
791.620850	897.300000
791.656982	902.400000
791.693115	897.600000
791.729187	896.300000
791.765381	899.300000
791.801514	894.200000
791.837585	891.300000
791.873718	895.900000
791.909851	908.700000
791.945923	915.200000
791.982056	896.600000
792.018188	892.800000
792.054260	889.500000
792.090393	891.000000
792.126465	886.800000
792.162598	893.100000
792.198669	887.600000
792.234741	883.000000
792.270874	872.500000
792.307007	865.600000
792.343079	873.700000
792.379150	880.700000
792.415283	872.200000
792.451355	873.600000
792.487488	852.500000
792.523560	847.400000
792.559631	837.600000
792.595764	810.100000
792.631836	780.900000
792.667908	763.200000
792.703979	743.200000
792.740051	758.100000
792.776184	787.600000
792.812256	797.800000
792.848328	809.500000
792.884399	826.900000
792.920471	826.300000
792.956543	822.200000
792.992615	808.300000
793.028748	807.600000
793.064758	812.900000
793.100830	828.800000
793.136963	841.600000
793.172974	850.900000
793.209045	842.700000
793.245178	854.900000
793.281189	842.900000
793.317261	848.000000
793.353271	846.700000
793.389404	858.800000
793.425476	854.300000
793.461487	837.900000
793.497559	831.000000
793.533630	832.100000
793.569641	825.900000
793.605713	838.300000
793.641785	847.800000
793.677795	858.700000
793.713867	846.900000
793.749878	846.300000
793.785950	852.000000
793.822021	868.100000
793.858032	863.800000
793.894104	866.400000
793.930176	866.300000
793.966187	868.700000
794.002258	857.300000
794.038269	859.700000
794.074280	862.100000
794.110352	890.400000
794.146423	865.800000
794.182373	868.400000
794.218445	862.000000
794.254517	856.600000
794.290466	850.100000
794.326538	857.300000
794.362549	852.300000
794.398560	857.100000
794.434631	855.200000
794.470581	830.800000
794.506653	824.500000
794.542664	830.100000
794.578674	833.200000
794.614685	830.900000
794.650757	832.800000
794.686707	831.100000
794.722778	823.400000
794.758789	834.500000
794.794739	843.600000
794.830811	860.800000
794.866821	878.000000
794.902771	885.100000
794.938843	886.800000
794.974792	882.300000
795.010803	876.200000
795.046814	876.500000
795.082825	873.400000
795.118835	890.000000
795.154846	868.100000
795.190796	872.900000
795.226807	856.800000
795.262817	858.600000
795.298767	862.100000
795.334778	871.400000
795.370850	859.200000
795.406799	858.300000
795.442810	850.600000
795.478821	842.200000
795.514709	841.600000
795.550720	871.600000
795.586670	857.600000
795.622681	860.900000
795.658691	865.300000
795.694641	863.300000
795.730652	850.400000
795.766663	856.500000
795.802551	859.100000
795.838562	873.600000
795.874573	864.600000
795.910522	864.100000
795.946472	859.600000
795.982483	861.700000
796.018433	858.400000
796.054382	868.600000
796.090393	861.400000
796.126282	857.500000
796.162292	849.800000
796.198242	840.400000
796.234192	828.000000
796.270203	826.800000
796.306091	837.100000
796.342041	850.800000
796.378052	841.500000
796.413940	844.500000
796.449951	848.200000
796.485901	843.000000
796.521790	847.700000
796.557800	862.900000
796.593689	865.200000
796.629639	856.900000
796.665649	852.800000
796.701599	844.200000
796.737488	852.000000
796.773437	867.800000
796.809387	860.500000
796.845337	864.700000
796.881287	855.400000
796.917175	847.300000
796.953125	841.500000
796.989075	841.300000
797.024963	840.000000
797.060913	842.300000
797.096863	840.900000
797.132751	838.900000
797.168701	820.400000
797.204590	829.100000
797.240540	831.800000
797.276489	834.700000
797.312439	839.700000
797.348328	836.500000
797.384277	839.200000
797.420166	830.200000
797.456055	824.000000
797.492004	820.100000
797.527893	823.900000
797.563843	825.000000
797.599731	823.000000
797.635620	825.100000
797.671570	829.900000
797.707520	826.500000
797.743347	830.300000
797.779297	834.400000
797.815125	834.300000
797.851074	834.000000
797.887024	818.800000
797.922913	801.600000
797.958801	801.600000
797.994690	801.300000
798.030579	808.700000
798.066467	811.400000
798.102356	804.000000
798.138245	799.400000
798.174133	794.600000
798.210083	805.200000
798.245911	815.900000
798.281799	813.100000
798.317749	811.300000
798.353577	814.000000
798.389465	807.600000
798.425293	799.800000
798.461243	802.400000
798.497131	808.000000
798.532959	811.300000
798.568848	818.900000
798.604736	806.800000
798.640564	789.600000
798.676453	789.000000
798.712402	786.800000
798.748230	795.900000
798.784119	795.600000
798.820007	800.700000
798.855835	799.900000
798.891724	787.400000
798.927551	780.400000
798.963379	786.300000
798.999268	786.800000
799.035095	782.800000
799.070984	782.500000
799.106873	769.400000
799.142700	774.000000
799.178528	765.300000
799.214417	770.200000
799.250244	780.300000
799.286133	776.800000
799.321960	775.800000
799.357788	768.600000
799.393677	765.500000
799.429504	765.800000
799.465332	767.900000
799.501221	772.800000
799.537048	773.700000
799.572876	766.700000
799.608704	764.000000
799.644531	773.900000
799.680359	774.800000
799.716248	785.500000
799.752014	788.200000
799.787903	786.200000
799.823730	783.500000
799.859558	771.500000
799.895386	767.600000
799.931213	768.800000
799.967041	767.000000
800.002869	766.900000
800.038696	777.300000
800.074463	761.100000
800.110352	759.600000
800.146179	755.200000
800.181946	768.600000
800.217773	767.700000
800.253540	763.500000
800.289429	763.800000
800.325256	753.000000
800.361023	749.600000
800.396851	757.000000
800.432678	760.200000
800.468445	759.600000
800.504272	765.100000
800.540100	749.600000
800.575867	744.900000
800.611694	750.500000
800.647461	743.500000
800.683289	747.000000
800.719116	750.000000
800.754883	751.000000
800.790649	738.300000
800.826477	729.500000
800.862244	741.900000
800.898071	733.300000
800.933838	738.900000
800.969604	736.400000
801.005432	736.700000
801.041199	739.900000
801.076965	729.800000
801.112793	724.800000
801.148560	717.300000
801.184326	724.100000
801.220154	726.500000
801.255859	720.800000
801.291687	710.000000
801.327454	704.200000
801.363281	710.800000
801.398987	706.600000
801.434814	709.900000
801.470520	718.000000
801.506287	709.900000
801.542114	699.800000
801.577820	695.800000
801.613647	701.100000
801.649414	700.300000
801.685120	705.200000
801.720886	701.500000
801.756714	692.200000
801.792419	685.400000
801.828186	679.200000
801.863892	690.000000
801.899719	687.500000
801.935486	691.300000
801.971252	693.300000
802.006958	683.700000
802.042725	682.500000
802.078430	683.300000
802.114197	677.700000
802.149963	694.700000
802.185669	682.100000
802.221436	683.000000
802.257202	682.700000
802.292908	683.700000
802.328674	679.000000
802.364441	683.000000
802.400146	683.100000
802.435913	686.200000
802.471558	681.400000
802.507324	676.900000
802.543091	672.300000
802.578796	689.700000
802.614502	686.400000
802.650269	691.400000
802.685974	672.600000
802.721741	678.200000
802.757446	677.900000
802.793152	674.500000
802.828918	683.200000
802.864624	687.900000
802.900330	682.400000
802.936035	676.500000
802.971802	672.200000
803.007446	663.400000
803.043213	661.400000
803.078857	673.400000
803.114624	657.600000
803.150330	665.000000
803.185974	660.200000
803.221741	656.100000
803.257446	663.200000
803.293152	661.800000
803.328857	659.100000
803.364563	664.600000
803.400208	656.700000
803.435974	658.500000
803.471680	648.200000
803.507324	648.400000
803.543030	657.100000
803.578735	658.800000
803.614441	651.800000
803.650146	660.800000
803.685791	642.600000
803.721497	646.200000
803.757202	641.100000
803.792847	647.600000
803.828552	647.400000
803.864258	644.000000
803.899902	640.200000
803.935608	626.700000
803.971313	629.700000
804.006958	622.900000
804.042664	624.900000
804.078308	633.800000
804.113953	626.600000
804.149658	632.200000
804.185364	622.800000
804.221008	635.400000
804.256714	618.900000
804.292297	616.900000
804.328003	623.000000
804.363708	617.700000
804.399292	612.700000
804.434998	604.600000
804.470703	601.100000
804.506287	616.200000
804.541992	608.000000
804.577637	615.600000
804.613281	602.800000
804.648926	595.800000
804.684570	600.800000
804.720215	596.500000
804.755920	594.900000
804.791565	596.500000
804.827209	602.800000
804.862854	600.600000
804.898437	595.700000
804.934143	598.100000
804.969788	594.700000
805.005371	593.300000
805.041077	590.200000
805.076721	593.700000
805.112305	590.200000
805.147949	585.600000
805.183655	585.800000
805.219238	589.600000
805.254883	582.100000
805.290466	590.400000
805.326111	584.500000
805.361755	574.500000
805.397400	571.800000
805.432983	576.900000
805.468628	573.100000
805.504211	576.100000
805.539856	576.200000
805.575500	581.000000
805.611084	574.600000
805.646729	566.100000
805.682373	567.800000
805.717957	571.700000
805.753601	571.500000
805.789246	559.200000
805.824768	569.400000
805.860413	572.600000
805.895996	563.800000
805.931641	562.800000
805.967224	570.900000
806.002869	565.100000
806.038452	569.000000
806.074036	571.400000
806.109619	557.500000
806.145264	558.400000
806.180847	559.200000
806.216431	558.500000
806.252014	561.200000
806.287659	561.100000
806.323181	563.400000
806.358826	559.900000
806.394409	548.700000
806.429993	549.800000
806.465576	555.200000
806.501160	546.000000
806.536743	540.700000
806.572327	550.300000
806.607910	547.900000
806.643494	547.900000
806.679077	538.400000
806.714661	540.900000
806.750244	541.400000
806.785828	533.200000
806.821350	536.800000
806.856934	536.500000
806.892517	532.300000
806.928101	529.300000
806.963684	534.700000
806.999268	538.000000
807.034790	524.000000
807.070374	526.200000
807.105896	522.600000
807.141479	521.200000
807.177063	525.100000
807.212585	519.900000
807.248169	518.300000
807.283752	526.400000
807.319275	517.900000
807.354858	521.900000
807.390381	514.500000
807.425903	508.000000
807.461487	513.900000
807.497070	503.400000
807.532593	505.800000
807.568115	505.800000
807.603699	502.100000
807.639221	498.000000
807.674744	502.500000
807.710266	505.700000
807.745850	505.400000
807.781372	504.400000
807.816895	496.500000
807.852417	497.300000
807.888000	496.800000
807.923523	494.100000
807.959045	494.600000
807.994629	490.300000
808.030090	488.800000
808.065613	491.600000
808.101135	496.800000
808.136658	496.300000
808.172241	489.100000
808.207764	491.100000
808.243225	486.000000
808.278809	484.000000
808.314270	489.600000
808.349792	480.200000
808.385315	477.900000
808.420837	483.800000
808.456360	490.600000
808.491882	489.600000
808.527344	482.500000
808.562866	489.300000
808.598389	478.600000
808.633850	480.600000
808.669434	473.200000
808.704895	486.100000
808.740417	486.500000
808.775940	480.700000
808.811462	476.700000
808.846924	473.200000
808.882385	469.600000
808.917847	472.200000
808.953369	473.100000
808.988892	469.100000
809.024353	471.700000
809.059875	471.500000
809.095398	470.100000
809.130798	464.900000
809.166321	463.900000
809.201843	462.300000
809.237305	465.700000
809.272766	468.700000
809.308228	456.400000
809.343750	456.900000
809.379211	458.000000
809.414734	458.700000
809.450134	461.800000
809.485657	449.100000
809.521118	457.000000
809.556580	451.700000
809.592102	450.800000
809.627502	452.900000
809.663025	449.900000
809.698486	444.100000
809.733887	443.800000
809.769409	447.200000
809.804871	439.700000
809.840271	439.800000
809.875793	441.100000
809.911194	444.300000
809.946655	439.500000
809.982178	434.500000
810.017639	439.200000
810.053040	434.800000
810.088501	430.900000
810.123901	430.900000
810.159424	430.100000
810.194885	424.300000
810.230286	428.400000
810.265747	420.000000
810.301208	417.400000
810.336609	419.200000
810.372070	416.300000
810.407532	418.800000
810.442932	418.400000
810.478394	425.000000
810.513794	420.600000
810.549255	416.600000
810.584717	410.800000
810.620117	405.700000
810.655518	414.200000
810.690979	411.000000
810.726379	412.800000
810.761841	403.600000
810.797302	402.200000
810.832642	400.900000
810.868103	407.000000
810.903564	401.400000
810.938904	404.300000
810.974365	393.900000
811.009827	400.000000
811.045166	395.200000
811.080627	386.900000
811.115967	394.000000
811.151428	394.500000
811.186829	392.400000
811.222229	390.900000
811.257629	388.100000
811.293091	390.100000
811.328430	395.000000
811.363892	388.900000
811.399292	392.200000
811.434631	386.700000
811.470093	390.400000
811.505493	381.900000
811.540833	381.000000
811.576294	385.600000
811.611694	383.500000
811.647034	376.400000
811.682434	380.600000
811.717773	378.900000
811.753235	387.100000
811.788635	378.000000
811.823975	380.400000
811.859375	386.000000
811.894775	377.700000
811.930115	377.400000
811.965515	374.700000
812.000916	374.900000
812.036255	373.600000
812.071655	376.300000
812.106995	369.800000
812.142395	370.700000
812.177795	379.400000
812.213196	373.400000
812.248474	373.200000
812.283875	366.800000
812.319214	370.200000
812.354614	371.600000
812.390015	365.000000
812.425293	365.000000
812.460693	365.900000
812.496094	363.300000
812.531433	355.900000
812.566772	359.500000
812.602173	363.900000
812.637451	361.200000
812.672852	356.200000
812.708191	355.500000
812.743530	353.100000
812.778931	347.600000
812.814270	347.600000
812.849609	355.800000
812.884949	351.300000
812.920227	343.500000
812.955627	352.800000
812.990967	349.600000
813.026306	345.800000
813.061646	336.100000
813.096985	332.300000
813.132324	331.100000
813.167664	334.900000
813.203003	339.800000
813.238281	328.400000
813.273682	328.200000
813.308960	326.800000
813.344299	328.900000
813.379639	335.600000
813.414978	329.900000
813.450256	327.000000
813.485596	330.000000
813.520874	323.200000
813.556213	323.800000
813.591614	328.800000
813.626831	321.900000
813.662170	324.600000
813.697510	331.300000
813.732788	320.300000
813.768127	323.800000
813.803467	319.800000
813.838745	319.300000
813.874084	324.100000
813.909363	319.600000
813.944641	321.200000
813.979980	310.800000
814.015320	316.900000
814.050598	311.900000
814.085876	315.500000
814.121155	313.400000
814.156494	313.400000
814.191772	313.500000
814.227051	310.800000
814.262390	308.900000
814.297668	309.800000
814.332947	310.200000
814.368225	303.700000
814.403564	305.800000
814.438782	303.900000
814.474121	305.000000
814.509338	300.700000
814.544617	306.600000
814.579956	302.700000
814.615173	308.800000
814.650513	305.000000
814.685791	301.000000
814.721008	305.000000
814.756348	302.600000
814.791626	299.800000
814.826843	296.800000
814.862122	298.600000
814.897400	294.800000
814.932678	297.300000
814.967957	296.700000
815.003235	296.900000
815.038452	292.200000
815.073730	289.600000
815.108948	298.800000
815.144226	296.100000
815.179504	297.100000
815.214722	287.400000
815.250000	288.500000
815.285278	293.800000
815.320496	287.600000
815.355774	287.900000
815.391052	292.400000
815.426270	289.000000
815.461487	288.800000
815.496765	282.100000
815.531982	283.400000
815.567261	283.900000
815.602539	290.800000
815.637695	285.800000
815.672974	287.600000
815.708191	286.600000
815.743408	288.000000
815.778687	280.100000
815.813904	288.700000
815.849121	276.000000
815.884399	278.500000
815.919556	275.900000
815.954834	278.000000
815.990051	278.400000
816.025269	281.300000
816.060486	273.900000
816.095703	273.900000
816.130920	274.400000
816.166199	273.800000
816.201416	273.000000
816.236572	275.700000
816.271851	269.900000
816.307007	274.400000
816.342224	264.600000
816.377441	268.200000
816.412659	263.600000
816.447876	269.500000
816.483093	266.800000
816.518250	266.500000
816.553467	263.700000
816.588745	269.500000
816.623901	262.300000
816.659119	258.200000
816.694275	261.600000
816.729492	259.900000
816.764709	289.200000
816.799927	257.100000
816.835083	260.800000
816.870300	252.200000
816.905457	256.700000
816.940674	256.900000
816.975830	254.900000
817.010986	252.400000
817.046204	251.600000
817.081421	247.900000
817.116577	249.900000
817.151733	254.200000
817.186951	256.500000
817.222107	253.400000
817.257324	256.200000
817.292419	253.600000
817.327637	247.900000
817.362854	249.600000
817.398010	245.500000
817.433167	247.000000
817.468323	246.100000
817.503479	245.700000
817.538635	255.800000
817.573853	247.500000
817.608948	246.500000
817.644165	243.300000
817.679321	242.900000
817.714478	241.900000
817.749634	245.100000
817.784790	252.100000
817.819946	248.700000
817.855103	235.100000
817.890198	242.100000
817.925415	234.800000
817.960571	242.300000
817.995667	241.100000
818.030823	240.800000
818.066040	238.000000
818.101135	240.700000
818.136292	238.200000
818.171448	233.700000
818.206543	236.500000
818.241699	238.400000
818.276855	239.000000
818.311951	236.300000
818.347107	233.100000
818.382263	238.200000
818.417358	242.100000
818.452515	239.300000
818.487610	241.900000
818.522766	233.000000
818.557922	240.200000
818.593018	234.700000
818.628113	235.200000
818.663269	230.600000
818.698364	236.200000
818.733521	229.500000
818.768677	233.600000
818.803711	227.600000
818.838867	226.700000
818.874023	229.400000
818.909058	228.300000
818.944214	226.100000
818.979370	229.500000
819.014404	228.100000
819.049561	224.300000
819.084595	228.700000
819.119751	222.200000
819.154846	228.100000
819.189941	224.600000
819.225037	221.800000
819.260193	218.400000
819.295227	218.100000
819.330322	216.500000
819.365479	217.800000
819.400513	250.100000
819.435608	214.200000
819.470764	212.900000
819.505798	216.700000
819.540894	217.500000
819.575989	216.100000
819.611084	220.300000
819.646179	222.500000
819.681213	218.200000
819.716309	214.700000
819.751404	215.400000
819.786438	221.700000
819.821533	211.600000
819.856628	217.400000
819.891663	217.100000
819.926758	225.500000
819.961853	220.200000
819.996887	212.600000
820.031982	215.900000
820.067017	213.300000
820.102112	245.200000
820.137207	211.500000
820.172302	223.300000
820.207275	211.600000
820.242371	207.300000
820.277405	210.900000
820.312500	211.200000
820.347534	212.000000
820.382568	215.500000
820.417664	210.100000
820.452759	207.700000
820.487732	208.500000
820.522827	208.300000
820.557861	205.900000
820.592896	207.200000
820.627930	209.100000
820.662964	207.100000
820.698059	211.200000
820.733093	207.300000
820.768127	210.500000
820.803162	208.400000
820.838196	207.000000
820.873230	207.700000
820.908264	210.200000
820.943298	205.700000
820.978333	210.600000
821.013367	207.500000
821.048401	210.400000
821.083435	211.100000
821.118469	201.100000
821.153503	210.300000
821.188477	207.100000
821.223511	203.400000
821.258484	205.900000
821.293579	205.600000
821.328613	201.200000
821.363647	205.900000
821.398621	200.900000
821.433655	205.000000
821.468628	215.800000
821.503662	204.600000
821.538696	206.800000
821.573669	201.900000
821.608704	207.500000
821.643677	203.600000
821.678650	205.500000
821.713684	210.500000
821.748718	205.300000
821.783691	203.300000
821.818726	203.100000
821.853638	205.600000
821.888672	201.600000
821.923706	202.900000
821.958618	201.900000
821.993652	201.200000
822.028687	206.300000
822.063599	209.300000
822.098633	203.800000
822.133667	200.500000
822.168579	202.000000
822.203613	204.600000
822.238586	200.700000
822.273560	204.400000
822.308533	200.200000
822.343567	199.800000
822.378479	202.400000
822.413452	199.800000
822.448425	197.900000
822.483398	206.000000
822.518372	206.900000
822.553345	199.500000
822.588318	208.800000
822.623291	200.700000
822.658203	199.700000
822.693237	200.900000
822.728210	199.400000
822.763123	201.600000
822.798096	199.000000
822.833069	201.500000
822.867981	200.400000
822.902954	203.000000
822.937927	203.100000
822.972900	209.100000
823.007874	197.100000
823.042725	204.900000
823.077698	209.700000
823.112671	197.900000
823.147583	199.700000
823.182556	202.000000
823.217529	204.600000
823.252441	198.900000
823.287415	209.700000
823.322388	203.300000
823.357239	201.100000
823.392212	205.700000
823.427185	205.600000
823.462097	196.900000
823.497009	202.100000
823.531982	199.200000
823.566895	201.400000
823.601807	196.700000
823.636719	199.800000
823.671631	201.500000
823.706604	198.500000
823.741455	202.600000
823.776428	194.600000
823.811340	202.800000
823.846252	205.300000
823.881165	206.300000
823.916138	200.600000
823.950989	206.000000
823.985901	198.500000
824.020813	200.900000
824.055725	199.400000
824.090637	196.300000
824.125610	201.900000
824.160461	203.100000
824.195374	200.200000
824.230225	203.400000
824.265198	195.600000
824.300110	199.000000
824.334961	207.000000
824.369873	195.000000
824.404785	201.400000
824.439636	202.700000
824.474548	192.600000
824.509460	193.900000
824.544312	202.900000
824.579224	202.300000
824.614075	202.200000
824.648987	197.800000
824.683899	197.900000
824.718811	196.400000
824.753662	202.600000
824.788574	201.600000
824.823364	199.600000
824.858276	195.400000
824.893188	202.600000
824.928040	201.700000
824.962952	199.700000
824.997803	202.600000
825.032654	198.800000
825.067566	200.400000
825.102417	196.100000
825.137268	196.600000
825.172119	197.600000
825.206970	195.600000
825.241882	197.400000
825.276733	193.000000
825.311646	197.000000
825.346436	192.200000
825.381348	193.500000
825.416138	196.900000
825.450989	195.300000
825.485901	188.600000
825.520691	192.300000
825.555542	191.500000
825.590454	197.400000
825.625244	189.800000
825.660095	202.800000
825.695007	197.800000
825.729797	195.500000
825.764648	191.000000
825.799438	195.400000
825.834290	196.000000
825.869202	191.000000
825.903992	195.900000
825.938843	192.100000
825.973694	190.500000
826.008484	202.500000
826.043335	191.100000
826.078186	187.600000
826.112976	197.100000
826.147827	198.200000
826.182678	201.400000
826.217468	188.200000
826.252319	198.900000
826.287109	189.800000
826.321899	197.200000
826.356750	192.400000
826.391541	189.700000
826.426392	195.500000
826.461182	192.700000
826.495972	189.600000
826.530823	187.500000
826.565613	194.000000
826.600403	188.100000
826.635254	194.400000
826.670044	186.900000
826.704834	186.300000
826.739685	188.800000
826.774475	193.900000
826.809265	192.300000
826.844055	188.900000
826.878906	197.800000
826.913635	194.100000
826.948425	193.800000
826.983215	193.500000
827.018005	196.300000
827.052856	190.400000
827.087585	195.600000
827.122375	185.400000
827.157227	192.000000
827.191956	202.900000
827.226746	189.000000
827.261536	195.200000
827.296265	188.200000
827.331116	189.700000
827.365906	195.300000
827.400635	189.100000
827.435425	187.000000
827.470215	195.000000
827.504944	191.300000
827.539734	194.700000
827.574463	190.600000
827.609253	197.600000
827.644043	191.100000
827.678772	195.800000
827.713562	190.500000
827.748352	189.500000
827.783081	187.900000
827.817871	192.000000
827.852600	187.400000
827.887329	193.000000
827.922119	185.200000
827.956848	193.000000
827.991638	201.700000
828.026367	193.600000
828.061157	192.000000
828.095886	191.700000
828.130615	205.900000
828.165344	185.700000
828.200073	190.700000
828.234863	191.800000
828.269592	190.800000
828.304321	195.600000
828.339111	191.600000
828.373779	189.500000
828.408569	194.800000
828.443298	195.200000
828.477966	189.300000
828.512756	192.300000
828.547424	186.600000
828.582214	189.600000
828.616943	188.400000
828.651672	192.400000
828.686340	194.100000
828.721130	189.200000
828.755798	189.500000
828.790527	191.900000
828.825256	192.100000
828.859924	193.200000
828.894714	196.500000
828.929443	199.100000
828.964111	190.000000
828.998840	194.500000
829.033569	188.400000
829.068237	190.900000
829.102966	188.900000
829.137634	192.700000
829.172363	192.700000
829.207092	191.400000
829.241821	189.300000
829.276489	186.600000
829.311157	192.200000
829.345825	190.500000
829.380554	195.400000
829.415283	188.300000
829.449951	189.500000
829.484619	198.500000
829.519348	199.000000
829.554016	190.800000
829.588745	193.300000
829.623413	186.700000
829.658081	199.700000
829.692749	187.100000
829.727417	195.700000
829.762146	191.800000
829.796814	189.800000
829.831482	189.900000
829.866150	193.000000
829.900879	189.900000
829.935486	194.600000
829.970154	190.200000
830.004883	201.000000
830.039490	193.200000
830.074219	190.300000
830.108887	191.300000
830.143494	193.100000
830.178223	187.200000
830.212891	190.100000
830.247498	191.700000
830.282166	196.800000
830.316772	195.600000
830.351501	190.000000
830.386169	191.200000
830.420776	189.500000
830.455444	191.400000
830.490112	189.900000
830.524719	185.800000
830.559387	193.400000
830.594055	193.600000
830.628662	191.200000
830.663330	191.400000
830.697998	198.700000
830.732605	191.600000
830.767273	194.000000
830.801941	191.200000
830.836487	199.200000
830.871155	192.900000
830.905762	192.700000
830.940430	186.300000
830.975098	188.000000
831.009644	191.900000
831.044312	198.600000
831.078979	194.300000
831.113525	184.500000
831.148193	192.400000
831.182861	190.700000
831.217407	193.800000
831.252075	203.500000
831.286621	191.100000
831.321289	188.100000
831.355896	192.700000
831.390564	196.100000
831.425110	193.400000
831.459778	195.900000
831.494324	202.300000
831.528931	192.200000
831.563599	196.700000
831.598145	185.800000
831.632751	191.400000
831.667419	191.100000
831.701965	194.100000
831.736572	192.900000
831.771179	188.200000
831.805786	189.300000
831.840393	197.100000
831.874939	185.600000
831.909546	194.700000
831.944153	183.800000
831.978760	192.100000
832.013306	188.100000
832.047913	195.900000
832.082458	199.500000
832.117065	189.200000
832.151672	198.000000
832.186218	194.900000
832.220825	194.900000
832.255432	184.700000
832.289978	189.600000
832.324585	193.200000
832.359192	193.500000
832.393677	192.700000
832.428284	192.200000
832.462830	191.200000
832.497437	191.800000
832.531982	194.700000
832.566589	191.200000
832.601135	193.400000
832.635681	187.100000
832.670227	191.400000
832.704773	198.900000
832.739380	192.000000
832.773926	193.100000
832.808472	189.500000
832.843079	193.400000
832.877563	193.700000
832.912170	190.200000
832.946716	185.200000
832.981201	196.100000
833.015808	192.200000
833.050293	191.600000
833.084839	186.800000
833.119446	190.500000
833.153992	194.800000
833.188477	190.800000
833.223022	187.800000
833.257568	193.500000
833.292114	197.100000
833.326660	200.700000
833.361145	188.600000
833.395691	186.200000
833.430237	190.400000
833.464783	193.700000
833.499329	188.900000
833.533875	188.300000
833.568359	193.200000
833.602905	195.800000
833.637390	195.400000
833.671875	190.800000
833.706421	190.400000
833.740906	188.400000
833.775452	185.100000
833.809998	188.200000
833.844482	198.900000
833.879028	190.200000
833.913513	191.100000
833.947998	192.700000
833.982544	189.500000
834.017090	189.700000
834.051514	184.900000
834.086060	193.500000
834.120544	191.000000
834.155029	192.600000
834.189575	190.900000
834.223999	193.100000
834.258545	192.900000
834.293030	191.000000
834.327515	192.200000
834.362000	189.000000
834.396545	194.900000
834.430969	190.200000
834.465454	195.700000
834.500000	185.700000
834.534424	193.500000
834.568970	184.000000
834.603455	186.300000
834.637878	188.800000
834.672363	193.100000
834.706909	190.500000
834.741333	191.900000
834.775818	185.800000
834.810242	189.000000
834.844727	192.100000
834.879211	190.600000
834.913635	191.500000
834.948181	191.700000
834.982666	192.000000
835.017090	189.800000
835.051575	193.100000
835.086060	189.100000
835.120483	194.700000
835.154907	194.000000
835.189331	191.200000
835.223816	193.200000
835.258301	186.500000
835.292786	187.500000
835.327209	194.300000
835.361694	187.800000
835.396057	190.500000
835.430542	193.100000
835.465027	192.500000
835.499390	187.700000
835.533875	217.800000
835.568359	189.700000
835.602722	187.200000
835.637207	192.400000
835.671692	188.000000
835.706055	207.300000
835.740540	194.700000
835.774902	191.800000
835.809387	193.300000
835.843811	187.300000
835.878235	196.700000
835.912659	186.000000
835.947083	190.500000
835.981506	192.000000
836.015930	186.700000
836.050354	195.000000
836.084778	197.700000
836.119202	194.100000
836.153625	204.800000
836.187988	187.400000
836.222473	188.700000
836.256897	192.100000
836.291260	190.000000
836.325684	193.000000
836.360046	191.100000
836.394470	191.600000
836.428894	196.700000
836.463318	189.800000
836.497681	193.500000
836.532104	196.900000
836.566467	191.700000
836.600891	189.700000
836.635315	195.600000
836.669678	193.700000
836.704102	193.500000
836.738525	194.200000
836.772888	185.600000
836.807251	189.400000
836.841675	193.700000
836.876038	188.600000
836.910461	188.500000
836.944763	194.600000
836.979187	187.500000
837.013611	196.600000
837.047974	185.800000
837.082336	202.400000
837.116699	193.200000
837.151062	191.800000
837.185486	185.000000
837.219849	189.800000
837.254211	195.000000
837.288574	191.300000
837.322937	187.300000
837.357300	183.000000
837.391663	200.800000
837.426086	195.900000
837.460388	192.800000
837.494751	195.000000
837.529114	188.700000
837.563477	198.000000
837.597839	192.800000
837.632141	190.100000
837.666565	190.200000
837.700928	194.300000
837.735229	192.300000
837.769592	194.000000
837.803955	194.200000
837.838257	189.600000
837.872620	189.200000
837.906982	197.900000
837.941284	191.500000
837.975647	193.200000
838.010010	197.400000
838.044312	189.800000
838.078674	191.800000
838.112976	192.100000
838.147339	193.700000
838.181702	191.200000
838.216003	198.200000
838.250366	192.400000
838.284668	195.800000
838.318970	187.100000
838.353333	190.800000
838.387634	191.500000
838.421936	192.300000
838.456299	191.000000
838.490601	197.000000
838.524902	194.800000
838.559265	194.800000
838.593567	193.900000
838.627869	187.700000
838.662170	193.100000
838.696472	187.100000
838.730774	188.200000
838.765137	194.600000
838.799377	181.600000
838.833740	192.800000
838.868042	196.700000
838.902283	185.500000
838.936646	197.100000
838.970947	192.100000
839.005188	196.100000
839.039551	187.100000
839.073792	195.800000
839.108093	189.900000
839.142395	199.200000
839.176697	186.900000
839.210937	193.400000
839.245300	198.800000
839.279541	186.300000
839.313843	190.000000
839.348145	194.600000
839.382385	194.800000
839.416687	195.800000
839.450989	193.900000
839.485229	190.900000
839.519531	188.100000
839.553833	196.000000
839.588013	192.200000
839.622314	194.100000
839.656555	194.100000
839.690857	193.000000
839.725159	185.800000
839.759460	192.000000
839.793640	189.100000
839.827942	193.800000
839.862183	189.300000
839.896423	193.100000
839.930725	200.800000
839.964966	200.500000
839.999207	196.000000
840.033508	198.300000
840.067688	187.000000
840.101990	198.600000
840.136230	189.800000
840.170471	197.800000
840.204712	187.000000
840.238953	187.600000
840.273193	192.100000
840.307434	194.500000
840.341736	188.700000
840.375916	186.600000
840.410217	188.400000
840.444397	195.400000
840.478638	192.300000
840.512878	196.400000
840.547119	191.800000
840.581360	194.400000
840.615601	198.500000
840.649780	200.700000
840.684021	190.900000
840.718262	197.800000
840.752441	199.400000
840.786682	193.100000
840.820862	192.800000
840.855103	198.300000
840.889343	192.500000
840.923584	194.400000
840.957764	193.900000
840.992004	192.100000
841.026184	203.500000
841.060425	191.000000
841.094666	190.300000
841.128845	193.600000
841.163025	194.300000
841.197266	193.200000
841.231445	192.800000
841.265686	193.200000
841.299866	189.500000
841.334045	196.700000
841.368286	192.600000
841.402405	196.600000
841.436646	194.700000
841.470825	189.800000
841.505005	191.400000
841.539185	188.700000
841.573425	189.600000
841.607544	192.100000
841.641785	193.500000
841.675964	188.600000
841.710144	192.400000
841.744324	188.600000
841.778503	190.900000
841.812683	187.700000
841.846863	196.800000
841.881042	197.400000
841.915222	190.500000
841.949402	202.800000
841.983521	184.700000
842.017700	190.400000
842.051880	190.900000
842.086060	194.100000
842.120239	191.700000
842.154419	189.300000
842.188538	192.800000
842.222717	189.400000
842.256897	198.100000
842.291016	192.200000
842.325195	193.600000
842.359375	201.700000
842.393494	198.200000
842.427673	192.700000
842.461853	193.200000
842.495911	200.000000
842.530090	193.600000
842.564209	190.400000
842.598389	192.700000
842.632568	193.300000
842.666626	193.600000
842.700806	190.700000
842.734985	189.000000
842.769043	195.500000
842.803223	189.600000
842.837402	191.600000
842.871460	189.600000
842.905640	200.300000
842.939697	188.500000
842.973877	193.700000
843.007996	196.800000
843.042175	201.000000
843.076233	189.100000
843.110413	194.400000
843.144470	198.500000
843.178589	196.400000
843.212769	189.500000
843.246826	195.900000
843.280945	190.500000
843.315125	191.000000
843.349182	189.100000
843.383301	195.400000
843.417419	203.000000
843.451538	193.000000
843.485657	190.700000
843.519714	191.800000
843.553833	193.500000
843.587952	191.500000
843.622070	190.500000
843.656128	193.900000
843.690247	189.600000
843.724304	191.600000
843.758423	194.800000
843.792542	190.500000
843.826599	193.200000
843.860718	190.200000
843.894836	186.500000
843.928894	192.500000
843.963013	193.100000
843.997070	189.000000
844.031128	188.300000
844.065247	195.100000
844.099304	195.900000
844.133362	194.300000
844.167480	194.400000
844.201599	196.500000
844.235596	194.100000
844.269714	193.400000
844.303711	193.700000
844.337830	185.000000
844.371948	194.400000
844.405945	191.900000
844.440063	189.200000
844.474121	202.200000
844.508118	191.400000
844.542236	192.200000
844.576294	192.000000
844.610352	186.800000
844.644409	191.500000
844.678406	186.600000
844.712524	196.100000
844.746582	196.400000
844.780640	191.500000
844.814636	193.300000
844.848755	201.400000
844.882751	191.000000
844.916809	194.900000
844.950867	195.000000
844.984863	197.900000
845.018921	191.100000
845.052979	190.100000
845.086975	194.100000
845.121033	188.000000
845.155090	190.600000
845.189087	195.700000
845.223145	190.800000
845.257141	194.400000
845.291199	195.800000
845.325256	196.100000
845.359253	195.300000
845.393250	202.500000
845.427307	192.400000
845.461304	193.000000
845.495361	193.000000
845.529358	199.400000
845.563354	192.000000
845.597412	188.000000
845.631409	200.000000
845.665405	198.900000
845.699463	196.500000
845.733459	190.800000
845.767456	201.600000
845.801453	190.600000
845.835449	196.400000
845.869446	195.600000
845.903503	195.400000
845.937439	189.100000
845.971497	198.300000
846.005493	188.100000
846.039429	196.500000
846.073486	200.900000
846.107483	191.800000
846.141418	190.800000
846.175476	192.900000
846.209473	197.500000
846.243408	189.900000
846.277405	193.800000
846.311401	190.500000
846.345337	193.100000
846.379395	196.500000
846.413330	189.900000
846.447327	200.500000
846.481323	191.500000
846.515259	190.700000
846.549255	192.000000
846.583252	194.500000
846.617187	191.100000
846.651184	192.200000
846.685120	192.300000
846.719055	199.700000
846.753052	195.500000
846.786987	195.300000
846.820984	188.800000
846.854980	198.000000
846.888916	190.700000
846.922852	193.600000
846.956848	198.200000
846.990723	190.000000
847.024719	194.000000
847.058716	189.700000
847.092590	197.700000
847.126587	192.900000
847.160522	190.300000
847.194458	195.400000
847.228455	189.400000
847.262390	187.300000
847.296265	191.400000
847.330261	196.100000
847.364136	189.900000
847.398132	190.600000
847.432068	192.900000
847.466003	190.300000
847.499939	190.700000
847.533875	194.800000
847.567749	191.300000
847.601746	191.400000
847.635681	195.800000
847.669556	185.400000
847.703491	197.900000
847.737427	203.600000
847.771301	187.400000
847.805237	195.200000
847.839233	194.100000
847.873108	191.700000
847.907043	191.000000
847.940918	199.500000
847.974854	194.700000
848.008789	196.600000
848.042664	192.100000
848.076538	196.000000
848.110474	192.700000
848.144348	193.600000
848.178284	186.600000
848.212219	193.700000
848.246094	189.600000
848.279968	194.400000
848.313904	194.300000
848.347778	194.000000
848.381653	190.300000
848.415588	190.900000
848.449463	189.200000
848.483337	195.800000
848.517212	198.500000
848.551086	192.900000
848.585022	189.100000
848.618835	201.500000
848.652771	190.000000
848.686646	189.700000
848.720520	198.900000
848.754395	191.600000
848.788330	196.000000
848.822144	195.900000
848.856018	190.600000
848.889954	200.600000
848.923767	189.700000
848.957642	189.100000
848.991577	194.000000
849.025391	193.000000
849.059265	191.900000
849.093079	188.600000
849.126953	188.500000
849.160828	197.400000
849.194641	193.700000
849.228577	190.800000
849.262451	191.700000
849.296265	191.400000
849.330139	190.300000
849.364014	193.600000
849.397827	194.900000
849.431702	193.400000
849.465515	197.700000
849.499329	185.700000
849.533203	188.600000
849.567078	185.300000
849.600891	195.500000
849.634766	190.900000
849.668518	196.300000
849.702393	191.700000
849.736267	188.500000
849.770020	200.800000
849.803894	195.300000
849.837769	193.400000
849.871521	192.500000
849.905396	195.000000
849.939270	190.000000
849.973022	190.700000
850.006897	195.600000
850.040710	194.400000
850.074524	196.100000
850.108337	189.900000
850.142151	196.700000
850.175964	197.700000
850.209778	192.300000
850.243530	183.600000
850.277405	196.000000
850.311218	191.900000
850.344971	190.400000
850.378845	200.100000
850.412659	190.500000
850.446411	195.100000
850.480225	193.000000
850.514038	195.500000
850.547791	195.800000
850.581665	192.800000
850.615417	189.200000
850.649231	195.200000
850.683044	190.200000
850.716858	192.300000
850.750610	192.900000
850.784424	196.200000
850.818176	188.100000
850.851929	192.100000
850.885742	188.700000
850.919495	192.000000
850.953308	199.100000
850.987122	198.800000
851.020874	187.800000
851.054626	187.100000
851.088440	194.100000
851.122192	196.300000
851.156006	193.400000
851.189697	194.000000
851.223511	187.000000
851.257263	197.300000
851.291077	193.000000
851.324829	192.500000
851.358582	190.900000
851.392334	192.000000
851.426086	190.600000
851.459900	199.700000
851.493591	191.600000
851.527344	193.200000
851.561157	192.900000
851.594849	194.900000
851.628662	193.500000
851.662415	200.200000
851.696106	193.600000
851.729858	195.900000
851.763611	188.000000
851.797363	192.600000
851.831116	190.600000
851.864868	193.900000
851.898560	196.100000
851.932312	190.300000
851.966064	194.800000
851.999817	192.300000
852.033569	191.300000
852.067261	197.200000
852.101013	189.600000
852.134766	191.100000
852.168457	186.500000
852.202209	196.800000
852.235901	189.300000
852.269592	193.300000
852.303345	200.200000
852.337036	196.000000
852.370789	194.000000
852.404541	195.600000
852.438171	190.700000
852.471924	192.800000
852.505676	189.000000
852.539307	194.400000
852.573059	191.700000
852.606812	190.700000
852.640442	192.100000
852.674194	196.900000
852.707886	201.000000
852.741577	198.200000
852.775269	189.700000
852.809021	193.400000
852.842651	195.700000
852.876404	197.200000
852.910034	193.400000
852.943787	197.300000
852.977478	194.100000
853.011108	189.100000
853.044861	190.000000
853.078552	198.600000
853.112183	194.100000
853.145874	193.200000
853.179626	186.500000
853.213257	193.700000
853.246948	190.200000
853.280640	200.700000
853.314270	192.200000
853.347961	197.900000
853.381653	195.600000
853.415283	199.600000
853.448975	188.700000
853.482605	194.000000
853.516296	192.200000
853.549988	189.600000
853.583618	191.900000
853.617310	194.600000
853.651001	194.100000
853.684631	190.700000
853.718323	189.500000
853.751953	199.800000
853.785583	185.700000
853.819275	195.500000
853.852966	194.600000
853.886536	186.500000
853.920227	187.700000
853.953918	196.900000
853.987488	190.600000
854.021179	195.600000
854.054749	198.900000
854.088440	195.300000
854.122131	187.400000
854.155701	194.700000
854.189331	189.300000
854.223022	195.300000
854.256592	194.600000
854.290283	189.500000
854.323914	194.400000
854.357483	193.400000
854.391174	194.400000
854.424744	199.200000
854.458374	193.700000
854.492065	203.000000
854.525696	194.200000
854.559265	196.700000
854.592896	203.400000
854.626465	192.600000
854.660095	191.600000
854.693787	195.400000
854.727356	191.900000
854.760986	195.900000
854.794617	195.000000
854.828186	192.400000
854.861816	196.200000
854.895447	193.900000
854.929016	193.500000
854.962585	194.400000
854.996155	200.400000
855.029785	192.600000
855.063416	194.900000
855.097046	194.700000
855.130615	189.300000
855.164185	195.800000
855.197754	194.000000
855.231384	194.700000
855.264954	193.300000
855.298523	194.800000
855.332153	194.400000
855.365723	198.700000
855.399292	191.900000
855.432922	192.100000
855.466492	194.900000
855.500061	189.400000
855.533630	190.800000
855.567200	194.800000
855.600769	197.400000
855.634338	196.400000
855.667969	194.200000
855.701477	189.800000
855.735046	190.400000
855.768616	185.600000
855.802185	193.300000
855.835754	204.500000
855.869324	186.500000
855.902893	193.600000
855.936401	198.100000
855.969971	193.700000
856.003540	188.900000
856.037109	195.000000
856.070618	191.400000
856.104187	189.100000
856.137695	190.500000
856.171265	185.700000
856.204834	194.100000
856.238403	198.100000
856.271912	190.200000
856.305481	197.200000
856.338989	187.600000
856.372559	196.900000
856.406128	193.900000
856.439636	197.000000
856.473145	191.300000
856.506653	200.300000
856.540222	193.200000
856.573792	198.500000
856.607300	196.100000
856.640808	189.700000
856.674377	191.700000
856.707825	227.300000
856.741394	196.500000
856.774902	189.800000
856.808472	185.300000
856.841980	195.800000
856.875488	197.900000
856.908936	188.300000
856.942505	192.100000
856.976013	192.200000
857.009521	189.200000
857.043030	192.200000
857.076477	191.400000
857.110046	198.300000
857.143555	193.400000
857.177063	194.800000
857.210571	191.700000
857.244080	188.900000
857.277527	195.000000
857.311035	192.600000
857.344543	196.900000
857.378052	191.200000
857.411499	199.300000
857.445068	200.500000
857.478516	192.700000
857.512024	188.000000
857.545532	191.800000
857.578979	193.600000
857.612427	194.200000
857.645874	189.500000
857.679382	195.800000
857.712891	196.800000
857.746399	193.700000
857.779846	195.900000
857.813354	199.000000
857.846741	192.200000
857.880249	189.800000
857.913757	194.200000
857.947266	194.500000
857.980652	195.700000
858.014160	191.900000
858.047546	191.000000
858.081055	192.000000
858.114563	202.600000
858.147949	188.100000
858.181458	194.100000
858.214844	192.200000
858.248352	185.700000
858.281799	195.700000
858.315308	201.700000
858.348694	195.800000
858.382141	200.000000
858.415588	195.300000
858.449036	196.100000
858.482483	194.900000
858.515930	191.600000
858.549377	192.600000
858.582825	196.800000
858.616211	195.500000
858.649658	196.100000
858.683105	188.600000
858.716553	190.300000
858.750000	188.000000
858.783386	191.700000
858.816833	187.800000
858.850281	195.500000
858.883728	192.200000
858.917114	194.500000
858.950562	199.000000
858.983948	200.300000
859.017395	196.400000
859.050781	191.400000
859.084167	189.600000
859.117615	190.200000
859.151062	194.200000
859.184448	189.500000
859.217834	190.500000
859.251282	191.900000
859.284668	188.500000
859.318054	186.600000
859.351440	190.800000
859.384888	200.100000
859.418274	185.900000
859.451721	188.100000
859.485046	192.900000
859.518494	194.400000
859.551819	189.700000
859.585266	195.600000
859.618652	196.000000
859.652039	187.800000
859.685425	187.100000
859.718811	187.700000
859.752197	183.400000
859.785583	196.900000
859.819031	197.600000
859.852356	195.400000
859.885742	190.100000
859.919067	192.300000
859.952454	191.300000
859.985901	196.100000
860.019287	191.900000
860.052612	0.000000
860.085999	0.000000
860.119324	0.000000
860.152710	0.000000
860.186096	0.000000
860.219421	0.000000
860.252808	0.000000
860.286133	0.000000
860.319519	0.000000
860.352905	0.000000
860.386292	0.000000
860.419617	0.000000
860.452942	0.000000
860.486267	0.000000
860.519653	0.000000
860.553040	0.000000
860.586365	0.000000
860.619690	0.000000
860.653076	0.000000
860.686340	0.000000
860.719727	0.000000
860.753113	0.000000
860.786377	0.000000
860.819763	0.000000
860.853027	0.000000
860.886414	0.000000
860.919739	0.000000
860.953125	0.000000
860.986389	0.000000
861.019714	0.000000
861.053040	0.000000
861.086365	0.000000
861.119690	0.000000
861.153076	0.000000
861.186340	0.000000
861.219666	0.000000
861.252930	0.000000
861.286316	0.000000
861.319641	0.000000
861.352905	0.000000
861.386230	0.000000
861.419495	0.000000
861.452820	0.000000
861.486145	0.000000
861.519470	0.000000
861.552734	0.000000
861.586060	0.000000
861.619324	0.000000
861.652649	0.000000
861.685974	0.000000
861.719238	0.000000
861.752563	0.000000
861.785828	0.000000
861.819092	0.000000
861.852417	0.000000
861.885742	0.000000
861.918945	0.000000
861.952271	0.000000
861.985535	0.000000
862.018799	0.000000
862.052124	0.000000
862.085449	0.000000
862.118652	0.000000
862.151978	0.000000
862.185181	0.000000
862.218506	0.000000
862.251770	0.000000
862.285034	0.000000
862.318298	0.000000
862.351562	0.000000
862.384827	0.000000
862.418091	0.000000
862.451355	0.000000
862.484619	0.000000
862.517883	0.000000
862.551086	0.000000
862.584351	0.000000
862.617676	0.000000
862.650940	0.000000
862.684143	0.000000
862.717407	0.000000
862.750610	0.000000
862.783875	0.000000
862.817139	0.000000
862.850342	0.000000
862.883606	0.000000
862.916870	0.000000
862.950073	0.000000
862.983337	0.000000
863.016602	0.000000
863.049805	0.000000
863.083069	0.000000
863.116211	0.000000
863.149475	0.000000
863.182739	0.000000
863.216003	0.000000
863.249146	0.000000
863.282410	0.000000
863.315613	0.000000
863.348816	0.000000
863.382080	0.000000
863.415222	0.000000
863.448486	0.000000
863.481689	0.000000
863.514893	0.000000
863.548157	0.000000
863.581360	0.000000
863.614502	0.000000
863.647766	0.000000
863.680908	0.000000
863.714172	0.000000
863.747375	0.000000
863.780579	0.000000
863.813721	0.000000
863.846985	0.000000
863.880127	0.000000
863.913330	0.000000
863.946533	0.000000
863.979675	0.000000
864.012939	0.000000
