Model Number: SPM-001-M   
Serial Number: 10090201
Firmware Version: 004.17.6
Exposure Time: 300000.000000us
Data Taken on: 21-01-2021 14:21:26.881
Wavelength	Amplitude
733.770752	0.000000
733.808716	0.000000
733.846619	0.000000
733.884583	0.000000
733.922546	0.000000
733.960449	0.000000
733.998413	0.000000
734.036377	0.000000
734.074219	0.000000
734.112183	0.000000
734.150085	0.000000
734.188049	0.000000
734.226013	0.000000
734.263916	0.000000
734.301819	0.000000
734.339783	0.000000
734.377686	0.000000
734.415588	0.000000
734.453552	0.000000
734.491455	0.000000
734.529419	0.000000
734.567322	0.000000
734.605225	0.000000
734.643127	0.000000
734.681091	0.000000
734.718994	0.000000
734.756897	0.000000
734.794800	0.000000
734.832703	0.000000
734.870667	0.000000
734.908508	0.000000
734.946472	0.000000
734.984375	0.000000
735.022278	0.000000
735.060181	0.000000
735.098083	0.000000
735.135986	0.000000
735.173889	0.000000
735.211792	0.000000
735.249695	0.000000
735.287598	0.000000
735.325439	0.000000
735.363403	0.000000
735.401306	0.000000
735.439148	0.000000
735.477051	0.000000
735.515015	0.000000
735.552856	0.000000
735.590759	0.000000
735.628662	0.000000
735.666504	0.000000
735.704407	0.000000
735.742310	0.000000
735.780212	0.000000
735.818115	0.000000
735.856018	0.000000
735.893860	0.000000
735.931763	0.000000
735.969604	0.000000
736.007507	0.000000
736.045410	0.000000
736.083252	0.000000
736.121094	0.000000
736.158997	0.000000
736.196838	0.000000
736.234741	0.000000
736.272644	0.000000
736.310486	0.000000
736.348389	0.000000
736.386230	0.000000
736.424072	0.000000
736.461975	0.000000
736.499878	0.000000
736.537720	0.000000
736.575562	0.000000
736.613403	0.000000
736.651306	0.000000
736.689148	0.000000
736.726990	0.000000
736.764893	0.000000
736.802734	0.000000
736.840576	0.000000
736.878418	0.000000
736.916321	0.000000
736.954102	0.000000
736.992004	0.000000
737.029846	0.000000
737.067688	0.000000
737.105530	0.000000
737.143372	0.000000
737.181213	0.000000
737.219116	0.000000
737.256897	0.000000
737.294739	0.000000
737.332642	0.000000
737.370422	0.000000
737.408325	0.000000
737.446167	0.000000
737.483948	0.000000
737.521790	0.000000
737.559692	0.000000
737.597473	0.000000
737.635315	0.000000
737.673157	0.000000
737.710999	0.000000
737.748840	0.000000
737.786621	0.000000
737.824463	0.000000
737.862305	0.000000
737.900085	0.000000
737.937927	0.000000
737.975769	0.000000
738.013550	0.000000
738.051392	0.000000
738.089233	0.000000
738.127014	0.000000
738.164856	0.000000
738.202698	0.000000
738.240479	0.000000
738.278320	0.000000
738.316162	0.000000
738.353943	0.000000
738.391785	0.000000
738.429565	0.000000
738.467407	0.000000
738.505188	0.000000
738.542969	0.000000
738.580811	0.000000
738.618652	0.000000
738.656372	0.000000
738.694214	0.000000
738.732056	0.000000
738.769836	0.000000
738.807617	0.000000
738.845459	0.000000
738.883240	0.000000
738.921021	0.000000
738.958862	0.000000
738.996582	0.000000
739.034424	0.000000
739.072205	0.000000
739.109985	0.000000
739.147827	0.000000
739.185547	0.000000
739.223389	0.000000
739.261169	0.000000
739.298889	0.000000
739.336731	0.000000
739.374512	0.000000
739.412292	0.000000
739.450073	0.000000
739.487854	0.000000
739.525635	0.000000
739.563416	0.000000
739.601135	0.000000
739.638977	0.000000
739.676758	0.000000
739.714478	0.000000
739.752258	0.000000
739.790100	0.000000
739.827820	0.000000
739.865601	0.000000
739.903381	0.000000
739.941101	0.000000
739.978882	194.300000
740.016724	190.900000
740.054443	194.600000
740.092224	189.800000
740.130005	189.200000
740.167725	188.100000
740.205505	188.900000
740.243225	197.000000
740.281006	192.700000
740.318787	187.700000
740.356506	196.700000
740.394287	195.200000
740.432068	189.400000
740.469727	187.500000
740.507507	194.100000
740.545288	191.900000
740.583008	193.900000
740.620789	191.800000
740.658569	187.600000
740.696228	192.900000
740.734009	195.200000
740.771790	182.800000
740.809509	195.700000
740.847229	188.100000
740.884949	190.400000
740.922729	186.700000
740.960449	190.200000
740.998169	188.800000
741.035950	189.100000
741.073669	192.100000
741.111389	192.700000
741.149170	200.400000
741.186890	198.700000
741.224609	193.600000
741.262329	192.900000
741.300110	198.300000
741.337769	188.700000
741.375549	187.900000
741.413208	192.400000
741.450989	189.400000
741.488708	189.600000
741.526367	189.500000
741.564148	195.300000
741.601868	194.900000
741.639526	190.800000
741.677307	193.900000
741.715027	195.000000
741.752686	188.900000
741.790466	197.400000
741.828186	193.700000
741.865845	187.500000
741.903564	186.700000
741.941345	191.300000
741.979004	187.900000
742.016724	195.600000
742.054382	191.700000
742.092102	196.000000
742.129822	187.000000
742.167480	190.400000
742.205200	190.700000
742.242920	193.000000
742.280640	196.900000
742.318359	189.600000
742.356079	190.700000
742.393738	194.900000
742.431396	190.800000
742.469116	195.100000
742.506775	185.700000
742.544495	193.500000
742.582214	194.900000
742.619873	191.400000
742.657593	197.600000
742.695251	195.600000
742.732971	190.900000
742.770630	193.400000
742.808289	193.100000
742.846008	191.400000
742.883728	192.000000
742.921326	191.800000
742.959045	190.600000
742.996765	192.400000
743.034424	191.600000
743.072083	190.700000
743.109802	191.700000
743.147400	187.400000
743.185120	190.700000
743.222839	190.800000
743.260437	197.400000
743.298157	192.700000
743.335754	184.800000
743.373474	192.100000
743.411133	186.200000
743.448792	192.000000
743.486450	192.400000
743.524170	185.500000
743.561768	190.300000
743.599487	196.000000
743.637146	200.600000
743.674744	191.300000
743.712463	189.700000
743.750122	192.500000
743.787720	192.800000
743.825439	189.900000
743.863037	190.100000
743.900696	191.000000
743.938416	217.600000
743.976013	192.700000
744.013672	198.100000
744.051331	195.500000
744.088928	198.300000
744.126587	196.500000
744.164307	194.000000
744.201904	189.000000
744.239563	193.400000
744.277222	194.700000
744.314819	191.800000
744.352478	195.800000
744.390137	192.600000
744.427734	195.700000
744.465393	189.600000
744.502991	189.100000
744.540649	194.400000
744.578308	191.700000
744.615906	188.800000
744.653564	184.700000
744.691223	194.500000
744.728821	187.500000
744.766418	192.100000
744.804077	193.300000
744.841675	190.900000
744.879333	188.500000
744.916992	191.100000
744.954529	191.300000
744.992187	195.800000
745.029785	191.800000
745.067444	190.000000
745.105042	192.000000
745.142639	193.500000
745.180298	199.800000
745.217896	191.200000
745.255493	190.100000
745.293152	194.300000
745.330750	196.600000
745.368347	198.300000
745.405945	195.500000
745.443604	192.100000
745.481140	195.700000
745.518799	192.000000
745.556396	195.000000
745.593994	194.000000
745.631592	193.800000
745.669189	188.200000
745.706787	192.800000
745.744385	189.800000
745.781982	194.600000
745.819580	190.000000
745.857178	192.400000
745.894775	192.300000
745.932373	192.500000
745.969971	193.400000
746.007568	185.300000
746.045166	197.300000
746.082764	196.700000
746.120300	195.200000
746.157898	193.900000
746.195557	192.600000
746.233093	186.500000
746.270691	194.000000
746.308228	194.800000
746.345825	196.100000
746.383423	194.500000
746.420959	188.800000
746.458557	189.800000
746.496155	188.600000
746.533691	192.600000
746.571289	187.400000
746.608887	191.800000
746.646423	193.200000
746.684021	192.500000
746.721619	190.000000
746.759155	195.100000
746.796753	187.900000
746.834351	189.100000
746.871826	189.300000
746.909424	197.300000
746.946960	191.600000
746.984558	191.800000
747.022156	190.900000
747.059631	199.800000
747.097229	195.100000
747.134827	191.700000
747.172363	196.800000
747.209900	195.100000
747.247498	187.500000
747.285034	196.500000
747.322571	197.100000
747.360168	191.800000
747.397644	186.800000
747.435242	195.300000
747.472778	196.800000
747.510315	189.500000
747.547913	191.300000
747.585388	197.700000
747.622925	191.500000
747.660522	187.100000
747.697998	190.500000
747.735596	190.200000
747.773132	190.100000
747.810669	190.200000
747.848206	194.800000
747.885742	188.300000
747.923279	187.700000
747.960815	192.600000
747.998352	193.600000
748.035889	196.700000
748.073425	194.600000
748.110901	190.500000
748.148437	187.600000
748.185974	190.700000
748.223511	199.500000
748.261047	191.800000
748.298584	192.100000
748.336060	192.400000
748.373596	193.000000
748.411133	217.700000
748.448608	190.000000
748.486145	195.200000
748.523682	197.200000
748.561218	199.300000
748.598755	193.300000
748.636292	194.000000
748.673706	190.400000
748.711243	198.300000
748.748718	192.600000
748.786255	191.500000
748.823792	192.400000
748.861267	188.800000
748.898804	195.200000
748.936340	194.300000
748.973816	189.200000
749.011292	197.500000
749.048828	194.600000
749.086304	193.900000
749.123840	200.400000
749.161316	189.800000
749.198792	198.800000
749.236328	196.500000
749.273743	191.100000
749.311279	191.700000
749.348816	195.100000
749.386230	192.300000
749.423767	182.600000
749.461304	194.400000
749.498718	191.900000
749.536255	195.800000
749.573730	201.500000
749.611206	197.800000
749.648682	191.400000
749.686218	192.800000
749.723633	194.800000
749.761169	190.800000
749.798645	189.600000
749.836060	191.400000
749.873596	189.400000
749.911011	194.100000
749.948547	197.900000
749.986023	192.800000
750.023437	191.000000
750.060913	187.800000
750.098450	187.100000
750.135864	192.500000
750.173340	191.900000
750.210815	195.300000
750.248291	187.900000
750.285767	192.700000
750.323242	195.800000
750.360657	195.900000
750.398132	187.700000
750.435608	194.300000
750.473022	188.500000
750.510498	189.800000
750.547974	188.500000
750.585449	191.600000
750.622925	184.800000
750.660339	200.100000
750.697815	192.900000
750.735291	191.900000
750.772644	191.700000
750.810120	194.200000
750.847595	192.900000
750.885010	187.700000
750.922485	198.500000
750.959961	191.000000
750.997375	197.300000
751.034851	195.200000
751.072266	195.000000
751.109680	186.900000
751.147156	197.500000
751.184570	194.000000
751.221985	192.300000
751.259460	186.600000
751.296875	192.400000
751.334290	191.100000
751.371765	194.400000
751.409180	193.800000
751.446594	198.800000
751.484070	194.000000
751.521423	194.100000
751.558899	193.700000
751.596375	200.400000
751.633728	197.500000
751.671204	201.100000
751.708618	187.900000
751.746033	193.900000
751.783447	187.700000
751.820801	190.400000
751.858276	194.200000
751.895691	191.400000
751.933105	190.600000
751.970520	187.400000
752.007935	190.700000
752.045349	196.900000
752.082764	193.100000
752.120178	189.100000
752.157532	191.300000
752.195007	190.500000
752.232422	193.900000
752.269775	194.000000
752.307190	194.000000
752.344543	188.100000
752.382019	192.100000
752.419434	190.100000
752.456787	194.600000
752.494202	196.000000
752.531616	194.000000
752.568970	195.000000
752.606384	194.800000
752.643799	193.800000
752.681152	197.600000
752.718567	195.100000
752.755981	186.800000
752.793335	194.300000
752.830750	188.200000
752.868164	196.300000
752.905518	188.600000
752.942932	194.800000
752.980225	189.500000
753.017639	195.200000
753.055054	194.800000
753.092407	193.900000
753.129822	195.800000
753.167175	199.700000
753.204529	192.300000
753.241943	188.600000
753.279358	189.900000
753.316650	194.300000
753.354065	193.300000
753.391479	197.300000
753.428772	198.800000
753.466187	194.300000
753.503479	188.400000
753.540894	192.200000
753.578308	188.200000
753.615601	190.100000
753.653015	192.500000
753.690369	190.900000
753.727722	189.600000
753.765076	187.100000
753.802490	187.000000
753.839783	186.200000
753.877136	190.900000
753.914551	202.400000
753.951843	189.100000
753.989258	195.900000
754.026611	191.400000
754.063904	192.900000
754.101257	189.300000
754.138611	186.700000
754.175964	192.700000
754.213318	200.700000
754.250610	186.000000
754.288025	191.700000
754.325378	189.100000
754.362671	196.200000
754.400024	192.400000
754.437378	200.500000
754.474670	198.600000
754.512085	190.100000
754.549438	191.700000
754.586731	191.200000
754.624084	191.100000
754.661438	189.200000
754.698730	200.500000
754.736084	191.100000
754.773376	191.100000
754.810730	192.700000
754.848083	190.400000
754.885315	195.100000
754.922668	187.200000
754.960022	188.800000
754.997314	194.600000
755.034668	191.600000
755.072021	192.500000
755.109253	190.700000
755.146606	197.700000
755.183960	189.400000
755.221252	197.700000
755.258545	195.400000
755.295898	198.000000
755.333191	197.700000
755.370544	194.000000
755.407776	193.700000
755.445129	193.100000
755.482422	195.700000
755.519714	191.900000
755.557068	188.000000
755.594360	186.700000
755.631653	195.800000
755.668945	198.300000
755.706299	193.400000
755.743530	203.100000
755.780884	198.300000
755.818176	195.900000
755.855408	197.000000
755.892761	195.200000
755.930054	195.000000
755.967346	195.200000
756.004639	192.800000
756.041870	193.800000
756.079224	198.200000
756.116516	191.200000
756.153748	195.900000
756.191040	202.300000
756.228394	196.500000
756.265625	190.300000
756.302917	194.000000
756.340210	191.800000
756.377441	197.600000
756.414795	200.300000
756.452087	194.100000
756.489319	188.000000
756.526611	198.500000
756.563843	194.900000
756.601135	200.700000
756.638428	202.400000
756.675659	194.200000
756.712952	197.700000
756.750244	196.100000
756.787476	195.400000
756.824768	199.000000
756.862061	193.300000
756.899292	241.700000
756.936584	197.500000
756.973816	203.400000
757.011047	204.000000
757.048340	195.500000
757.085632	195.100000
757.122864	211.600000
757.160156	193.100000
757.197327	197.700000
757.234619	199.100000
757.271912	193.600000
757.309082	199.800000
757.346375	193.300000
757.383667	199.800000
757.420837	197.800000
757.458130	197.100000
757.495422	194.500000
757.532593	197.900000
757.569885	193.000000
757.607117	194.400000
757.644348	197.200000
757.681580	208.200000
757.718811	187.000000
757.756042	196.600000
757.793335	194.600000
757.830505	197.500000
757.867798	195.500000
757.905029	193.900000
757.942200	197.000000
757.979492	194.500000
758.016724	196.100000
758.053894	196.500000
758.091187	210.300000
758.128418	197.100000
758.165588	196.200000
758.202820	206.700000
758.240112	199.000000
758.277283	206.000000
758.314514	199.400000
758.351685	195.200000
758.388916	203.100000
758.426147	202.900000
758.463379	204.600000
758.500610	199.800000
758.537842	199.400000
758.575012	203.000000
758.612244	194.300000
758.649475	209.400000
758.686646	194.300000
758.723877	204.000000
758.761108	205.200000
758.798279	198.900000
758.835510	201.200000
758.872742	205.300000
758.909851	202.700000
758.947083	201.800000
758.984253	201.900000
759.021484	205.100000
759.058716	202.600000
759.095886	205.200000
759.133057	200.700000
759.170288	202.500000
759.207458	201.500000
759.244690	210.300000
759.281860	207.600000
759.319031	202.500000
759.356262	201.000000
759.393433	199.800000
759.430603	200.800000
759.467773	201.400000
759.505005	206.000000
759.542175	206.800000
759.579346	202.600000
759.616516	203.800000
759.653687	207.100000
759.690918	200.400000
759.728027	203.600000
759.765259	205.000000
759.802429	206.400000
759.839539	204.900000
759.876770	207.500000
759.913940	211.300000
759.951111	203.500000
759.988281	205.700000
760.025452	202.000000
760.062561	201.400000
760.099792	212.100000
760.136963	207.300000
760.174072	204.400000
760.211243	201.400000
760.248413	202.700000
760.285583	200.200000
760.322754	212.900000
760.359863	210.200000
760.397034	210.100000
760.434204	205.900000
760.471375	206.400000
760.508545	204.200000
760.545715	206.500000
760.582825	203.400000
760.619995	207.800000
760.657166	202.200000
760.694275	211.900000
760.731445	206.500000
760.768555	210.000000
760.805664	209.600000
760.842834	208.500000
760.879944	211.000000
760.917114	207.600000
760.954285	206.600000
760.991394	204.000000
761.028564	211.800000
761.065674	208.500000
761.102783	205.300000
761.139954	210.800000
761.177124	211.200000
761.214172	213.500000
761.251343	206.000000
761.288452	207.500000
761.325562	210.800000
761.362732	205.600000
761.399841	209.500000
761.436951	210.800000
761.474121	205.100000
761.511169	208.100000
761.548340	214.000000
761.585449	210.900000
761.622559	211.900000
761.659668	210.000000
761.696838	215.100000
761.733887	210.600000
761.771057	210.000000
761.808167	210.400000
761.845276	214.600000
761.882385	220.600000
761.919434	212.300000
761.956604	225.100000
761.993713	210.000000
762.030762	217.300000
762.067871	212.200000
762.105042	212.400000
762.142090	219.900000
762.179199	212.700000
762.216309	217.900000
762.253418	225.000000
762.290527	221.400000
762.327637	218.400000
762.364685	211.800000
762.401794	217.800000
762.438904	216.200000
762.475952	211.900000
762.513062	210.500000
762.550110	212.200000
762.587219	224.700000
762.624329	221.300000
762.661377	217.300000
762.698486	216.800000
762.735596	214.400000
762.772644	211.900000
762.809753	210.200000
762.846863	215.800000
762.883911	220.700000
762.921021	220.300000
762.958069	217.600000
762.995117	223.900000
763.032227	223.600000
763.069336	216.600000
763.106323	213.200000
763.143433	212.700000
763.180481	218.400000
763.217590	219.100000
763.254639	217.300000
763.291687	216.700000
763.328735	225.200000
763.365845	219.500000
763.402893	217.100000
763.439941	221.400000
763.477051	222.900000
763.514038	222.700000
763.551147	219.200000
763.588196	221.100000
763.625244	221.500000
763.662292	227.400000
763.699402	229.600000
763.736389	224.900000
763.773499	230.700000
763.810486	225.300000
763.847534	223.400000
763.884644	225.600000
763.921631	222.200000
763.958679	230.200000
763.995728	225.100000
764.032776	230.800000
764.069824	219.900000
764.106873	228.800000
764.143860	231.900000
764.180969	222.900000
764.218018	231.800000
764.255005	225.900000
764.292053	226.100000
764.329102	233.800000
764.366089	233.900000
764.403137	231.400000
764.440125	227.000000
764.477173	230.200000
764.514221	234.100000
764.551208	230.000000
764.588257	226.500000
764.625305	233.700000
764.662292	238.000000
764.699341	239.800000
764.736389	234.700000
764.773376	245.700000
764.810425	235.600000
764.847473	241.000000
764.884399	240.000000
764.921448	244.000000
764.958435	243.100000
764.995483	236.400000
765.032532	247.900000
765.069458	235.600000
765.106506	241.000000
765.143555	238.300000
765.180481	240.200000
765.217529	247.100000
765.254578	236.000000
765.291504	244.200000
765.328552	241.600000
765.365540	240.300000
765.402527	249.200000
765.439575	240.500000
765.476501	235.900000
765.513550	237.600000
765.550537	243.100000
765.587463	248.300000
765.624512	240.200000
765.661499	236.900000
765.698486	249.100000
765.735474	239.400000
765.772461	244.400000
765.809448	248.900000
765.846436	246.400000
765.883423	252.100000
765.920410	246.500000
765.957397	242.900000
765.994385	249.000000
766.031311	255.300000
766.068359	248.300000
766.105286	250.100000
766.142273	255.500000
766.179260	250.200000
766.216187	246.400000
766.253174	243.800000
766.290161	249.200000
766.327148	253.400000
766.364136	253.800000
766.401123	264.100000
766.438049	250.000000
766.475037	258.500000
766.512024	256.000000
766.548950	268.100000
766.585937	261.100000
766.622864	257.700000
766.659790	257.800000
766.696777	249.600000
766.733704	260.600000
766.770691	252.800000
766.807678	265.000000
766.844604	258.900000
766.881531	261.300000
766.918518	264.500000
766.955444	263.000000
766.992432	260.700000
767.029358	264.200000
767.066284	261.700000
767.103271	262.100000
767.140198	294.200000
767.177124	273.600000
767.214050	265.900000
767.251038	267.100000
767.287964	263.600000
767.324890	261.600000
767.361816	268.400000
767.398743	269.300000
767.435730	264.500000
767.472595	269.600000
767.509583	273.600000
767.546509	264.900000
767.583374	270.800000
767.620361	262.800000
767.657288	269.300000
767.694214	266.700000
767.731140	267.500000
767.768066	267.900000
767.804993	271.200000
767.841919	265.500000
767.878845	268.400000
767.915710	276.100000
767.952698	269.700000
767.989563	272.800000
768.026489	275.600000
768.063416	269.300000
768.100281	267.800000
768.137207	278.100000
768.174133	276.000000
768.211060	276.500000
768.247986	274.000000
768.284912	271.000000
768.321777	273.000000
768.358704	270.800000
768.395630	273.800000
768.432495	270.800000
768.469421	275.000000
768.506348	278.700000
768.543152	281.600000
768.580078	280.700000
768.616943	281.500000
768.653870	284.600000
768.690796	282.200000
768.727661	280.600000
768.764587	282.000000
768.801453	277.800000
768.838318	286.300000
768.875244	283.700000
768.912109	289.200000
768.948975	282.900000
768.985901	285.900000
769.022766	283.900000
769.059631	288.600000
769.096558	285.800000
769.133362	285.200000
769.170288	285.700000
769.207214	285.900000
769.244019	289.600000
769.280945	288.600000
769.317810	295.200000
769.354675	291.000000
769.391541	297.200000
769.428406	293.300000
769.465271	300.800000
769.502136	293.000000
769.539062	300.000000
769.575867	295.100000
769.612732	297.600000
769.649597	300.500000
769.686462	303.000000
769.723328	297.800000
769.760193	297.100000
769.797058	299.500000
769.833923	307.500000
769.870728	303.000000
769.907593	306.300000
769.944519	307.700000
769.981323	307.800000
770.018188	310.600000
770.055054	307.700000
770.091858	307.300000
770.128723	317.900000
770.165588	321.200000
770.202393	309.100000
770.239258	319.400000
770.276062	317.100000
770.312927	315.400000
770.349792	322.100000
770.386597	320.100000
770.423462	326.600000
770.460327	333.200000
770.497131	321.400000
770.533997	315.300000
770.570862	327.500000
770.607605	327.500000
770.644470	327.000000
770.681335	327.500000
770.718140	329.400000
770.754944	326.500000
770.791809	324.800000
770.828613	325.400000
770.865479	330.000000
770.902222	335.200000
770.939087	331.700000
770.975952	325.400000
771.012695	328.600000
771.049561	340.700000
771.086365	332.600000
771.123169	330.100000
771.159973	333.800000
771.196838	333.700000
771.233582	338.200000
771.270447	338.800000
771.307251	342.400000
771.344055	339.100000
771.380859	340.800000
771.417664	337.700000
771.454468	346.700000
771.491272	342.600000
771.528076	344.100000
771.564880	342.100000
771.601685	348.200000
771.638428	341.400000
771.675293	347.700000
771.712097	339.900000
771.748840	356.000000
771.785645	345.800000
771.822449	351.100000
771.859253	354.500000
771.896057	350.200000
771.932861	358.200000
771.969604	354.900000
772.006409	348.800000
772.043213	359.400000
772.079956	356.900000
772.116760	349.700000
772.153503	354.100000
772.190308	363.700000
772.227112	354.700000
772.263855	350.800000
772.300659	353.900000
772.337463	363.700000
772.374207	352.000000
772.411011	353.600000
772.447754	357.300000
772.484497	367.900000
772.521301	362.700000
772.558105	361.300000
772.594849	361.600000
772.631592	364.700000
772.668396	363.600000
772.705139	367.000000
772.741882	365.000000
772.778625	374.500000
772.815430	375.300000
772.852173	373.500000
772.888916	377.300000
772.925720	381.400000
772.962463	386.000000
772.999207	378.700000
773.035950	382.600000
773.072754	383.700000
773.109436	379.900000
773.146240	380.800000
773.182922	380.100000
773.219727	386.900000
773.256470	382.100000
773.293152	376.700000
773.329956	380.200000
773.366699	382.200000
773.403381	377.500000
773.440186	383.100000
773.476929	385.100000
773.513611	382.300000
773.550354	381.900000
773.587158	380.400000
773.623840	377.200000
773.660583	382.600000
773.697327	390.700000
773.734009	387.500000
773.770813	384.600000
773.807495	386.900000
773.844238	387.200000
773.880981	398.200000
773.917664	394.500000
773.954407	399.800000
773.991150	394.200000
774.027832	400.600000
774.064575	392.800000
774.101318	398.500000
774.138000	399.000000
774.174744	396.800000
774.211487	399.100000
774.248108	392.000000
774.284851	389.800000
774.321594	398.600000
774.358276	399.700000
774.395020	406.600000
774.431702	403.900000
774.468384	397.300000
774.505127	396.500000
774.541809	405.700000
774.578491	409.200000
774.615234	411.700000
774.651917	404.500000
774.688599	406.900000
774.725342	414.800000
774.762024	412.300000
774.798706	416.300000
774.835449	416.700000
774.872070	424.300000
774.908813	420.000000
774.945496	421.100000
774.982178	418.800000
775.018860	421.800000
775.055542	425.800000
775.092224	425.200000
775.128967	432.400000
775.165588	431.600000
775.202271	425.300000
775.239014	432.900000
775.275635	433.900000
775.312317	432.600000
775.349060	438.700000
775.385681	438.600000
775.422363	429.300000
775.459045	435.200000
775.495667	437.800000
775.532410	441.100000
775.569092	437.800000
775.605713	441.000000
775.642395	440.900000
775.679016	444.000000
775.715698	443.800000
775.752380	447.700000
775.789001	442.000000
775.825684	446.100000
775.862366	449.300000
775.898987	454.000000
775.935669	443.000000
775.972351	465.900000
776.008972	463.900000
776.045654	464.200000
776.082336	461.500000
776.118958	462.600000
776.155640	468.800000
776.192322	470.800000
776.228882	473.600000
776.265564	476.500000
776.302185	473.200000
776.338867	479.000000
776.375488	471.100000
776.412109	476.600000
776.448792	482.200000
776.485413	490.600000
776.522034	485.600000
776.558716	476.600000
776.595337	481.400000
776.631958	487.100000
776.668579	486.400000
776.705261	495.000000
776.741882	490.500000
776.778503	489.500000
776.815186	491.700000
776.851746	491.600000
776.888367	493.800000
776.924988	498.400000
776.961609	494.000000
776.998291	494.600000
777.034851	490.500000
777.071472	499.900000
777.108154	497.600000
777.144714	505.100000
777.181335	505.800000
777.218018	500.800000
777.254578	507.900000
777.291199	507.700000
777.327759	510.400000
777.364380	520.300000
777.401062	523.100000
777.437622	528.100000
777.474243	518.300000
777.510864	523.600000
777.547424	515.400000
777.584045	520.500000
777.620667	522.800000
777.657227	526.500000
777.693848	526.300000
777.730469	541.300000
777.767029	530.600000
777.803650	535.000000
777.840271	529.100000
777.876831	527.700000
777.913452	538.200000
777.950012	523.800000
777.986633	525.300000
778.023193	523.300000
778.059753	526.900000
778.096375	531.300000
778.132996	538.800000
778.169556	527.800000
778.206116	530.500000
778.242737	529.700000
778.279297	536.000000
778.315857	529.700000
778.352478	535.800000
778.389038	542.400000
778.425598	542.700000
778.462219	545.900000
778.498718	541.100000
778.535339	543.500000
778.571838	546.700000
778.608459	555.300000
778.645020	544.700000
778.681580	552.500000
778.718140	551.400000
778.754761	545.000000
778.791260	550.800000
778.827881	557.300000
778.864441	559.800000
778.900940	565.800000
778.937561	565.300000
778.974121	560.300000
779.010620	555.000000
779.047241	558.000000
779.083801	565.900000
779.120300	566.600000
779.156860	567.400000
779.193359	561.200000
779.229980	563.500000
779.266541	569.100000
779.303040	568.500000
779.339600	563.200000
779.376160	560.900000
779.412659	565.500000
779.449219	565.600000
779.485779	570.200000
779.522278	565.600000
779.558838	573.000000
779.595398	574.200000
779.631897	567.300000
779.668457	563.300000
779.705017	571.500000
779.741516	562.700000
779.778076	561.700000
779.814575	564.900000
779.851074	567.200000
779.887634	567.800000
779.924133	577.100000
779.960693	566.300000
779.997253	574.200000
780.033691	575.900000
780.070251	574.700000
780.106812	588.200000
780.143250	581.800000
780.179810	580.200000
780.216370	583.200000
780.252808	589.200000
780.289368	593.100000
780.325867	596.300000
780.362366	593.900000
780.398865	596.900000
780.435364	595.700000
780.471863	604.300000
780.508423	596.800000
780.544861	599.600000
780.581421	603.200000
780.617920	595.300000
780.654419	596.100000
780.690918	602.300000
780.727417	602.200000
780.763916	606.400000
780.800415	612.300000
780.836914	604.600000
780.873352	615.600000
780.909912	600.100000
780.946411	606.300000
780.982849	614.500000
781.019348	624.600000
781.055786	618.700000
781.092346	617.400000
781.128845	618.200000
781.165283	623.100000
781.201782	633.200000
781.238281	636.700000
781.274719	639.400000
781.311218	639.500000
781.347717	646.200000
781.384155	634.900000
781.420654	638.400000
781.457092	647.400000
781.493591	645.000000
781.530090	639.800000
781.566528	639.600000
781.602966	636.800000
781.639465	637.100000
781.675903	637.400000
781.712402	638.600000
781.748901	642.300000
781.785278	636.300000
781.821777	639.100000
781.858276	640.600000
781.894714	648.300000
781.931152	634.900000
781.967651	633.200000
782.004089	615.700000
782.040527	600.400000
782.076965	583.700000
782.113403	564.400000
782.149902	542.100000
782.186340	516.400000
782.222778	510.300000
782.259277	484.900000
782.295654	476.100000
782.332092	474.700000
782.368591	465.200000
782.404968	455.800000
782.441467	452.900000
782.477905	447.900000
782.514282	440.300000
782.550781	448.600000
782.587219	442.300000
782.623596	450.800000
782.660095	446.900000
782.696472	445.200000
782.732910	441.100000
782.769348	432.200000
782.805786	433.100000
782.842224	421.200000
782.878662	405.700000
782.915039	397.100000
782.951477	386.000000
782.987915	377.100000
783.024292	383.000000
783.060730	390.700000
783.097168	397.000000
783.133545	409.300000
783.169983	429.900000
783.206421	449.700000
783.242798	477.400000
783.279236	506.200000
783.315613	538.100000
783.352051	563.500000
783.388489	591.500000
783.424866	607.300000
783.461304	634.300000
783.497681	663.200000
783.534058	677.700000
783.570496	676.500000
783.606934	678.700000
783.643250	685.700000
783.679687	695.700000
783.716125	693.100000
783.752441	707.100000
783.788879	719.100000
783.825317	737.000000
783.861633	740.200000
783.898071	742.200000
783.934448	755.500000
783.970825	766.600000
784.007263	766.100000
784.043579	769.300000
784.080017	779.600000
784.116394	775.100000
784.152710	776.000000
784.189148	778.300000
784.225525	776.400000
784.261902	770.700000
784.298279	765.900000
784.334656	773.000000
784.371033	761.500000
784.407410	753.900000
784.443787	745.700000
784.480164	736.600000
784.516541	719.600000
784.552856	728.500000
784.589233	726.200000
784.625610	721.100000
784.661987	740.100000
784.698364	731.800000
784.734741	729.400000
784.771057	735.600000
784.807434	741.600000
784.843811	757.900000
784.880127	747.700000
784.916504	771.800000
784.952881	771.500000
784.989197	768.600000
785.025574	775.100000
785.061951	780.200000
785.098267	793.100000
785.134644	797.200000
785.170959	791.700000
785.207275	793.500000
785.243652	794.300000
785.279968	778.900000
785.316345	779.900000
785.352722	781.200000
785.388977	777.700000
785.425354	762.000000
785.461731	748.400000
785.498047	741.600000
785.534363	732.600000
785.570679	734.100000
785.606995	736.100000
785.643372	743.100000
785.679687	739.700000
785.716003	722.500000
785.752380	723.900000
785.788635	731.700000
785.825012	742.200000
785.861328	747.400000
785.897644	736.500000
785.933960	750.800000
785.970337	755.800000
786.006592	775.400000
786.042908	782.600000
786.079285	794.900000
786.115540	807.700000
786.151855	810.700000
786.188171	809.000000
786.224487	808.500000
786.260803	801.700000
786.297119	807.700000
786.333435	804.700000
786.369751	799.700000
786.406006	801.800000
786.442322	789.800000
786.478638	782.000000
786.514954	783.900000
786.551270	780.500000
786.587585	781.200000
786.623840	770.200000
786.660156	769.300000
786.696472	755.700000
786.732727	754.100000
786.769043	763.400000
786.805298	753.200000
786.841614	755.700000
786.877930	772.200000
786.914124	757.800000
786.950439	774.500000
786.986755	780.800000
787.023010	793.600000
787.059326	799.500000
787.095642	817.100000
787.131836	828.400000
787.168152	815.900000
787.204468	824.700000
787.240723	839.600000
787.276978	840.200000
787.313293	847.700000
787.349548	844.900000
787.385803	845.400000
787.422058	842.300000
787.458313	842.800000
787.494629	833.500000
787.530823	832.700000
787.567139	822.100000
787.603455	815.800000
787.639648	809.600000
787.675903	808.600000
787.712219	801.500000
787.748413	803.700000
787.784729	806.700000
787.820984	796.700000
787.857178	792.100000
787.893494	792.400000
787.929749	792.300000
787.965942	801.600000
788.002258	815.800000
788.038452	821.100000
788.074707	812.000000
788.110962	827.200000
788.147217	830.800000
788.183472	843.700000
788.219727	846.900000
788.255920	862.500000
788.292175	872.900000
788.328430	872.000000
788.364624	856.600000
788.400879	859.500000
788.437134	867.300000
788.473328	863.800000
788.509583	868.800000
788.545837	858.200000
788.582031	856.200000
788.618286	861.800000
788.654480	857.400000
788.690735	866.900000
788.726990	881.000000
788.763184	872.600000
788.799377	880.700000
788.835632	873.200000
788.871826	885.900000
788.908081	881.100000
788.944336	882.300000
788.980469	902.800000
789.016724	891.000000
789.052979	898.400000
789.089111	882.800000
789.125366	884.000000
789.161621	867.300000
789.197754	883.500000
789.234009	882.400000
789.270142	877.700000
789.306396	876.700000
789.342590	870.100000
789.378784	851.300000
789.414978	839.700000
789.451233	858.900000
789.487366	855.800000
789.523621	859.700000
789.559814	862.100000
789.595947	850.800000
789.632202	857.100000
789.668335	870.100000
789.704529	886.200000
789.740784	908.400000
789.776917	917.200000
789.813110	910.100000
789.849304	917.400000
789.885498	908.400000
789.921692	928.300000
789.957886	930.700000
789.994019	938.300000
790.030212	945.800000
790.066406	948.500000
790.102539	937.300000
790.138733	947.800000
790.174927	942.100000
790.211060	952.800000
790.247253	954.900000
790.283386	944.400000
790.319580	934.100000
790.355774	923.400000
790.391907	918.700000
790.428101	926.600000
790.464294	932.300000
790.500427	927.300000
790.536621	915.700000
790.572754	902.200000
790.608887	900.100000
790.645081	903.800000
790.681274	915.600000
790.717346	922.700000
790.753540	912.000000
790.789734	892.100000
790.825867	878.500000
790.862000	882.500000
790.898132	889.800000
790.934265	885.200000
790.970459	887.800000
791.006592	890.300000
791.042725	888.200000
791.078918	879.600000
791.114990	877.200000
791.151184	885.700000
791.187317	899.700000
791.223389	895.500000
791.259583	885.200000
791.295715	880.000000
791.331848	884.800000
791.367981	898.000000
791.404114	900.200000
791.440247	906.100000
791.476379	912.200000
791.512451	898.900000
791.548584	895.800000
791.584778	897.400000
791.620850	900.500000
791.656982	904.200000
791.693115	901.900000
791.729187	897.900000
791.765381	898.000000
791.801514	898.900000
791.837585	887.500000
791.873718	896.600000
791.909851	913.200000
791.945923	925.300000
791.982056	907.700000
792.018188	899.000000
792.054260	887.200000
792.090393	888.100000
792.126465	881.700000
792.162598	901.000000
792.198669	886.500000
792.234741	888.800000
792.270874	881.800000
792.307007	871.300000
792.343079	866.200000
792.379150	880.300000
792.415283	881.300000
792.451355	881.700000
792.487488	854.300000
792.523560	846.800000
792.559631	835.300000
792.595764	808.200000
792.631836	779.400000
792.667908	765.900000
792.703979	736.300000
792.740051	746.200000
792.776184	784.200000
792.812256	797.500000
792.848328	813.300000
792.884399	821.600000
792.920471	820.500000
792.956543	821.500000
792.992615	813.700000
793.028748	812.400000
793.064758	822.300000
793.100830	835.200000
793.136963	848.200000
793.172974	851.500000
793.209045	848.600000
793.245178	853.400000
793.281189	841.700000
793.317261	844.500000
793.353271	848.300000
793.389404	868.600000
793.425476	857.300000
793.461487	837.500000
793.497559	839.500000
793.533630	837.600000
793.569641	834.500000
793.605713	842.800000
793.641785	839.500000
793.677795	852.100000
793.713867	844.900000
793.749878	851.000000
793.785950	859.600000
793.822021	861.800000
793.858032	857.400000
793.894104	876.700000
793.930176	867.500000
793.966187	862.700000
794.002258	859.700000
794.038269	867.000000
794.074280	868.500000
794.110352	894.400000
794.146423	877.200000
794.182373	879.900000
794.218445	865.900000
794.254517	857.600000
794.290466	842.100000
794.326538	847.900000
794.362549	853.900000
794.398560	859.700000
794.434631	861.600000
794.470581	843.100000
794.506653	838.800000
794.542664	830.100000
794.578674	831.900000
794.614685	836.700000
794.650757	831.600000
794.686707	833.200000
794.722778	824.700000
794.758789	835.300000
794.794739	847.500000
794.830811	865.200000
794.866821	876.700000
794.902771	878.800000
794.938843	882.100000
794.974792	885.000000
795.010803	884.800000
795.046814	881.700000
795.082825	873.600000
795.118835	889.400000
795.154846	869.000000
795.190796	872.500000
795.226807	863.000000
795.262817	868.300000
795.298767	872.000000
795.334778	878.700000
795.370850	870.100000
795.406799	867.800000
795.442810	853.100000
795.478821	848.800000
795.514709	847.900000
795.550720	871.900000
795.586670	855.000000
795.622681	862.900000
795.658691	862.300000
795.694641	861.500000
795.730652	853.900000
795.766663	861.100000
795.802551	862.700000
795.838562	878.300000
795.874573	874.500000
795.910522	877.500000
795.946472	862.900000
795.982483	861.900000
796.018433	860.000000
796.054382	865.300000
796.090393	861.700000
796.126282	852.800000
796.162292	844.400000
796.198242	838.300000
796.234192	839.000000
796.270203	832.500000
796.306091	839.500000
796.342041	850.200000
796.378052	840.100000
796.413940	842.900000
796.449951	847.100000
796.485901	851.800000
796.521790	853.900000
796.557800	869.400000
796.593689	870.900000
796.629639	866.000000
796.665649	860.300000
796.701599	855.000000
796.737488	855.600000
796.773437	858.800000
796.809387	865.400000
796.845337	870.800000
796.881287	855.700000
796.917175	842.800000
796.953125	837.600000
796.989075	839.700000
797.024963	841.600000
797.060913	842.800000
797.096863	845.800000
797.132751	841.700000
797.168701	827.300000
797.204590	828.100000
797.240540	831.000000
797.276489	840.400000
797.312439	846.900000
797.348328	844.200000
797.384277	832.500000
797.420166	818.200000
797.456055	822.100000
797.492004	825.600000
797.527893	825.700000
797.563843	831.800000
797.599731	831.100000
797.635620	819.900000
797.671570	827.700000
797.707520	829.500000
797.743347	828.700000
797.779297	829.200000
797.815125	835.300000
797.851074	830.900000
797.887024	815.700000
797.922913	805.900000
797.958801	811.100000
797.994690	800.900000
798.030579	813.300000
798.066467	821.800000
798.102356	807.000000
798.138245	803.100000
798.174133	800.600000
798.210083	805.500000
798.245911	817.400000
798.281799	816.800000
798.317749	817.800000
798.353577	824.500000
798.389465	806.600000
798.425293	803.100000
798.461243	800.700000
798.497131	805.400000
798.532959	809.400000
798.568848	820.000000
798.604736	807.100000
798.640564	791.300000
798.676453	793.500000
798.712402	790.900000
798.748230	799.600000
798.784119	802.200000
798.820007	809.300000
798.855835	799.700000
798.891724	789.600000
798.927551	784.100000
798.963379	793.700000
798.999268	795.000000
799.035095	792.400000
799.070984	782.000000
799.106873	770.400000
799.142700	774.600000
799.178528	768.300000
799.214417	771.400000
799.250244	780.600000
799.286133	779.900000
799.321960	780.800000
799.357788	776.600000
799.393677	769.700000
799.429504	768.500000
799.465332	770.600000
799.501221	779.900000
799.537048	780.800000
799.572876	777.300000
799.608704	770.300000
799.644531	770.300000
799.680359	777.700000
799.716248	782.800000
799.752014	794.200000
799.787903	787.000000
799.823730	781.300000
799.859558	774.000000
799.895386	770.900000
799.931213	773.700000
799.967041	774.100000
800.002869	774.500000
800.038696	776.300000
800.074463	761.700000
800.110352	765.200000
800.146179	751.400000
800.181946	765.000000
800.217773	771.600000
800.253540	767.100000
800.289429	763.000000
800.325256	754.400000
800.361023	748.900000
800.396851	751.700000
800.432678	758.700000
800.468445	764.700000
800.504272	771.100000
800.540100	752.600000
800.575867	750.400000
800.611694	752.400000
800.647461	747.200000
800.683289	755.300000
800.719116	759.300000
800.754883	750.700000
800.790649	741.100000
800.826477	739.200000
800.862244	747.300000
800.898071	739.900000
800.933838	744.200000
800.969604	742.200000
801.005432	739.000000
801.041199	740.500000
801.076965	734.200000
801.112793	722.700000
801.148560	721.500000
801.184326	725.400000
801.220154	723.500000
801.255859	717.700000
801.291687	714.500000
801.327454	713.600000
801.363281	718.700000
801.398987	708.500000
801.434814	706.900000
801.470520	718.500000
801.506287	713.400000
801.542114	710.300000
801.577820	706.700000
801.613647	698.800000
801.649414	692.500000
801.685120	701.900000
801.720886	706.700000
801.756714	691.100000
801.792419	692.900000
801.828186	688.100000
801.863892	691.900000
801.899719	692.300000
801.935486	688.800000
801.971252	699.700000
802.006958	685.800000
802.042725	687.900000
802.078430	677.500000
802.114197	677.500000
802.149963	696.300000
802.185669	684.900000
802.221436	684.300000
802.257202	684.500000
802.292908	676.300000
802.328674	686.300000
802.364441	681.600000
802.400146	676.500000
802.435913	681.900000
802.471558	681.700000
802.507324	676.100000
802.543091	672.000000
802.578796	682.100000
802.614502	683.100000
802.650269	691.900000
802.685974	672.900000
802.721741	681.500000
802.757446	685.000000
802.793152	678.300000
802.828918	685.400000
802.864624	681.000000
802.900330	682.500000
802.936035	680.400000
802.971802	676.200000
803.007446	666.300000
803.043213	659.300000
803.078857	673.600000
803.114624	658.800000
803.150330	663.100000
803.185974	658.900000
803.221741	661.700000
803.257446	666.800000
803.293152	663.900000
803.328857	658.900000
803.364563	659.000000
803.400208	659.700000
803.435974	661.400000
803.471680	648.300000
803.507324	649.700000
803.543030	658.100000
803.578735	657.800000
803.614441	657.600000
803.650146	662.900000
803.685791	647.900000
803.721497	657.200000
803.757202	646.100000
803.792847	649.200000
803.828552	640.500000
803.864258	641.700000
803.899902	637.400000
803.935608	630.100000
803.971313	628.600000
804.006958	628.600000
804.042664	630.800000
804.078308	638.400000
804.113953	629.800000
804.149658	633.000000
804.185364	622.800000
804.221008	634.200000
804.256714	622.400000
804.292297	622.200000
804.328003	622.300000
804.363708	615.900000
804.399292	615.900000
804.434998	613.200000
804.470703	608.300000
804.506287	617.500000
804.541992	608.700000
804.577637	611.700000
804.613281	604.100000
804.648926	597.200000
804.684570	599.400000
804.720215	597.500000
804.755920	597.100000
804.791565	597.900000
804.827209	603.900000
804.862854	597.900000
804.898437	595.900000
804.934143	594.300000
804.969788	588.100000
805.005371	590.500000
805.041077	593.300000
805.076721	597.400000
805.112305	588.700000
805.147949	588.300000
805.183655	582.600000
805.219238	589.300000
805.254883	581.600000
805.290466	590.200000
805.326111	583.900000
805.361755	578.200000
805.397400	578.500000
805.432983	579.500000
805.468628	576.700000
805.504211	582.200000
805.539856	582.100000
805.575500	581.400000
805.611084	573.700000
805.646729	564.200000
805.682373	568.800000
805.717957	575.600000
805.753601	576.300000
805.789246	568.700000
805.824768	580.400000
805.860413	577.700000
805.895996	567.500000
805.931641	562.600000
805.967224	569.700000
806.002869	566.600000
806.038452	576.200000
806.074036	577.600000
806.109619	562.100000
806.145264	563.100000
806.180847	559.500000
806.216431	559.400000
806.252014	563.300000
806.287659	560.000000
806.323181	566.200000
806.358826	560.400000
806.394409	546.900000
806.429993	549.600000
806.465576	559.100000
806.501160	548.200000
806.536743	541.100000
806.572327	553.200000
806.607910	548.900000
806.643494	552.300000
806.679077	543.900000
806.714661	541.200000
806.750244	538.000000
806.785828	536.500000
806.821350	537.100000
806.856934	540.500000
806.892517	536.200000
806.928101	534.300000
806.963684	534.800000
806.999268	539.500000
807.034790	525.600000
807.070374	528.600000
807.105896	523.400000
807.141479	522.100000
807.177063	528.600000
807.212585	518.600000
807.248169	517.400000
807.283752	520.900000
807.319275	518.200000
807.354858	525.200000
807.390381	516.400000
807.425903	510.100000
807.461487	508.500000
807.497070	506.200000
807.532593	509.900000
807.568115	506.300000
807.603699	505.400000
807.639221	497.000000
807.674744	499.300000
807.710266	505.700000
807.745850	505.800000
807.781372	504.000000
807.816895	499.700000
807.852417	498.800000
807.888000	499.100000
807.923523	495.800000
807.959045	499.200000
807.994629	495.300000
808.030090	492.100000
808.065613	498.600000
808.101135	500.300000
808.136658	495.300000
808.172241	490.800000
808.207764	495.500000
808.243225	489.200000
808.278809	485.400000
808.314270	489.200000
808.349792	480.000000
808.385315	479.200000
808.420837	486.500000
808.456360	490.800000
808.491882	491.000000
808.527344	484.200000
808.562866	489.700000
808.598389	482.300000
808.633850	483.100000
808.669434	475.400000
808.704895	477.100000
808.740417	486.100000
808.775940	484.000000
808.811462	478.600000
808.846924	477.200000
808.882385	473.100000
808.917847	472.700000
808.953369	471.000000
808.988892	466.300000
809.024353	471.600000
809.059875	471.800000
809.095398	470.300000
809.130798	465.600000
809.166321	463.300000
809.201843	466.000000
809.237305	464.300000
809.272766	471.900000
809.308228	459.600000
809.343750	460.300000
809.379211	463.900000
809.414734	462.000000
809.450134	465.000000
809.485657	454.800000
809.521118	458.900000
809.556580	454.700000
809.592102	455.100000
809.627502	455.500000
809.663025	453.700000
809.698486	448.900000
809.733887	445.700000
809.769409	447.400000
809.804871	437.300000
809.840271	439.900000
809.875793	441.500000
809.911194	444.000000
809.946655	433.800000
809.982178	432.700000
810.017639	438.700000
810.053040	435.100000
810.088501	432.700000
810.123901	433.300000
810.159424	430.100000
810.194885	425.100000
810.230286	431.900000
810.265747	420.900000
810.301208	421.800000
810.336609	423.700000
810.372070	415.600000
810.407532	416.700000
810.442932	421.600000
810.478394	424.500000
810.513794	420.800000
810.549255	418.300000
810.584717	414.100000
810.620117	408.900000
810.655518	415.700000
810.690979	412.300000
810.726379	410.500000
810.761841	401.900000
810.797302	402.000000
810.832642	401.100000
810.868103	411.700000
810.903564	399.900000
810.938904	405.900000
810.974365	397.300000
811.009827	400.900000
811.045166	394.000000
811.080627	387.100000
811.115967	391.700000
811.151428	399.600000
811.186829	394.000000
811.222229	394.800000
811.257629	385.800000
811.293091	391.500000
811.328430	398.000000
811.363892	387.800000
811.399292	388.800000
811.434631	389.900000
811.470093	390.600000
811.505493	382.500000
811.540833	384.500000
811.576294	388.100000
811.611694	384.000000
811.647034	376.700000
811.682434	382.200000
811.717773	385.100000
811.753235	387.900000
811.788635	378.300000
811.823975	381.700000
811.859375	386.700000
811.894775	376.800000
811.930115	379.300000
811.965515	378.500000
812.000916	377.600000
812.036255	374.900000
812.071655	378.200000
812.106995	369.000000
812.142395	371.000000
812.177795	379.000000
812.213196	374.800000
812.248474	376.600000
812.283875	367.500000
812.319214	370.400000
812.354614	371.500000
812.390015	367.800000
812.425293	365.200000
812.460693	364.500000
812.496094	362.300000
812.531433	360.400000
812.566772	356.000000
812.602173	361.400000
812.637451	362.400000
812.672852	357.500000
812.708191	359.700000
812.743530	353.900000
812.778931	349.000000
812.814270	350.800000
812.849609	355.700000
812.884949	353.300000
812.920227	344.800000
812.955627	355.500000
812.990967	345.800000
813.026306	346.200000
813.061646	335.400000
813.096985	333.200000
813.132324	331.900000
813.167664	334.100000
813.203003	340.600000
813.238281	328.700000
813.273682	330.100000
813.308960	326.900000
813.344299	330.500000
813.379639	335.500000
813.414978	330.100000
813.450256	328.000000
813.485596	329.400000
813.520874	324.100000
813.556213	327.400000
813.591614	329.000000
813.626831	322.500000
813.662170	326.400000
813.697510	330.300000
813.732788	321.600000
813.768127	323.200000
813.803467	321.700000
813.838745	319.800000
813.874084	324.100000
813.909363	319.400000
813.944641	321.000000
813.979980	312.400000
814.015320	316.100000
814.050598	314.600000
814.085876	316.300000
814.121155	314.200000
814.156494	312.600000
814.191772	315.300000
814.227051	310.600000
814.262390	313.200000
814.297668	311.100000
814.332947	310.500000
814.368225	304.200000
814.403564	308.500000
814.438782	306.600000
814.474121	305.100000
814.509338	303.500000
814.544617	307.600000
814.579956	301.000000
814.615173	309.300000
814.650513	305.300000
814.685791	300.700000
814.721008	304.000000
814.756348	304.400000
814.791626	299.000000
814.826843	299.200000
814.862122	300.800000
814.897400	297.900000
814.932678	302.400000
814.967957	299.900000
815.003235	297.800000
815.038452	293.200000
815.073730	291.500000
815.108948	300.700000
815.144226	296.500000
815.179504	299.800000
815.214722	287.800000
815.250000	286.700000
815.285278	293.100000
815.320496	290.200000
815.355774	289.300000
815.391052	292.100000
815.426270	290.600000
815.461487	286.900000
815.496765	285.200000
815.531982	281.900000
815.567261	285.400000
815.602539	291.300000
815.637695	286.000000
815.672974	287.000000
815.708191	286.800000
815.743408	288.100000
815.778687	281.500000
815.813904	287.900000
815.849121	277.400000
815.884399	277.800000
815.919556	277.400000
815.954834	277.600000
815.990051	281.200000
816.025269	280.600000
816.060486	274.400000
816.095703	273.700000
816.130920	276.100000
816.166199	272.500000
816.201416	273.900000
816.236572	276.300000
816.271851	270.900000
816.307007	274.000000
816.342224	265.000000
816.377441	270.200000
816.412659	262.700000
816.447876	271.700000
816.483093	265.400000
816.518250	267.300000
816.553467	266.500000
816.588745	268.700000
816.623901	263.000000
816.659119	256.600000
816.694275	261.800000
816.729492	259.200000
816.764709	287.500000
816.799927	256.200000
816.835083	261.000000
816.870300	254.200000
816.905457	257.100000
816.940674	259.200000
816.975830	254.600000
817.010986	251.400000
817.046204	252.200000
817.081421	250.400000
817.116577	250.300000
817.151733	256.300000
817.186951	256.500000
817.222107	253.600000
817.257324	256.200000
817.292419	253.000000
817.327637	247.300000
817.362854	249.700000
817.398010	244.900000
817.433167	247.100000
817.468323	246.000000
817.503479	247.600000
817.538635	255.200000
817.573853	248.300000
817.608948	247.800000
817.644165	243.100000
817.679321	244.200000
817.714478	241.200000
817.749634	244.400000
817.784790	250.100000
817.819946	249.200000
817.855103	236.300000
817.890198	242.400000
817.925415	235.100000
817.960571	242.800000
817.995667	241.000000
818.030823	242.000000
818.066040	237.500000
818.101135	242.100000
818.136292	240.000000
818.171448	234.400000
818.206543	236.900000
818.241699	240.100000
818.276855	238.000000
818.311951	237.700000
818.347107	233.400000
818.382263	240.400000
818.417358	241.400000
818.452515	240.600000
818.487610	241.300000
818.522766	230.900000
818.557922	239.700000
818.593018	236.200000
818.628113	234.500000
818.663269	229.800000
818.698364	233.700000
818.733521	229.900000
818.768677	233.400000
818.803711	229.300000
818.838867	227.400000
818.874023	228.900000
818.909058	228.100000
818.944214	225.100000
818.979370	230.000000
819.014404	229.800000
819.049561	225.100000
819.084595	229.400000
819.119751	222.900000
819.154846	227.300000
819.189941	223.600000
819.225037	222.200000
819.260193	219.100000
819.295227	218.700000
819.330322	216.700000
819.365479	216.300000
819.400513	251.700000
819.435608	215.700000
819.470764	213.200000
819.505798	215.000000
819.540894	217.700000
819.575989	216.000000
819.611084	221.500000
819.646179	223.200000
819.681213	219.800000
819.716309	214.900000
819.751404	216.200000
819.786438	221.600000
819.821533	212.400000
819.856628	215.600000
819.891663	218.200000
819.926758	223.400000
819.961853	219.300000
819.996887	211.600000
820.031982	216.300000
820.067017	212.900000
820.102112	248.300000
820.137207	212.200000
820.172302	223.900000
820.207275	210.800000
820.242371	209.400000
820.277405	210.200000
820.312500	211.400000
820.347534	212.600000
820.382568	214.600000
820.417664	209.300000
820.452759	209.100000
820.487732	208.900000
820.522827	208.900000
820.557861	205.600000
820.592896	208.500000
820.627930	209.100000
820.662964	205.200000
820.698059	209.400000
820.733093	206.200000
820.768127	211.100000
820.803162	208.200000
820.838196	207.400000
820.873230	207.000000
820.908264	209.100000
820.943298	204.200000
820.978333	209.400000
821.013367	208.700000
821.048401	210.800000
821.083435	210.600000
821.118469	202.300000
821.153503	209.400000
821.188477	206.800000
821.223511	202.400000
821.258484	206.100000
821.293579	206.300000
821.328613	202.200000
821.363647	204.600000
821.398621	201.400000
821.433655	204.100000
821.468628	215.900000
821.503662	204.900000
821.538696	208.600000
821.573669	201.900000
821.608704	205.800000
821.643677	203.200000
821.678650	206.200000
821.713684	208.600000
821.748718	203.900000
821.783691	203.500000
821.818726	204.500000
821.853638	206.500000
821.888672	201.200000
821.923706	203.200000
821.958618	201.800000
821.993652	202.300000
822.028687	206.500000
822.063599	210.700000
822.098633	204.300000
822.133667	201.100000
822.168579	203.300000
822.203613	203.000000
822.238586	199.700000
822.273560	205.200000
822.308533	200.700000
822.343567	201.000000
822.378479	201.800000
822.413452	201.100000
822.448425	199.400000
822.483398	206.600000
822.518372	207.100000
822.553345	200.000000
822.588318	207.900000
822.623291	201.600000
822.658203	199.500000
822.693237	201.400000
822.728210	198.900000
822.763123	201.400000
822.798096	199.400000
822.833069	200.000000
822.867981	201.600000
822.902954	202.800000
822.937927	203.700000
822.972900	207.800000
823.007874	196.100000
823.042725	204.000000
823.077698	210.300000
823.112671	197.900000
823.147583	198.900000
823.182556	201.700000
823.217529	203.800000
823.252441	198.600000
823.287415	209.600000
823.322388	203.300000
823.357239	200.100000
823.392212	204.600000
823.427185	206.000000
823.462097	197.500000
823.497009	201.900000
823.531982	199.500000
823.566895	202.500000
823.601807	196.700000
823.636719	199.900000
823.671631	203.900000
823.706604	199.900000
823.741455	202.400000
823.776428	196.900000
823.811340	202.700000
823.846252	206.700000
823.881165	207.000000
823.916138	202.200000
823.950989	208.300000
823.985901	198.900000
824.020813	201.700000
824.055725	200.800000
824.090637	196.800000
824.125610	201.600000
824.160461	203.800000
824.195374	202.000000
824.230225	202.500000
824.265198	194.700000
824.300110	197.000000
824.334961	207.600000
824.369873	194.500000
824.404785	201.300000
824.439636	203.500000
824.474548	194.600000
824.509460	193.000000
824.544312	203.000000
824.579224	202.900000
824.614075	200.700000
824.648987	197.800000
824.683899	198.700000
824.718811	196.000000
824.753662	202.100000
824.788574	203.100000
824.823364	199.700000
824.858276	194.500000
824.893188	200.800000
824.928040	202.800000
824.962952	200.000000
824.997803	202.000000
825.032654	198.200000
825.067566	201.600000
825.102417	196.100000
825.137268	197.300000
825.172119	197.400000
825.206970	194.900000
825.241882	197.400000
825.276733	195.000000
825.311646	195.100000
825.346436	192.900000
825.381348	193.100000
825.416138	196.500000
825.450989	194.300000
825.485901	190.100000
825.520691	191.000000
825.555542	192.100000
825.590454	196.300000
825.625244	190.200000
825.660095	201.400000
825.695007	198.300000
825.729797	194.600000
825.764648	193.500000
825.799438	194.700000
825.834290	196.100000
825.869202	190.200000
825.903992	195.700000
825.938843	192.800000
825.973694	189.900000
826.008484	203.700000
826.043335	189.900000
826.078186	187.400000
826.112976	198.100000
826.147827	197.100000
826.182678	200.000000
826.217468	187.700000
826.252319	198.100000
826.287109	190.600000
826.321899	196.200000
826.356750	191.500000
826.391541	189.200000
826.426392	196.000000
826.461182	193.400000
826.495972	189.400000
826.530823	184.400000
826.565613	194.200000
826.600403	188.700000
826.635254	195.900000
826.670044	186.800000
826.704834	187.500000
826.739685	189.700000
826.774475	194.600000
826.809265	192.800000
826.844055	190.000000
826.878906	196.600000
826.913635	193.300000
826.948425	193.800000
826.983215	195.000000
827.018005	195.700000
827.052856	190.400000
827.087585	196.400000
827.122375	186.300000
827.157227	190.900000
827.191956	203.500000
827.226746	188.100000
827.261536	194.700000
827.296265	187.500000
827.331116	190.800000
827.365906	193.700000
827.400635	188.800000
827.435425	186.100000
827.470215	195.200000
827.504944	190.900000
827.539734	195.700000
827.574463	190.700000
827.609253	198.500000
827.644043	191.300000
827.678772	195.600000
827.713562	189.900000
827.748352	190.100000
827.783081	188.100000
827.817871	191.900000
827.852600	188.900000
827.887329	192.100000
827.922119	184.800000
827.956848	194.900000
827.991638	201.300000
828.026367	193.800000
828.061157	192.900000
828.095886	191.500000
828.130615	204.900000
828.165344	185.500000
828.200073	192.700000
828.234863	190.300000
828.269592	191.800000
828.304321	195.400000
828.339111	192.700000
828.373779	190.000000
828.408569	195.100000
828.443298	195.100000
828.477966	189.300000
828.512756	192.100000
828.547424	187.800000
828.582214	190.600000
828.616943	190.100000
828.651672	191.600000
828.686340	194.800000
828.721130	188.200000
828.755798	190.200000
828.790527	191.900000
828.825256	192.900000
828.859924	191.100000
828.894714	195.400000
828.929443	198.000000
828.964111	188.300000
828.998840	194.900000
829.033569	188.300000
829.068237	190.800000
829.102966	189.800000
829.137634	193.600000
829.172363	192.800000
829.207092	191.700000
829.241821	188.200000
829.276489	187.800000
829.311157	192.100000
829.345825	190.300000
829.380554	194.900000
829.415283	188.800000
829.449951	187.500000
829.484619	198.600000
829.519348	198.600000
829.554016	192.200000
829.588745	193.600000
829.623413	187.900000
829.658081	199.900000
829.692749	188.100000
829.727417	195.100000
829.762146	192.600000
829.796814	189.300000
829.831482	191.900000
829.866150	193.100000
829.900879	190.500000
829.935486	194.400000
829.970154	190.400000
830.004883	200.300000
830.039490	192.600000
830.074219	188.100000
830.108887	192.400000
830.143494	191.200000
830.178223	185.500000
830.212891	189.600000
830.247498	190.700000
830.282166	196.900000
830.316772	196.400000
830.351501	189.300000
830.386169	191.200000
830.420776	190.700000
830.455444	190.500000
830.490112	188.000000
830.524719	184.800000
830.559387	193.200000
830.594055	193.800000
830.628662	191.300000
830.663330	191.600000
830.697998	199.800000
830.732605	191.600000
830.767273	194.000000
830.801941	189.400000
830.836487	199.100000
830.871155	192.700000
830.905762	193.400000
830.940430	186.600000
830.975098	188.100000
831.009644	191.900000
831.044312	198.800000
831.078979	194.600000
831.113525	186.000000
831.148193	192.700000
831.182861	191.600000
831.217407	194.600000
831.252075	204.100000
831.286621	189.600000
831.321289	188.600000
831.355896	192.000000
831.390564	198.400000
831.425110	191.900000
831.459778	197.600000
831.494324	201.500000
831.528931	193.300000
831.563599	196.900000
831.598145	187.400000
831.632751	191.100000
831.667419	190.800000
831.701965	194.100000
831.736572	193.900000
831.771179	188.300000
831.805786	188.700000
831.840393	197.100000
831.874939	186.800000
831.909546	195.700000
831.944153	185.200000
831.978760	191.700000
832.013306	186.400000
832.047913	194.700000
832.082458	196.700000
832.117065	189.700000
832.151672	198.400000
832.186218	192.900000
832.220825	193.100000
832.255432	186.300000
832.289978	190.600000
832.324585	193.300000
832.359192	191.100000
832.393677	191.800000
832.428284	192.400000
832.462830	190.000000
832.497437	191.300000
832.531982	195.200000
832.566589	190.000000
832.601135	193.800000
832.635681	186.800000
832.670227	193.300000
832.704773	198.100000
832.739380	192.800000
832.773926	192.900000
832.808472	190.200000
832.843079	192.300000
832.877563	192.300000
832.912170	190.600000
832.946716	187.000000
832.981201	195.400000
833.015808	194.900000
833.050293	191.300000
833.084839	188.200000
833.119446	189.400000
833.153992	192.700000
833.188477	191.000000
833.223022	189.100000
833.257568	193.900000
833.292114	195.000000
833.326660	201.200000
833.361145	189.200000
833.395691	186.900000
833.430237	192.500000
833.464783	193.400000
833.499329	188.000000
833.533875	188.700000
833.568359	193.800000
833.602905	196.100000
833.637390	196.700000
833.671875	188.900000
833.706421	190.100000
833.740906	188.200000
833.775452	185.200000
833.809998	189.900000
833.844482	199.100000
833.879028	191.100000
833.913513	190.200000
833.947998	194.100000
833.982544	188.700000
834.017090	189.000000
834.051514	184.700000
834.086060	193.200000
834.120544	191.400000
834.155029	192.800000
834.189575	189.900000
834.223999	194.100000
834.258545	191.800000
834.293030	192.200000
834.327515	191.200000
834.362000	190.200000
834.396545	194.000000
834.430969	189.000000
834.465454	195.700000
834.500000	185.600000
834.534424	193.900000
834.568970	184.500000
834.603455	185.700000
834.637878	186.500000
834.672363	192.700000
834.706909	191.500000
834.741333	191.300000
834.775818	184.900000
834.810242	187.300000
834.844727	192.300000
834.879211	191.700000
834.913635	191.100000
834.948181	192.900000
834.982666	191.500000
835.017090	189.400000
835.051575	191.900000
835.086060	190.300000
835.120483	194.000000
835.154907	194.800000
835.189331	191.200000
835.223816	193.900000
835.258301	188.300000
835.292786	188.100000
835.327209	194.900000
835.361694	188.100000
835.396057	190.000000
835.430542	193.700000
835.465027	191.400000
835.499390	189.300000
835.533875	217.700000
835.568359	189.400000
835.602722	186.600000
835.637207	192.700000
835.671692	186.800000
835.706055	207.000000
835.740540	193.900000
835.774902	192.300000
835.809387	194.000000
835.843811	186.800000
835.878235	196.000000
835.912659	187.300000
835.947083	189.500000
835.981506	191.800000
836.015930	187.300000
836.050354	195.100000
836.084778	197.300000
836.119202	195.200000
836.153625	204.000000
836.187988	188.300000
836.222473	189.600000
836.256897	192.100000
836.291260	189.800000
836.325684	193.900000
836.360046	190.300000
836.394470	190.600000
836.428894	197.500000
836.463318	188.100000
836.497681	194.500000
836.532104	196.500000
836.566467	193.000000
836.600891	190.100000
836.635315	195.800000
836.669678	193.600000
836.704102	195.300000
836.738525	193.200000
836.772888	186.900000
836.807251	188.600000
836.841675	195.300000
836.876038	189.400000
836.910461	189.500000
836.944763	194.900000
836.979187	189.300000
837.013611	195.400000
837.047974	186.000000
837.082336	200.800000
837.116699	194.400000
837.151062	192.300000
837.185486	188.400000
837.219849	189.300000
837.254211	195.400000
837.288574	190.500000
837.322937	187.400000
837.357300	183.300000
837.391663	200.700000
837.426086	194.700000
837.460388	192.500000
837.494751	194.100000
837.529114	188.700000
837.563477	196.100000
837.597839	192.000000
837.632141	190.400000
837.666565	189.200000
837.700928	193.800000
837.735229	190.900000
837.769592	194.000000
837.803955	195.700000
837.838257	189.700000
837.872620	190.200000
837.906982	197.100000
837.941284	191.700000
837.975647	193.800000
838.010010	197.600000
838.044312	189.200000
838.078674	189.000000
838.112976	192.200000
838.147339	194.400000
838.181702	192.400000
838.216003	199.300000
838.250366	193.900000
838.284668	194.500000
838.318970	186.800000
838.353333	190.700000
838.387634	191.000000
838.421936	192.300000
838.456299	192.500000
838.490601	196.600000
838.524902	196.600000
838.559265	195.400000
838.593567	195.300000
838.627869	187.000000
838.662170	192.900000
838.696472	187.100000
838.730774	188.600000
838.765137	194.100000
838.799377	180.800000
838.833740	192.200000
838.868042	195.800000
838.902283	186.500000
838.936646	196.900000
838.970947	193.100000
839.005188	196.800000
839.039551	187.500000
839.073792	195.900000
839.108093	190.200000
839.142395	200.300000
839.176697	187.400000
839.210937	192.200000
839.245300	199.300000
839.279541	186.100000
839.313843	191.100000
839.348145	195.600000
839.382385	195.900000
839.416687	195.700000
839.450989	194.200000
839.485229	190.500000
839.519531	189.200000
839.553833	195.500000
839.588013	191.000000
839.622314	193.600000
839.656555	193.000000
839.690857	191.100000
839.725159	188.600000
839.759460	192.100000
839.793640	188.800000
839.827942	192.400000
839.862183	188.400000
839.896423	193.300000
839.930725	202.700000
839.964966	199.100000
839.999207	195.600000
840.033508	197.200000
840.067688	188.500000
840.101990	197.400000
840.136230	192.100000
840.170471	196.200000
840.204712	187.100000
840.238953	188.500000
840.273193	192.100000
840.307434	194.100000
840.341736	189.200000
840.375916	186.300000
840.410217	189.400000
840.444397	195.600000
840.478638	193.300000
840.512878	196.100000
840.547119	191.400000
840.581360	194.800000
840.615601	198.600000
840.649780	201.700000
840.684021	191.700000
840.718262	198.400000
840.752441	197.200000
840.786682	193.600000
840.820862	192.500000
840.855103	197.900000
840.889343	191.200000
840.923584	196.900000
840.957764	193.200000
840.992004	193.500000
841.026184	201.900000
841.060425	190.100000
841.094666	189.400000
841.128845	195.000000
841.163025	192.400000
841.197266	195.400000
841.231445	192.900000
841.265686	194.200000
841.299866	188.600000
841.334045	198.400000
841.368286	191.500000
841.402405	197.100000
841.436646	195.100000
841.470825	190.300000
841.505005	191.100000
841.539185	188.000000
841.573425	188.900000
841.607544	191.200000
841.641785	191.200000
841.675964	189.400000
841.710144	192.400000
841.744324	188.800000
841.778503	191.600000
841.812683	189.600000
841.846863	197.800000
841.881042	197.400000
841.915222	188.600000
841.949402	203.000000
841.983521	185.600000
842.017700	191.300000
842.051880	190.600000
842.086060	194.200000
842.120239	192.700000
842.154419	190.100000
842.188538	192.500000
842.222717	189.800000
842.256897	200.000000
842.291016	191.200000
842.325195	193.700000
842.359375	200.600000
842.393494	198.200000
842.427673	193.100000
842.461853	194.800000
842.495911	199.700000
842.530090	193.400000
842.564209	190.800000
842.598389	194.200000
842.632568	194.000000
842.666626	194.800000
842.700806	190.400000
842.734985	189.700000
842.769043	193.900000
842.803223	191.700000
842.837402	191.400000
842.871460	188.300000
842.905640	200.400000
842.939697	188.900000
842.973877	193.500000
843.007996	196.800000
843.042175	199.600000
843.076233	190.500000
843.110413	194.000000
843.144470	198.100000
843.178589	195.300000
843.212769	188.800000
843.246826	194.800000
843.280945	189.200000
843.315125	191.200000
843.349182	188.000000
843.383301	196.100000
843.417419	203.100000
843.451538	192.200000
843.485657	190.800000
843.519714	192.700000
843.553833	193.200000
843.587952	191.000000
843.622070	190.800000
843.656128	195.000000
843.690247	191.100000
843.724304	191.600000
843.758423	193.200000
843.792542	190.000000
843.826599	192.900000
843.860718	191.600000
843.894836	186.500000
843.928894	192.800000
843.963013	193.700000
843.997070	189.500000
844.031128	188.100000
844.065247	197.100000
844.099304	195.400000
844.133362	192.000000
844.167480	194.400000
844.201599	197.000000
844.235596	192.700000
844.269714	193.700000
844.303711	193.800000
844.337830	186.800000
844.371948	195.100000
844.405945	190.700000
844.440063	188.200000
844.474121	204.200000
844.508118	189.600000
844.542236	190.700000
844.576294	192.500000
844.610352	188.300000
844.644409	191.500000
844.678406	184.900000
844.712524	194.700000
844.746582	197.600000
844.780640	192.800000
844.814636	193.100000
844.848755	202.800000
844.882751	191.500000
844.916809	196.000000
844.950867	194.400000
844.984863	199.700000
845.018921	190.700000
845.052979	190.300000
845.086975	193.700000
845.121033	188.600000
845.155090	190.100000
845.189087	198.700000
845.223145	191.200000
845.257141	194.500000
845.291199	194.800000
845.325256	197.000000
845.359253	193.700000
845.393250	205.500000
845.427307	192.100000
845.461304	193.000000
845.495361	193.400000
845.529358	200.700000
845.563354	191.800000
845.597412	188.500000
845.631409	200.900000
845.665405	197.700000
845.699463	194.200000
845.733459	189.300000
845.767456	200.500000
845.801453	192.300000
845.835449	197.500000
845.869446	194.700000
845.903503	195.500000
845.937439	188.700000
845.971497	198.100000
846.005493	187.400000
846.039429	195.600000
846.073486	201.000000
846.107483	191.800000
846.141418	191.700000
846.175476	193.400000
846.209473	199.500000
846.243408	188.300000
846.277405	192.400000
846.311401	191.300000
846.345337	191.800000
846.379395	197.500000
846.413330	191.500000
846.447327	200.900000
846.481323	188.500000
846.515259	190.200000
846.549255	190.900000
846.583252	194.800000
846.617187	189.100000
846.651184	193.300000
846.685120	192.200000
846.719055	200.300000
846.753052	196.900000
846.786987	196.500000
846.820984	189.200000
846.854980	198.200000
846.888916	188.300000
846.922852	194.400000
846.956848	198.400000
846.990723	190.400000
847.024719	194.100000
847.058716	191.800000
847.092590	198.500000
847.126587	194.300000
847.160522	191.600000
847.194458	194.700000
847.228455	189.000000
847.262390	188.900000
847.296265	191.500000
847.330261	195.700000
847.364136	189.900000
847.398132	190.400000
847.432068	193.400000
847.466003	190.600000
847.499939	191.300000
847.533875	195.200000
847.567749	192.000000
847.601746	190.200000
847.635681	195.600000
847.669556	185.400000
847.703491	196.600000
847.737427	202.700000
847.771301	187.800000
847.805237	194.300000
847.839233	193.400000
847.873108	191.200000
847.907043	192.800000
847.940918	198.200000
847.974854	193.800000
848.008789	196.100000
848.042664	193.100000
848.076538	195.300000
848.110474	193.200000
848.144348	193.400000
848.178284	187.600000
848.212219	194.100000
848.246094	190.800000
848.279968	194.500000
848.313904	195.000000
848.347778	193.300000
848.381653	191.000000
848.415588	189.800000
848.449463	188.700000
848.483337	195.100000
848.517212	198.700000
848.551086	191.700000
848.585022	187.800000
848.618835	200.300000
848.652771	190.100000
848.686646	187.200000
848.720520	197.500000
848.754395	192.500000
848.788330	195.500000
848.822144	196.000000
848.856018	191.000000
848.889954	199.900000
848.923767	189.000000
848.957642	190.300000
848.991577	194.400000
849.025391	192.100000
849.059265	191.400000
849.093079	189.800000
849.126953	188.100000
849.160828	198.400000
849.194641	192.400000
849.228577	190.500000
849.262451	192.800000
849.296265	191.900000
849.330139	189.800000
849.364014	192.900000
849.397827	194.400000
849.431702	194.400000
849.465515	196.800000
849.499329	186.700000
849.533203	189.000000
849.567078	186.000000
849.600891	195.500000
849.634766	191.000000
849.668518	194.400000
849.702393	191.600000
849.736267	187.600000
849.770020	200.600000
849.803894	194.000000
849.837769	193.400000
849.871521	192.700000
849.905396	194.400000
849.939270	189.500000
849.973022	190.300000
850.006897	193.900000
850.040710	195.200000
850.074524	195.500000
850.108337	191.100000
850.142151	197.700000
850.175964	197.100000
850.209778	191.500000
850.243530	184.400000
850.277405	196.400000
850.311218	193.000000
850.344971	190.500000
850.378845	198.800000
850.412659	189.500000
850.446411	195.400000
850.480225	191.600000
850.514038	195.900000
850.547791	196.600000
850.581665	193.800000
850.615417	190.000000
850.649231	193.800000
850.683044	192.400000
850.716858	192.400000
850.750610	192.400000
850.784424	196.200000
850.818176	190.100000
850.851929	191.300000
850.885742	190.400000
850.919495	193.100000
850.953308	199.600000
850.987122	198.200000
851.020874	188.000000
851.054626	187.700000
851.088440	194.200000
851.122192	196.000000
851.156006	193.700000
851.189697	191.400000
851.223511	187.100000
851.257263	195.800000
851.291077	193.800000
851.324829	191.500000
851.358582	189.100000
851.392334	191.400000
851.426086	191.100000
851.459900	198.900000
851.493591	192.700000
851.527344	192.400000
851.561157	191.300000
851.594849	193.600000
851.628662	192.200000
851.662415	200.400000
851.696106	193.800000
851.729858	195.300000
851.763611	187.800000
851.797363	193.900000
851.831116	189.400000
851.864868	194.500000
851.898560	197.100000
851.932312	190.800000
851.966064	195.100000
851.999817	192.500000
852.033569	192.700000
852.067261	197.400000
852.101013	190.300000
852.134766	191.500000
852.168457	186.000000
852.202209	197.300000
852.235901	188.700000
852.269592	195.400000
852.303345	200.200000
852.337036	195.400000
852.370789	193.200000
852.404541	195.900000
852.438171	189.300000
852.471924	193.700000
852.505676	188.200000
852.539307	193.400000
852.573059	191.000000
852.606812	191.800000
852.640442	191.000000
852.674194	196.700000
852.707886	201.800000
852.741577	197.500000
852.775269	189.100000
852.809021	193.000000
852.842651	194.400000
852.876404	198.400000
852.910034	193.200000
852.943787	196.300000
852.977478	195.900000
853.011108	190.400000
853.044861	190.400000
853.078552	198.100000
853.112183	193.900000
853.145874	192.300000
853.179626	186.800000
853.213257	194.500000
853.246948	188.800000
853.280640	199.900000
853.314270	193.400000
853.347961	197.700000
853.381653	195.600000
853.415283	198.200000
853.448975	189.800000
853.482605	194.100000
853.516296	192.300000
853.549988	188.800000
853.583618	195.500000
853.617310	195.300000
853.651001	193.800000
853.684631	189.500000
853.718323	190.400000
853.751953	197.600000
853.785583	187.400000
853.819275	196.100000
853.852966	194.000000
853.886536	186.700000
853.920227	189.100000
853.953918	196.400000
853.987488	192.100000
854.021179	195.900000
854.054749	199.000000
854.088440	194.000000
854.122131	188.900000
854.155701	194.600000
854.189331	189.700000
854.223022	196.300000
854.256592	193.800000
854.290283	190.500000
854.323914	194.700000
854.357483	192.800000
854.391174	194.800000
854.424744	200.900000
854.458374	194.000000
854.492065	204.000000
854.525696	191.300000
854.559265	197.300000
854.592896	201.600000
854.626465	193.700000
854.660095	193.200000
854.693787	195.400000
854.727356	191.900000
854.760986	196.400000
854.794617	195.000000
854.828186	190.000000
854.861816	193.700000
854.895447	194.700000
854.929016	194.100000
854.962585	193.900000
854.996155	201.500000
855.029785	195.200000
855.063416	193.700000
855.097046	197.700000
855.130615	189.300000
855.164185	196.800000
855.197754	193.000000
855.231384	195.300000
855.264954	191.400000
855.298523	194.600000
855.332153	193.300000
855.365723	197.300000
855.399292	189.800000
855.432922	191.500000
855.466492	195.000000
855.500061	188.300000
855.533630	189.700000
855.567200	194.400000
855.600769	196.000000
855.634338	197.300000
855.667969	191.900000
855.701477	190.700000
855.735046	191.400000
855.768616	186.000000
855.802185	194.300000
855.835754	205.100000
855.869324	186.600000
855.902893	192.600000
855.936401	197.600000
855.969971	191.900000
856.003540	187.300000
856.037109	194.800000
856.070618	192.200000
856.104187	188.600000
856.137695	190.900000
856.171265	185.700000
856.204834	194.300000
856.238403	196.500000
856.271912	191.000000
856.305481	194.400000
856.338989	188.200000
856.372559	195.800000
856.406128	193.300000
856.439636	195.800000
856.473145	191.500000
856.506653	199.400000
856.540222	193.800000
856.573792	197.900000
856.607300	196.700000
856.640808	190.100000
856.674377	192.300000
856.707825	226.400000
856.741394	197.000000
856.774902	188.500000
856.808472	186.000000
856.841980	194.400000
856.875488	197.100000
856.908936	187.500000
856.942505	192.000000
856.976013	192.000000
857.009521	190.300000
857.043030	192.600000
857.076477	190.700000
857.110046	198.600000
857.143555	192.300000
857.177063	195.700000
857.210571	191.700000
857.244080	190.000000
857.277527	193.400000
857.311035	192.600000
857.344543	197.800000
857.378052	193.000000
857.411499	198.800000
857.445068	198.900000
857.478516	192.100000
857.512024	189.600000
857.545532	191.600000
857.578979	194.600000
857.612427	193.600000
857.645874	190.200000
857.679382	194.500000
857.712891	196.800000
857.746399	193.100000
857.779846	195.700000
857.813354	197.500000
857.846741	192.400000
857.880249	189.300000
857.913757	194.700000
857.947266	193.700000
857.980652	194.500000
858.014160	191.300000
858.047546	191.500000
858.081055	191.000000
858.114563	203.000000
858.147949	189.700000
858.181458	194.800000
858.214844	192.500000
858.248352	187.200000
858.281799	195.700000
858.315308	202.600000
858.348694	195.200000
858.382141	200.000000
858.415588	196.700000
858.449036	195.900000
858.482483	194.900000
858.515930	190.900000
858.549377	194.700000
858.582825	197.400000
858.616211	196.700000
858.649658	195.500000
858.683105	189.200000
858.716553	191.100000
858.750000	189.100000
858.783386	191.900000
858.816833	187.400000
858.850281	194.000000
858.883728	194.200000
858.917114	195.100000
858.950562	199.400000
858.983948	199.300000
859.017395	197.900000
859.050781	192.500000
859.084167	189.000000
859.117615	188.700000
859.151062	194.900000
859.184448	190.500000
859.217834	191.700000
859.251282	191.000000
859.284668	188.300000
859.318054	187.600000
859.351440	191.900000
859.384888	199.400000
859.418274	186.600000
859.451721	187.000000
859.485046	193.200000
859.518494	194.100000
859.551819	189.400000
859.585266	196.400000
859.618652	197.200000
859.652039	187.700000
859.685425	187.300000
859.718811	187.900000
859.752197	183.700000
859.785583	196.700000
859.819031	197.300000
859.852356	195.000000
859.885742	189.400000
859.919067	192.700000
859.952454	190.700000
859.985901	196.700000
860.019287	192.200000
860.052612	0.000000
860.085999	0.000000
860.119324	0.000000
860.152710	0.000000
860.186096	0.000000
860.219421	0.000000
860.252808	0.000000
860.286133	0.000000
860.319519	0.000000
860.352905	0.000000
860.386292	0.000000
860.419617	0.000000
860.452942	0.000000
860.486267	0.000000
860.519653	0.000000
860.553040	0.000000
860.586365	0.000000
860.619690	0.000000
860.653076	0.000000
860.686340	0.000000
860.719727	0.000000
860.753113	0.000000
860.786377	0.000000
860.819763	0.000000
860.853027	0.000000
860.886414	0.000000
860.919739	0.000000
860.953125	0.000000
860.986389	0.000000
861.019714	0.000000
861.053040	0.000000
861.086365	0.000000
861.119690	0.000000
861.153076	0.000000
861.186340	0.000000
861.219666	0.000000
861.252930	0.000000
861.286316	0.000000
861.319641	0.000000
861.352905	0.000000
861.386230	0.000000
861.419495	0.000000
861.452820	0.000000
861.486145	0.000000
861.519470	0.000000
861.552734	0.000000
861.586060	0.000000
861.619324	0.000000
861.652649	0.000000
861.685974	0.000000
861.719238	0.000000
861.752563	0.000000
861.785828	0.000000
861.819092	0.000000
861.852417	0.000000
861.885742	0.000000
861.918945	0.000000
861.952271	0.000000
861.985535	0.000000
862.018799	0.000000
862.052124	0.000000
862.085449	0.000000
862.118652	0.000000
862.151978	0.000000
862.185181	0.000000
862.218506	0.000000
862.251770	0.000000
862.285034	0.000000
862.318298	0.000000
862.351562	0.000000
862.384827	0.000000
862.418091	0.000000
862.451355	0.000000
862.484619	0.000000
862.517883	0.000000
862.551086	0.000000
862.584351	0.000000
862.617676	0.000000
862.650940	0.000000
862.684143	0.000000
862.717407	0.000000
862.750610	0.000000
862.783875	0.000000
862.817139	0.000000
862.850342	0.000000
862.883606	0.000000
862.916870	0.000000
862.950073	0.000000
862.983337	0.000000
863.016602	0.000000
863.049805	0.000000
863.083069	0.000000
863.116211	0.000000
863.149475	0.000000
863.182739	0.000000
863.216003	0.000000
863.249146	0.000000
863.282410	0.000000
863.315613	0.000000
863.348816	0.000000
863.382080	0.000000
863.415222	0.000000
863.448486	0.000000
863.481689	0.000000
863.514893	0.000000
863.548157	0.000000
863.581360	0.000000
863.614502	0.000000
863.647766	0.000000
863.680908	0.000000
863.714172	0.000000
863.747375	0.000000
863.780579	0.000000
863.813721	0.000000
863.846985	0.000000
863.880127	0.000000
863.913330	0.000000
863.946533	0.000000
863.979675	0.000000
864.012939	0.000000
