Model Number: SPM-001-M   
Serial Number: 10090201
Firmware Version: 004.17.6
Exposure Time: 300000.000000us
Data Taken on: 21-01-2021 14:20:18.782
Wavelength	Amplitude
733.770752	0.000000
733.808716	0.000000
733.846619	0.000000
733.884583	0.000000
733.922546	0.000000
733.960449	0.000000
733.998413	0.000000
734.036377	0.000000
734.074219	0.000000
734.112183	0.000000
734.150085	0.000000
734.188049	0.000000
734.226013	0.000000
734.263916	0.000000
734.301819	0.000000
734.339783	0.000000
734.377686	0.000000
734.415588	0.000000
734.453552	0.000000
734.491455	0.000000
734.529419	0.000000
734.567322	0.000000
734.605225	0.000000
734.643127	0.000000
734.681091	0.000000
734.718994	0.000000
734.756897	0.000000
734.794800	0.000000
734.832703	0.000000
734.870667	0.000000
734.908508	0.000000
734.946472	0.000000
734.984375	0.000000
735.022278	0.000000
735.060181	0.000000
735.098083	0.000000
735.135986	0.000000
735.173889	0.000000
735.211792	0.000000
735.249695	0.000000
735.287598	0.000000
735.325439	0.000000
735.363403	0.000000
735.401306	0.000000
735.439148	0.000000
735.477051	0.000000
735.515015	0.000000
735.552856	0.000000
735.590759	0.000000
735.628662	0.000000
735.666504	0.000000
735.704407	0.000000
735.742310	0.000000
735.780212	0.000000
735.818115	0.000000
735.856018	0.000000
735.893860	0.000000
735.931763	0.000000
735.969604	0.000000
736.007507	0.000000
736.045410	0.000000
736.083252	0.000000
736.121094	0.000000
736.158997	0.000000
736.196838	0.000000
736.234741	0.000000
736.272644	0.000000
736.310486	0.000000
736.348389	0.000000
736.386230	0.000000
736.424072	0.000000
736.461975	0.000000
736.499878	0.000000
736.537720	0.000000
736.575562	0.000000
736.613403	0.000000
736.651306	0.000000
736.689148	0.000000
736.726990	0.000000
736.764893	0.000000
736.802734	0.000000
736.840576	0.000000
736.878418	0.000000
736.916321	0.000000
736.954102	0.000000
736.992004	0.000000
737.029846	0.000000
737.067688	0.000000
737.105530	0.000000
737.143372	0.000000
737.181213	0.000000
737.219116	0.000000
737.256897	0.000000
737.294739	0.000000
737.332642	0.000000
737.370422	0.000000
737.408325	0.000000
737.446167	0.000000
737.483948	0.000000
737.521790	0.000000
737.559692	0.000000
737.597473	0.000000
737.635315	0.000000
737.673157	0.000000
737.710999	0.000000
737.748840	0.000000
737.786621	0.000000
737.824463	0.000000
737.862305	0.000000
737.900085	0.000000
737.937927	0.000000
737.975769	0.000000
738.013550	0.000000
738.051392	0.000000
738.089233	0.000000
738.127014	0.000000
738.164856	0.000000
738.202698	0.000000
738.240479	0.000000
738.278320	0.000000
738.316162	0.000000
738.353943	0.000000
738.391785	0.000000
738.429565	0.000000
738.467407	0.000000
738.505188	0.000000
738.542969	0.000000
738.580811	0.000000
738.618652	0.000000
738.656372	0.000000
738.694214	0.000000
738.732056	0.000000
738.769836	0.000000
738.807617	0.000000
738.845459	0.000000
738.883240	0.000000
738.921021	0.000000
738.958862	0.000000
738.996582	0.000000
739.034424	0.000000
739.072205	0.000000
739.109985	0.000000
739.147827	0.000000
739.185547	0.000000
739.223389	0.000000
739.261169	0.000000
739.298889	0.000000
739.336731	0.000000
739.374512	0.000000
739.412292	0.000000
739.450073	0.000000
739.487854	0.000000
739.525635	0.000000
739.563416	0.000000
739.601135	0.000000
739.638977	0.000000
739.676758	0.000000
739.714478	0.000000
739.752258	0.000000
739.790100	0.000000
739.827820	0.000000
739.865601	0.000000
739.903381	0.000000
739.941101	0.000000
739.978882	194.100000
740.016724	190.700000
740.054443	193.600000
740.092224	188.700000
740.130005	189.100000
740.167725	188.600000
740.205505	188.900000
740.243225	197.000000
740.281006	191.500000
740.318787	186.800000
740.356506	197.300000
740.394287	193.900000
740.432068	187.600000
740.469727	186.800000
740.507507	194.800000
740.545288	192.000000
740.583008	192.800000
740.620789	192.300000
740.658569	186.500000
740.696228	193.000000
740.734009	195.200000
740.771790	184.200000
740.809509	195.100000
740.847229	187.700000
740.884949	189.900000
740.922729	186.700000
740.960449	191.300000
740.998169	188.100000
741.035950	189.700000
741.073669	192.400000
741.111389	192.200000
741.149170	200.600000
741.186890	198.300000
741.224609	193.300000
741.262329	193.300000
741.300110	197.700000
741.337769	188.400000
741.375549	187.800000
741.413208	192.500000
741.450989	188.300000
741.488708	189.500000
741.526367	189.400000
741.564148	194.300000
741.601868	193.400000
741.639526	189.700000
741.677307	193.100000
741.715027	194.000000
741.752686	188.700000
741.790466	195.600000
741.828186	193.500000
741.865845	188.000000
741.903564	186.500000
741.941345	191.600000
741.979004	187.800000
742.016724	194.300000
742.054382	191.500000
742.092102	196.200000
742.129822	187.400000
742.167480	190.300000
742.205200	190.200000
742.242920	193.600000
742.280640	194.700000
742.318359	188.600000
742.356079	191.000000
742.393738	195.200000
742.431396	191.000000
742.469116	194.800000
742.506775	185.100000
742.544495	193.500000
742.582214	194.400000
742.619873	191.800000
742.657593	197.300000
742.695251	196.300000
742.732971	190.300000
742.770630	193.600000
742.808289	192.900000
742.846008	190.500000
742.883728	192.800000
742.921326	192.400000
742.959045	190.700000
742.996765	191.400000
743.034424	193.400000
743.072083	189.300000
743.109802	191.500000
743.147400	187.500000
743.185120	192.500000
743.222839	191.300000
743.260437	197.400000
743.298157	192.200000
743.335754	185.000000
743.373474	190.300000
743.411133	186.200000
743.448792	191.000000
743.486450	192.200000
743.524170	186.100000
743.561768	190.800000
743.599487	195.900000
743.637146	200.000000
743.674744	190.200000
743.712463	190.400000
743.750122	191.600000
743.787720	192.500000
743.825439	189.700000
743.863037	191.200000
743.900696	191.100000
743.938416	217.400000
743.976013	192.500000
744.013672	198.000000
744.051331	195.000000
744.088928	199.300000
744.126587	196.100000
744.164307	192.300000
744.201904	189.700000
744.239563	192.500000
744.277222	195.200000
744.314819	191.800000
744.352478	196.600000
744.390137	192.400000
744.427734	193.700000
744.465393	189.700000
744.502991	189.700000
744.540649	193.700000
744.578308	191.900000
744.615906	188.300000
744.653564	184.900000
744.691223	194.700000
744.728821	185.400000
744.766418	191.900000
744.804077	194.000000
744.841675	190.400000
744.879333	187.500000
744.916992	191.200000
744.954529	189.800000
744.992187	194.800000
745.029785	191.200000
745.067444	189.700000
745.105042	192.200000
745.142639	192.000000
745.180298	201.100000
745.217896	190.500000
745.255493	190.700000
745.293152	195.000000
745.330750	197.700000
745.368347	196.700000
745.405945	196.000000
745.443604	191.900000
745.481140	195.600000
745.518799	191.900000
745.556396	195.000000
745.593994	193.900000
745.631592	193.800000
745.669189	189.000000
745.706787	192.400000
745.744385	189.500000
745.781982	194.900000
745.819580	190.100000
745.857178	192.100000
745.894775	192.200000
745.932373	192.500000
745.969971	193.200000
746.007568	187.100000
746.045166	198.200000
746.082764	196.100000
746.120300	194.600000
746.157898	193.100000
746.195557	191.100000
746.233093	187.600000
746.270691	192.700000
746.308228	193.200000
746.345825	194.500000
746.383423	194.500000
746.420959	189.200000
746.458557	190.500000
746.496155	189.700000
746.533691	191.600000
746.571289	187.600000
746.608887	191.700000
746.646423	193.300000
746.684021	192.500000
746.721619	189.000000
746.759155	193.400000
746.796753	187.400000
746.834351	186.900000
746.871826	189.200000
746.909424	197.800000
746.946960	190.900000
746.984558	191.100000
747.022156	191.700000
747.059631	198.500000
747.097229	195.100000
747.134827	190.700000
747.172363	196.100000
747.209900	194.400000
747.247498	188.900000
747.285034	196.600000
747.322571	197.700000
747.360168	191.700000
747.397644	185.900000
747.435242	195.000000
747.472778	196.500000
747.510315	189.100000
747.547913	191.100000
747.585388	196.800000
747.622925	190.800000
747.660522	185.700000
747.697998	189.500000
747.735596	191.000000
747.773132	189.300000
747.810669	190.900000
747.848206	193.500000
747.885742	187.600000
747.923279	187.300000
747.960815	192.100000
747.998352	192.300000
748.035889	195.200000
748.073425	194.700000
748.110901	189.800000
748.148437	187.400000
748.185974	190.900000
748.223511	198.800000
748.261047	194.500000
748.298584	193.100000
748.336060	191.600000
748.373596	193.100000
748.411133	218.000000
748.448608	188.900000
748.486145	194.200000
748.523682	197.100000
748.561218	199.800000
748.598755	192.900000
748.636292	192.600000
748.673706	190.700000
748.711243	199.500000
748.748718	193.300000
748.786255	192.600000
748.823792	190.800000
748.861267	188.300000
748.898804	193.800000
748.936340	194.600000
748.973816	190.300000
749.011292	197.100000
749.048828	192.600000
749.086304	193.100000
749.123840	200.000000
749.161316	189.100000
749.198792	198.900000
749.236328	196.500000
749.273743	192.500000
749.311279	190.900000
749.348816	194.000000
749.386230	192.400000
749.423767	183.700000
749.461304	194.700000
749.498718	191.200000
749.536255	196.300000
749.573730	199.700000
749.611206	196.300000
749.648682	189.900000
749.686218	192.000000
749.723633	192.900000
749.761169	191.100000
749.798645	188.500000
749.836060	189.800000
749.873596	189.300000
749.911011	194.200000
749.948547	197.600000
749.986023	191.800000
750.023437	191.800000
750.060913	188.100000
750.098450	187.900000
750.135864	191.000000
750.173340	191.500000
750.210815	195.600000
750.248291	188.100000
750.285767	192.400000
750.323242	195.700000
750.360657	194.100000
750.398132	188.600000
750.435608	193.900000
750.473022	188.700000
750.510498	189.500000
750.547974	187.700000
750.585449	191.600000
750.622925	184.900000
750.660339	202.200000
750.697815	191.500000
750.735291	191.800000
750.772644	191.100000
750.810120	193.300000
750.847595	194.100000
750.885010	187.100000
750.922485	198.300000
750.959961	191.100000
750.997375	197.800000
751.034851	194.600000
751.072266	193.900000
751.109680	186.700000
751.147156	196.500000
751.184570	193.700000
751.221985	191.900000
751.259460	186.400000
751.296875	191.300000
751.334290	191.400000
751.371765	193.900000
751.409180	195.200000
751.446594	196.800000
751.484070	194.000000
751.521423	193.000000
751.558899	192.000000
751.596375	200.000000
751.633728	197.200000
751.671204	200.100000
751.708618	190.400000
751.746033	194.100000
751.783447	187.200000
751.820801	189.700000
751.858276	196.200000
751.895691	191.900000
751.933105	192.100000
751.970520	188.300000
752.007935	190.100000
752.045349	196.700000
752.082764	192.200000
752.120178	190.300000
752.157532	190.500000
752.195007	191.500000
752.232422	194.100000
752.269775	194.800000
752.307190	194.300000
752.344543	188.700000
752.382019	192.200000
752.419434	189.800000
752.456787	194.600000
752.494202	195.300000
752.531616	192.600000
752.568970	194.400000
752.606384	193.900000
752.643799	194.200000
752.681152	197.600000
752.718567	195.100000
752.755981	186.900000
752.793335	194.000000
752.830750	186.300000
752.868164	196.200000
752.905518	188.700000
752.942932	194.500000
752.980225	188.400000
753.017639	195.500000
753.055054	195.900000
753.092407	193.500000
753.129822	196.500000
753.167175	199.100000
753.204529	191.800000
753.241943	190.600000
753.279358	189.700000
753.316650	195.000000
753.354065	193.700000
753.391479	196.500000
753.428772	198.300000
753.466187	193.600000
753.503479	189.700000
753.540894	191.200000
753.578308	187.500000
753.615601	189.200000
753.653015	192.900000
753.690369	190.400000
753.727722	188.800000
753.765076	186.100000
753.802490	187.100000
753.839783	186.100000
753.877136	189.200000
753.914551	200.900000
753.951843	189.000000
753.989258	195.000000
754.026611	192.200000
754.063904	192.300000
754.101257	187.800000
754.138611	186.200000
754.175964	192.900000
754.213318	199.200000
754.250610	186.000000
754.288025	188.700000
754.325378	188.200000
754.362671	195.200000
754.400024	191.400000
754.437378	198.900000
754.474670	197.400000
754.512085	190.100000
754.549438	193.400000
754.586731	191.300000
754.624084	191.800000
754.661438	188.600000
754.698730	198.600000
754.736084	191.700000
754.773376	192.400000
754.810730	192.900000
754.848083	192.000000
754.885315	196.600000
754.922668	186.900000
754.960022	188.200000
754.997314	195.700000
755.034668	192.800000
755.072021	192.100000
755.109253	190.700000
755.146606	196.600000
755.183960	191.000000
755.221252	198.200000
755.258545	194.500000
755.295898	196.900000
755.333191	196.900000
755.370544	193.700000
755.407776	191.800000
755.445129	193.200000
755.482422	195.600000
755.519714	191.600000
755.557068	186.600000
755.594360	185.800000
755.631653	194.400000
755.668945	199.800000
755.706299	194.300000
755.743530	201.500000
755.780884	197.100000
755.818176	196.500000
755.855408	195.600000
755.892761	194.100000
755.930054	193.700000
755.967346	193.100000
756.004639	194.500000
756.041870	192.600000
756.079224	198.300000
756.116516	190.500000
756.153748	194.700000
756.191040	201.400000
756.228394	196.300000
756.265625	190.000000
756.302917	195.100000
756.340210	191.200000
756.377441	197.200000
756.414795	198.500000
756.452087	193.700000
756.489319	188.400000
756.526611	197.300000
756.563843	193.600000
756.601135	200.700000
756.638428	202.700000
756.675659	193.400000
756.712952	196.800000
756.750244	196.200000
756.787476	195.900000
756.824768	198.700000
756.862061	193.100000
756.899292	242.400000
756.936584	198.200000
756.973816	203.100000
757.011047	203.200000
757.048340	194.200000
757.085632	195.400000
757.122864	208.200000
757.160156	192.400000
757.197327	197.000000
757.234619	198.500000
757.271912	194.000000
757.309082	198.900000
757.346375	192.000000
757.383667	199.500000
757.420837	196.400000
757.458130	196.400000
757.495422	194.900000
757.532593	199.300000
757.569885	191.800000
757.607117	192.700000
757.644348	197.400000
757.681580	207.500000
757.718811	187.100000
757.756042	196.900000
757.793335	194.300000
757.830505	198.100000
757.867798	194.700000
757.905029	195.400000
757.942200	197.300000
757.979492	194.400000
758.016724	196.500000
758.053894	195.800000
758.091187	210.100000
758.128418	197.800000
758.165588	196.000000
758.202820	206.000000
758.240112	198.000000
758.277283	205.000000
758.314514	197.700000
758.351685	195.800000
758.388916	203.000000
758.426147	203.900000
758.463379	204.200000
758.500610	199.600000
758.537842	198.800000
758.575012	202.100000
758.612244	195.700000
758.649475	206.400000
758.686646	194.700000
758.723877	204.200000
758.761108	204.200000
758.798279	197.900000
758.835510	201.100000
758.872742	204.800000
758.909851	201.800000
758.947083	202.500000
758.984253	201.900000
759.021484	204.000000
759.058716	203.900000
759.095886	204.300000
759.133057	200.600000
759.170288	204.000000
759.207458	199.700000
759.244690	210.100000
759.281860	207.800000
759.319031	201.800000
759.356262	200.900000
759.393433	200.400000
759.430603	201.800000
759.467773	200.600000
759.505005	206.300000
759.542175	206.800000
759.579346	201.400000
759.616516	202.200000
759.653687	205.400000
759.690918	200.200000
759.728027	202.700000
759.765259	204.600000
759.802429	205.800000
759.839539	204.300000
759.876770	208.900000
759.913940	211.000000
759.951111	203.900000
759.988281	204.800000
760.025452	202.700000
760.062561	199.800000
760.099792	212.600000
760.136963	206.400000
760.174072	202.800000
760.211243	201.700000
760.248413	201.100000
760.285583	201.400000
760.322754	212.700000
760.359863	209.600000
760.397034	209.900000
760.434204	204.700000
760.471375	206.200000
760.508545	203.300000
760.545715	204.600000
760.582825	202.500000
760.619995	209.200000
760.657166	202.200000
760.694275	212.100000
760.731445	208.000000
760.768555	208.300000
760.805664	210.400000
760.842834	207.900000
760.879944	210.600000
760.917114	208.600000
760.954285	206.600000
760.991394	203.500000
761.028564	212.000000
761.065674	210.500000
761.102783	205.100000
761.139954	210.800000
761.177124	212.000000
761.214172	214.200000
761.251343	206.800000
761.288452	207.000000
761.325562	211.100000
761.362732	206.600000
761.399841	207.500000
761.436951	212.100000
761.474121	208.000000
761.511169	208.000000
761.548340	214.200000
761.585449	211.700000
761.622559	212.000000
761.659668	210.600000
761.696838	213.400000
761.733887	210.400000
761.771057	210.600000
761.808167	208.600000
761.845276	215.000000
761.882385	220.600000
761.919434	210.800000
761.956604	225.700000
761.993713	209.800000
762.030762	216.700000
762.067871	210.200000
762.105042	212.300000
762.142090	217.800000
762.179199	213.400000
762.216309	217.200000
762.253418	225.000000
762.290527	220.700000
762.327637	217.500000
762.364685	211.400000
762.401794	218.200000
762.438904	217.300000
762.475952	213.000000
762.513062	209.700000
762.550110	213.100000
762.587219	221.600000
762.624329	221.400000
762.661377	218.600000
762.698486	216.700000
762.735596	217.400000
762.772644	213.100000
762.809753	211.700000
762.846863	215.900000
762.883911	220.100000
762.921021	218.100000
762.958069	215.400000
762.995117	221.700000
763.032227	223.800000
763.069336	215.900000
763.106323	214.600000
763.143433	212.700000
763.180481	217.200000
763.217590	217.900000
763.254639	215.600000
763.291687	216.300000
763.328735	224.500000
763.365845	218.800000
763.402893	217.700000
763.439941	219.700000
763.477051	221.900000
763.514038	222.700000
763.551147	217.800000
763.588196	220.700000
763.625244	221.300000
763.662292	226.300000
763.699402	227.800000
763.736389	224.500000
763.773499	232.000000
763.810486	226.200000
763.847534	223.800000
763.884644	225.400000
763.921631	224.600000
763.958679	231.100000
763.995728	225.900000
764.032776	230.400000
764.069824	220.700000
764.106873	228.900000
764.143860	233.800000
764.180969	223.700000
764.218018	231.100000
764.255005	225.100000
764.292053	228.000000
764.329102	235.400000
764.366089	235.100000
764.403137	232.700000
764.440125	229.100000
764.477173	230.000000
764.514221	231.900000
764.551208	230.200000
764.588257	226.700000
764.625305	233.800000
764.662292	238.000000
764.699341	240.500000
764.736389	233.800000
764.773376	245.700000
764.810425	235.600000
764.847473	241.700000
764.884399	237.400000
764.921448	244.300000
764.958435	243.300000
764.995483	236.900000
765.032532	248.600000
765.069458	237.600000
765.106506	236.900000
765.143555	237.900000
765.180481	241.500000
765.217529	247.700000
765.254578	237.100000
765.291504	244.100000
765.328552	241.000000
765.365540	239.200000
765.402527	249.800000
765.439575	239.700000
765.476501	238.300000
765.513550	237.400000
765.550537	242.800000
765.587463	249.400000
765.624512	240.900000
765.661499	235.300000
765.698486	249.000000
765.735474	239.800000
765.772461	243.400000
765.809448	250.400000
765.846436	246.900000
765.883423	250.200000
765.920410	246.300000
765.957397	243.300000
765.994385	250.400000
766.031311	255.100000
766.068359	248.100000
766.105286	249.200000
766.142273	255.100000
766.179260	250.400000
766.216187	248.000000
766.253174	244.500000
766.290161	250.900000
766.327148	253.600000
766.364136	252.600000
766.401123	262.600000
766.438049	248.600000
766.475037	258.700000
766.512024	255.800000
766.548950	266.200000
766.585937	261.300000
766.622864	258.200000
766.659790	257.900000
766.696777	250.400000
766.733704	259.600000
766.770691	254.200000
766.807678	264.900000
766.844604	260.500000
766.881531	259.300000
766.918518	264.500000
766.955444	264.200000
766.992432	260.600000
767.029358	264.300000
767.066284	265.100000
767.103271	263.300000
767.140198	293.900000
767.177124	274.300000
767.214050	267.000000
767.251038	267.900000
767.287964	264.200000
767.324890	262.000000
767.361816	266.100000
767.398743	270.900000
767.435730	266.500000
767.472595	268.000000
767.509583	272.600000
767.546509	265.400000
767.583374	269.000000
767.620361	262.900000
767.657288	268.900000
767.694214	270.200000
767.731140	268.600000
767.768066	268.800000
767.804993	270.500000
767.841919	264.500000
767.878845	269.600000
767.915710	276.100000
767.952698	270.900000
767.989563	273.900000
768.026489	275.500000
768.063416	268.000000
768.100281	268.200000
768.137207	278.400000
768.174133	274.600000
768.211060	273.400000
768.247986	275.100000
768.284912	272.600000
768.321777	272.800000
768.358704	273.400000
768.395630	274.500000
768.432495	271.000000
768.469421	277.000000
768.506348	279.100000
768.543152	284.800000
768.580078	280.300000
768.616943	282.200000
768.653870	283.200000
768.690796	283.800000
768.727661	280.000000
768.764587	281.600000
768.801453	277.200000
768.838318	284.600000
768.875244	286.300000
768.912109	290.300000
768.948975	281.700000
768.985901	284.400000
769.022766	283.100000
769.059631	287.100000
769.096558	285.700000
769.133362	284.000000
769.170288	285.600000
769.207214	286.900000
769.244019	289.000000
769.280945	288.900000
769.317810	296.700000
769.354675	291.500000
769.391541	297.700000
769.428406	294.400000
769.465271	300.800000
769.502136	292.400000
769.539062	299.400000
769.575867	296.600000
769.612732	298.100000
769.649597	301.200000
769.686462	303.600000
769.723328	300.400000
769.760193	299.000000
769.797058	301.200000
769.833923	306.500000
769.870728	303.700000
769.907593	308.000000
769.944519	306.600000
769.981323	307.400000
770.018188	308.300000
770.055054	308.800000
770.091858	307.800000
770.128723	316.000000
770.165588	318.900000
770.202393	309.800000
770.239258	318.600000
770.276062	314.800000
770.312927	317.000000
770.349792	321.300000
770.386597	320.300000
770.423462	327.800000
770.460327	334.000000
770.497131	321.400000
770.533997	317.800000
770.570862	329.200000
770.607605	328.700000
770.644470	328.900000
770.681335	328.800000
770.718140	328.300000
770.754944	326.000000
770.791809	324.000000
770.828613	326.400000
770.865479	330.200000
770.902222	336.400000
770.939087	333.000000
770.975952	326.300000
771.012695	330.100000
771.049561	339.900000
771.086365	334.700000
771.123169	331.300000
771.159973	334.300000
771.196838	335.200000
771.233582	336.500000
771.270447	337.700000
771.307251	339.300000
771.344055	338.600000
771.380859	342.600000
771.417664	338.400000
771.454468	344.000000
771.491272	341.600000
771.528076	344.300000
771.564880	343.000000
771.601685	347.700000
771.638428	341.700000
771.675293	349.500000
771.712097	342.200000
771.748840	356.900000
771.785645	347.500000
771.822449	349.500000
771.859253	354.600000
771.896057	349.300000
771.932861	359.700000
771.969604	352.900000
772.006409	347.500000
772.043213	358.800000
772.079956	359.900000
772.116760	350.200000
772.153503	352.200000
772.190308	364.400000
772.227112	356.300000
772.263855	353.700000
772.300659	353.300000
772.337463	363.900000
772.374207	355.900000
772.411011	354.200000
772.447754	358.200000
772.484497	367.900000
772.521301	361.100000
772.558105	359.900000
772.594849	362.400000
772.631592	367.400000
772.668396	364.800000
772.705139	368.200000
772.741882	366.500000
772.778625	375.600000
772.815430	377.200000
772.852173	375.100000
772.888916	380.200000
772.925720	380.900000
772.962463	383.800000
772.999207	379.000000
773.035950	383.400000
773.072754	383.400000
773.109436	379.900000
773.146240	380.100000
773.182922	378.500000
773.219727	384.600000
773.256470	382.200000
773.293152	375.200000
773.329956	379.900000
773.366699	384.500000
773.403381	376.100000
773.440186	383.300000
773.476929	385.600000
773.513611	383.200000
773.550354	384.800000
773.587158	384.600000
773.623840	381.100000
773.660583	386.100000
773.697327	393.200000
773.734009	387.800000
773.770813	388.500000
773.807495	386.300000
773.844238	386.500000
773.880981	397.700000
773.917664	396.300000
773.954407	400.400000
773.991150	394.400000
774.027832	397.300000
774.064575	389.200000
774.101318	396.000000
774.138000	399.400000
774.174744	399.700000
774.211487	398.000000
774.248108	391.500000
774.284851	391.800000
774.321594	399.300000
774.358276	399.000000
774.395020	407.900000
774.431702	403.800000
774.468384	397.800000
774.505127	398.800000
774.541809	406.300000
774.578491	411.800000
774.615234	415.300000
774.651917	406.500000
774.688599	408.700000
774.725342	414.400000
774.762024	414.100000
774.798706	416.600000
774.835449	418.700000
774.872070	424.000000
774.908813	420.500000
774.945496	421.400000
774.982178	417.000000
775.018860	421.100000
775.055542	424.700000
775.092224	424.500000
775.128967	427.600000
775.165588	428.900000
775.202271	425.600000
775.239014	432.800000
775.275635	432.800000
775.312317	433.100000
775.349060	437.300000
775.385681	435.600000
775.422363	429.900000
775.459045	434.400000
775.495667	438.100000
775.532410	444.200000
775.569092	444.300000
775.605713	443.400000
775.642395	444.700000
775.679016	448.000000
775.715698	447.800000
775.752380	447.900000
775.789001	445.900000
775.825684	448.800000
775.862366	451.800000
775.898987	459.400000
775.935669	450.800000
775.972351	467.700000
776.008972	464.600000
776.045654	466.500000
776.082336	462.100000
776.118958	460.400000
776.155640	466.600000
776.192322	473.700000
776.228882	471.800000
776.265564	474.300000
776.302185	472.000000
776.338867	477.100000
776.375488	470.600000
776.412109	478.500000
776.448792	481.100000
776.485413	491.000000
776.522034	483.400000
776.558716	482.800000
776.595337	482.200000
776.631958	484.100000
776.668579	488.500000
776.705261	492.300000
776.741882	488.800000
776.778503	489.500000
776.815186	490.000000
776.851746	489.000000
776.888367	491.600000
776.924988	504.200000
776.961609	498.000000
776.998291	495.700000
777.034851	489.200000
777.071472	499.800000
777.108154	493.800000
777.144714	508.100000
777.181335	507.500000
777.218018	500.600000
777.254578	507.200000
777.291199	507.700000
777.327759	512.900000
777.364380	521.600000
777.401062	524.400000
777.437622	531.600000
777.474243	521.000000
777.510864	529.200000
777.547424	520.100000
777.584045	523.800000
777.620667	523.500000
777.657227	525.300000
777.693848	528.800000
777.730469	544.100000
777.767029	532.800000
777.803650	536.800000
777.840271	529.700000
777.876831	529.400000
777.913452	539.300000
777.950012	529.700000
777.986633	524.900000
778.023193	528.300000
778.059753	524.000000
778.096375	527.500000
778.132996	541.100000
778.169556	532.000000
778.206116	536.600000
778.242737	532.900000
778.279297	539.200000
778.315857	530.300000
778.352478	538.200000
778.389038	541.200000
778.425598	543.800000
778.462219	547.100000
778.498718	544.300000
778.535339	549.400000
778.571838	551.600000
778.608459	551.100000
778.645020	542.700000
778.681580	549.700000
778.718140	553.900000
778.754761	547.100000
778.791260	551.400000
778.827881	558.600000
778.864441	558.600000
778.900940	565.200000
778.937561	565.900000
778.974121	562.400000
779.010620	554.600000
779.047241	555.900000
779.083801	567.700000
779.120300	566.900000
779.156860	567.800000
779.193359	566.500000
779.229980	567.800000
779.266541	571.400000
779.303040	572.600000
779.339600	567.900000
779.376160	562.700000
779.412659	567.300000
779.449219	559.400000
779.485779	566.200000
779.522278	567.000000
779.558838	571.400000
779.595398	572.900000
779.631897	564.000000
779.668457	565.400000
779.705017	568.600000
779.741516	561.900000
779.778076	561.400000
779.814575	567.200000
779.851074	570.300000
779.887634	568.200000
779.924133	576.100000
779.960693	563.400000
779.997253	570.900000
780.033691	577.800000
780.070251	579.900000
780.106812	586.900000
780.143250	583.800000
780.179810	579.900000
780.216370	579.800000
780.252808	585.900000
780.289368	587.400000
780.325867	594.000000
780.362366	593.700000
780.398865	602.500000
780.435364	592.000000
780.471863	604.800000
780.508423	597.800000
780.544861	605.500000
780.581421	605.400000
780.617920	594.600000
780.654419	589.900000
780.690918	593.700000
780.727417	605.500000
780.763916	606.900000
780.800415	612.300000
780.836914	605.000000
780.873352	613.400000
780.909912	603.700000
780.946411	610.600000
780.982849	612.400000
781.019348	625.100000
781.055786	616.200000
781.092346	612.800000
781.128845	619.500000
781.165283	627.600000
781.201782	631.700000
781.238281	635.700000
781.274719	639.700000
781.311218	635.500000
781.347717	641.500000
781.384155	632.400000
781.420654	634.300000
781.457092	643.000000
781.493591	638.100000
781.530090	635.000000
781.566528	633.600000
781.602966	633.800000
781.639465	631.200000
781.675903	629.700000
781.712402	631.100000
781.748901	633.500000
781.785278	624.400000
781.821777	616.100000
781.858276	600.500000
781.894714	589.000000
781.931152	558.200000
781.967651	539.700000
782.004089	502.500000
782.040527	476.900000
782.076965	448.200000
782.113403	421.400000
782.149902	394.000000
782.186340	372.000000
782.222778	358.800000
782.259277	334.500000
782.295654	317.000000
782.332092	307.700000
782.368591	302.500000
782.404968	294.900000
782.441467	295.800000
782.477905	293.700000
782.514282	290.300000
782.550781	297.200000
782.587219	292.900000
782.623596	298.100000
782.660095	299.900000
782.696472	301.600000
782.732910	304.700000
782.769348	304.900000
782.805786	317.500000
782.842224	319.400000
782.878662	315.900000
782.915039	318.900000
782.951477	321.700000
782.987915	320.200000
783.024292	330.000000
783.060730	340.400000
783.097168	347.700000
783.133545	363.300000
783.169983	390.200000
783.206421	413.900000
783.242798	441.000000
783.279236	471.800000
783.315613	501.300000
783.352051	531.700000
783.388489	559.000000
783.424866	579.700000
783.461304	610.300000
783.497681	637.700000
783.534058	654.400000
783.570496	662.100000
783.606934	671.900000
783.643250	684.700000
783.679687	692.500000
783.716125	687.400000
783.752441	704.400000
783.788879	723.000000
783.825317	731.500000
783.861633	732.900000
783.898071	739.300000
783.934448	758.900000
783.970825	766.500000
784.007263	767.300000
784.043579	771.800000
784.080017	776.400000
784.116394	768.600000
784.152710	771.100000
784.189148	779.400000
784.225525	778.200000
784.261902	768.400000
784.298279	768.100000
784.334656	765.500000
784.371033	759.000000
784.407410	757.000000
784.443787	746.000000
784.480164	738.400000
784.516541	724.400000
784.552856	729.900000
784.589233	723.300000
784.625610	724.600000
784.661987	740.200000
784.698364	738.400000
784.734741	732.600000
784.771057	739.300000
784.807434	739.900000
784.843811	760.500000
784.880127	751.100000
784.916504	775.000000
784.952881	779.000000
784.989197	783.500000
785.025574	780.200000
785.061951	784.800000
785.098267	803.500000
785.134644	801.200000
785.170959	796.100000
785.207275	797.300000
785.243652	795.100000
785.279968	777.300000
785.316345	784.200000
785.352722	784.500000
785.388977	779.500000
785.425354	763.500000
785.461731	748.500000
785.498047	741.700000
785.534363	730.300000
785.570679	733.700000
785.606995	738.900000
785.643372	736.500000
785.679687	738.500000
785.716003	725.100000
785.752380	726.300000
785.788635	733.900000
785.825012	746.800000
785.861328	748.900000
785.897644	745.800000
785.933960	760.300000
785.970337	763.500000
786.006592	779.400000
786.042908	785.200000
786.079285	790.100000
786.115540	806.100000
786.151855	808.000000
786.188171	809.100000
786.224487	813.700000
786.260803	809.800000
786.297119	805.300000
786.333435	806.400000
786.369751	800.100000
786.406006	795.700000
786.442322	784.300000
786.478638	775.600000
786.514954	783.600000
786.551270	773.600000
786.587585	778.500000
786.623840	773.400000
786.660156	771.400000
786.696472	762.700000
786.732727	747.500000
786.769043	760.800000
786.805298	754.500000
786.841614	757.900000
786.877930	769.000000
786.914124	758.500000
786.950439	774.400000
786.986755	785.400000
787.023010	798.000000
787.059326	802.000000
787.095642	810.700000
787.131836	820.300000
787.168152	817.300000
787.204468	829.700000
787.240723	843.100000
787.276978	848.800000
787.313293	857.900000
787.349548	848.700000
787.385803	848.200000
787.422058	845.000000
787.458313	846.200000
787.494629	840.200000
787.530823	838.100000
787.567139	830.400000
787.603455	819.200000
787.639648	807.100000
787.675903	805.000000
787.712219	801.500000
787.748413	804.600000
787.784729	818.800000
787.820984	805.000000
787.857178	799.000000
787.893494	796.300000
787.929749	795.100000
787.965942	805.500000
788.002258	817.900000
788.038452	824.600000
788.074707	825.600000
788.110962	834.100000
788.147217	831.100000
788.183472	840.800000
788.219727	850.000000
788.255920	863.600000
788.292175	881.100000
788.328430	880.200000
788.364624	864.300000
788.400879	861.000000
788.437134	867.100000
788.473328	863.200000
788.509583	860.500000
788.545837	861.100000
788.582031	862.900000
788.618286	858.700000
788.654480	856.900000
788.690735	865.900000
788.726990	880.100000
788.763184	875.800000
788.799377	890.400000
788.835632	880.300000
788.871826	884.200000
788.908081	877.600000
788.944336	883.400000
788.980469	896.000000
789.016724	892.900000
789.052979	892.800000
789.089111	876.100000
789.125366	876.200000
789.161621	862.800000
789.197754	881.300000
789.234009	883.900000
789.270142	883.300000
789.306396	874.300000
789.342590	866.200000
789.378784	845.000000
789.414978	840.400000
789.451233	858.700000
789.487366	857.400000
789.523621	864.000000
789.559814	859.500000
789.595947	854.200000
789.632202	859.700000
789.668335	872.300000
789.704529	888.500000
789.740784	910.400000
789.776917	910.400000
789.813110	903.500000
789.849304	909.100000
789.885498	911.500000
789.921692	927.700000
789.957886	937.700000
789.994019	941.700000
790.030212	946.000000
790.066406	950.300000
790.102539	938.300000
790.138733	946.100000
790.174927	946.000000
790.211060	959.900000
790.247253	953.400000
790.283386	948.100000
790.319580	930.900000
790.355774	919.500000
790.391907	918.000000
790.428101	930.800000
790.464294	927.000000
790.500427	928.900000
790.536621	913.100000
790.572754	906.800000
790.608887	904.900000
790.645081	905.600000
790.681274	912.800000
790.717346	920.800000
790.753540	906.400000
790.789734	890.100000
790.825867	876.900000
790.862000	879.100000
790.898132	887.400000
790.934265	890.400000
790.970459	895.100000
791.006592	896.300000
791.042725	892.300000
791.078918	886.900000
791.114990	886.000000
791.151184	885.300000
791.187317	900.000000
791.223389	899.600000
791.259583	884.000000
791.295715	888.200000
791.331848	891.100000
791.367981	899.100000
791.404114	908.100000
791.440247	916.900000
791.476379	911.300000
791.512451	891.900000
791.548584	893.500000
791.584778	882.000000
791.620850	894.100000
791.656982	906.800000
791.693115	895.400000
791.729187	899.200000
791.765381	894.400000
791.801514	893.200000
791.837585	895.200000
791.873718	900.500000
791.909851	915.000000
791.945923	924.800000
791.982056	898.100000
792.018188	891.100000
792.054260	890.500000
792.090393	900.600000
792.126465	892.300000
792.162598	900.700000
792.198669	891.200000
792.234741	885.500000
792.270874	874.600000
792.307007	868.400000
792.343079	869.200000
792.379150	881.700000
792.415283	883.300000
792.451355	882.300000
792.487488	855.200000
792.523560	848.300000
792.559631	842.300000
792.595764	815.900000
792.631836	785.600000
792.667908	766.400000
792.703979	741.900000
792.740051	750.500000
792.776184	786.000000
792.812256	799.200000
792.848328	810.900000
792.884399	823.300000
792.920471	825.200000
792.956543	817.200000
792.992615	815.900000
793.028748	815.200000
793.064758	818.900000
793.100830	841.000000
793.136963	855.600000
793.172974	853.600000
793.209045	850.600000
793.245178	862.700000
793.281189	846.400000
793.317261	845.200000
793.353271	855.800000
793.389404	870.300000
793.425476	861.000000
793.461487	849.000000
793.497559	841.000000
793.533630	836.100000
793.569641	827.900000
793.605713	835.900000
793.641785	840.700000
793.677795	855.100000
793.713867	846.200000
793.749878	850.700000
793.785950	859.900000
793.822021	870.800000
793.858032	858.100000
793.894104	876.900000
793.930176	867.000000
793.966187	869.900000
794.002258	857.900000
794.038269	864.600000
794.074280	865.200000
794.110352	884.900000
794.146423	867.700000
794.182373	866.200000
794.218445	860.100000
794.254517	854.600000
794.290466	835.100000
794.326538	845.100000
794.362549	855.000000
794.398560	858.900000
794.434631	862.000000
794.470581	841.300000
794.506653	831.700000
794.542664	831.100000
794.578674	829.300000
794.614685	838.500000
794.650757	837.100000
794.686707	835.600000
794.722778	826.000000
794.758789	832.000000
794.794739	837.300000
794.830811	865.100000
794.866821	888.300000
794.902771	892.500000
794.938843	883.700000
794.974792	880.900000
795.010803	877.700000
795.046814	876.500000
795.082825	873.600000
795.118835	886.800000
795.154846	872.800000
795.190796	873.700000
795.226807	860.700000
795.262817	862.400000
795.298767	867.000000
795.334778	875.100000
795.370850	862.200000
795.406799	863.200000
795.442810	850.100000
795.478821	851.500000
795.514709	841.100000
795.550720	867.500000
795.586670	853.500000
795.622681	856.200000
795.658691	861.500000
795.694641	860.600000
795.730652	849.400000
795.766663	861.200000
795.802551	868.300000
795.838562	883.700000
795.874573	870.300000
795.910522	874.600000
795.946472	859.900000
795.982483	858.500000
796.018433	859.600000
796.054382	869.900000
796.090393	859.500000
796.126282	861.000000
796.162292	853.200000
796.198242	843.100000
796.234192	838.400000
796.270203	833.300000
796.306091	838.100000
796.342041	853.200000
796.378052	837.900000
796.413940	845.200000
796.449951	846.600000
796.485901	848.000000
796.521790	847.700000
796.557800	861.700000
796.593689	862.000000
796.629639	861.700000
796.665649	857.800000
796.701599	851.100000
796.737488	849.700000
796.773437	860.600000
796.809387	862.500000
796.845337	875.600000
796.881287	857.600000
796.917175	841.000000
796.953125	842.600000
796.989075	841.500000
797.024963	843.900000
797.060913	840.000000
797.096863	841.600000
797.132751	841.800000
797.168701	824.400000
797.204590	831.900000
797.240540	829.400000
797.276489	834.500000
797.312439	836.500000
797.348328	834.200000
797.384277	831.900000
797.420166	830.300000
797.456055	823.100000
797.492004	817.500000
797.527893	824.400000
797.563843	828.500000
797.599731	830.800000
797.635620	824.800000
797.671570	832.900000
797.707520	827.700000
797.743347	829.600000
797.779297	836.400000
797.815125	838.700000
797.851074	831.000000
797.887024	823.000000
797.922913	811.600000
797.958801	811.300000
797.994690	799.600000
798.030579	806.000000
798.066467	819.100000
798.102356	805.900000
798.138245	797.200000
798.174133	789.700000
798.210083	805.700000
798.245911	818.700000
798.281799	816.500000
798.317749	816.800000
798.353577	816.000000
798.389465	804.900000
798.425293	804.800000
798.461243	806.100000
798.497131	806.300000
798.532959	809.800000
798.568848	819.200000
798.604736	803.800000
798.640564	793.100000
798.676453	793.100000
798.712402	790.500000
798.748230	798.300000
798.784119	801.400000
798.820007	805.500000
798.855835	798.300000
798.891724	790.500000
798.927551	784.600000
798.963379	795.700000
798.999268	796.200000
799.035095	782.600000
799.070984	777.300000
799.106873	768.000000
799.142700	773.500000
799.178528	761.600000
799.214417	762.600000
799.250244	780.300000
799.286133	778.000000
799.321960	777.200000
799.357788	766.900000
799.393677	761.900000
799.429504	767.200000
799.465332	764.300000
799.501221	770.500000
799.537048	776.700000
799.572876	771.500000
799.608704	765.700000
799.644531	771.200000
799.680359	775.000000
799.716248	779.400000
799.752014	790.600000
799.787903	784.600000
799.823730	780.600000
799.859558	770.100000
799.895386	761.300000
799.931213	766.300000
799.967041	766.900000
800.002869	770.500000
800.038696	781.400000
800.074463	761.500000
800.110352	763.400000
800.146179	757.200000
800.181946	767.100000
800.217773	772.500000
800.253540	764.500000
800.289429	759.500000
800.325256	756.400000
800.361023	745.700000
800.396851	755.300000
800.432678	757.800000
800.468445	759.300000
800.504272	761.600000
800.540100	755.000000
800.575867	740.900000
800.611694	744.800000
800.647461	738.700000
800.683289	749.300000
800.719116	757.300000
800.754883	750.600000
800.790649	741.500000
800.826477	734.000000
800.862244	740.100000
800.898071	733.100000
800.933838	739.400000
800.969604	737.200000
801.005432	737.800000
801.041199	740.400000
801.076965	734.900000
801.112793	722.200000
801.148560	718.600000
801.184326	722.800000
801.220154	725.300000
801.255859	722.100000
801.291687	716.400000
801.327454	709.400000
801.363281	713.300000
801.398987	713.100000
801.434814	710.900000
801.470520	719.600000
801.506287	708.500000
801.542114	699.000000
801.577820	698.800000
801.613647	694.900000
801.649414	694.400000
801.685120	699.800000
801.720886	703.900000
801.756714	697.100000
801.792419	689.800000
801.828186	684.300000
801.863892	690.900000
801.899719	686.900000
801.935486	688.200000
801.971252	693.300000
802.006958	682.900000
802.042725	681.600000
802.078430	680.800000
802.114197	677.100000
802.149963	694.600000
802.185669	683.700000
802.221436	679.700000
802.257202	680.400000
802.292908	671.500000
802.328674	682.800000
802.364441	685.200000
802.400146	685.900000
802.435913	692.600000
802.471558	682.300000
802.507324	674.000000
802.543091	672.900000
802.578796	684.400000
802.614502	678.600000
802.650269	687.300000
802.685974	675.500000
802.721741	681.400000
802.757446	682.000000
802.793152	680.500000
802.828918	685.300000
802.864624	684.500000
802.900330	683.700000
802.936035	679.000000
802.971802	676.000000
803.007446	667.000000
803.043213	657.300000
803.078857	670.600000
803.114624	663.200000
803.150330	662.700000
803.185974	656.100000
803.221741	653.300000
803.257446	665.500000
803.293152	665.000000
803.328857	657.600000
803.364563	658.800000
803.400208	656.200000
803.435974	658.500000
803.471680	652.800000
803.507324	649.000000
803.543030	655.800000
803.578735	653.200000
803.614441	649.500000
803.650146	662.100000
803.685791	651.400000
803.721497	652.300000
803.757202	642.300000
803.792847	650.300000
803.828552	643.700000
803.864258	643.000000
803.899902	639.200000
803.935608	628.200000
803.971313	628.100000
804.006958	624.600000
804.042664	627.100000
804.078308	633.900000
804.113953	626.600000
804.149658	635.600000
804.185364	624.900000
804.221008	635.400000
804.256714	619.400000
804.292297	612.600000
804.328003	618.000000
804.363708	613.200000
804.399292	607.600000
804.434998	607.100000
804.470703	604.900000
804.506287	616.400000
804.541992	608.400000
804.577637	613.500000
804.613281	602.400000
804.648926	598.300000
804.684570	601.700000
804.720215	593.700000
804.755920	592.100000
804.791565	595.100000
804.827209	598.400000
804.862854	596.000000
804.898437	591.600000
804.934143	590.100000
804.969788	591.100000
805.005371	595.300000
805.041077	594.700000
805.076721	594.300000
805.112305	583.800000
805.147949	586.000000
805.183655	581.900000
805.219238	587.300000
805.254883	580.500000
805.290466	587.800000
805.326111	587.400000
805.361755	574.700000
805.397400	574.500000
805.432983	574.800000
805.468628	576.100000
805.504211	576.500000
805.539856	578.500000
805.575500	579.800000
805.611084	570.800000
805.646729	561.400000
805.682373	565.900000
805.717957	573.500000
805.753601	574.100000
805.789246	566.400000
805.824768	575.700000
805.860413	577.000000
805.895996	564.100000
805.931641	565.400000
805.967224	568.500000
806.002869	567.600000
806.038452	573.200000
806.074036	575.400000
806.109619	561.400000
806.145264	559.600000
806.180847	560.900000
806.216431	557.300000
806.252014	560.500000
806.287659	559.600000
806.323181	567.500000
806.358826	558.600000
806.394409	545.100000
806.429993	549.600000
806.465576	556.700000
806.501160	546.500000
806.536743	540.600000
806.572327	548.300000
806.607910	546.700000
806.643494	545.600000
806.679077	539.200000
806.714661	537.100000
806.750244	542.200000
806.785828	540.300000
806.821350	541.100000
806.856934	543.700000
806.892517	532.100000
806.928101	530.800000
806.963684	534.300000
806.999268	541.200000
807.034790	520.300000
807.070374	522.400000
807.105896	517.800000
807.141479	516.200000
807.177063	527.100000
807.212585	517.000000
807.248169	517.300000
807.283752	524.300000
807.319275	520.300000
807.354858	520.500000
807.390381	516.700000
807.425903	511.900000
807.461487	511.200000
807.497070	502.500000
807.532593	504.400000
807.568115	502.900000
807.603699	499.900000
807.639221	495.400000
807.674744	500.100000
807.710266	503.900000
807.745850	500.000000
807.781372	499.900000
807.816895	500.500000
807.852417	499.900000
807.888000	494.400000
807.923523	492.400000
807.959045	498.500000
807.994629	492.200000
808.030090	487.300000
808.065613	493.000000
808.101135	496.000000
808.136658	491.200000
808.172241	488.400000
808.207764	487.400000
808.243225	487.700000
808.278809	482.500000
808.314270	485.600000
808.349792	476.000000
808.385315	474.800000
808.420837	481.000000
808.456360	488.400000
808.491882	487.300000
808.527344	481.600000
808.562866	489.100000
808.598389	477.800000
808.633850	476.500000
808.669434	472.000000
808.704895	480.300000
808.740417	484.000000
808.775940	479.100000
808.811462	475.700000
808.846924	474.100000
808.882385	473.500000
808.917847	468.800000
808.953369	473.200000
808.988892	466.400000
809.024353	475.900000
809.059875	474.800000
809.095398	465.000000
809.130798	459.200000
809.166321	459.500000
809.201843	462.400000
809.237305	462.500000
809.272766	469.400000
809.308228	457.900000
809.343750	457.700000
809.379211	459.300000
809.414734	459.100000
809.450134	463.200000
809.485657	451.300000
809.521118	454.500000
809.556580	451.800000
809.592102	452.600000
809.627502	448.000000
809.663025	444.400000
809.698486	444.700000
809.733887	439.400000
809.769409	444.800000
809.804871	433.800000
809.840271	434.900000
809.875793	440.100000
809.911194	443.800000
809.946655	438.500000
809.982178	434.100000
810.017639	435.500000
810.053040	434.800000
810.088501	434.700000
810.123901	431.000000
810.159424	426.000000
810.194885	426.200000
810.230286	430.500000
810.265747	422.700000
810.301208	416.900000
810.336609	419.000000
810.372070	412.900000
810.407532	415.500000
810.442932	420.100000
810.478394	425.300000
810.513794	417.300000
810.549255	415.600000
810.584717	410.900000
810.620117	405.200000
810.655518	411.800000
810.690979	410.200000
810.726379	408.700000
810.761841	399.400000
810.797302	399.100000
810.832642	395.300000
810.868103	405.800000
810.903564	398.000000
810.938904	406.800000
810.974365	395.700000
811.009827	398.900000
811.045166	393.300000
811.080627	385.900000
811.115967	391.300000
811.151428	396.500000
811.186829	390.600000
811.222229	390.400000
811.257629	384.400000
811.293091	389.600000
811.328430	395.800000
811.363892	387.800000
811.399292	389.800000
811.434631	389.200000
811.470093	389.700000
811.505493	380.300000
811.540833	382.900000
811.576294	382.700000
811.611694	378.800000
811.647034	374.400000
811.682434	378.100000
811.717773	383.200000
811.753235	387.000000
811.788635	379.500000
811.823975	382.400000
811.859375	386.300000
811.894775	374.900000
811.930115	377.600000
811.965515	376.500000
812.000916	375.500000
812.036255	372.900000
812.071655	376.400000
812.106995	372.000000
812.142395	369.400000
812.177795	375.600000
812.213196	369.600000
812.248474	372.200000
812.283875	365.300000
812.319214	365.900000
812.354614	369.200000
812.390015	362.100000
812.425293	362.500000
812.460693	366.400000
812.496094	363.700000
812.531433	357.600000
812.566772	357.500000
812.602173	358.600000
812.637451	358.700000
812.672852	354.700000
812.708191	358.300000
812.743530	353.800000
812.778931	346.400000
812.814270	350.200000
812.849609	352.500000
812.884949	349.800000
812.920227	344.500000
812.955627	354.200000
812.990967	349.100000
813.026306	344.100000
813.061646	334.100000
813.096985	331.400000
813.132324	331.700000
813.167664	336.100000
813.203003	338.700000
813.238281	327.300000
813.273682	326.700000
813.308960	326.200000
813.344299	326.900000
813.379639	333.000000
813.414978	328.900000
813.450256	325.000000
813.485596	326.600000
813.520874	321.400000
813.556213	325.700000
813.591614	327.300000
813.626831	321.400000
813.662170	322.700000
813.697510	329.500000
813.732788	317.000000
813.768127	320.200000
813.803467	320.400000
813.838745	315.000000
813.874084	320.700000
813.909363	319.200000
813.944641	318.800000
813.979980	312.500000
814.015320	315.400000
814.050598	311.900000
814.085876	314.100000
814.121155	311.000000
814.156494	311.100000
814.191772	312.200000
814.227051	305.800000
814.262390	309.700000
814.297668	309.800000
814.332947	309.700000
814.368225	303.300000
814.403564	306.100000
814.438782	302.100000
814.474121	303.900000
814.509338	299.700000
814.544617	308.900000
814.579956	300.000000
814.615173	308.500000
814.650513	305.900000
814.685791	299.500000
814.721008	302.500000
814.756348	299.500000
814.791626	296.000000
814.826843	298.200000
814.862122	298.400000
814.897400	295.800000
814.932678	296.500000
814.967957	297.000000
815.003235	296.000000
815.038452	290.800000
815.073730	289.200000
815.108948	297.000000
815.144226	294.500000
815.179504	297.800000
815.214722	286.500000
815.250000	285.200000
815.285278	291.900000
815.320496	287.200000
815.355774	287.000000
815.391052	287.800000
815.426270	287.000000
815.461487	285.600000
815.496765	280.700000
815.531982	279.400000
815.567261	283.100000
815.602539	289.600000
815.637695	286.000000
815.672974	286.700000
815.708191	287.400000
815.743408	287.400000
815.778687	280.300000
815.813904	286.000000
815.849121	274.400000
815.884399	276.800000
815.919556	273.500000
815.954834	276.800000
815.990051	278.000000
816.025269	279.900000
816.060486	274.200000
816.095703	273.700000
816.130920	275.100000
816.166199	272.600000
816.201416	273.300000
816.236572	276.700000
816.271851	269.400000
816.307007	274.900000
816.342224	263.300000
816.377441	267.800000
816.412659	261.800000
816.447876	269.600000
816.483093	264.500000
816.518250	265.500000
816.553467	264.500000
816.588745	267.100000
816.623901	259.500000
816.659119	256.800000
816.694275	262.300000
816.729492	258.200000
816.764709	287.800000
816.799927	253.400000
816.835083	258.200000
816.870300	253.100000
816.905457	257.700000
816.940674	257.700000
816.975830	252.200000
817.010986	253.100000
817.046204	253.000000
817.081421	249.200000
817.116577	250.100000
817.151733	257.000000
817.186951	254.200000
817.222107	252.800000
817.257324	254.200000
817.292419	251.900000
817.327637	246.400000
817.362854	248.600000
817.398010	244.600000
817.433167	246.900000
817.468323	245.700000
817.503479	246.900000
817.538635	254.300000
817.573853	246.800000
817.608948	245.600000
817.644165	243.700000
817.679321	242.400000
817.714478	240.300000
817.749634	243.000000
817.784790	252.100000
817.819946	246.700000
817.855103	234.300000
817.890198	241.400000
817.925415	236.600000
817.960571	242.700000
817.995667	240.400000
818.030823	240.000000
818.066040	237.000000
818.101135	240.100000
818.136292	238.300000
818.171448	234.100000
818.206543	238.300000
818.241699	239.200000
818.276855	238.600000
818.311951	234.900000
818.347107	232.800000
818.382263	238.400000
818.417358	239.700000
818.452515	238.900000
818.487610	239.200000
818.522766	232.200000
818.557922	238.400000
818.593018	235.000000
818.628113	234.300000
818.663269	230.700000
818.698364	234.200000
818.733521	229.500000
818.768677	232.500000
818.803711	227.900000
818.838867	227.800000
818.874023	228.500000
818.909058	225.400000
818.944214	224.500000
818.979370	228.400000
819.014404	227.900000
819.049561	223.600000
819.084595	226.700000
819.119751	221.400000
819.154846	227.100000
819.189941	222.100000
819.225037	220.400000
819.260193	216.800000
819.295227	217.800000
819.330322	215.800000
819.365479	214.500000
819.400513	250.100000
819.435608	213.400000
819.470764	211.300000
819.505798	213.900000
819.540894	216.500000
819.575989	214.900000
819.611084	220.100000
819.646179	223.600000
819.681213	217.400000
819.716309	214.500000
819.751404	214.300000
819.786438	220.800000
819.821533	211.000000
819.856628	216.100000
819.891663	216.800000
819.926758	223.500000
819.961853	220.300000
819.996887	211.700000
820.031982	215.700000
820.067017	214.000000
820.102112	246.200000
820.137207	210.800000
820.172302	223.500000
820.207275	209.300000
820.242371	209.200000
820.277405	210.300000
820.312500	210.500000
820.347534	212.400000
820.382568	216.100000
820.417664	209.300000
820.452759	207.900000
820.487732	208.300000
820.522827	208.900000
820.557861	206.900000
820.592896	207.400000
820.627930	209.900000
820.662964	205.700000
820.698059	210.200000
820.733093	204.900000
820.768127	208.900000
820.803162	207.100000
820.838196	204.300000
820.873230	206.700000
820.908264	208.700000
820.943298	204.300000
820.978333	210.200000
821.013367	206.600000
821.048401	209.600000
821.083435	210.100000
821.118469	202.700000
821.153503	209.000000
821.188477	206.500000
821.223511	200.900000
821.258484	206.400000
821.293579	205.800000
821.328613	199.900000
821.363647	203.900000
821.398621	201.700000
821.433655	203.900000
821.468628	215.000000
821.503662	203.300000
821.538696	206.200000
821.573669	201.800000
821.608704	206.900000
821.643677	203.500000
821.678650	206.900000
821.713684	209.400000
821.748718	203.200000
821.783691	204.100000
821.818726	204.900000
821.853638	205.900000
821.888672	202.100000
821.923706	203.200000
821.958618	203.300000
821.993652	201.100000
822.028687	205.500000
822.063599	208.800000
822.098633	203.700000
822.133667	198.800000
822.168579	201.800000
822.203613	203.000000
822.238586	198.200000
822.273560	204.700000
822.308533	199.600000
822.343567	198.300000
822.378479	200.200000
822.413452	200.000000
822.448425	197.300000
822.483398	204.900000
822.518372	205.700000
822.553345	199.000000
822.588318	207.800000
822.623291	200.400000
822.658203	199.600000
822.693237	201.000000
822.728210	198.000000
822.763123	202.500000
822.798096	197.600000
822.833069	200.400000
822.867981	199.900000
822.902954	202.300000
822.937927	202.800000
822.972900	208.000000
823.007874	195.900000
823.042725	204.600000
823.077698	207.600000
823.112671	197.400000
823.147583	200.600000
823.182556	201.400000
823.217529	204.600000
823.252441	198.500000
823.287415	209.000000
823.322388	202.400000
823.357239	199.600000
823.392212	205.400000
823.427185	206.000000
823.462097	197.500000
823.497009	202.100000
823.531982	197.800000
823.566895	199.800000
823.601807	195.700000
823.636719	198.700000
823.671631	202.100000
823.706604	198.800000
823.741455	202.700000
823.776428	194.300000
823.811340	202.100000
823.846252	205.800000
823.881165	204.900000
823.916138	200.100000
823.950989	207.800000
823.985901	197.400000
824.020813	200.300000
824.055725	198.600000
824.090637	196.000000
824.125610	202.400000
824.160461	201.700000
824.195374	201.300000
824.230225	202.300000
824.265198	195.300000
824.300110	197.100000
824.334961	207.200000
824.369873	192.600000
824.404785	202.200000
824.439636	202.900000
824.474548	192.500000
824.509460	191.900000
824.544312	203.800000
824.579224	201.300000
824.614075	200.400000
824.648987	198.600000
824.683899	200.100000
824.718811	196.200000
824.753662	201.700000
824.788574	201.800000
824.823364	200.200000
824.858276	196.700000
824.893188	200.900000
824.928040	201.300000
824.962952	198.800000
824.997803	200.700000
825.032654	198.300000
825.067566	199.700000
825.102417	195.100000
825.137268	195.100000
825.172119	196.300000
825.206970	194.400000
825.241882	197.300000
825.276733	193.000000
825.311646	194.400000
825.346436	192.900000
825.381348	192.700000
825.416138	197.200000
825.450989	193.400000
825.485901	189.000000
825.520691	190.400000
825.555542	191.700000
825.590454	194.300000
825.625244	189.400000
825.660095	201.000000
825.695007	197.900000
825.729797	194.200000
825.764648	191.300000
825.799438	195.000000
825.834290	195.000000
825.869202	190.100000
825.903992	194.500000
825.938843	192.300000
825.973694	189.200000
826.008484	203.200000
826.043335	189.600000
826.078186	187.300000
826.112976	198.600000
826.147827	197.500000
826.182678	199.900000
826.217468	187.600000
826.252319	198.900000
826.287109	190.000000
826.321899	196.600000
826.356750	192.000000
826.391541	188.900000
826.426392	196.700000
826.461182	192.700000
826.495972	189.100000
826.530823	184.900000
826.565613	192.000000
826.600403	188.400000
826.635254	193.800000
826.670044	185.500000
826.704834	185.000000
826.739685	188.800000
826.774475	193.100000
826.809265	192.100000
826.844055	190.400000
826.878906	196.300000
826.913635	192.800000
826.948425	194.900000
826.983215	193.400000
827.018005	194.200000
827.052856	190.100000
827.087585	194.900000
827.122375	187.200000
827.157227	191.400000
827.191956	203.400000
827.226746	188.200000
827.261536	195.400000
827.296265	188.200000
827.331116	188.300000
827.365906	193.700000
827.400635	190.500000
827.435425	186.600000
827.470215	196.100000
827.504944	191.700000
827.539734	196.100000
827.574463	189.500000
827.609253	199.400000
827.644043	192.500000
827.678772	194.200000
827.713562	190.300000
827.748352	190.800000
827.783081	187.500000
827.817871	194.400000
827.852600	188.800000
827.887329	191.300000
827.922119	184.900000
827.956848	193.600000
827.991638	202.300000
828.026367	193.200000
828.061157	190.900000
828.095886	191.800000
828.130615	203.300000
828.165344	185.500000
828.200073	190.300000
828.234863	189.600000
828.269592	191.800000
828.304321	194.500000
828.339111	192.500000
828.373779	188.800000
828.408569	195.200000
828.443298	195.600000
828.477966	190.600000
828.512756	191.700000
828.547424	188.000000
828.582214	190.900000
828.616943	190.600000
828.651672	192.300000
828.686340	194.300000
828.721130	189.700000
828.755798	189.300000
828.790527	194.300000
828.825256	193.500000
828.859924	194.300000
828.894714	195.800000
828.929443	198.300000
828.964111	189.600000
828.998840	194.300000
829.033569	189.800000
829.068237	190.900000
829.102966	188.400000
829.137634	193.000000
829.172363	193.200000
829.207092	191.700000
829.241821	187.000000
829.276489	187.000000
829.311157	192.700000
829.345825	188.700000
829.380554	194.000000
829.415283	187.800000
829.449951	185.300000
829.484619	198.600000
829.519348	195.900000
829.554016	191.600000
829.588745	191.300000
829.623413	186.500000
829.658081	199.100000
829.692749	188.500000
829.727417	194.600000
829.762146	192.000000
829.796814	188.900000
829.831482	189.400000
829.866150	192.200000
829.900879	187.700000
829.935486	193.100000
829.970154	188.500000
830.004883	201.400000
830.039490	192.700000
830.074219	188.100000
830.108887	192.700000
830.143494	191.100000
830.178223	186.300000
830.212891	190.400000
830.247498	192.000000
830.282166	197.400000
830.316772	196.300000
830.351501	190.100000
830.386169	190.500000
830.420776	190.100000
830.455444	191.900000
830.490112	188.600000
830.524719	185.900000
830.559387	194.000000
830.594055	192.900000
830.628662	191.400000
830.663330	192.300000
830.697998	199.100000
830.732605	191.100000
830.767273	191.300000
830.801941	190.000000
830.836487	198.400000
830.871155	191.900000
830.905762	192.900000
830.940430	186.400000
830.975098	187.800000
831.009644	193.100000
831.044312	198.000000
831.078979	194.400000
831.113525	183.900000
831.148193	191.100000
831.182861	190.600000
831.217407	193.900000
831.252075	201.700000
831.286621	189.800000
831.321289	187.700000
831.355896	191.900000
831.390564	197.100000
831.425110	192.000000
831.459778	197.800000
831.494324	201.800000
831.528931	192.000000
831.563599	196.000000
831.598145	186.600000
831.632751	190.900000
831.667419	190.000000
831.701965	193.400000
831.736572	192.300000
831.771179	187.400000
831.805786	188.200000
831.840393	196.200000
831.874939	186.500000
831.909546	196.300000
831.944153	184.500000
831.978760	190.700000
832.013306	187.600000
832.047913	196.300000
832.082458	199.000000
832.117065	188.300000
832.151672	197.700000
832.186218	193.300000
832.220825	193.400000
832.255432	185.800000
832.289978	189.600000
832.324585	192.200000
832.359192	193.100000
832.393677	188.800000
832.428284	190.700000
832.462830	190.000000
832.497437	190.300000
832.531982	193.400000
832.566589	189.700000
832.601135	193.000000
832.635681	185.800000
832.670227	190.800000
832.704773	198.200000
832.739380	191.600000
832.773926	191.600000
832.808472	188.700000
832.843079	191.600000
832.877563	192.200000
832.912170	189.400000
832.946716	186.300000
832.981201	195.500000
833.015808	193.800000
833.050293	191.300000
833.084839	189.200000
833.119446	190.900000
833.153992	193.900000
833.188477	190.000000
833.223022	189.500000
833.257568	193.200000
833.292114	195.000000
833.326660	201.300000
833.361145	189.600000
833.395691	186.200000
833.430237	191.600000
833.464783	194.200000
833.499329	188.800000
833.533875	188.500000
833.568359	195.200000
833.602905	194.800000
833.637390	195.900000
833.671875	188.100000
833.706421	189.500000
833.740906	188.900000
833.775452	185.000000
833.809998	188.400000
833.844482	197.600000
833.879028	191.800000
833.913513	189.200000
833.947998	193.800000
833.982544	189.000000
834.017090	189.300000
834.051514	184.100000
834.086060	194.000000
834.120544	189.700000
834.155029	192.400000
834.189575	191.700000
834.223999	194.800000
834.258545	191.800000
834.293030	191.500000
834.327515	190.900000
834.362000	189.000000
834.396545	194.700000
834.430969	190.300000
834.465454	195.700000
834.500000	185.700000
834.534424	193.200000
834.568970	185.200000
834.603455	186.400000
834.637878	187.800000
834.672363	193.100000
834.706909	191.900000
834.741333	190.800000
834.775818	186.600000
834.810242	188.000000
834.844727	191.900000
834.879211	191.100000
834.913635	192.000000
834.948181	192.200000
834.982666	191.600000
835.017090	189.000000
835.051575	191.500000
835.086060	188.400000
835.120483	193.400000
835.154907	192.300000
835.189331	190.700000
835.223816	192.900000
835.258301	186.100000
835.292786	187.800000
835.327209	194.900000
835.361694	187.200000
835.396057	189.500000
835.430542	194.000000
835.465027	191.500000
835.499390	187.900000
835.533875	217.900000
835.568359	189.300000
835.602722	186.200000
835.637207	193.700000
835.671692	185.600000
835.706055	206.700000
835.740540	193.900000
835.774902	193.200000
835.809387	193.100000
835.843811	186.000000
835.878235	196.400000
835.912659	185.900000
835.947083	189.300000
835.981506	191.100000
836.015930	186.200000
836.050354	195.300000
836.084778	197.800000
836.119202	196.200000
836.153625	204.200000
836.187988	187.700000
836.222473	188.500000
836.256897	192.300000
836.291260	190.800000
836.325684	193.500000
836.360046	190.000000
836.394470	190.300000
836.428894	196.000000
836.463318	189.300000
836.497681	193.800000
836.532104	196.800000
836.566467	192.100000
836.600891	190.700000
836.635315	195.300000
836.669678	192.400000
836.704102	194.500000
836.738525	193.000000
836.772888	185.000000
836.807251	189.200000
836.841675	193.400000
836.876038	187.700000
836.910461	187.900000
836.944763	194.700000
836.979187	189.000000
837.013611	195.400000
837.047974	186.200000
837.082336	201.000000
837.116699	193.800000
837.151062	191.100000
837.185486	185.800000
837.219849	188.700000
837.254211	194.800000
837.288574	191.300000
837.322937	187.000000
837.357300	184.500000
837.391663	201.200000
837.426086	195.600000
837.460388	191.800000
837.494751	195.000000
837.529114	188.700000
837.563477	198.000000
837.597839	192.800000
837.632141	191.400000
837.666565	190.100000
837.700928	193.500000
837.735229	192.900000
837.769592	193.800000
837.803955	194.700000
837.838257	189.700000
837.872620	189.100000
837.906982	197.000000
837.941284	190.400000
837.975647	192.300000
838.010010	196.000000
838.044312	190.200000
838.078674	189.300000
838.112976	191.800000
838.147339	193.200000
838.181702	192.400000
838.216003	197.500000
838.250366	193.300000
838.284668	193.800000
838.318970	185.900000
838.353333	191.900000
838.387634	190.900000
838.421936	191.900000
838.456299	193.700000
838.490601	196.400000
838.524902	194.900000
838.559265	194.500000
838.593567	194.400000
838.627869	188.400000
838.662170	193.100000
838.696472	186.600000
838.730774	188.600000
838.765137	194.100000
838.799377	181.700000
838.833740	192.400000
838.868042	196.900000
838.902283	185.600000
838.936646	196.900000
838.970947	191.900000
839.005188	196.500000
839.039551	186.400000
839.073792	197.300000
839.108093	190.600000
839.142395	196.800000
839.176697	186.100000
839.210937	192.200000
839.245300	200.100000
839.279541	187.100000
839.313843	190.100000
839.348145	194.100000
839.382385	195.300000
839.416687	195.800000
839.450989	193.900000
839.485229	191.200000
839.519531	187.100000
839.553833	196.600000
839.588013	190.800000
839.622314	192.500000
839.656555	192.700000
839.690857	190.700000
839.725159	187.800000
839.759460	191.700000
839.793640	188.500000
839.827942	192.100000
839.862183	187.900000
839.896423	193.100000
839.930725	202.600000
839.964966	199.400000
839.999207	196.700000
840.033508	197.700000
840.067688	189.900000
840.101990	199.000000
840.136230	191.600000
840.170471	198.300000
840.204712	187.900000
840.238953	189.500000
840.273193	191.700000
840.307434	193.000000
840.341736	189.200000
840.375916	186.200000
840.410217	187.700000
840.444397	194.300000
840.478638	193.000000
840.512878	195.400000
840.547119	192.700000
840.581360	194.100000
840.615601	198.000000
840.649780	200.500000
840.684021	190.100000
840.718262	198.500000
840.752441	197.700000
840.786682	192.800000
840.820862	191.500000
840.855103	198.400000
840.889343	193.300000
840.923584	195.100000
840.957764	193.600000
840.992004	192.200000
841.026184	204.100000
841.060425	190.800000
841.094666	189.100000
841.128845	194.300000
841.163025	193.600000
841.197266	194.000000
841.231445	192.900000
841.265686	193.200000
841.299866	188.100000
841.334045	196.400000
841.368286	190.600000
841.402405	198.900000
841.436646	193.800000
841.470825	190.300000
841.505005	192.000000
841.539185	188.300000
841.573425	189.900000
841.607544	192.100000
841.641785	191.500000
841.675964	188.800000
841.710144	192.000000
841.744324	190.000000
841.778503	190.700000
841.812683	189.300000
841.846863	196.400000
841.881042	197.300000
841.915222	189.900000
841.949402	202.300000
841.983521	184.700000
842.017700	189.600000
842.051880	192.000000
842.086060	193.600000
842.120239	190.800000
842.154419	189.100000
842.188538	192.500000
842.222717	188.500000
842.256897	197.600000
842.291016	190.400000
842.325195	192.800000
842.359375	201.200000
842.393494	196.900000
842.427673	191.900000
842.461853	193.000000
842.495911	199.400000
842.530090	192.100000
842.564209	191.300000
842.598389	192.000000
842.632568	192.600000
842.666626	194.900000
842.700806	190.000000
842.734985	190.200000
842.769043	194.400000
842.803223	191.400000
842.837402	191.000000
842.871460	188.700000
842.905640	200.900000
842.939697	188.900000
842.973877	192.300000
843.007996	197.100000
843.042175	201.800000
843.076233	189.200000
843.110413	194.200000
843.144470	199.200000
843.178589	195.800000
843.212769	189.800000
843.246826	194.700000
843.280945	188.100000
843.315125	190.300000
843.349182	187.500000
843.383301	195.100000
843.417419	200.700000
843.451538	190.500000
843.485657	190.600000
843.519714	190.300000
843.553833	192.500000
843.587952	188.800000
843.622070	188.700000
843.656128	193.600000
843.690247	190.200000
843.724304	191.300000
843.758423	194.400000
843.792542	189.700000
843.826599	192.500000
843.860718	190.800000
843.894836	185.900000
843.928894	193.200000
843.963013	193.600000
843.997070	189.900000
844.031128	188.000000
844.065247	196.100000
844.099304	195.500000
844.133362	193.500000
844.167480	195.600000
844.201599	197.000000
844.235596	194.200000
844.269714	193.800000
844.303711	193.100000
844.337830	186.100000
844.371948	195.100000
844.405945	192.000000
844.440063	188.800000
844.474121	203.600000
844.508118	189.300000
844.542236	191.400000
844.576294	191.500000
844.610352	186.800000
844.644409	191.500000
844.678406	184.900000
844.712524	196.000000
844.746582	198.000000
844.780640	190.700000
844.814636	192.200000
844.848755	202.500000
844.882751	190.300000
844.916809	194.400000
844.950867	192.700000
844.984863	198.900000
845.018921	190.200000
845.052979	188.700000
845.086975	192.400000
845.121033	186.300000
845.155090	188.900000
845.189087	197.000000
845.223145	189.500000
845.257141	193.100000
845.291199	195.000000
845.325256	196.900000
845.359253	194.200000
845.393250	203.700000
845.427307	191.700000
845.461304	194.000000
845.495361	192.600000
845.529358	201.800000
845.563354	193.200000
845.597412	190.000000
845.631409	198.800000
845.665405	197.700000
845.699463	196.100000
845.733459	190.900000
845.767456	201.100000
845.801453	191.500000
845.835449	196.700000
845.869446	195.600000
845.903503	196.300000
845.937439	187.800000
845.971497	197.900000
846.005493	187.100000
846.039429	196.600000
846.073486	200.500000
846.107483	189.200000
846.141418	190.300000
846.175476	193.300000
846.209473	195.800000
846.243408	189.100000
846.277405	193.200000
846.311401	188.300000
846.345337	190.200000
846.379395	195.300000
846.413330	188.100000
846.447327	199.600000
846.481323	189.000000
846.515259	190.200000
846.549255	190.800000
846.583252	195.000000
846.617187	188.700000
846.651184	192.900000
846.685120	190.900000
846.719055	199.300000
846.753052	194.400000
846.786987	195.600000
846.820984	188.800000
846.854980	197.300000
846.888916	189.100000
846.922852	193.600000
846.956848	197.000000
846.990723	189.400000
847.024719	193.600000
847.058716	191.600000
847.092590	197.900000
847.126587	193.200000
847.160522	189.900000
847.194458	196.900000
847.228455	190.300000
847.262390	188.000000
847.296265	190.500000
847.330261	195.700000
847.364136	191.100000
847.398132	190.500000
847.432068	193.200000
847.466003	189.700000
847.499939	190.100000
847.533875	192.500000
847.567749	192.200000
847.601746	189.900000
847.635681	193.800000
847.669556	185.200000
847.703491	196.700000
847.737427	202.500000
847.771301	186.700000
847.805237	194.300000
847.839233	193.400000
847.873108	191.400000
847.907043	191.400000
847.940918	197.300000
847.974854	194.200000
848.008789	195.200000
848.042664	191.900000
848.076538	194.900000
848.110474	192.400000
848.144348	194.100000
848.178284	186.700000
848.212219	194.700000
848.246094	191.900000
848.279968	193.800000
848.313904	194.800000
848.347778	192.900000
848.381653	191.500000
848.415588	190.000000
848.449463	189.000000
848.483337	195.300000
848.517212	199.900000
848.551086	192.300000
848.585022	189.000000
848.618835	202.600000
848.652771	190.000000
848.686646	189.800000
848.720520	199.500000
848.754395	192.000000
848.788330	194.200000
848.822144	195.100000
848.856018	189.600000
848.889954	200.000000
848.923767	188.800000
848.957642	190.000000
848.991577	193.500000
849.025391	191.100000
849.059265	191.500000
849.093079	188.700000
849.126953	188.300000
849.160828	195.100000
849.194641	192.100000
849.228577	189.500000
849.262451	190.900000
849.296265	190.600000
849.330139	189.800000
849.364014	194.300000
849.397827	192.600000
849.431702	194.700000
849.465515	195.000000
849.499329	186.500000
849.533203	188.700000
849.567078	184.100000
849.600891	194.500000
849.634766	191.600000
849.668518	195.000000
849.702393	192.700000
849.736267	187.500000
849.770020	200.300000
849.803894	194.200000
849.837769	192.600000
849.871521	192.300000
849.905396	195.900000
849.939270	188.500000
849.973022	190.400000
850.006897	195.400000
850.040710	196.000000
850.074524	194.800000
850.108337	191.800000
850.142151	197.000000
850.175964	197.600000
850.209778	192.300000
850.243530	182.900000
850.277405	195.900000
850.311218	191.900000
850.344971	189.800000
850.378845	197.400000
850.412659	189.000000
850.446411	194.400000
850.480225	191.900000
850.514038	195.000000
850.547791	195.700000
850.581665	191.100000
850.615417	190.200000
850.649231	193.200000
850.683044	190.600000
850.716858	191.200000
850.750610	193.600000
850.784424	194.400000
850.818176	189.700000
850.851929	192.100000
850.885742	189.800000
850.919495	190.800000
850.953308	198.300000
850.987122	198.400000
851.020874	188.300000
851.054626	187.700000
851.088440	195.500000
851.122192	195.400000
851.156006	192.400000
851.189697	192.900000
851.223511	187.200000
851.257263	195.700000
851.291077	192.900000
851.324829	191.900000
851.358582	190.000000
851.392334	192.900000
851.426086	190.500000
851.459900	198.100000
851.493591	193.100000
851.527344	191.000000
851.561157	191.900000
851.594849	194.400000
851.628662	193.500000
851.662415	200.000000
851.696106	193.100000
851.729858	195.000000
851.763611	187.300000
851.797363	193.100000
851.831116	188.600000
851.864868	194.300000
851.898560	196.000000
851.932312	191.200000
851.966064	194.400000
851.999817	192.200000
852.033569	191.000000
852.067261	197.000000
852.101013	189.500000
852.134766	191.600000
852.168457	184.300000
852.202209	198.200000
852.235901	189.500000
852.269592	194.800000
852.303345	198.900000
852.337036	195.900000
852.370789	193.200000
852.404541	195.300000
852.438171	188.600000
852.471924	192.100000
852.505676	188.500000
852.539307	193.600000
852.573059	191.300000
852.606812	192.300000
852.640442	190.400000
852.674194	197.200000
852.707886	203.000000
852.741577	198.300000
852.775269	190.000000
852.809021	192.600000
852.842651	193.600000
852.876404	199.200000
852.910034	194.600000
852.943787	196.500000
852.977478	195.100000
853.011108	189.300000
853.044861	189.900000
853.078552	197.900000
853.112183	194.300000
853.145874	192.700000
853.179626	186.100000
853.213257	192.500000
853.246948	190.600000
853.280640	199.200000
853.314270	191.200000
853.347961	197.400000
853.381653	195.900000
853.415283	197.900000
853.448975	189.100000
853.482605	192.900000
853.516296	191.600000
853.549988	188.600000
853.583618	193.500000
853.617310	193.600000
853.651001	194.100000
853.684631	188.400000
853.718323	189.800000
853.751953	197.200000
853.785583	185.800000
853.819275	196.100000
853.852966	195.400000
853.886536	187.400000
853.920227	189.200000
853.953918	196.700000
853.987488	191.800000
854.021179	194.900000
854.054749	200.500000
854.088440	195.800000
854.122131	188.200000
854.155701	195.000000
854.189331	190.300000
854.223022	194.900000
854.256592	193.200000
854.290283	190.200000
854.323914	194.100000
854.357483	192.500000
854.391174	193.800000
854.424744	199.600000
854.458374	192.700000
854.492065	202.100000
854.525696	195.200000
854.559265	196.300000
854.592896	201.800000
854.626465	192.900000
854.660095	192.000000
854.693787	194.900000
854.727356	191.600000
854.760986	195.700000
854.794617	194.300000
854.828186	191.900000
854.861816	195.600000
854.895447	194.100000
854.929016	193.200000
854.962585	193.400000
854.996155	200.300000
855.029785	193.400000
855.063416	192.100000
855.097046	195.600000
855.130615	188.600000
855.164185	196.500000
855.197754	194.100000
855.231384	195.300000
855.264954	192.700000
855.298523	196.500000
855.332153	194.300000
855.365723	197.400000
855.399292	190.400000
855.432922	192.000000
855.466492	193.900000
855.500061	189.800000
855.533630	190.400000
855.567200	195.300000
855.600769	196.800000
855.634338	195.900000
855.667969	194.500000
855.701477	189.300000
855.735046	191.100000
855.768616	186.100000
855.802185	195.600000
855.835754	204.600000
855.869324	186.400000
855.902893	190.500000
855.936401	197.400000
855.969971	191.900000
856.003540	187.000000
856.037109	193.800000
856.070618	189.900000
856.104187	188.400000
856.137695	191.800000
856.171265	185.700000
856.204834	193.000000
856.238403	196.100000
856.271912	190.200000
856.305481	194.400000
856.338989	188.300000
856.372559	195.200000
856.406128	195.700000
856.439636	196.500000
856.473145	190.600000
856.506653	198.800000
856.540222	193.500000
856.573792	197.700000
856.607300	196.700000
856.640808	189.700000
856.674377	192.900000
856.707825	226.200000
856.741394	198.000000
856.774902	189.500000
856.808472	187.400000
856.841980	195.900000
856.875488	198.100000
856.908936	187.400000
856.942505	191.500000
856.976013	191.800000
857.009521	190.700000
857.043030	193.400000
857.076477	192.000000
857.110046	198.000000
857.143555	193.100000
857.177063	195.400000
857.210571	190.800000
857.244080	188.800000
857.277527	194.600000
857.311035	192.100000
857.344543	196.500000
857.378052	192.100000
857.411499	198.200000
857.445068	198.400000
857.478516	192.800000
857.512024	188.800000
857.545532	190.300000
857.578979	193.700000
857.612427	194.300000
857.645874	189.800000
857.679382	193.900000
857.712891	196.600000
857.746399	192.300000
857.779846	197.600000
857.813354	196.900000
857.846741	192.700000
857.880249	190.200000
857.913757	194.800000
857.947266	193.700000
857.980652	195.500000
858.014160	192.100000
858.047546	192.000000
858.081055	191.000000
858.114563	204.400000
858.147949	190.000000
858.181458	196.200000
858.214844	192.700000
858.248352	186.200000
858.281799	195.600000
858.315308	203.000000
858.348694	196.800000
858.382141	199.700000
858.415588	195.900000
858.449036	195.900000
858.482483	194.500000
858.515930	191.300000
858.549377	194.300000
858.582825	197.300000
858.616211	195.300000
858.649658	193.500000
858.683105	188.100000
858.716553	189.600000
858.750000	187.800000
858.783386	190.400000
858.816833	186.300000
858.850281	193.900000
858.883728	195.500000
858.917114	193.200000
858.950562	199.900000
858.983948	198.900000
859.017395	197.300000
859.050781	190.600000
859.084167	189.600000
859.117615	188.800000
859.151062	195.600000
859.184448	189.100000
859.217834	191.700000
859.251282	190.200000
859.284668	186.900000
859.318054	186.900000
859.351440	192.800000
859.384888	199.400000
859.418274	186.800000
859.451721	187.100000
859.485046	194.700000
859.518494	194.600000
859.551819	188.000000
859.585266	195.000000
859.618652	197.300000
859.652039	188.500000
859.685425	187.500000
859.718811	188.300000
859.752197	183.800000
859.785583	197.300000
859.819031	198.100000
859.852356	194.900000
859.885742	188.700000
859.919067	193.200000
859.952454	191.100000
859.985901	195.600000
860.019287	192.000000
860.052612	0.000000
860.085999	0.000000
860.119324	0.000000
860.152710	0.000000
860.186096	0.000000
860.219421	0.000000
860.252808	0.000000
860.286133	0.000000
860.319519	0.000000
860.352905	0.000000
860.386292	0.000000
860.419617	0.000000
860.452942	0.000000
860.486267	0.000000
860.519653	0.000000
860.553040	0.000000
860.586365	0.000000
860.619690	0.000000
860.653076	0.000000
860.686340	0.000000
860.719727	0.000000
860.753113	0.000000
860.786377	0.000000
860.819763	0.000000
860.853027	0.000000
860.886414	0.000000
860.919739	0.000000
860.953125	0.000000
860.986389	0.000000
861.019714	0.000000
861.053040	0.000000
861.086365	0.000000
861.119690	0.000000
861.153076	0.000000
861.186340	0.000000
861.219666	0.000000
861.252930	0.000000
861.286316	0.000000
861.319641	0.000000
861.352905	0.000000
861.386230	0.000000
861.419495	0.000000
861.452820	0.000000
861.486145	0.000000
861.519470	0.000000
861.552734	0.000000
861.586060	0.000000
861.619324	0.000000
861.652649	0.000000
861.685974	0.000000
861.719238	0.000000
861.752563	0.000000
861.785828	0.000000
861.819092	0.000000
861.852417	0.000000
861.885742	0.000000
861.918945	0.000000
861.952271	0.000000
861.985535	0.000000
862.018799	0.000000
862.052124	0.000000
862.085449	0.000000
862.118652	0.000000
862.151978	0.000000
862.185181	0.000000
862.218506	0.000000
862.251770	0.000000
862.285034	0.000000
862.318298	0.000000
862.351562	0.000000
862.384827	0.000000
862.418091	0.000000
862.451355	0.000000
862.484619	0.000000
862.517883	0.000000
862.551086	0.000000
862.584351	0.000000
862.617676	0.000000
862.650940	0.000000
862.684143	0.000000
862.717407	0.000000
862.750610	0.000000
862.783875	0.000000
862.817139	0.000000
862.850342	0.000000
862.883606	0.000000
862.916870	0.000000
862.950073	0.000000
862.983337	0.000000
863.016602	0.000000
863.049805	0.000000
863.083069	0.000000
863.116211	0.000000
863.149475	0.000000
863.182739	0.000000
863.216003	0.000000
863.249146	0.000000
863.282410	0.000000
863.315613	0.000000
863.348816	0.000000
863.382080	0.000000
863.415222	0.000000
863.448486	0.000000
863.481689	0.000000
863.514893	0.000000
863.548157	0.000000
863.581360	0.000000
863.614502	0.000000
863.647766	0.000000
863.680908	0.000000
863.714172	0.000000
863.747375	0.000000
863.780579	0.000000
863.813721	0.000000
863.846985	0.000000
863.880127	0.000000
863.913330	0.000000
863.946533	0.000000
863.979675	0.000000
864.012939	0.000000
