Model Number: SPM-001-M   
Serial Number: 10090201
Firmware Version: 004.17.6
Exposure Time: 300000.000000us
Data Taken on: 21-01-2021 14:52:04.663
Wavelength	Amplitude
733.770752	0.000000
733.808716	0.000000
733.846619	0.000000
733.884583	0.000000
733.922546	0.000000
733.960449	0.000000
733.998413	0.000000
734.036377	0.000000
734.074219	0.000000
734.112183	0.000000
734.150085	0.000000
734.188049	0.000000
734.226013	0.000000
734.263916	0.000000
734.301819	0.000000
734.339783	0.000000
734.377686	0.000000
734.415588	0.000000
734.453552	0.000000
734.491455	0.000000
734.529419	0.000000
734.567322	0.000000
734.605225	0.000000
734.643127	0.000000
734.681091	0.000000
734.718994	0.000000
734.756897	0.000000
734.794800	0.000000
734.832703	0.000000
734.870667	0.000000
734.908508	0.000000
734.946472	0.000000
734.984375	0.000000
735.022278	0.000000
735.060181	0.000000
735.098083	0.000000
735.135986	0.000000
735.173889	0.000000
735.211792	0.000000
735.249695	0.000000
735.287598	0.000000
735.325439	0.000000
735.363403	0.000000
735.401306	0.000000
735.439148	0.000000
735.477051	0.000000
735.515015	0.000000
735.552856	0.000000
735.590759	0.000000
735.628662	0.000000
735.666504	0.000000
735.704407	0.000000
735.742310	0.000000
735.780212	0.000000
735.818115	0.000000
735.856018	0.000000
735.893860	0.000000
735.931763	0.000000
735.969604	0.000000
736.007507	0.000000
736.045410	0.000000
736.083252	0.000000
736.121094	0.000000
736.158997	0.000000
736.196838	0.000000
736.234741	0.000000
736.272644	0.000000
736.310486	0.000000
736.348389	0.000000
736.386230	0.000000
736.424072	0.000000
736.461975	0.000000
736.499878	0.000000
736.537720	0.000000
736.575562	0.000000
736.613403	0.000000
736.651306	0.000000
736.689148	0.000000
736.726990	0.000000
736.764893	0.000000
736.802734	0.000000
736.840576	0.000000
736.878418	0.000000
736.916321	0.000000
736.954102	0.000000
736.992004	0.000000
737.029846	0.000000
737.067688	0.000000
737.105530	0.000000
737.143372	0.000000
737.181213	0.000000
737.219116	0.000000
737.256897	0.000000
737.294739	0.000000
737.332642	0.000000
737.370422	0.000000
737.408325	0.000000
737.446167	0.000000
737.483948	0.000000
737.521790	0.000000
737.559692	0.000000
737.597473	0.000000
737.635315	0.000000
737.673157	0.000000
737.710999	0.000000
737.748840	0.000000
737.786621	0.000000
737.824463	0.000000
737.862305	0.000000
737.900085	0.000000
737.937927	0.000000
737.975769	0.000000
738.013550	0.000000
738.051392	0.000000
738.089233	0.000000
738.127014	0.000000
738.164856	0.000000
738.202698	0.000000
738.240479	0.000000
738.278320	0.000000
738.316162	0.000000
738.353943	0.000000
738.391785	0.000000
738.429565	0.000000
738.467407	0.000000
738.505188	0.000000
738.542969	0.000000
738.580811	0.000000
738.618652	0.000000
738.656372	0.000000
738.694214	0.000000
738.732056	0.000000
738.769836	0.000000
738.807617	0.000000
738.845459	0.000000
738.883240	0.000000
738.921021	0.000000
738.958862	0.000000
738.996582	0.000000
739.034424	0.000000
739.072205	0.000000
739.109985	0.000000
739.147827	0.000000
739.185547	0.000000
739.223389	0.000000
739.261169	0.000000
739.298889	0.000000
739.336731	0.000000
739.374512	0.000000
739.412292	0.000000
739.450073	0.000000
739.487854	0.000000
739.525635	0.000000
739.563416	0.000000
739.601135	0.000000
739.638977	0.000000
739.676758	0.000000
739.714478	0.000000
739.752258	0.000000
739.790100	0.000000
739.827820	0.000000
739.865601	0.000000
739.903381	0.000000
739.941101	0.000000
739.978882	195.400000
740.016724	191.100000
740.054443	196.500000
740.092224	190.100000
740.130005	190.600000
740.167725	190.300000
740.205505	189.700000
740.243225	197.800000
740.281006	193.400000
740.318787	187.800000
740.356506	198.200000
740.394287	195.500000
740.432068	189.200000
740.469727	187.600000
740.507507	196.100000
740.545288	192.800000
740.583008	195.100000
740.620789	192.700000
740.658569	188.100000
740.696228	193.200000
740.734009	197.100000
740.771790	183.900000
740.809509	195.700000
740.847229	189.000000
740.884949	191.600000
740.922729	187.900000
740.960449	192.500000
740.998169	190.200000
741.035950	190.700000
741.073669	192.200000
741.111389	194.700000
741.149170	201.200000
741.186890	200.200000
741.224609	194.700000
741.262329	194.000000
741.300110	198.400000
741.337769	189.700000
741.375549	187.900000
741.413208	193.900000
741.450989	188.600000
741.488708	189.900000
741.526367	189.500000
741.564148	195.600000
741.601868	195.800000
741.639526	192.600000
741.677307	193.800000
741.715027	193.800000
741.752686	189.300000
741.790466	197.600000
741.828186	194.900000
741.865845	188.900000
741.903564	188.400000
741.941345	192.000000
741.979004	189.500000
742.016724	195.500000
742.054382	192.400000
742.092102	195.500000
742.129822	188.400000
742.167480	191.200000
742.205200	191.200000
742.242920	194.200000
742.280640	195.600000
742.318359	189.100000
742.356079	192.700000
742.393738	195.300000
742.431396	193.000000
742.469116	195.500000
742.506775	185.500000
742.544495	193.900000
742.582214	195.800000
742.619873	192.900000
742.657593	200.300000
742.695251	196.900000
742.732971	191.800000
742.770630	194.200000
742.808289	194.600000
742.846008	192.300000
742.883728	194.200000
742.921326	192.700000
742.959045	190.700000
742.996765	192.500000
743.034424	193.400000
743.072083	190.600000
743.109802	192.200000
743.147400	188.700000
743.185120	193.700000
743.222839	191.800000
743.260437	198.400000
743.298157	194.400000
743.335754	187.200000
743.373474	192.500000
743.411133	187.300000
743.448792	193.000000
743.486450	192.000000
743.524170	188.100000
743.561768	192.500000
743.599487	197.800000
743.637146	199.400000
743.674744	190.900000
743.712463	191.200000
743.750122	193.100000
743.787720	194.200000
743.825439	191.600000
743.863037	188.900000
743.900696	193.300000
743.938416	218.800000
743.976013	192.400000
744.013672	197.100000
744.051331	196.400000
744.088928	199.600000
744.126587	198.300000
744.164307	194.900000
744.201904	191.100000
744.239563	194.300000
744.277222	195.100000
744.314819	192.600000
744.352478	197.400000
744.390137	193.700000
744.427734	194.600000
744.465393	189.900000
744.502991	190.600000
744.540649	193.400000
744.578308	193.400000
744.615906	187.400000
744.653564	185.100000
744.691223	194.300000
744.728821	187.100000
744.766418	191.800000
744.804077	194.100000
744.841675	190.700000
744.879333	188.500000
744.916992	192.100000
744.954529	190.900000
744.992187	196.200000
745.029785	191.200000
745.067444	190.800000
745.105042	192.700000
745.142639	193.300000
745.180298	199.900000
745.217896	191.700000
745.255493	190.800000
745.293152	196.100000
745.330750	197.200000
745.368347	197.500000
745.405945	195.600000
745.443604	192.700000
745.481140	194.600000
745.518799	192.600000
745.556396	194.800000
745.593994	195.900000
745.631592	193.900000
745.669189	189.000000
745.706787	193.500000
745.744385	190.500000
745.781982	195.200000
745.819580	191.700000
745.857178	192.200000
745.894775	193.400000
745.932373	192.900000
745.969971	194.900000
746.007568	185.600000
746.045166	200.200000
746.082764	196.800000
746.120300	194.200000
746.157898	195.000000
746.195557	191.800000
746.233093	188.400000
746.270691	194.300000
746.308228	193.600000
746.345825	195.600000
746.383423	195.700000
746.420959	189.500000
746.458557	192.100000
746.496155	190.500000
746.533691	194.200000
746.571289	189.000000
746.608887	193.100000
746.646423	193.700000
746.684021	193.300000
746.721619	190.700000
746.759155	194.000000
746.796753	187.700000
746.834351	187.700000
746.871826	190.100000
746.909424	198.600000
746.946960	191.900000
746.984558	192.400000
747.022156	190.900000
747.059631	201.300000
747.097229	194.400000
747.134827	191.200000
747.172363	196.300000
747.209900	194.700000
747.247498	188.500000
747.285034	197.000000
747.322571	196.500000
747.360168	192.800000
747.397644	186.800000
747.435242	195.900000
747.472778	195.900000
747.510315	191.400000
747.547913	190.700000
747.585388	197.200000
747.622925	190.500000
747.660522	187.800000
747.697998	191.400000
747.735596	190.600000
747.773132	190.100000
747.810669	192.600000
747.848206	194.300000
747.885742	188.800000
747.923279	189.200000
747.960815	194.400000
747.998352	192.300000
748.035889	196.400000
748.073425	195.000000
748.110901	190.300000
748.148437	189.200000
748.185974	193.200000
748.223511	200.400000
748.261047	195.100000
748.298584	194.000000
748.336060	191.500000
748.373596	193.900000
748.411133	216.900000
748.448608	192.000000
748.486145	195.100000
748.523682	197.700000
748.561218	201.100000
748.598755	194.000000
748.636292	195.000000
748.673706	193.700000
748.711243	199.100000
748.748718	194.500000
748.786255	192.400000
748.823792	193.900000
748.861267	188.900000
748.898804	196.400000
748.936340	195.500000
748.973816	191.100000
749.011292	198.200000
749.048828	193.500000
749.086304	193.900000
749.123840	202.000000
749.161316	190.700000
749.198792	199.400000
749.236328	196.200000
749.273743	193.400000
749.311279	192.900000
749.348816	195.600000
749.386230	192.300000
749.423767	183.400000
749.461304	194.900000
749.498718	192.600000
749.536255	197.600000
749.573730	201.100000
749.611206	198.600000
749.648682	191.800000
749.686218	192.200000
749.723633	195.000000
749.761169	193.000000
749.798645	189.800000
749.836060	192.400000
749.873596	188.900000
749.911011	195.100000
749.948547	196.400000
749.986023	193.000000
750.023437	192.700000
750.060913	188.300000
750.098450	188.200000
750.135864	193.300000
750.173340	192.300000
750.210815	197.500000
750.248291	189.900000
750.285767	192.700000
750.323242	196.300000
750.360657	195.300000
750.398132	189.100000
750.435608	195.200000
750.473022	190.500000
750.510498	190.100000
750.547974	189.300000
750.585449	192.000000
750.622925	185.700000
750.660339	203.100000
750.697815	193.400000
750.735291	193.700000
750.772644	192.300000
750.810120	194.600000
750.847595	194.200000
750.885010	188.900000
750.922485	198.000000
750.959961	191.800000
750.997375	197.700000
751.034851	196.000000
751.072266	197.200000
751.109680	187.200000
751.147156	197.700000
751.184570	193.600000
751.221985	192.200000
751.259460	187.100000
751.296875	192.500000
751.334290	190.900000
751.371765	196.300000
751.409180	195.700000
751.446594	197.400000
751.484070	193.900000
751.521423	195.300000
751.558899	193.500000
751.596375	200.900000
751.633728	197.800000
751.671204	202.300000
751.708618	189.000000
751.746033	194.600000
751.783447	187.000000
751.820801	189.500000
751.858276	195.700000
751.895691	192.900000
751.933105	190.100000
751.970520	188.700000
752.007935	190.500000
752.045349	197.800000
752.082764	193.000000
752.120178	191.400000
752.157532	190.600000
752.195007	191.800000
752.232422	193.000000
752.269775	197.000000
752.307190	196.100000
752.344543	189.700000
752.382019	191.700000
752.419434	192.000000
752.456787	196.400000
752.494202	196.700000
752.531616	194.200000
752.568970	194.500000
752.606384	193.700000
752.643799	194.000000
752.681152	198.200000
752.718567	194.400000
752.755981	188.100000
752.793335	195.300000
752.830750	187.700000
752.868164	197.000000
752.905518	189.600000
752.942932	196.100000
752.980225	188.900000
753.017639	196.200000
753.055054	195.800000
753.092407	193.200000
753.129822	198.100000
753.167175	199.300000
753.204529	194.200000
753.241943	190.200000
753.279358	189.700000
753.316650	195.100000
753.354065	196.100000
753.391479	196.900000
753.428772	199.100000
753.466187	193.200000
753.503479	190.300000
753.540894	191.000000
753.578308	189.300000
753.615601	189.500000
753.653015	193.300000
753.690369	190.800000
753.727722	190.900000
753.765076	186.800000
753.802490	189.000000
753.839783	187.000000
753.877136	190.900000
753.914551	202.500000
753.951843	190.700000
753.989258	194.700000
754.026611	193.700000
754.063904	194.100000
754.101257	189.500000
754.138611	188.000000
754.175964	194.200000
754.213318	200.100000
754.250610	188.200000
754.288025	191.200000
754.325378	188.200000
754.362671	195.800000
754.400024	191.900000
754.437378	199.800000
754.474670	199.000000
754.512085	190.200000
754.549438	193.000000
754.586731	190.600000
754.624084	192.100000
754.661438	190.300000
754.698730	198.900000
754.736084	192.300000
754.773376	191.600000
754.810730	194.400000
754.848083	192.100000
754.885315	197.200000
754.922668	187.000000
754.960022	189.400000
754.997314	195.900000
755.034668	193.700000
755.072021	192.900000
755.109253	191.300000
755.146606	196.900000
755.183960	192.500000
755.221252	199.800000
755.258545	196.200000
755.295898	196.600000
755.333191	197.700000
755.370544	195.300000
755.407776	193.500000
755.445129	194.000000
755.482422	197.000000
755.519714	191.200000
755.557068	188.200000
755.594360	188.100000
755.631653	195.600000
755.668945	199.700000
755.706299	194.900000
755.743530	202.500000
755.780884	199.100000
755.818176	197.800000
755.855408	198.000000
755.892761	195.700000
755.930054	194.900000
755.967346	195.800000
756.004639	194.000000
756.041870	195.000000
756.079224	198.600000
756.116516	191.800000
756.153748	196.500000
756.191040	202.000000
756.228394	196.600000
756.265625	192.700000
756.302917	195.200000
756.340210	193.200000
756.377441	197.700000
756.414795	201.500000
756.452087	193.300000
756.489319	191.000000
756.526611	199.500000
756.563843	195.900000
756.601135	201.100000
756.638428	202.000000
756.675659	194.200000
756.712952	198.100000
756.750244	197.200000
756.787476	196.700000
756.824768	200.500000
756.862061	194.100000
756.899292	242.100000
756.936584	198.400000
756.973816	204.200000
757.011047	204.400000
757.048340	194.900000
757.085632	196.700000
757.122864	209.000000
757.160156	193.100000
757.197327	198.100000
757.234619	199.100000
757.271912	195.500000
757.309082	201.000000
757.346375	194.000000
757.383667	200.600000
757.420837	199.600000
757.458130	197.100000
757.495422	196.400000
757.532593	199.200000
757.569885	193.100000
757.607117	194.100000
757.644348	199.100000
757.681580	206.700000
757.718811	188.900000
757.756042	197.500000
757.793335	194.500000
757.830505	198.700000
757.867798	196.600000
757.905029	194.900000
757.942200	198.500000
757.979492	195.100000
758.016724	197.200000
758.053894	195.000000
758.091187	211.100000
758.128418	197.300000
758.165588	197.400000
758.202820	207.400000
758.240112	200.300000
758.277283	206.400000
758.314514	200.800000
758.351685	196.300000
758.388916	206.600000
758.426147	203.600000
758.463379	206.900000
758.500610	201.300000
758.537842	200.600000
758.575012	204.800000
758.612244	197.100000
758.649475	209.000000
758.686646	196.000000
758.723877	205.500000
758.761108	205.800000
758.798279	200.000000
758.835510	201.900000
758.872742	206.700000
758.909851	201.600000
758.947083	204.100000
758.984253	202.200000
759.021484	204.600000
759.058716	202.300000
759.095886	205.300000
759.133057	200.100000
759.170288	204.900000
759.207458	199.000000
759.244690	210.600000
759.281860	207.400000
759.319031	202.900000
759.356262	199.900000
759.393433	202.300000
759.430603	202.000000
759.467773	202.700000
759.505005	207.500000
759.542175	208.000000
759.579346	202.400000
759.616516	204.500000
759.653687	205.800000
759.690918	201.900000
759.728027	204.200000
759.765259	206.300000
759.802429	207.700000
759.839539	206.700000
759.876770	208.300000
759.913940	212.200000
759.951111	204.600000
759.988281	205.900000
760.025452	202.900000
760.062561	202.400000
760.099792	212.800000
760.136963	207.600000
760.174072	204.900000
760.211243	201.400000
760.248413	202.700000
760.285583	203.000000
760.322754	214.300000
760.359863	209.800000
760.397034	212.300000
760.434204	205.900000
760.471375	205.800000
760.508545	204.600000
760.545715	206.700000
760.582825	204.600000
760.619995	210.300000
760.657166	203.000000
760.694275	212.800000
760.731445	208.400000
760.768555	209.200000
760.805664	210.900000
760.842834	210.500000
760.879944	210.600000
760.917114	209.900000
760.954285	206.500000
760.991394	204.500000
761.028564	211.200000
761.065674	211.300000
761.102783	206.500000
761.139954	213.900000
761.177124	210.900000
761.214172	215.300000
761.251343	207.700000
761.288452	210.300000
761.325562	211.200000
761.362732	207.300000
761.399841	211.200000
761.436951	212.900000
761.474121	207.600000
761.511169	209.700000
761.548340	213.300000
761.585449	213.300000
761.622559	214.000000
761.659668	210.600000
761.696838	214.900000
761.733887	213.000000
761.771057	211.200000
761.808167	210.100000
761.845276	215.900000
761.882385	220.700000
761.919434	214.200000
761.956604	225.700000
761.993713	210.500000
762.030762	217.200000
762.067871	212.900000
762.105042	213.000000
762.142090	219.900000
762.179199	214.300000
762.216309	219.100000
762.253418	224.000000
762.290527	223.400000
762.327637	217.900000
762.364685	211.800000
762.401794	218.100000
762.438904	218.800000
762.475952	212.400000
762.513062	212.500000
762.550110	212.800000
762.587219	224.800000
762.624329	222.200000
762.661377	219.900000
762.698486	218.100000
762.735596	218.300000
762.772644	214.100000
762.809753	212.000000
762.846863	216.900000
762.883911	221.800000
762.921021	219.000000
762.958069	218.000000
762.995117	224.000000
763.032227	224.400000
763.069336	218.200000
763.106323	215.100000
763.143433	214.700000
763.180481	220.300000
763.217590	221.700000
763.254639	218.700000
763.291687	219.300000
763.328735	225.800000
763.365845	219.500000
763.402893	218.100000
763.439941	221.900000
763.477051	223.400000
763.514038	224.100000
763.551147	220.000000
763.588196	221.300000
763.625244	220.000000
763.662292	227.600000
763.699402	229.500000
763.736389	223.900000
763.773499	232.000000
763.810486	226.200000
763.847534	223.600000
763.884644	229.000000
763.921631	224.200000
763.958679	233.300000
763.995728	226.100000
764.032776	232.300000
764.069824	222.100000
764.106873	229.900000
764.143860	234.200000
764.180969	227.900000
764.218018	233.000000
764.255005	227.300000
764.292053	227.600000
764.329102	236.300000
764.366089	235.400000
764.403137	234.300000
764.440125	228.700000
764.477173	232.300000
764.514221	233.800000
764.551208	231.300000
764.588257	228.500000
764.625305	234.400000
764.662292	242.000000
764.699341	242.100000
764.736389	235.700000
764.773376	247.400000
764.810425	237.400000
764.847473	243.300000
764.884399	240.500000
764.921448	245.600000
764.958435	244.200000
764.995483	236.500000
765.032532	250.200000
765.069458	238.400000
765.106506	241.000000
765.143555	238.600000
765.180481	240.900000
765.217529	247.000000
765.254578	237.900000
765.291504	243.900000
765.328552	243.000000
765.365540	238.700000
765.402527	252.800000
765.439575	241.200000
765.476501	239.400000
765.513550	239.300000
765.550537	245.400000
765.587463	250.400000
765.624512	243.500000
765.661499	237.400000
765.698486	249.500000
765.735474	241.900000
765.772461	244.900000
765.809448	251.200000
765.846436	250.400000
765.883423	252.400000
765.920410	248.200000
765.957397	244.300000
765.994385	250.700000
766.031311	255.700000
766.068359	250.300000
766.105286	250.200000
766.142273	257.300000
766.179260	251.800000
766.216187	247.400000
766.253174	245.600000
766.290161	250.800000
766.327148	253.900000
766.364136	253.400000
766.401123	263.200000
766.438049	249.300000
766.475037	259.800000
766.512024	256.000000
766.548950	267.900000
766.585937	261.900000
766.622864	259.200000
766.659790	258.200000
766.696777	251.000000
766.733704	261.600000
766.770691	255.000000
766.807678	265.400000
766.844604	261.000000
766.881531	262.900000
766.918518	266.600000
766.955444	265.400000
766.992432	260.900000
767.029358	264.700000
767.066284	265.800000
767.103271	261.800000
767.140198	297.000000
767.177124	275.800000
767.214050	268.800000
767.251038	269.400000
767.287964	266.000000
767.324890	262.000000
767.361816	267.900000
767.398743	272.600000
767.435730	267.500000
767.472595	271.300000
767.509583	275.400000
767.546509	265.900000
767.583374	269.900000
767.620361	263.400000
767.657288	270.500000
767.694214	269.400000
767.731140	269.600000
767.768066	268.500000
767.804993	272.800000
767.841919	265.800000
767.878845	271.700000
767.915710	276.900000
767.952698	270.700000
767.989563	274.100000
768.026489	274.300000
768.063416	270.500000
768.100281	268.800000
768.137207	279.900000
768.174133	276.200000
768.211060	278.200000
768.247986	275.700000
768.284912	275.900000
768.321777	275.200000
768.358704	274.100000
768.395630	276.000000
768.432495	274.000000
768.469421	277.900000
768.506348	281.100000
768.543152	284.800000
768.580078	283.500000
768.616943	283.100000
768.653870	285.600000
768.690796	284.200000
768.727661	281.300000
768.764587	284.100000
768.801453	279.500000
768.838318	288.300000
768.875244	287.200000
768.912109	288.800000
768.948975	283.600000
768.985901	283.800000
769.022766	283.800000
769.059631	288.900000
769.096558	285.000000
769.133362	286.500000
769.170288	286.900000
769.207214	287.000000
769.244019	291.900000
769.280945	290.000000
769.317810	297.300000
769.354675	294.700000
769.391541	299.300000
769.428406	294.700000
769.465271	302.600000
769.502136	293.200000
769.539062	298.100000
769.575867	298.700000
769.612732	298.900000
769.649597	302.800000
769.686462	303.800000
769.723328	301.700000
769.760193	299.800000
769.797058	302.300000
769.833923	307.500000
769.870728	306.600000
769.907593	307.400000
769.944519	307.400000
769.981323	309.900000
770.018188	312.800000
770.055054	309.200000
770.091858	310.600000
770.128723	317.000000
770.165588	323.500000
770.202393	311.300000
770.239258	320.400000
770.276062	316.500000
770.312927	318.000000
770.349792	323.900000
770.386597	321.400000
770.423462	328.500000
770.460327	334.200000
770.497131	323.100000
770.533997	320.500000
770.570862	333.200000
770.607605	332.100000
770.644470	329.400000
770.681335	329.100000
770.718140	329.500000
770.754944	325.100000
770.791809	328.100000
770.828613	328.900000
770.865479	331.300000
770.902222	338.100000
770.939087	333.500000
770.975952	327.800000
771.012695	329.000000
771.049561	339.900000
771.086365	335.100000
771.123169	333.700000
771.159973	336.700000
771.196838	336.400000
771.233582	338.400000
771.270447	340.800000
771.307251	343.300000
771.344055	341.700000
771.380859	345.200000
771.417664	338.800000
771.454468	346.900000
771.491272	343.100000
771.528076	346.000000
771.564880	343.000000
771.601685	351.200000
771.638428	343.900000
771.675293	350.200000
771.712097	339.200000
771.748840	356.800000
771.785645	348.500000
771.822449	352.100000
771.859253	354.500000
771.896057	353.600000
771.932861	360.500000
771.969604	356.100000
772.006409	349.500000
772.043213	359.100000
772.079956	356.700000
772.116760	353.300000
772.153503	354.300000
772.190308	361.800000
772.227112	357.200000
772.263855	354.600000
772.300659	359.400000
772.337463	366.600000
772.374207	357.100000
772.411011	356.000000
772.447754	360.600000
772.484497	370.300000
772.521301	366.500000
772.558105	363.200000
772.594849	362.100000
772.631592	365.800000
772.668396	363.500000
772.705139	368.400000
772.741882	365.400000
772.778625	375.200000
772.815430	377.100000
772.852173	374.300000
772.888916	380.200000
772.925720	379.100000
772.962463	386.000000
772.999207	381.100000
773.035950	385.600000
773.072754	385.000000
773.109436	379.800000
773.146240	382.000000
773.182922	383.200000
773.219727	384.100000
773.256470	384.600000
773.293152	375.300000
773.329956	382.700000
773.366699	385.400000
773.403381	376.100000
773.440186	386.100000
773.476929	386.400000
773.513611	384.700000
773.550354	385.400000
773.587158	386.500000
773.623840	379.100000
773.660583	384.000000
773.697327	392.500000
773.734009	387.400000
773.770813	388.800000
773.807495	385.400000
773.844238	387.200000
773.880981	400.300000
773.917664	397.600000
773.954407	401.900000
773.991150	395.800000
774.027832	403.100000
774.064575	393.400000
774.101318	398.500000
774.138000	401.600000
774.174744	398.400000
774.211487	398.600000
774.248108	392.500000
774.284851	390.900000
774.321594	401.400000
774.358276	402.700000
774.395020	410.200000
774.431702	406.300000
774.468384	400.000000
774.505127	395.800000
774.541809	406.300000
774.578491	411.300000
774.615234	413.500000
774.651917	407.600000
774.688599	413.900000
774.725342	416.900000
774.762024	416.300000
774.798706	416.800000
774.835449	421.800000
774.872070	425.200000
774.908813	426.900000
774.945496	421.700000
774.982178	421.000000
775.018860	423.700000
775.055542	423.500000
775.092224	422.800000
775.128967	431.900000
775.165588	428.400000
775.202271	424.800000
775.239014	432.400000
775.275635	436.400000
775.312317	435.100000
775.349060	437.700000
775.385681	436.100000
775.422363	428.600000
775.459045	438.500000
775.495667	440.800000
775.532410	444.300000
775.569092	443.100000
775.605713	444.200000
775.642395	441.700000
775.679016	440.600000
775.715698	440.400000
775.752380	448.200000
775.789001	443.100000
775.825684	448.800000
775.862366	448.200000
775.898987	460.100000
775.935669	449.900000
775.972351	471.800000
776.008972	465.400000
776.045654	470.000000
776.082336	461.200000
776.118958	463.000000
776.155640	466.300000
776.192322	475.600000
776.228882	473.700000
776.265564	479.500000
776.302185	476.800000
776.338867	480.500000
776.375488	470.300000
776.412109	479.300000
776.448792	483.900000
776.485413	491.400000
776.522034	486.600000
776.558716	482.900000
776.595337	483.000000
776.631958	487.200000
776.668579	489.700000
776.705261	500.000000
776.741882	490.400000
776.778503	489.500000
776.815186	491.500000
776.851746	492.400000
776.888367	493.200000
776.924988	503.400000
776.961609	498.400000
776.998291	496.700000
777.034851	490.000000
777.071472	500.700000
777.108154	495.700000
777.144714	507.200000
777.181335	507.800000
777.218018	503.000000
777.254578	512.800000
777.291199	509.800000
777.327759	513.600000
777.364380	519.000000
777.401062	522.800000
777.437622	529.000000
777.474243	523.900000
777.510864	523.400000
777.547424	520.200000
777.584045	523.600000
777.620667	525.200000
777.657227	526.600000
777.693848	532.700000
777.730469	539.200000
777.767029	531.100000
777.803650	535.000000
777.840271	531.500000
777.876831	527.200000
777.913452	540.700000
777.950012	524.000000
777.986633	524.900000
778.023193	524.700000
778.059753	525.300000
778.096375	528.400000
778.132996	542.400000
778.169556	536.500000
778.206116	535.800000
778.242737	531.200000
778.279297	534.200000
778.315857	529.300000
778.352478	538.100000
778.389038	543.400000
778.425598	538.000000
778.462219	543.200000
778.498718	542.700000
778.535339	549.400000
778.571838	550.700000
778.608459	553.600000
778.645020	546.900000
778.681580	555.400000
778.718140	555.900000
778.754761	551.900000
778.791260	554.200000
778.827881	560.600000
778.864441	560.900000
778.900940	568.900000
778.937561	564.600000
778.974121	564.100000
779.010620	558.800000
779.047241	562.200000
779.083801	565.200000
779.120300	568.100000
779.156860	571.000000
779.193359	566.200000
779.229980	565.800000
779.266541	572.000000
779.303040	570.400000
779.339600	565.800000
779.376160	564.000000
779.412659	567.400000
779.449219	565.400000
779.485779	565.000000
779.522278	566.900000
779.558838	571.200000
779.595398	572.000000
779.631897	566.900000
779.668457	557.500000
779.705017	571.700000
779.741516	561.400000
779.778076	556.100000
779.814575	560.400000
779.851074	564.400000
779.887634	563.100000
779.924133	572.800000
779.960693	557.600000
779.997253	565.900000
780.033691	570.000000
780.070251	572.500000
780.106812	580.400000
780.143250	570.200000
780.179810	567.000000
780.216370	566.700000
780.252808	566.100000
780.289368	560.800000
780.325867	528.600000
780.362366	465.500000
780.398865	401.200000
780.435364	322.700000
780.471863	282.600000
780.508423	262.800000
780.544861	278.800000
780.581421	293.700000
780.617920	287.800000
780.654419	279.300000
780.690918	277.700000
780.727417	308.800000
780.763916	370.300000
780.800415	452.600000
780.836914	507.200000
780.873352	561.500000
780.909912	579.100000
780.946411	591.200000
780.982849	593.500000
781.019348	601.900000
781.055786	594.500000
781.092346	583.900000
781.128845	568.900000
781.165283	527.100000
781.201782	461.800000
781.238281	378.200000
781.274719	309.400000
781.311218	271.300000
781.347717	284.300000
781.384155	289.700000
781.420654	295.600000
781.457092	295.100000
781.493591	280.200000
781.530090	287.100000
781.566528	338.000000
781.602966	417.500000
781.639465	504.900000
781.675903	566.200000
781.712402	607.300000
781.748901	625.300000
781.785278	618.400000
781.821777	625.000000
781.858276	624.900000
781.894714	633.100000
781.931152	604.600000
781.967651	555.300000
782.004089	468.200000
782.040527	383.400000
782.076965	313.200000
782.113403	282.500000
782.149902	287.500000
782.186340	303.600000
782.222778	318.200000
782.259277	303.400000
782.295654	288.800000
782.332092	307.100000
782.368591	364.900000
782.404968	450.000000
782.441467	549.000000
782.477905	621.400000
782.514282	660.900000
782.550781	684.100000
782.587219	688.100000
782.623596	689.900000
782.660095	703.300000
782.696472	702.900000
782.732910	700.500000
782.769348	703.200000
782.805786	715.600000
782.842224	720.000000
782.878662	718.200000
782.915039	716.300000
782.951477	716.700000
782.987915	717.700000
783.024292	725.400000
783.060730	725.100000
783.097168	717.300000
783.133545	711.600000
783.169983	713.400000
783.206421	710.500000
783.242798	710.800000
783.279236	707.100000
783.315613	706.500000
783.352051	708.200000
783.388489	704.600000
783.424866	697.200000
783.461304	705.900000
783.497681	708.800000
783.534058	708.100000
783.570496	701.100000
783.606934	700.200000
783.643250	706.600000
783.679687	714.200000
783.716125	705.500000
783.752441	720.500000
783.788879	734.100000
783.825317	743.500000
783.861633	740.700000
783.898071	739.100000
783.934448	752.700000
783.970825	764.300000
784.007263	765.900000
784.043579	773.800000
784.080017	774.500000
784.116394	770.100000
784.152710	771.400000
784.189148	771.500000
784.225525	774.000000
784.261902	766.600000
784.298279	765.100000
784.334656	769.500000
784.371033	756.700000
784.407410	761.700000
784.443787	751.000000
784.480164	736.700000
784.516541	723.300000
784.552856	727.900000
784.589233	730.000000
784.625610	729.200000
784.661987	748.700000
784.698364	742.000000
784.734741	732.900000
784.771057	732.700000
784.807434	739.000000
784.843811	750.600000
784.880127	746.900000
784.916504	766.800000
784.952881	768.400000
784.989197	768.000000
785.025574	775.200000
785.061951	778.500000
785.098267	796.300000
785.134644	793.600000
785.170959	795.700000
785.207275	790.200000
785.243652	792.700000
785.279968	780.000000
785.316345	777.900000
785.352722	781.100000
785.388977	774.000000
785.425354	764.200000
785.461731	748.200000
785.498047	740.900000
785.534363	738.000000
785.570679	743.200000
785.606995	739.400000
785.643372	737.000000
785.679687	732.900000
785.716003	725.800000
785.752380	722.400000
785.788635	732.500000
785.825012	740.900000
785.861328	745.900000
785.897644	741.200000
785.933960	754.500000
785.970337	756.100000
786.006592	773.900000
786.042908	774.000000
786.079285	788.500000
786.115540	797.100000
786.151855	805.600000
786.188171	802.200000
786.224487	799.000000
786.260803	793.400000
786.297119	802.100000
786.333435	806.000000
786.369751	799.500000
786.406006	800.400000
786.442322	787.200000
786.478638	772.500000
786.514954	783.700000
786.551270	779.000000
786.587585	786.800000
786.623840	776.900000
786.660156	769.000000
786.696472	754.700000
786.732727	752.800000
786.769043	762.700000
786.805298	752.500000
786.841614	755.100000
786.877930	765.800000
786.914124	760.000000
786.950439	775.300000
786.986755	774.300000
787.023010	788.400000
787.059326	794.500000
787.095642	801.300000
787.131836	812.400000
787.168152	808.300000
787.204468	820.200000
787.240723	828.900000
787.276978	831.700000
787.313293	837.600000
787.349548	833.500000
787.385803	837.300000
787.422058	838.100000
787.458313	833.800000
787.494629	830.600000
787.530823	834.300000
787.567139	823.000000
787.603455	814.900000
787.639648	808.100000
787.675903	806.100000
787.712219	797.700000
787.748413	796.500000
787.784729	806.000000
787.820984	794.500000
787.857178	796.500000
787.893494	789.700000
787.929749	786.200000
787.965942	800.300000
788.002258	808.700000
788.038452	818.000000
788.074707	815.200000
788.110962	822.400000
788.147217	819.700000
788.183472	829.200000
788.219727	843.200000
788.255920	861.400000
788.292175	865.600000
788.328430	865.300000
788.364624	850.100000
788.400879	845.200000
788.437134	855.200000
788.473328	859.900000
788.509583	864.300000
788.545837	860.100000
788.582031	859.700000
788.618286	856.100000
788.654480	850.000000
788.690735	852.000000
788.726990	868.300000
788.763184	868.000000
788.799377	871.300000
788.835632	874.200000
788.871826	888.400000
788.908081	879.300000
788.944336	877.900000
788.980469	893.200000
789.016724	884.500000
789.052979	884.000000
789.089111	871.800000
789.125366	879.400000
789.161621	865.100000
789.197754	871.200000
789.234009	866.200000
789.270142	869.600000
789.306396	866.700000
789.342590	867.200000
789.378784	850.700000
789.414978	844.500000
789.451233	850.600000
789.487366	855.100000
789.523621	857.800000
789.559814	861.500000
789.595947	848.600000
789.632202	856.800000
789.668335	872.500000
789.704529	878.900000
789.740784	896.400000
789.776917	906.600000
789.813110	894.300000
789.849304	908.200000
789.885498	908.700000
789.921692	915.300000
789.957886	928.400000
789.994019	934.700000
790.030212	929.000000
790.066406	931.400000
790.102539	927.200000
790.138733	939.300000
790.174927	923.600000
790.211060	940.000000
790.247253	930.500000
790.283386	928.200000
790.319580	922.600000
790.355774	904.600000
790.391907	911.000000
790.428101	914.400000
790.464294	919.100000
790.500427	924.900000
790.536621	912.400000
790.572754	895.000000
790.608887	888.200000
790.645081	897.200000
790.681274	916.000000
790.717346	912.300000
790.753540	899.000000
790.789734	882.100000
790.825867	868.200000
790.862000	871.900000
790.898132	884.300000
790.934265	877.800000
790.970459	877.400000
791.006592	875.600000
791.042725	880.400000
791.078918	869.300000
791.114990	869.100000
791.151184	873.300000
791.187317	891.400000
791.223389	891.100000
791.259583	879.200000
791.295715	879.700000
791.331848	879.900000
791.367981	882.400000
791.404114	892.900000
791.440247	904.100000
791.476379	897.200000
791.512451	872.600000
791.548584	872.900000
791.584778	872.500000
791.620850	892.100000
791.656982	905.400000
791.693115	895.700000
791.729187	895.600000
791.765381	892.900000
791.801514	882.100000
791.837585	885.900000
791.873718	887.700000
791.909851	894.900000
791.945923	907.800000
791.982056	882.500000
792.018188	881.300000
792.054260	877.300000
792.090393	878.100000
792.126465	874.200000
792.162598	883.900000
792.198669	874.200000
792.234741	865.500000
792.270874	858.800000
792.307007	857.300000
792.343079	859.100000
792.379150	867.400000
792.415283	854.200000
792.451355	865.300000
792.487488	848.100000
792.523560	845.200000
792.559631	835.400000
792.595764	807.400000
792.631836	769.700000
792.667908	743.500000
792.703979	725.300000
792.740051	740.700000
792.776184	771.900000
792.812256	786.800000
792.848328	794.800000
792.884399	806.400000
792.920471	813.100000
792.956543	817.900000
792.992615	811.900000
793.028748	797.700000
793.064758	803.600000
793.100830	827.400000
793.136963	834.900000
793.172974	839.500000
793.209045	841.300000
793.245178	846.400000
793.281189	827.100000
793.317261	833.500000
793.353271	838.400000
793.389404	848.700000
793.425476	844.700000
793.461487	833.900000
793.497559	824.900000
793.533630	824.400000
793.569641	820.900000
793.605713	827.400000
793.641785	825.400000
793.677795	829.100000
793.713867	835.800000
793.749878	839.000000
793.785950	846.400000
793.822021	855.400000
793.858032	848.700000
793.894104	855.000000
793.930176	856.900000
793.966187	854.700000
794.002258	846.100000
794.038269	846.800000
794.074280	849.700000
794.110352	873.800000
794.146423	855.600000
794.182373	853.200000
794.218445	850.500000
794.254517	846.400000
794.290466	831.300000
794.326538	843.900000
794.362549	844.100000
794.398560	845.700000
794.434631	847.500000
794.470581	821.300000
794.506653	815.700000
794.542664	825.300000
794.578674	823.500000
794.614685	821.500000
794.650757	817.900000
794.686707	826.300000
794.722778	814.200000
794.758789	818.800000
794.794739	822.800000
794.830811	846.200000
794.866821	873.400000
794.902771	870.800000
794.938843	870.500000
794.974792	867.700000
795.010803	863.400000
795.046814	865.300000
795.082825	867.700000
795.118835	881.200000
795.154846	857.300000
795.190796	861.200000
795.226807	849.300000
795.262817	854.900000
795.298767	857.300000
795.334778	862.100000
795.370850	847.600000
795.406799	846.200000
795.442810	835.900000
795.478821	829.700000
795.514709	829.900000
795.550720	853.900000
795.586670	833.800000
795.622681	836.300000
795.658691	843.700000
795.694641	844.700000
795.730652	836.100000
795.766663	836.200000
795.802551	844.700000
795.838562	859.300000
795.874573	849.000000
795.910522	851.100000
795.946472	849.900000
795.982483	848.500000
796.018433	842.900000
796.054382	853.300000
796.090393	846.700000
796.126282	844.500000
796.162292	825.500000
796.198242	827.700000
796.234192	825.700000
796.270203	812.900000
796.306091	820.800000
796.342041	836.300000
796.378052	826.600000
796.413940	824.600000
796.449951	829.900000
796.485901	829.100000
796.521790	835.000000
796.557800	854.000000
796.593689	855.800000
796.629639	847.700000
796.665649	842.000000
796.701599	838.800000
796.737488	842.700000
796.773437	839.500000
796.809387	844.700000
796.845337	861.600000
796.881287	844.200000
796.917175	824.700000
796.953125	828.100000
796.989075	832.100000
797.024963	833.300000
797.060913	832.100000
797.096863	831.200000
797.132751	832.300000
797.168701	816.200000
797.204590	818.000000
797.240540	822.600000
797.276489	824.300000
797.312439	830.900000
797.348328	829.100000
797.384277	818.800000
797.420166	805.200000
797.456055	810.400000
797.492004	811.400000
797.527893	816.000000
797.563843	819.800000
797.599731	815.800000
797.635620	808.100000
797.671570	818.400000
797.707520	816.700000
797.743347	814.800000
797.779297	826.800000
797.815125	816.900000
797.851074	815.800000
797.887024	805.100000
797.922913	792.500000
797.958801	792.500000
797.994690	786.300000
798.030579	794.400000
798.066467	804.200000
798.102356	790.800000
798.138245	785.700000
798.174133	780.700000
798.210083	787.700000
798.245911	795.500000
798.281799	795.700000
798.317749	794.400000
798.353577	794.400000
798.389465	788.300000
798.425293	787.000000
798.461243	789.400000
798.497131	797.000000
798.532959	795.900000
798.568848	805.000000
798.604736	788.500000
798.640564	777.600000
798.676453	771.000000
798.712402	772.500000
798.748230	785.300000
798.784119	792.000000
798.820007	792.900000
798.855835	785.500000
798.891724	775.700000
798.927551	762.800000
798.963379	774.800000
798.999268	778.000000
799.035095	763.000000
799.070984	757.900000
799.106873	749.900000
799.142700	761.700000
799.178528	753.400000
799.214417	752.200000
799.250244	767.200000
799.286133	756.700000
799.321960	756.400000
799.357788	747.500000
799.393677	746.500000
799.429504	749.900000
799.465332	752.000000
799.501221	751.500000
799.537048	763.300000
799.572876	755.000000
799.608704	750.500000
799.644531	758.700000
799.680359	764.800000
799.716248	772.200000
799.752014	775.700000
799.787903	771.000000
799.823730	773.400000
799.859558	759.800000
799.895386	751.800000
799.931213	752.300000
799.967041	751.200000
800.002869	752.800000
800.038696	763.100000
800.074463	748.900000
800.110352	749.500000
800.146179	741.100000
800.181946	754.000000
800.217773	751.300000
800.253540	752.600000
800.289429	747.900000
800.325256	743.900000
800.361023	733.000000
800.396851	737.500000
800.432678	744.400000
800.468445	743.800000
800.504272	745.000000
800.540100	736.400000
800.575867	734.700000
800.611694	737.000000
800.647461	731.900000
800.683289	736.700000
800.719116	739.700000
800.754883	738.400000
800.790649	723.100000
800.826477	720.300000
800.862244	734.700000
800.898071	725.500000
800.933838	727.500000
800.969604	721.800000
801.005432	728.100000
801.041199	725.900000
801.076965	716.800000
801.112793	709.000000
801.148560	699.600000
801.184326	703.500000
801.220154	707.100000
801.255859	704.800000
801.291687	704.900000
801.327454	700.200000
801.363281	702.100000
801.398987	694.800000
801.434814	697.200000
801.470520	702.600000
801.506287	695.300000
801.542114	682.500000
801.577820	682.100000
801.613647	682.800000
801.649414	683.400000
801.685120	684.800000
801.720886	686.500000
801.756714	681.400000
801.792419	678.500000
801.828186	665.900000
801.863892	671.600000
801.899719	669.600000
801.935486	668.000000
801.971252	678.200000
802.006958	668.200000
802.042725	663.700000
802.078430	664.300000
802.114197	664.400000
802.149963	682.700000
802.185669	670.400000
802.221436	665.000000
802.257202	665.200000
802.292908	661.700000
802.328674	672.600000
802.364441	672.000000
802.400146	673.800000
802.435913	676.600000
802.471558	669.900000
802.507324	658.300000
802.543091	655.800000
802.578796	668.300000
802.614502	673.400000
802.650269	670.100000
802.685974	654.200000
802.721741	664.500000
802.757446	664.500000
802.793152	659.300000
802.828918	665.900000
802.864624	662.300000
802.900330	666.100000
802.936035	662.100000
802.971802	662.400000
803.007446	652.800000
803.043213	652.300000
803.078857	663.000000
803.114624	655.400000
803.150330	660.500000
803.185974	642.500000
803.221741	645.000000
803.257446	651.500000
803.293152	650.500000
803.328857	643.000000
803.364563	641.500000
803.400208	644.200000
803.435974	646.900000
803.471680	640.000000
803.507324	635.600000
803.543030	638.300000
803.578735	638.200000
803.614441	634.700000
803.650146	648.000000
803.685791	635.200000
803.721497	636.400000
803.757202	628.100000
803.792847	638.600000
803.828552	629.000000
803.864258	628.700000
803.899902	621.900000
803.935608	613.200000
803.971313	613.300000
804.006958	618.700000
804.042664	609.500000
804.078308	620.700000
804.113953	613.900000
804.149658	617.500000
804.185364	615.600000
804.221008	624.800000
804.256714	607.000000
804.292297	604.900000
804.328003	601.300000
804.363708	604.500000
804.399292	602.000000
804.434998	602.600000
804.470703	586.700000
804.506287	602.000000
804.541992	595.700000
804.577637	598.900000
804.613281	585.600000
804.648926	582.900000
804.684570	591.000000
804.720215	583.300000
804.755920	580.000000
804.791565	582.700000
804.827209	586.700000
804.862854	583.800000
804.898437	580.700000
804.934143	579.500000
804.969788	579.400000
805.005371	583.100000
805.041077	580.100000
805.076721	583.300000
805.112305	576.600000
805.147949	571.300000
805.183655	569.100000
805.219238	576.000000
805.254883	569.100000
805.290466	573.800000
805.326111	571.800000
805.361755	563.800000
805.397400	567.800000
805.432983	563.400000
805.468628	558.500000
805.504211	561.400000
805.539856	562.700000
805.575500	566.800000
805.611084	562.600000
805.646729	552.800000
805.682373	555.400000
805.717957	558.000000
805.753601	564.000000
805.789246	550.400000
805.824768	564.000000
805.860413	563.300000
805.895996	556.300000
805.931641	554.600000
805.967224	560.200000
806.002869	551.400000
806.038452	563.800000
806.074036	563.000000
806.109619	551.100000
806.145264	548.300000
806.180847	546.300000
806.216431	544.200000
806.252014	552.400000
806.287659	550.200000
806.323181	553.700000
806.358826	550.100000
806.394409	535.100000
806.429993	536.000000
806.465576	547.600000
806.501160	536.100000
806.536743	532.300000
806.572327	538.700000
806.607910	534.300000
806.643494	539.200000
806.679077	530.000000
806.714661	528.700000
806.750244	527.700000
806.785828	530.900000
806.821350	526.600000
806.856934	526.300000
806.892517	522.300000
806.928101	521.100000
806.963684	522.000000
806.999268	527.500000
807.034790	514.800000
807.070374	517.200000
807.105896	509.400000
807.141479	507.300000
807.177063	514.500000
807.212585	508.100000
807.248169	509.500000
807.283752	515.200000
807.319275	510.900000
807.354858	511.900000
807.390381	501.000000
807.425903	500.100000
807.461487	499.800000
807.497070	495.300000
807.532593	495.800000
807.568115	496.500000
807.603699	490.400000
807.639221	488.900000
807.674744	491.600000
807.710266	490.700000
807.745850	492.200000
807.781372	487.300000
807.816895	486.600000
807.852417	487.600000
807.888000	485.100000
807.923523	480.200000
807.959045	485.100000
807.994629	480.200000
808.030090	482.700000
808.065613	484.800000
808.101135	487.400000
808.136658	482.300000
808.172241	481.200000
808.207764	480.200000
808.243225	476.500000
808.278809	472.800000
808.314270	481.300000
808.349792	468.800000
808.385315	467.000000
808.420837	474.500000
808.456360	478.900000
808.491882	476.700000
808.527344	475.900000
808.562866	481.400000
808.598389	474.500000
808.633850	467.400000
808.669434	463.800000
808.704895	465.700000
808.740417	473.900000
808.775940	471.700000
808.811462	468.800000
808.846924	462.400000
808.882385	460.200000
808.917847	461.200000
808.953369	464.400000
808.988892	459.400000
809.024353	462.000000
809.059875	461.400000
809.095398	456.800000
809.130798	451.100000
809.166321	451.000000
809.201843	451.800000
809.237305	453.300000
809.272766	460.300000
809.308228	451.300000
809.343750	452.200000
809.379211	453.700000
809.414734	449.000000
809.450134	450.800000
809.485657	441.700000
809.521118	447.300000
809.556580	442.600000
809.592102	441.900000
809.627502	439.900000
809.663025	439.300000
809.698486	439.700000
809.733887	437.800000
809.769409	438.000000
809.804871	427.200000
809.840271	431.200000
809.875793	431.800000
809.911194	436.700000
809.946655	425.100000
809.982178	426.500000
810.017639	429.000000
810.053040	429.300000
810.088501	426.400000
810.123901	426.800000
810.159424	422.200000
810.194885	419.500000
810.230286	421.700000
810.265747	414.700000
810.301208	416.100000
810.336609	413.600000
810.372070	408.300000
810.407532	409.500000
810.442932	408.500000
810.478394	413.300000
810.513794	410.000000
810.549255	406.800000
810.584717	404.500000
810.620117	400.100000
810.655518	407.500000
810.690979	402.100000
810.726379	403.900000
810.761841	395.400000
810.797302	395.100000
810.832642	393.600000
810.868103	401.400000
810.903564	395.100000
810.938904	400.400000
810.974365	387.800000
811.009827	390.400000
811.045166	384.800000
811.080627	382.000000
811.115967	382.900000
811.151428	390.600000
811.186829	385.300000
811.222229	384.300000
811.257629	376.600000
811.293091	385.800000
811.328430	391.200000
811.363892	383.200000
811.399292	383.300000
811.434631	380.900000
811.470093	384.800000
811.505493	377.800000
811.540833	377.200000
811.576294	377.200000
811.611694	373.100000
811.647034	374.800000
811.682434	376.700000
811.717773	377.100000
811.753235	383.300000
811.788635	374.600000
811.823975	376.300000
811.859375	377.300000
811.894775	365.800000
811.930115	370.800000
811.965515	369.400000
812.000916	373.000000
812.036255	367.400000
812.071655	371.900000
812.106995	365.400000
812.142395	365.000000
812.177795	372.700000
812.213196	368.000000
812.248474	369.900000
812.283875	360.000000
812.319214	362.200000
812.354614	361.800000
812.390015	358.100000
812.425293	359.700000
812.460693	362.400000
812.496094	358.700000
812.531433	353.200000
812.566772	351.700000
812.602173	356.200000
812.637451	353.000000
812.672852	352.200000
812.708191	353.500000
812.743530	349.500000
812.778931	340.300000
812.814270	344.900000
812.849609	346.800000
812.884949	347.100000
812.920227	340.900000
812.955627	350.900000
812.990967	343.700000
813.026306	341.600000
813.061646	330.400000
813.096985	331.100000
813.132324	328.900000
813.167664	330.400000
813.203003	336.100000
813.238281	327.300000
813.273682	325.800000
813.308960	323.300000
813.344299	324.200000
813.379639	330.100000
813.414978	323.200000
813.450256	322.700000
813.485596	324.900000
813.520874	320.200000
813.556213	322.200000
813.591614	324.200000
813.626831	318.600000
813.662170	321.700000
813.697510	326.500000
813.732788	314.900000
813.768127	318.300000
813.803467	315.000000
813.838745	312.600000
813.874084	318.000000
813.909363	315.800000
813.944641	316.700000
813.979980	307.600000
814.015320	311.900000
814.050598	309.800000
814.085876	310.700000
814.121155	311.200000
814.156494	309.900000
814.191772	309.100000
814.227051	304.600000
814.262390	308.100000
814.297668	305.400000
814.332947	306.800000
814.368225	299.900000
814.403564	304.300000
814.438782	298.500000
814.474121	305.100000
814.509338	300.200000
814.544617	305.800000
814.579956	298.200000
814.615173	306.500000
814.650513	301.300000
814.685791	297.900000
814.721008	298.100000
814.756348	297.500000
814.791626	296.200000
814.826843	295.500000
814.862122	295.500000
814.897400	294.500000
814.932678	294.700000
814.967957	291.800000
815.003235	293.600000
815.038452	287.600000
815.073730	287.900000
815.108948	295.900000
815.144226	292.100000
815.179504	295.900000
815.214722	284.200000
815.250000	283.600000
815.285278	289.000000
815.320496	282.800000
815.355774	285.500000
815.391052	287.800000
815.426270	285.700000
815.461487	283.300000
815.496765	282.500000
815.531982	277.500000
815.567261	279.400000
815.602539	287.300000
815.637695	283.600000
815.672974	281.300000
815.708191	285.300000
815.743408	283.700000
815.778687	279.100000
815.813904	283.600000
815.849121	273.900000
815.884399	274.500000
815.919556	276.000000
815.954834	274.700000
815.990051	276.900000
816.025269	279.600000
816.060486	272.900000
816.095703	270.500000
816.130920	273.400000
816.166199	270.400000
816.201416	271.300000
816.236572	274.600000
816.271851	267.400000
816.307007	270.800000
816.342224	263.600000
816.377441	267.800000
816.412659	261.900000
816.447876	267.000000
816.483093	264.900000
816.518250	263.800000
816.553467	261.500000
816.588745	265.400000
816.623901	258.900000
816.659119	253.400000
816.694275	260.500000
816.729492	256.900000
816.764709	285.300000
816.799927	254.800000
816.835083	258.000000
816.870300	251.500000
816.905457	254.600000
816.940674	256.300000
816.975830	251.800000
817.010986	249.900000
817.046204	249.300000
817.081421	249.000000
817.116577	250.400000
817.151733	254.600000
817.186951	253.800000
817.222107	252.000000
817.257324	253.100000
817.292419	250.400000
817.327637	243.200000
817.362854	247.100000
817.398010	244.700000
817.433167	247.700000
817.468323	245.100000
817.503479	247.100000
817.538635	253.300000
817.573853	248.700000
817.608948	245.200000
817.644165	242.000000
817.679321	240.700000
817.714478	239.700000
817.749634	242.500000
817.784790	251.000000
817.819946	247.500000
817.855103	233.200000
817.890198	239.400000
817.925415	234.600000
817.960571	242.100000
817.995667	239.200000
818.030823	240.600000
818.066040	236.500000
818.101135	239.600000
818.136292	237.900000
818.171448	232.900000
818.206543	237.200000
818.241699	239.900000
818.276855	238.200000
818.311951	235.500000
818.347107	232.800000
818.382263	238.900000
818.417358	241.900000
818.452515	242.300000
818.487610	239.900000
818.522766	233.000000
818.557922	239.600000
818.593018	237.200000
818.628113	232.600000
818.663269	229.800000
818.698364	233.200000
818.733521	230.700000
818.768677	231.500000
818.803711	229.100000
818.838867	226.100000
818.874023	228.500000
818.909058	226.900000
818.944214	224.100000
818.979370	228.900000
819.014404	227.100000
819.049561	224.000000
819.084595	229.100000
819.119751	222.000000
819.154846	227.000000
819.189941	223.400000
819.225037	222.500000
819.260193	217.100000
819.295227	219.500000
819.330322	215.700000
819.365479	216.500000
819.400513	251.400000
819.435608	214.300000
819.470764	212.600000
819.505798	215.300000
819.540894	217.600000
819.575989	214.700000
819.611084	221.700000
819.646179	223.700000
819.681213	219.600000
819.716309	215.400000
819.751404	214.900000
819.786438	219.200000
819.821533	213.000000
819.856628	216.000000
819.891663	218.500000
819.926758	223.700000
819.961853	220.500000
819.996887	211.300000
820.031982	216.600000
820.067017	212.300000
820.102112	246.500000
820.137207	210.000000
820.172302	224.100000
820.207275	210.700000
820.242371	210.200000
820.277405	209.500000
820.312500	212.000000
820.347534	211.000000
820.382568	216.300000
820.417664	209.700000
820.452759	208.600000
820.487732	208.100000
820.522827	210.800000
820.557861	206.700000
820.592896	208.600000
820.627930	208.000000
820.662964	207.800000
820.698059	212.100000
820.733093	208.900000
820.768127	210.300000
820.803162	208.300000
820.838196	205.300000
820.873230	209.300000
820.908264	209.800000
820.943298	205.400000
820.978333	210.600000
821.013367	208.000000
821.048401	211.600000
821.083435	210.800000
821.118469	203.200000
821.153503	210.100000
821.188477	208.500000
821.223511	202.200000
821.258484	207.100000
821.293579	206.400000
821.328613	201.700000
821.363647	203.300000
821.398621	202.300000
821.433655	203.400000
821.468628	217.300000
821.503662	204.300000
821.538696	208.900000
821.573669	202.500000
821.608704	208.900000
821.643677	203.100000
821.678650	206.900000
821.713684	210.500000
821.748718	204.700000
821.783691	204.100000
821.818726	205.500000
821.853638	205.600000
821.888672	204.100000
821.923706	202.800000
821.958618	202.600000
821.993652	200.700000
822.028687	206.900000
822.063599	209.300000
822.098633	205.800000
822.133667	199.600000
822.168579	203.000000
822.203613	203.600000
822.238586	199.200000
822.273560	204.800000
822.308533	200.400000
822.343567	200.000000
822.378479	202.100000
822.413452	200.500000
822.448425	199.800000
822.483398	206.500000
822.518372	205.000000
822.553345	200.400000
822.588318	209.400000
822.623291	200.700000
822.658203	200.200000
822.693237	201.400000
822.728210	197.800000
822.763123	202.600000
822.798096	199.300000
822.833069	201.800000
822.867981	200.200000
822.902954	205.200000
822.937927	203.400000
822.972900	210.100000
823.007874	195.800000
823.042725	205.000000
823.077698	210.100000
823.112671	199.100000
823.147583	200.100000
823.182556	203.500000
823.217529	203.300000
823.252441	198.800000
823.287415	210.200000
823.322388	204.800000
823.357239	200.200000
823.392212	204.900000
823.427185	206.700000
823.462097	197.900000
823.497009	201.800000
823.531982	199.700000
823.566895	200.400000
823.601807	197.200000
823.636719	199.000000
823.671631	202.600000
823.706604	199.700000
823.741455	204.400000
823.776428	196.700000
823.811340	203.700000
823.846252	205.800000
823.881165	206.000000
823.916138	202.400000
823.950989	207.500000
823.985901	199.100000
824.020813	200.700000
824.055725	199.500000
824.090637	195.000000
824.125610	204.300000
824.160461	201.700000
824.195374	202.800000
824.230225	203.100000
824.265198	196.100000
824.300110	198.100000
824.334961	209.700000
824.369873	192.600000
824.404785	203.800000
824.439636	203.300000
824.474548	195.400000
824.509460	193.000000
824.544312	206.300000
824.579224	200.200000
824.614075	201.700000
824.648987	197.900000
824.683899	198.400000
824.718811	196.600000
824.753662	204.000000
824.788574	203.800000
824.823364	201.300000
824.858276	196.100000
824.893188	204.100000
824.928040	203.000000
824.962952	199.000000
824.997803	201.600000
825.032654	199.100000
825.067566	200.600000
825.102417	196.600000
825.137268	197.600000
825.172119	197.900000
825.206970	195.900000
825.241882	197.100000
825.276733	195.600000
825.311646	195.400000
825.346436	193.800000
825.381348	193.000000
825.416138	198.400000
825.450989	194.500000
825.485901	189.800000
825.520691	191.000000
825.555542	193.400000
825.590454	196.100000
825.625244	192.100000
825.660095	201.600000
825.695007	200.200000
825.729797	194.800000
825.764648	192.100000
825.799438	195.500000
825.834290	197.900000
825.869202	190.700000
825.903992	196.600000
825.938843	192.300000
825.973694	192.500000
826.008484	204.100000
826.043335	191.200000
826.078186	189.400000
826.112976	198.600000
826.147827	197.800000
826.182678	201.900000
826.217468	188.200000
826.252319	198.600000
826.287109	190.800000
826.321899	197.800000
826.356750	192.300000
826.391541	189.600000
826.426392	195.700000
826.461182	194.700000
826.495972	188.200000
826.530823	185.900000
826.565613	194.400000
826.600403	190.000000
826.635254	195.500000
826.670044	187.500000
826.704834	187.200000
826.739685	189.100000
826.774475	194.000000
826.809265	192.100000
826.844055	189.800000
826.878906	197.200000
826.913635	194.900000
826.948425	194.500000
826.983215	196.400000
827.018005	196.000000
827.052856	191.000000
827.087585	195.500000
827.122375	188.000000
827.157227	192.500000
827.191956	204.200000
827.226746	188.700000
827.261536	195.600000
827.296265	188.500000
827.331116	193.000000
827.365906	194.500000
827.400635	190.000000
827.435425	186.200000
827.470215	196.500000
827.504944	191.200000
827.539734	197.200000
827.574463	191.000000
827.609253	198.900000
827.644043	192.400000
827.678772	195.500000
827.713562	190.800000
827.748352	192.300000
827.783081	190.700000
827.817871	193.600000
827.852600	188.600000
827.887329	193.100000
827.922119	185.600000
827.956848	195.200000
827.991638	203.800000
828.026367	193.800000
828.061157	193.300000
828.095886	192.500000
828.130615	206.300000
828.165344	185.100000
828.200073	192.500000
828.234863	191.300000
828.269592	191.500000
828.304321	195.300000
828.339111	193.000000
828.373779	190.500000
828.408569	197.000000
828.443298	196.700000
828.477966	191.700000
828.512756	192.000000
828.547424	189.000000
828.582214	191.700000
828.616943	191.600000
828.651672	193.000000
828.686340	195.100000
828.721130	189.100000
828.755798	193.000000
828.790527	191.200000
828.825256	192.800000
828.859924	193.200000
828.894714	198.200000
828.929443	199.400000
828.964111	190.700000
828.998840	191.000000
829.033569	190.700000
829.068237	191.900000
829.102966	191.400000
829.137634	193.100000
829.172363	194.100000
829.207092	192.600000
829.241821	189.700000
829.276489	186.700000
829.311157	192.900000
829.345825	190.000000
829.380554	196.000000
829.415283	188.100000
829.449951	187.400000
829.484619	199.000000
829.519348	197.500000
829.554016	191.200000
829.588745	193.400000
829.623413	188.600000
829.658081	200.400000
829.692749	189.600000
829.727417	196.300000
829.762146	193.300000
829.796814	189.400000
829.831482	191.400000
829.866150	192.800000
829.900879	191.200000
829.935486	194.200000
829.970154	191.800000
830.004883	201.700000
830.039490	194.500000
830.074219	188.700000
830.108887	193.100000
830.143494	190.500000
830.178223	188.500000
830.212891	191.100000
830.247498	192.000000
830.282166	198.600000
830.316772	196.900000
830.351501	190.500000
830.386169	192.500000
830.420776	191.700000
830.455444	192.900000
830.490112	190.300000
830.524719	188.000000
830.559387	194.300000
830.594055	195.100000
830.628662	192.300000
830.663330	192.300000
830.697998	198.600000
830.732605	191.400000
830.767273	192.900000
830.801941	191.300000
830.836487	200.700000
830.871155	193.300000
830.905762	194.500000
830.940430	187.200000
830.975098	190.900000
831.009644	192.200000
831.044312	199.700000
831.078979	194.200000
831.113525	187.400000
831.148193	192.300000
831.182861	191.900000
831.217407	195.500000
831.252075	205.100000
831.286621	190.600000
831.321289	189.200000
831.355896	192.500000
831.390564	198.700000
831.425110	192.300000
831.459778	197.900000
831.494324	202.700000
831.528931	194.000000
831.563599	196.600000
831.598145	188.700000
831.632751	192.300000
831.667419	191.600000
831.701965	194.100000
831.736572	194.500000
831.771179	190.000000
831.805786	189.900000
831.840393	198.400000
831.874939	188.500000
831.909546	195.300000
831.944153	185.700000
831.978760	191.400000
832.013306	188.700000
832.047913	198.100000
832.082458	198.200000
832.117065	189.500000
832.151672	199.000000
832.186218	193.200000
832.220825	193.200000
832.255432	186.800000
832.289978	190.700000
832.324585	194.100000
832.359192	192.100000
832.393677	190.000000
832.428284	193.100000
832.462830	191.000000
832.497437	190.800000
832.531982	194.700000
832.566589	190.800000
832.601135	194.500000
832.635681	185.800000
832.670227	194.100000
832.704773	199.100000
832.739380	194.600000
832.773926	192.400000
832.808472	191.000000
832.843079	191.500000
832.877563	194.200000
832.912170	192.400000
832.946716	187.000000
832.981201	196.300000
833.015808	196.200000
833.050293	192.000000
833.084839	188.800000
833.119446	190.400000
833.153992	195.400000
833.188477	191.100000
833.223022	190.700000
833.257568	193.600000
833.292114	198.300000
833.326660	201.400000
833.361145	190.800000
833.395691	185.600000
833.430237	193.200000
833.464783	194.400000
833.499329	189.200000
833.533875	188.700000
833.568359	195.300000
833.602905	195.400000
833.637390	197.200000
833.671875	190.500000
833.706421	191.600000
833.740906	189.500000
833.775452	183.900000
833.809998	190.600000
833.844482	197.500000
833.879028	192.400000
833.913513	190.600000
833.947998	195.100000
833.982544	189.300000
834.017090	190.800000
834.051514	184.200000
834.086060	196.000000
834.120544	192.000000
834.155029	194.200000
834.189575	191.500000
834.223999	194.100000
834.258545	192.100000
834.293030	194.200000
834.327515	191.900000
834.362000	190.400000
834.396545	196.200000
834.430969	192.900000
834.465454	195.500000
834.500000	187.500000
834.534424	194.000000
834.568970	186.100000
834.603455	185.800000
834.637878	188.900000
834.672363	192.700000
834.706909	193.000000
834.741333	193.700000
834.775818	188.200000
834.810242	188.200000
834.844727	192.200000
834.879211	191.200000
834.913635	192.600000
834.948181	191.700000
834.982666	194.200000
835.017090	191.800000
835.051575	193.900000
835.086060	191.000000
835.120483	193.600000
835.154907	194.800000
835.189331	191.500000
835.223816	195.200000
835.258301	188.100000
835.292786	190.200000
835.327209	196.500000
835.361694	190.800000
835.396057	190.300000
835.430542	193.900000
835.465027	192.200000
835.499390	190.400000
835.533875	216.700000
835.568359	190.500000
835.602722	186.200000
835.637207	194.300000
835.671692	186.800000
835.706055	209.200000
835.740540	194.000000
835.774902	194.600000
835.809387	193.200000
835.843811	189.800000
835.878235	198.400000
835.912659	188.600000
835.947083	191.000000
835.981506	193.200000
836.015930	186.600000
836.050354	196.000000
836.084778	198.300000
836.119202	195.500000
836.153625	204.300000
836.187988	189.300000
836.222473	191.200000
836.256897	193.400000
836.291260	190.900000
836.325684	193.700000
836.360046	189.700000
836.394470	191.300000
836.428894	198.500000
836.463318	190.400000
836.497681	194.900000
836.532104	197.000000
836.566467	193.800000
836.600891	191.200000
836.635315	196.700000
836.669678	194.100000
836.704102	195.900000
836.738525	196.000000
836.772888	186.600000
836.807251	190.300000
836.841675	195.400000
836.876038	188.400000
836.910461	190.900000
836.944763	195.200000
836.979187	190.900000
837.013611	197.100000
837.047974	188.500000
837.082336	201.900000
837.116699	195.400000
837.151062	192.300000
837.185486	188.700000
837.219849	190.500000
837.254211	196.800000
837.288574	191.100000
837.322937	189.900000
837.357300	183.400000
837.391663	202.100000
837.426086	195.600000
837.460388	193.100000
837.494751	195.300000
837.529114	189.000000
837.563477	198.000000
837.597839	193.400000
837.632141	192.500000
837.666565	191.300000
837.700928	196.600000
837.735229	194.800000
837.769592	194.800000
837.803955	194.500000
837.838257	190.100000
837.872620	189.400000
837.906982	198.200000
837.941284	192.200000
837.975647	192.800000
838.010010	197.900000
838.044312	190.800000
838.078674	191.300000
838.112976	193.000000
838.147339	194.700000
838.181702	192.800000
838.216003	198.300000
838.250366	195.600000
838.284668	194.700000
838.318970	188.700000
838.353333	192.100000
838.387634	192.000000
838.421936	193.800000
838.456299	194.700000
838.490601	197.800000
838.524902	197.800000
838.559265	196.000000
838.593567	196.900000
838.627869	188.100000
838.662170	195.300000
838.696472	188.400000
838.730774	190.500000
838.765137	194.600000
838.799377	182.600000
838.833740	192.900000
838.868042	196.900000
838.902283	187.000000
838.936646	197.900000
838.970947	193.400000
839.005188	197.100000
839.039551	186.400000
839.073792	198.100000
839.108093	191.400000
839.142395	199.200000
839.176697	187.300000
839.210937	194.000000
839.245300	199.100000
839.279541	187.300000
839.313843	191.200000
839.348145	195.500000
839.382385	196.900000
839.416687	196.200000
839.450989	194.900000
839.485229	191.300000
839.519531	190.200000
839.553833	196.100000
839.588013	193.500000
839.622314	193.900000
839.656555	194.500000
839.690857	192.800000
839.725159	189.300000
839.759460	191.900000
839.793640	191.500000
839.827942	191.700000
839.862183	190.400000
839.896423	193.500000
839.930725	203.600000
839.964966	199.400000
839.999207	197.200000
840.033508	196.900000
840.067688	189.300000
840.101990	199.000000
840.136230	193.100000
840.170471	198.400000
840.204712	188.800000
840.238953	190.500000
840.273193	193.100000
840.307434	194.600000
840.341736	189.500000
840.375916	188.800000
840.410217	189.500000
840.444397	195.800000
840.478638	194.200000
840.512878	197.600000
840.547119	192.900000
840.581360	194.900000
840.615601	200.000000
840.649780	202.700000
840.684021	191.900000
840.718262	199.400000
840.752441	198.200000
840.786682	194.300000
840.820862	193.300000
840.855103	200.600000
840.889343	192.200000
840.923584	197.800000
840.957764	194.700000
840.992004	194.300000
841.026184	204.600000
841.060425	191.900000
841.094666	189.500000
841.128845	197.100000
841.163025	194.100000
841.197266	194.700000
841.231445	192.700000
841.265686	195.800000
841.299866	189.000000
841.334045	199.000000
841.368286	192.600000
841.402405	198.500000
841.436646	195.200000
841.470825	191.600000
841.505005	191.900000
841.539185	189.900000
841.573425	191.000000
841.607544	192.300000
841.641785	191.800000
841.675964	189.200000
841.710144	193.100000
841.744324	190.200000
841.778503	192.500000
841.812683	189.800000
841.846863	197.700000
841.881042	199.100000
841.915222	189.100000
841.949402	203.300000
841.983521	186.200000
842.017700	190.000000
842.051880	193.500000
842.086060	194.400000
842.120239	192.800000
842.154419	190.900000
842.188538	194.600000
842.222717	189.900000
842.256897	201.100000
842.291016	193.100000
842.325195	193.700000
842.359375	200.800000
842.393494	199.500000
842.427673	193.000000
842.461853	196.400000
842.495911	200.400000
842.530090	194.800000
842.564209	193.600000
842.598389	195.400000
842.632568	193.200000
842.666626	197.100000
842.700806	190.200000
842.734985	191.100000
842.769043	194.700000
842.803223	191.700000
842.837402	191.000000
842.871460	190.000000
842.905640	201.700000
842.939697	190.700000
842.973877	192.700000
843.007996	198.100000
843.042175	200.400000
843.076233	190.600000
843.110413	194.800000
843.144470	198.700000
843.178589	196.700000
843.212769	192.100000
843.246826	196.300000
843.280945	190.800000
843.315125	192.800000
843.349182	189.100000
843.383301	196.100000
843.417419	202.800000
843.451538	192.600000
843.485657	190.800000
843.519714	192.400000
843.553833	194.200000
843.587952	191.700000
843.622070	190.000000
843.656128	195.500000
843.690247	191.100000
843.724304	194.000000
843.758423	194.500000
843.792542	191.900000
843.826599	192.600000
843.860718	192.700000
843.894836	186.800000
843.928894	193.500000
843.963013	193.400000
843.997070	190.800000
844.031128	187.500000
844.065247	199.000000
844.099304	195.900000
844.133362	195.100000
844.167480	195.400000
844.201599	199.700000
844.235596	194.000000
844.269714	196.300000
844.303711	193.200000
844.337830	188.100000
844.371948	194.100000
844.405945	192.600000
844.440063	189.500000
844.474121	204.700000
844.508118	192.100000
844.542236	192.800000
844.576294	192.100000
844.610352	188.200000
844.644409	191.700000
844.678406	186.200000
844.712524	197.200000
844.746582	198.100000
844.780640	191.900000
844.814636	193.200000
844.848755	200.900000
844.882751	193.000000
844.916809	196.000000
844.950867	195.100000
844.984863	199.900000
845.018921	191.200000
845.052979	191.100000
845.086975	193.300000
845.121033	189.200000
845.155090	190.200000
845.189087	198.100000
845.223145	191.000000
845.257141	194.600000
845.291199	194.200000
845.325256	198.500000
845.359253	193.500000
845.393250	206.100000
845.427307	192.500000
845.461304	194.800000
845.495361	194.900000
845.529358	201.300000
845.563354	191.100000
845.597412	189.900000
845.631409	199.800000
845.665405	198.600000
845.699463	195.900000
845.733459	192.600000
845.767456	201.700000
845.801453	193.000000
845.835449	197.300000
845.869446	197.500000
845.903503	196.500000
845.937439	189.300000
845.971497	197.600000
846.005493	188.400000
846.039429	195.700000
846.073486	202.800000
846.107483	192.000000
846.141418	192.000000
846.175476	194.000000
846.209473	198.800000
846.243408	189.500000
846.277405	193.300000
846.311401	191.000000
846.345337	192.200000
846.379395	198.100000
846.413330	190.400000
846.447327	202.400000
846.481323	190.300000
846.515259	192.900000
846.549255	194.600000
846.583252	196.700000
846.617187	189.000000
846.651184	196.500000
846.685120	191.700000
846.719055	201.300000
846.753052	196.400000
846.786987	197.700000
846.820984	187.500000
846.854980	200.200000
846.888916	189.600000
846.922852	196.500000
846.956848	198.200000
846.990723	191.400000
847.024719	194.200000
847.058716	194.000000
847.092590	199.400000
847.126587	196.100000
847.160522	190.800000
847.194458	196.200000
847.228455	189.600000
847.262390	190.500000
847.296265	191.600000
847.330261	197.400000
847.364136	190.600000
847.398132	192.000000
847.432068	194.400000
847.466003	191.800000
847.499939	192.300000
847.533875	196.400000
847.567749	191.900000
847.601746	193.000000
847.635681	195.600000
847.669556	188.200000
847.703491	198.500000
847.737427	203.800000
847.771301	188.900000
847.805237	194.100000
847.839233	195.200000
847.873108	191.700000
847.907043	192.500000
847.940918	199.900000
847.974854	196.500000
848.008789	195.700000
848.042664	194.500000
848.076538	194.800000
848.110474	194.100000
848.144348	194.000000
848.178284	188.800000
848.212219	194.600000
848.246094	193.600000
848.279968	193.700000
848.313904	196.700000
848.347778	193.400000
848.381653	193.200000
848.415588	190.500000
848.449463	189.900000
848.483337	193.700000
848.517212	199.700000
848.551086	192.400000
848.585022	188.900000
848.618835	202.100000
848.652771	191.700000
848.686646	188.900000
848.720520	199.600000
848.754395	192.100000
848.788330	197.300000
848.822144	196.400000
848.856018	191.900000
848.889954	202.400000
848.923767	191.200000
848.957642	190.800000
848.991577	196.600000
849.025391	192.700000
849.059265	191.700000
849.093079	190.500000
849.126953	189.400000
849.160828	197.200000
849.194641	193.400000
849.228577	192.400000
849.262451	192.300000
849.296265	192.500000
849.330139	190.900000
849.364014	195.000000
849.397827	195.600000
849.431702	196.200000
849.465515	195.700000
849.499329	188.000000
849.533203	190.300000
849.567078	187.700000
849.600891	193.900000
849.634766	192.900000
849.668518	195.800000
849.702393	194.800000
849.736267	188.100000
849.770020	201.300000
849.803894	195.900000
849.837769	195.700000
849.871521	193.900000
849.905396	196.500000
849.939270	189.900000
849.973022	192.000000
850.006897	195.100000
850.040710	197.000000
850.074524	195.800000
850.108337	191.600000
850.142151	197.800000
850.175964	199.000000
850.209778	192.800000
850.243530	184.400000
850.277405	196.900000
850.311218	192.700000
850.344971	190.900000
850.378845	198.200000
850.412659	191.300000
850.446411	195.600000
850.480225	193.600000
850.514038	196.900000
850.547791	197.600000
850.581665	193.600000
850.615417	191.100000
850.649231	196.000000
850.683044	193.100000
850.716858	193.200000
850.750610	194.600000
850.784424	197.200000
850.818176	191.700000
850.851929	192.400000
850.885742	192.600000
850.919495	192.800000
850.953308	201.400000
850.987122	200.000000
851.020874	190.300000
851.054626	188.300000
851.088440	197.100000
851.122192	196.800000
851.156006	196.100000
851.189697	193.800000
851.223511	190.400000
851.257263	197.300000
851.291077	194.200000
851.324829	192.100000
851.358582	193.000000
851.392334	190.900000
851.426086	192.400000
851.459900	199.300000
851.493591	193.800000
851.527344	193.000000
851.561157	193.000000
851.594849	193.300000
851.628662	193.500000
851.662415	200.600000
851.696106	195.100000
851.729858	197.000000
851.763611	189.400000
851.797363	195.300000
851.831116	189.400000
851.864868	196.100000
851.898560	197.900000
851.932312	192.100000
851.966064	194.900000
851.999817	194.000000
852.033569	191.600000
852.067261	199.800000
852.101013	190.700000
852.134766	194.500000
852.168457	185.700000
852.202209	199.400000
852.235901	191.300000
852.269592	196.500000
852.303345	200.500000
852.337036	197.800000
852.370789	194.100000
852.404541	198.700000
852.438171	189.200000
852.471924	195.300000
852.505676	189.300000
852.539307	196.300000
852.573059	191.300000
852.606812	193.400000
852.640442	190.800000
852.674194	198.600000
852.707886	201.900000
852.741577	199.900000
852.775269	191.500000
852.809021	195.300000
852.842651	195.400000
852.876404	199.100000
852.910034	195.900000
852.943787	199.800000
852.977478	194.900000
853.011108	190.700000
853.044861	189.300000
853.078552	199.900000
853.112183	195.000000
853.145874	194.300000
853.179626	187.400000
853.213257	195.400000
853.246948	192.400000
853.280640	200.600000
853.314270	192.400000
853.347961	198.700000
853.381653	197.600000
853.415283	197.600000
853.448975	191.100000
853.482605	195.000000
853.516296	194.800000
853.549988	190.000000
853.583618	196.200000
853.617310	194.300000
853.651001	196.700000
853.684631	190.800000
853.718323	193.100000
853.751953	197.700000
853.785583	187.800000
853.819275	197.200000
853.852966	195.400000
853.886536	188.300000
853.920227	190.800000
853.953918	196.600000
853.987488	193.300000
854.021179	196.400000
854.054749	200.400000
854.088440	196.000000
854.122131	190.500000
854.155701	194.700000
854.189331	190.900000
854.223022	196.500000
854.256592	194.500000
854.290283	190.500000
854.323914	196.000000
854.357483	195.100000
854.391174	194.800000
854.424744	199.700000
854.458374	195.500000
854.492065	203.700000
854.525696	194.000000
854.559265	199.000000
854.592896	204.000000
854.626465	193.900000
854.660095	193.100000
854.693787	195.500000
854.727356	191.800000
854.760986	197.500000
854.794617	195.100000
854.828186	193.000000
854.861816	195.800000
854.895447	195.500000
854.929016	194.000000
854.962585	196.100000
854.996155	201.300000
855.029785	195.100000
855.063416	195.600000
855.097046	198.100000
855.130615	190.700000
855.164185	198.700000
855.197754	192.800000
855.231384	196.300000
855.264954	191.600000
855.298523	197.400000
855.332153	194.600000
855.365723	198.900000
855.399292	190.700000
855.432922	193.200000
855.466492	195.300000
855.500061	191.200000
855.533630	191.700000
855.567200	197.700000
855.600769	195.700000
855.634338	198.400000
855.667969	194.000000
855.701477	190.500000
855.735046	191.200000
855.768616	187.200000
855.802185	195.400000
855.835754	204.700000
855.869324	188.000000
855.902893	193.600000
855.936401	198.500000
855.969971	193.900000
856.003540	189.200000
856.037109	196.200000
856.070618	192.600000
856.104187	188.200000
856.137695	190.300000
856.171265	187.500000
856.204834	195.500000
856.238403	196.200000
856.271912	191.900000
856.305481	195.400000
856.338989	189.800000
856.372559	196.000000
856.406128	196.000000
856.439636	197.000000
856.473145	193.800000
856.506653	200.100000
856.540222	193.900000
856.573792	198.000000
856.607300	197.200000
856.640808	189.000000
856.674377	194.100000
856.707825	225.300000
856.741394	198.900000
856.774902	189.700000
856.808472	188.000000
856.841980	196.400000
856.875488	199.300000
856.908936	186.800000
856.942505	193.000000
856.976013	192.600000
857.009521	190.200000
857.043030	193.300000
857.076477	193.100000
857.110046	198.800000
857.143555	194.000000
857.177063	196.200000
857.210571	192.300000
857.244080	188.400000
857.277527	195.600000
857.311035	192.700000
857.344543	197.400000
857.378052	192.800000
857.411499	198.100000
857.445068	199.900000
857.478516	193.500000
857.512024	190.100000
857.545532	193.000000
857.578979	195.300000
857.612427	193.700000
857.645874	191.600000
857.679382	194.300000
857.712891	198.600000
857.746399	193.400000
857.779846	198.100000
857.813354	197.500000
857.846741	195.200000
857.880249	190.400000
857.913757	195.200000
857.947266	193.600000
857.980652	198.100000
858.014160	192.500000
858.047546	192.700000
858.081055	192.200000
858.114563	203.300000
858.147949	189.400000
858.181458	195.900000
858.214844	191.900000
858.248352	186.800000
858.281799	196.600000
858.315308	202.400000
858.348694	196.700000
858.382141	201.000000
858.415588	196.100000
858.449036	196.900000
858.482483	195.600000
858.515930	192.000000
858.549377	193.600000
858.582825	199.000000
858.616211	195.400000
858.649658	197.300000
858.683105	189.500000
858.716553	190.600000
858.750000	190.100000
858.783386	191.800000
858.816833	188.100000
858.850281	194.100000
858.883728	195.000000
858.917114	194.800000
858.950562	201.600000
858.983948	199.200000
859.017395	198.600000
859.050781	192.700000
859.084167	192.200000
859.117615	191.400000
859.151062	198.200000
859.184448	191.100000
859.217834	193.900000
859.251282	192.300000
859.284668	191.400000
859.318054	187.800000
859.351440	193.000000
859.384888	198.300000
859.418274	189.200000
859.451721	187.500000
859.485046	195.700000
859.518494	196.900000
859.551819	190.800000
859.585266	194.900000
859.618652	198.100000
859.652039	188.200000
859.685425	188.200000
859.718811	188.100000
859.752197	185.100000
859.785583	197.800000
859.819031	199.300000
859.852356	195.700000
859.885742	189.400000
859.919067	193.600000
859.952454	191.900000
859.985901	196.400000
860.019287	192.300000
860.052612	0.000000
860.085999	0.000000
860.119324	0.000000
860.152710	0.000000
860.186096	0.000000
860.219421	0.000000
860.252808	0.000000
860.286133	0.000000
860.319519	0.000000
860.352905	0.000000
860.386292	0.000000
860.419617	0.000000
860.452942	0.000000
860.486267	0.000000
860.519653	0.000000
860.553040	0.000000
860.586365	0.000000
860.619690	0.000000
860.653076	0.000000
860.686340	0.000000
860.719727	0.000000
860.753113	0.000000
860.786377	0.000000
860.819763	0.000000
860.853027	0.000000
860.886414	0.000000
860.919739	0.000000
860.953125	0.000000
860.986389	0.000000
861.019714	0.000000
861.053040	0.000000
861.086365	0.000000
861.119690	0.000000
861.153076	0.000000
861.186340	0.000000
861.219666	0.000000
861.252930	0.000000
861.286316	0.000000
861.319641	0.000000
861.352905	0.000000
861.386230	0.000000
861.419495	0.000000
861.452820	0.000000
861.486145	0.000000
861.519470	0.000000
861.552734	0.000000
861.586060	0.000000
861.619324	0.000000
861.652649	0.000000
861.685974	0.000000
861.719238	0.000000
861.752563	0.000000
861.785828	0.000000
861.819092	0.000000
861.852417	0.000000
861.885742	0.000000
861.918945	0.000000
861.952271	0.000000
861.985535	0.000000
862.018799	0.000000
862.052124	0.000000
862.085449	0.000000
862.118652	0.000000
862.151978	0.000000
862.185181	0.000000
862.218506	0.000000
862.251770	0.000000
862.285034	0.000000
862.318298	0.000000
862.351562	0.000000
862.384827	0.000000
862.418091	0.000000
862.451355	0.000000
862.484619	0.000000
862.517883	0.000000
862.551086	0.000000
862.584351	0.000000
862.617676	0.000000
862.650940	0.000000
862.684143	0.000000
862.717407	0.000000
862.750610	0.000000
862.783875	0.000000
862.817139	0.000000
862.850342	0.000000
862.883606	0.000000
862.916870	0.000000
862.950073	0.000000
862.983337	0.000000
863.016602	0.000000
863.049805	0.000000
863.083069	0.000000
863.116211	0.000000
863.149475	0.000000
863.182739	0.000000
863.216003	0.000000
863.249146	0.000000
863.282410	0.000000
863.315613	0.000000
863.348816	0.000000
863.382080	0.000000
863.415222	0.000000
863.448486	0.000000
863.481689	0.000000
863.514893	0.000000
863.548157	0.000000
863.581360	0.000000
863.614502	0.000000
863.647766	0.000000
863.680908	0.000000
863.714172	0.000000
863.747375	0.000000
863.780579	0.000000
863.813721	0.000000
863.846985	0.000000
863.880127	0.000000
863.913330	0.000000
863.946533	0.000000
863.979675	0.000000
864.012939	0.000000
