Model Number: SPM-001-M   
Serial Number: 10090201
Firmware Version: 004.17.6
Exposure Time: 300000.000000us
Data Taken on: 21-01-2021 14:53:11.862
Wavelength	Amplitude
733.770752	0.000000
733.808716	0.000000
733.846619	0.000000
733.884583	0.000000
733.922546	0.000000
733.960449	0.000000
733.998413	0.000000
734.036377	0.000000
734.074219	0.000000
734.112183	0.000000
734.150085	0.000000
734.188049	0.000000
734.226013	0.000000
734.263916	0.000000
734.301819	0.000000
734.339783	0.000000
734.377686	0.000000
734.415588	0.000000
734.453552	0.000000
734.491455	0.000000
734.529419	0.000000
734.567322	0.000000
734.605225	0.000000
734.643127	0.000000
734.681091	0.000000
734.718994	0.000000
734.756897	0.000000
734.794800	0.000000
734.832703	0.000000
734.870667	0.000000
734.908508	0.000000
734.946472	0.000000
734.984375	0.000000
735.022278	0.000000
735.060181	0.000000
735.098083	0.000000
735.135986	0.000000
735.173889	0.000000
735.211792	0.000000
735.249695	0.000000
735.287598	0.000000
735.325439	0.000000
735.363403	0.000000
735.401306	0.000000
735.439148	0.000000
735.477051	0.000000
735.515015	0.000000
735.552856	0.000000
735.590759	0.000000
735.628662	0.000000
735.666504	0.000000
735.704407	0.000000
735.742310	0.000000
735.780212	0.000000
735.818115	0.000000
735.856018	0.000000
735.893860	0.000000
735.931763	0.000000
735.969604	0.000000
736.007507	0.000000
736.045410	0.000000
736.083252	0.000000
736.121094	0.000000
736.158997	0.000000
736.196838	0.000000
736.234741	0.000000
736.272644	0.000000
736.310486	0.000000
736.348389	0.000000
736.386230	0.000000
736.424072	0.000000
736.461975	0.000000
736.499878	0.000000
736.537720	0.000000
736.575562	0.000000
736.613403	0.000000
736.651306	0.000000
736.689148	0.000000
736.726990	0.000000
736.764893	0.000000
736.802734	0.000000
736.840576	0.000000
736.878418	0.000000
736.916321	0.000000
736.954102	0.000000
736.992004	0.000000
737.029846	0.000000
737.067688	0.000000
737.105530	0.000000
737.143372	0.000000
737.181213	0.000000
737.219116	0.000000
737.256897	0.000000
737.294739	0.000000
737.332642	0.000000
737.370422	0.000000
737.408325	0.000000
737.446167	0.000000
737.483948	0.000000
737.521790	0.000000
737.559692	0.000000
737.597473	0.000000
737.635315	0.000000
737.673157	0.000000
737.710999	0.000000
737.748840	0.000000
737.786621	0.000000
737.824463	0.000000
737.862305	0.000000
737.900085	0.000000
737.937927	0.000000
737.975769	0.000000
738.013550	0.000000
738.051392	0.000000
738.089233	0.000000
738.127014	0.000000
738.164856	0.000000
738.202698	0.000000
738.240479	0.000000
738.278320	0.000000
738.316162	0.000000
738.353943	0.000000
738.391785	0.000000
738.429565	0.000000
738.467407	0.000000
738.505188	0.000000
738.542969	0.000000
738.580811	0.000000
738.618652	0.000000
738.656372	0.000000
738.694214	0.000000
738.732056	0.000000
738.769836	0.000000
738.807617	0.000000
738.845459	0.000000
738.883240	0.000000
738.921021	0.000000
738.958862	0.000000
738.996582	0.000000
739.034424	0.000000
739.072205	0.000000
739.109985	0.000000
739.147827	0.000000
739.185547	0.000000
739.223389	0.000000
739.261169	0.000000
739.298889	0.000000
739.336731	0.000000
739.374512	0.000000
739.412292	0.000000
739.450073	0.000000
739.487854	0.000000
739.525635	0.000000
739.563416	0.000000
739.601135	0.000000
739.638977	0.000000
739.676758	0.000000
739.714478	0.000000
739.752258	0.000000
739.790100	0.000000
739.827820	0.000000
739.865601	0.000000
739.903381	0.000000
739.941101	0.000000
739.978882	195.800000
740.016724	190.900000
740.054443	195.300000
740.092224	192.000000
740.130005	189.900000
740.167725	188.600000
740.205505	189.800000
740.243225	197.100000
740.281006	192.400000
740.318787	187.300000
740.356506	196.900000
740.394287	195.900000
740.432068	189.500000
740.469727	187.100000
740.507507	195.200000
740.545288	192.500000
740.583008	194.600000
740.620789	191.100000
740.658569	186.600000
740.696228	192.400000
740.734009	196.500000
740.771790	184.100000
740.809509	196.000000
740.847229	189.600000
740.884949	191.800000
740.922729	187.200000
740.960449	190.200000
740.998169	189.300000
741.035950	189.500000
741.073669	194.000000
741.111389	194.300000
741.149170	199.900000
741.186890	199.000000
741.224609	194.800000
741.262329	194.000000
741.300110	200.400000
741.337769	190.100000
741.375549	187.200000
741.413208	193.100000
741.450989	189.300000
741.488708	190.500000
741.526367	190.100000
741.564148	195.400000
741.601868	195.200000
741.639526	191.200000
741.677307	193.200000
741.715027	193.600000
741.752686	189.700000
741.790466	198.000000
741.828186	194.000000
741.865845	188.300000
741.903564	187.400000
741.941345	191.200000
741.979004	188.600000
742.016724	196.500000
742.054382	192.600000
742.092102	195.500000
742.129822	188.200000
742.167480	191.000000
742.205200	192.000000
742.242920	194.200000
742.280640	196.100000
742.318359	188.500000
742.356079	192.100000
742.393738	194.600000
742.431396	191.300000
742.469116	195.700000
742.506775	184.800000
742.544495	193.600000
742.582214	195.700000
742.619873	193.100000
742.657593	198.500000
742.695251	197.300000
742.732971	191.300000
742.770630	193.400000
742.808289	195.000000
742.846008	192.800000
742.883728	193.200000
742.921326	193.700000
742.959045	191.400000
742.996765	192.100000
743.034424	192.900000
743.072083	191.400000
743.109802	191.800000
743.147400	188.000000
743.185120	192.400000
743.222839	191.800000
743.260437	198.600000
743.298157	194.400000
743.335754	186.700000
743.373474	190.900000
743.411133	186.900000
743.448792	191.700000
743.486450	192.000000
743.524170	187.800000
743.561768	191.300000
743.599487	197.400000
743.637146	201.200000
743.674744	190.400000
743.712463	190.800000
743.750122	193.500000
743.787720	194.400000
743.825439	192.100000
743.863037	191.700000
743.900696	192.700000
743.938416	218.600000
743.976013	191.800000
744.013672	199.100000
744.051331	196.000000
744.088928	200.700000
744.126587	197.700000
744.164307	193.400000
744.201904	190.600000
744.239563	195.000000
744.277222	194.700000
744.314819	193.100000
744.352478	197.100000
744.390137	194.600000
744.427734	193.100000
744.465393	190.600000
744.502991	189.900000
744.540649	194.200000
744.578308	193.000000
744.615906	189.600000
744.653564	184.700000
744.691223	194.000000
744.728821	187.400000
744.766418	193.000000
744.804077	193.700000
744.841675	191.000000
744.879333	187.100000
744.916992	191.200000
744.954529	190.700000
744.992187	196.400000
745.029785	191.300000
745.067444	191.000000
745.105042	191.600000
745.142639	194.400000
745.180298	201.000000
745.217896	190.500000
745.255493	191.600000
745.293152	195.300000
745.330750	197.400000
745.368347	197.900000
745.405945	194.900000
745.443604	193.600000
745.481140	195.200000
745.518799	193.200000
745.556396	196.100000
745.593994	194.200000
745.631592	194.100000
745.669189	189.600000
745.706787	194.400000
745.744385	190.400000
745.781982	195.700000
745.819580	189.600000
745.857178	190.900000
745.894775	192.600000
745.932373	194.300000
745.969971	193.400000
746.007568	188.000000
746.045166	198.300000
746.082764	197.900000
746.120300	194.400000
746.157898	194.800000
746.195557	191.900000
746.233093	189.700000
746.270691	194.300000
746.308228	194.900000
746.345825	195.100000
746.383423	194.500000
746.420959	189.600000
746.458557	191.500000
746.496155	190.200000
746.533691	193.900000
746.571289	189.600000
746.608887	193.000000
746.646423	193.300000
746.684021	194.600000
746.721619	190.400000
746.759155	193.600000
746.796753	187.400000
746.834351	187.300000
746.871826	190.200000
746.909424	196.800000
746.946960	191.600000
746.984558	192.000000
747.022156	191.400000
747.059631	200.200000
747.097229	194.300000
747.134827	191.400000
747.172363	197.100000
747.209900	195.800000
747.247498	189.800000
747.285034	196.900000
747.322571	197.900000
747.360168	191.400000
747.397644	188.300000
747.435242	195.600000
747.472778	197.700000
747.510315	190.900000
747.547913	191.200000
747.585388	197.300000
747.622925	191.600000
747.660522	187.400000
747.697998	191.500000
747.735596	191.400000
747.773132	189.800000
747.810669	193.300000
747.848206	194.800000
747.885742	190.300000
747.923279	188.800000
747.960815	194.100000
747.998352	194.800000
748.035889	197.200000
748.073425	195.100000
748.110901	191.500000
748.148437	189.300000
748.185974	191.600000
748.223511	200.300000
748.261047	194.500000
748.298584	193.700000
748.336060	191.900000
748.373596	195.100000
748.411133	217.600000
748.448608	191.600000
748.486145	196.200000
748.523682	197.000000
748.561218	200.100000
748.598755	194.800000
748.636292	194.000000
748.673706	192.200000
748.711243	199.300000
748.748718	194.300000
748.786255	194.200000
748.823792	192.300000
748.861267	190.000000
748.898804	195.100000
748.936340	194.700000
748.973816	190.300000
749.011292	198.400000
749.048828	192.900000
749.086304	194.100000
749.123840	200.700000
749.161316	189.800000
749.198792	199.500000
749.236328	197.100000
749.273743	192.400000
749.311279	192.400000
749.348816	194.900000
749.386230	193.400000
749.423767	183.900000
749.461304	196.100000
749.498718	192.300000
749.536255	196.700000
749.573730	200.900000
749.611206	198.500000
749.648682	191.800000
749.686218	192.800000
749.723633	195.600000
749.761169	190.900000
749.798645	189.300000
749.836060	192.700000
749.873596	189.300000
749.911011	194.500000
749.948547	197.500000
749.986023	192.200000
750.023437	192.200000
750.060913	187.300000
750.098450	187.400000
750.135864	192.500000
750.173340	193.000000
750.210815	197.700000
750.248291	189.600000
750.285767	191.900000
750.323242	198.000000
750.360657	194.700000
750.398132	190.100000
750.435608	195.000000
750.473022	190.000000
750.510498	189.600000
750.547974	188.200000
750.585449	190.600000
750.622925	185.100000
750.660339	201.100000
750.697815	192.800000
750.735291	191.800000
750.772644	192.700000
750.810120	194.800000
750.847595	194.000000
750.885010	188.100000
750.922485	199.600000
750.959961	193.300000
750.997375	198.100000
751.034851	196.700000
751.072266	196.100000
751.109680	188.500000
751.147156	199.000000
751.184570	192.600000
751.221985	193.000000
751.259460	187.600000
751.296875	193.300000
751.334290	191.000000
751.371765	194.800000
751.409180	195.500000
751.446594	196.900000
751.484070	194.100000
751.521423	195.600000
751.558899	193.000000
751.596375	201.800000
751.633728	196.500000
751.671204	200.800000
751.708618	190.300000
751.746033	194.200000
751.783447	188.100000
751.820801	190.200000
751.858276	196.400000
751.895691	191.800000
751.933105	191.200000
751.970520	190.000000
752.007935	190.600000
752.045349	195.800000
752.082764	193.900000
752.120178	191.100000
752.157532	192.000000
752.195007	190.400000
752.232422	194.100000
752.269775	195.700000
752.307190	194.400000
752.344543	188.900000
752.382019	192.400000
752.419434	191.200000
752.456787	194.400000
752.494202	197.200000
752.531616	193.900000
752.568970	194.000000
752.606384	195.100000
752.643799	193.500000
752.681152	199.700000
752.718567	194.600000
752.755981	187.100000
752.793335	195.600000
752.830750	187.600000
752.868164	195.900000
752.905518	188.900000
752.942932	195.900000
752.980225	189.400000
753.017639	194.900000
753.055054	196.300000
753.092407	194.500000
753.129822	196.700000
753.167175	199.100000
753.204529	193.100000
753.241943	190.500000
753.279358	188.300000
753.316650	195.700000
753.354065	194.500000
753.391479	196.200000
753.428772	198.700000
753.466187	194.700000
753.503479	189.100000
753.540894	192.200000
753.578308	189.200000
753.615601	189.000000
753.653015	192.100000
753.690369	191.300000
753.727722	190.100000
753.765076	188.800000
753.802490	187.100000
753.839783	187.400000
753.877136	189.900000
753.914551	201.500000
753.951843	190.000000
753.989258	196.600000
754.026611	193.200000
754.063904	196.000000
754.101257	189.600000
754.138611	186.500000
754.175964	193.800000
754.213318	201.800000
754.250610	186.900000
754.288025	191.500000
754.325378	188.200000
754.362671	197.300000
754.400024	192.500000
754.437378	199.700000
754.474670	197.400000
754.512085	191.000000
754.549438	193.400000
754.586731	191.000000
754.624084	192.500000
754.661438	189.300000
754.698730	200.000000
754.736084	192.800000
754.773376	191.700000
754.810730	193.300000
754.848083	192.600000
754.885315	196.500000
754.922668	186.900000
754.960022	190.400000
754.997314	197.000000
755.034668	191.200000
755.072021	193.000000
755.109253	191.700000
755.146606	198.000000
755.183960	193.100000
755.221252	199.500000
755.258545	195.100000
755.295898	198.700000
755.333191	196.700000
755.370544	195.500000
755.407776	193.000000
755.445129	194.500000
755.482422	195.900000
755.519714	192.700000
755.557068	188.100000
755.594360	187.500000
755.631653	196.100000
755.668945	201.200000
755.706299	193.200000
755.743530	202.900000
755.780884	199.200000
755.818176	198.300000
755.855408	197.400000
755.892761	196.200000
755.930054	194.400000
755.967346	196.400000
756.004639	194.200000
756.041870	194.600000
756.079224	197.900000
756.116516	191.300000
756.153748	197.300000
756.191040	201.500000
756.228394	196.100000
756.265625	190.600000
756.302917	194.800000
756.340210	192.700000
756.377441	198.500000
756.414795	200.400000
756.452087	194.800000
756.489319	189.500000
756.526611	197.900000
756.563843	194.300000
756.601135	201.700000
756.638428	203.000000
756.675659	194.800000
756.712952	197.400000
756.750244	197.200000
756.787476	196.100000
756.824768	200.200000
756.862061	195.400000
756.899292	244.100000
756.936584	198.700000
756.973816	203.000000
757.011047	204.000000
757.048340	195.200000
757.085632	196.300000
757.122864	210.700000
757.160156	194.400000
757.197327	197.300000
757.234619	198.600000
757.271912	195.200000
757.309082	200.900000
757.346375	194.500000
757.383667	200.700000
757.420837	198.300000
757.458130	197.000000
757.495422	195.500000
757.532593	199.600000
757.569885	193.100000
757.607117	192.800000
757.644348	199.300000
757.681580	208.800000
757.718811	189.800000
757.756042	197.400000
757.793335	195.500000
757.830505	198.900000
757.867798	194.700000
757.905029	195.700000
757.942200	198.000000
757.979492	194.400000
758.016724	197.000000
758.053894	196.100000
758.091187	211.000000
758.128418	198.300000
758.165588	196.200000
758.202820	206.500000
758.240112	198.900000
758.277283	206.700000
758.314514	198.500000
758.351685	196.900000
758.388916	205.400000
758.426147	204.700000
758.463379	205.600000
758.500610	200.400000
758.537842	199.200000
758.575012	205.900000
758.612244	194.700000
758.649475	208.300000
758.686646	194.300000
758.723877	203.000000
758.761108	205.500000
758.798279	200.600000
758.835510	201.100000
758.872742	205.900000
758.909851	202.300000
758.947083	203.100000
758.984253	200.900000
759.021484	205.400000
759.058716	203.400000
759.095886	205.700000
759.133057	200.900000
759.170288	204.300000
759.207458	199.600000
759.244690	209.300000
759.281860	207.900000
759.319031	203.400000
759.356262	201.000000
759.393433	201.000000
759.430603	202.000000
759.467773	201.100000
759.505005	207.800000
759.542175	205.900000
759.579346	204.700000
759.616516	201.800000
759.653687	206.400000
759.690918	201.300000
759.728027	203.900000
759.765259	206.800000
759.802429	207.500000
759.839539	205.300000
759.876770	209.300000
759.913940	212.200000
759.951111	205.100000
759.988281	205.300000
760.025452	204.200000
760.062561	202.900000
760.099792	213.700000
760.136963	207.100000
760.174072	204.000000
760.211243	201.600000
760.248413	202.800000
760.285583	202.300000
760.322754	213.800000
760.359863	210.800000
760.397034	211.100000
760.434204	206.100000
760.471375	206.300000
760.508545	205.400000
760.545715	206.800000
760.582825	203.100000
760.619995	209.700000
760.657166	203.900000
760.694275	213.000000
760.731445	207.600000
760.768555	209.400000
760.805664	210.800000
760.842834	209.100000
760.879944	210.800000
760.917114	209.400000
760.954285	207.400000
760.991394	203.300000
761.028564	212.200000
761.065674	209.500000
761.102783	205.800000
761.139954	213.100000
761.177124	211.300000
761.214172	214.500000
761.251343	210.300000
761.288452	207.600000
761.325562	212.100000
761.362732	206.800000
761.399841	209.800000
761.436951	211.700000
761.474121	207.800000
761.511169	210.100000
761.548340	213.700000
761.585449	211.800000
761.622559	214.300000
761.659668	210.400000
761.696838	215.800000
761.733887	212.100000
761.771057	209.800000
761.808167	210.000000
761.845276	215.100000
761.882385	220.700000
761.919434	213.000000
761.956604	227.200000
761.993713	211.500000
762.030762	216.200000
762.067871	213.000000
762.105042	212.100000
762.142090	220.000000
762.179199	214.500000
762.216309	218.600000
762.253418	224.600000
762.290527	221.100000
762.327637	218.600000
762.364685	210.500000
762.401794	218.900000
762.438904	217.700000
762.475952	214.100000
762.513062	211.800000
762.550110	213.700000
762.587219	224.600000
762.624329	222.900000
762.661377	218.900000
762.698486	216.800000
762.735596	216.500000
762.772644	212.100000
762.809753	211.400000
762.846863	216.300000
762.883911	219.800000
762.921021	219.300000
762.958069	216.700000
762.995117	224.200000
763.032227	223.400000
763.069336	217.000000
763.106323	215.800000
763.143433	215.200000
763.180481	220.600000
763.217590	220.200000
763.254639	218.300000
763.291687	218.000000
763.328735	226.500000
763.365845	218.700000
763.402893	218.800000
763.439941	221.100000
763.477051	222.100000
763.514038	223.600000
763.551147	219.700000
763.588196	222.000000
763.625244	221.300000
763.662292	228.300000
763.699402	228.500000
763.736389	225.600000
763.773499	232.300000
763.810486	227.800000
763.847534	222.300000
763.884644	225.900000
763.921631	224.300000
763.958679	231.300000
763.995728	224.800000
764.032776	231.800000
764.069824	222.400000
764.106873	229.700000
764.143860	232.600000
764.180969	223.400000
764.218018	233.100000
764.255005	226.800000
764.292053	226.500000
764.329102	235.400000
764.366089	235.800000
764.403137	233.900000
764.440125	228.900000
764.477173	229.900000
764.514221	232.200000
764.551208	232.000000
764.588257	230.400000
764.625305	235.300000
764.662292	239.900000
764.699341	240.400000
764.736389	234.100000
764.773376	246.900000
764.810425	238.500000
764.847473	243.800000
764.884399	241.000000
764.921448	244.700000
764.958435	243.900000
764.995483	236.500000
765.032532	249.200000
765.069458	237.000000
765.106506	242.200000
765.143555	236.900000
765.180481	242.100000
765.217529	249.400000
765.254578	238.000000
765.291504	243.000000
765.328552	241.800000
765.365540	239.700000
765.402527	250.600000
765.439575	241.800000
765.476501	239.500000
765.513550	238.700000
765.550537	243.600000
765.587463	250.300000
765.624512	243.000000
765.661499	237.900000
765.698486	249.600000
765.735474	240.900000
765.772461	244.800000
765.809448	250.100000
765.846436	248.700000
765.883423	251.700000
765.920410	248.400000
765.957397	244.600000
765.994385	248.800000
766.031311	256.600000
766.068359	250.400000
766.105286	249.800000
766.142273	255.500000
766.179260	250.800000
766.216187	246.700000
766.253174	246.300000
766.290161	250.900000
766.327148	255.600000
766.364136	253.300000
766.401123	265.200000
766.438049	248.600000
766.475037	259.900000
766.512024	254.800000
766.548950	267.800000
766.585937	263.300000
766.622864	259.300000
766.659790	258.700000
766.696777	251.400000
766.733704	260.600000
766.770691	255.200000
766.807678	263.700000
766.844604	262.000000
766.881531	261.800000
766.918518	265.600000
766.955444	266.600000
766.992432	261.600000
767.029358	264.800000
767.066284	265.700000
767.103271	266.700000
767.140198	296.600000
767.177124	276.500000
767.214050	267.800000
767.251038	270.000000
767.287964	264.000000
767.324890	263.400000
767.361816	266.900000
767.398743	271.600000
767.435730	267.100000
767.472595	271.400000
767.509583	274.000000
767.546509	265.000000
767.583374	270.300000
767.620361	265.300000
767.657288	268.400000
767.694214	271.300000
767.731140	267.200000
767.768066	271.100000
767.804993	272.600000
767.841919	267.000000
767.878845	271.400000
767.915710	277.400000
767.952698	272.400000
767.989563	275.300000
768.026489	274.600000
768.063416	271.100000
768.100281	269.600000
768.137207	280.400000
768.174133	277.300000
768.211060	276.800000
768.247986	274.500000
768.284912	274.500000
768.321777	275.500000
768.358704	274.500000
768.395630	274.700000
768.432495	273.800000
768.469421	277.300000
768.506348	278.300000
768.543152	286.000000
768.580078	281.600000
768.616943	283.100000
768.653870	285.800000
768.690796	286.700000
768.727661	281.800000
768.764587	283.700000
768.801453	280.000000
768.838318	288.100000
768.875244	287.200000
768.912109	291.100000
768.948975	283.700000
768.985901	285.000000
769.022766	284.500000
769.059631	289.500000
769.096558	284.200000
769.133362	287.500000
769.170288	287.500000
769.207214	289.800000
769.244019	290.500000
769.280945	292.100000
769.317810	295.600000
769.354675	293.800000
769.391541	298.500000
769.428406	296.500000
769.465271	303.500000
769.502136	295.300000
769.539062	298.400000
769.575867	299.700000
769.612732	298.600000
769.649597	302.800000
769.686462	305.700000
769.723328	300.600000
769.760193	297.500000
769.797058	300.500000
769.833923	308.100000
769.870728	304.900000
769.907593	308.500000
769.944519	307.100000
769.981323	309.400000
770.018188	310.800000
770.055054	308.300000
770.091858	308.600000
770.128723	317.200000
770.165588	319.900000
770.202393	310.300000
770.239258	318.200000
770.276062	316.400000
770.312927	317.000000
770.349792	325.100000
770.386597	321.700000
770.423462	329.700000
770.460327	335.000000
770.497131	325.200000
770.533997	320.000000
770.570862	333.600000
770.607605	331.200000
770.644470	330.300000
770.681335	330.300000
770.718140	331.100000
770.754944	327.600000
770.791809	326.800000
770.828613	328.500000
770.865479	332.700000
770.902222	338.400000
770.939087	332.700000
770.975952	326.000000
771.012695	333.700000
771.049561	343.000000
771.086365	334.400000
771.123169	330.400000
771.159973	337.900000
771.196838	337.400000
771.233582	341.700000
771.270447	339.000000
771.307251	343.900000
771.344055	340.800000
771.380859	343.800000
771.417664	340.000000
771.454468	346.100000
771.491272	344.300000
771.528076	346.800000
771.564880	345.000000
771.601685	350.600000
771.638428	344.000000
771.675293	349.400000
771.712097	341.500000
771.748840	357.600000
771.785645	352.300000
771.822449	353.300000
771.859253	355.100000
771.896057	354.700000
771.932861	361.600000
771.969604	358.100000
772.006409	349.700000
772.043213	360.200000
772.079956	357.100000
772.116760	351.900000
772.153503	355.700000
772.190308	365.900000
772.227112	360.200000
772.263855	355.000000
772.300659	360.000000
772.337463	364.900000
772.374207	357.400000
772.411011	356.700000
772.447754	358.600000
772.484497	369.900000
772.521301	366.900000
772.558105	364.300000
772.594849	365.600000
772.631592	367.900000
772.668396	365.900000
772.705139	367.700000
772.741882	369.200000
772.778625	377.600000
772.815430	377.400000
772.852173	375.200000
772.888916	381.200000
772.925720	381.100000
772.962463	387.800000
772.999207	381.100000
773.035950	386.100000
773.072754	386.500000
773.109436	382.400000
773.146240	384.100000
773.182922	381.000000
773.219727	389.100000
773.256470	385.000000
773.293152	377.500000
773.329956	380.700000
773.366699	385.900000
773.403381	379.000000
773.440186	384.400000
773.476929	385.900000
773.513611	384.600000
773.550354	385.300000
773.587158	386.500000
773.623840	381.900000
773.660583	388.500000
773.697327	397.400000
773.734009	389.200000
773.770813	388.700000
773.807495	387.000000
773.844238	387.500000
773.880981	403.000000
773.917664	395.600000
773.954407	399.900000
773.991150	392.600000
774.027832	400.600000
774.064575	393.200000
774.101318	399.000000
774.138000	404.000000
774.174744	402.000000
774.211487	398.600000
774.248108	394.500000
774.284851	391.500000
774.321594	402.000000
774.358276	403.300000
774.395020	408.900000
774.431702	406.300000
774.468384	398.600000
774.505127	398.700000
774.541809	404.700000
774.578491	411.100000
774.615234	412.800000
774.651917	405.500000
774.688599	408.200000
774.725342	419.300000
774.762024	416.000000
774.798706	416.300000
774.835449	419.400000
774.872070	424.700000
774.908813	422.000000
774.945496	420.900000
774.982178	422.100000
775.018860	421.600000
775.055542	422.500000
775.092224	423.600000
775.128967	429.500000
775.165588	431.800000
775.202271	420.800000
775.239014	430.900000
775.275635	432.100000
775.312317	434.500000
775.349060	433.800000
775.385681	438.900000
775.422363	433.100000
775.459045	436.800000
775.495667	437.600000
775.532410	443.500000
775.569092	444.100000
775.605713	444.800000
775.642395	442.000000
775.679016	444.000000
775.715698	445.900000
775.752380	448.200000
775.789001	444.000000
775.825684	445.500000
775.862366	450.900000
775.898987	460.500000
775.935669	452.700000
775.972351	466.800000
776.008972	466.300000
776.045654	464.100000
776.082336	462.400000
776.118958	462.400000
776.155640	468.700000
776.192322	472.900000
776.228882	475.300000
776.265564	476.300000
776.302185	475.700000
776.338867	478.000000
776.375488	470.500000
776.412109	480.400000
776.448792	485.200000
776.485413	495.400000
776.522034	486.000000
776.558716	482.700000
776.595337	485.400000
776.631958	485.400000
776.668579	486.000000
776.705261	496.400000
776.741882	491.600000
776.778503	490.600000
776.815186	493.000000
776.851746	493.000000
776.888367	492.700000
776.924988	504.200000
776.961609	496.300000
776.998291	497.000000
777.034851	496.400000
777.071472	501.800000
777.108154	497.400000
777.144714	509.900000
777.181335	509.200000
777.218018	503.300000
777.254578	508.000000
777.291199	508.000000
777.327759	509.500000
777.364380	518.200000
777.401062	523.200000
777.437622	532.400000
777.474243	524.100000
777.510864	526.800000
777.547424	522.400000
777.584045	523.200000
777.620667	523.500000
777.657227	528.000000
777.693848	529.700000
777.730469	541.500000
777.767029	531.700000
777.803650	536.300000
777.840271	531.900000
777.876831	531.700000
777.913452	542.000000
777.950012	525.800000
777.986633	525.700000
778.023193	528.900000
778.059753	525.500000
778.096375	528.000000
778.132996	540.800000
778.169556	533.800000
778.206116	533.600000
778.242737	534.600000
778.279297	538.500000
778.315857	530.700000
778.352478	539.800000
778.389038	544.000000
778.425598	542.800000
778.462219	549.400000
778.498718	546.200000
778.535339	551.000000
778.571838	551.000000
778.608459	549.600000
778.645020	543.100000
778.681580	550.900000
778.718140	554.300000
778.754761	546.500000
778.791260	552.700000
778.827881	560.000000
778.864441	562.000000
778.900940	566.300000
778.937561	563.900000
778.974121	561.200000
779.010620	555.900000
779.047241	561.100000
779.083801	567.300000
779.120300	567.600000
779.156860	566.500000
779.193359	560.000000
779.229980	561.300000
779.266541	567.100000
779.303040	571.200000
779.339600	567.700000
779.376160	563.600000
779.412659	564.500000
779.449219	566.500000
779.485779	569.500000
779.522278	569.400000
779.558838	578.000000
779.595398	572.500000
779.631897	571.400000
779.668457	564.700000
779.705017	565.000000
779.741516	558.900000
779.778076	554.700000
779.814575	561.900000
779.851074	563.500000
779.887634	564.200000
779.924133	573.600000
779.960693	560.300000
779.997253	567.500000
780.033691	575.800000
780.070251	572.800000
780.106812	580.100000
780.143250	572.200000
780.179810	568.900000
780.216370	565.700000
780.252808	563.200000
780.289368	557.100000
780.325867	549.100000
780.362366	525.200000
780.398865	510.700000
780.435364	477.800000
780.471863	462.300000
780.508423	432.800000
780.544861	410.900000
780.581421	389.200000
780.617920	366.000000
780.654419	349.300000
780.690918	343.000000
780.727417	348.600000
780.763916	356.100000
780.800415	374.300000
780.836914	386.200000
780.873352	418.000000
780.909912	430.200000
780.946411	457.400000
780.982849	485.900000
781.019348	513.100000
781.055786	518.400000
781.092346	530.500000
781.128845	533.300000
781.165283	531.800000
781.201782	523.700000
781.238281	501.900000
781.274719	483.500000
781.311218	456.500000
781.347717	445.300000
781.384155	407.300000
781.420654	387.800000
781.457092	375.200000
781.493591	362.300000
781.530090	355.100000
781.566528	363.600000
781.602966	376.500000
781.639465	392.300000
781.675903	414.500000
781.712402	443.600000
781.748901	475.300000
781.785278	490.300000
781.821777	518.800000
781.858276	537.200000
781.894714	560.000000
781.931152	555.300000
781.967651	553.000000
782.004089	532.100000
782.040527	517.600000
782.076965	498.700000
782.113403	472.900000
782.149902	450.400000
782.186340	426.500000
782.222778	414.200000
782.259277	386.300000
782.295654	376.000000
782.332092	377.000000
782.368591	386.400000
782.404968	399.900000
782.441467	425.800000
782.477905	452.400000
782.514282	479.600000
782.550781	519.000000
782.587219	543.700000
782.623596	578.500000
782.660095	603.500000
782.696472	634.800000
782.732910	660.500000
782.769348	670.800000
782.805786	697.400000
782.842224	707.200000
782.878662	714.200000
782.915039	721.100000
782.951477	724.000000
782.987915	719.200000
783.024292	725.300000
783.060730	729.800000
783.097168	722.800000
783.133545	712.100000
783.169983	715.000000
783.206421	709.200000
783.242798	707.300000
783.279236	706.700000
783.315613	704.900000
783.352051	707.000000
783.388489	706.200000
783.424866	697.000000
783.461304	701.000000
783.497681	711.000000
783.534058	704.900000
783.570496	703.300000
783.606934	702.600000
783.643250	702.800000
783.679687	708.600000
783.716125	711.100000
783.752441	719.300000
783.788879	734.100000
783.825317	739.700000
783.861633	744.300000
783.898071	746.400000
783.934448	755.600000
783.970825	766.200000
784.007263	764.500000
784.043579	771.700000
784.080017	773.100000
784.116394	768.600000
784.152710	771.100000
784.189148	779.500000
784.225525	775.400000
784.261902	768.700000
784.298279	764.200000
784.334656	766.700000
784.371033	763.200000
784.407410	759.900000
784.443787	751.200000
784.480164	742.100000
784.516541	725.600000
784.552856	727.200000
784.589233	727.200000
784.625610	726.600000
784.661987	752.600000
784.698364	747.600000
784.734741	734.300000
784.771057	732.100000
784.807434	744.000000
784.843811	755.000000
784.880127	750.300000
784.916504	771.900000
784.952881	775.800000
784.989197	771.900000
785.025574	773.600000
785.061951	782.100000
785.098267	796.400000
785.134644	793.100000
785.170959	791.400000
785.207275	796.600000
785.243652	787.600000
785.279968	774.600000
785.316345	780.100000
785.352722	780.800000
785.388977	776.800000
785.425354	762.400000
785.461731	749.300000
785.498047	744.300000
785.534363	736.800000
785.570679	739.700000
785.606995	740.200000
785.643372	739.200000
785.679687	734.600000
785.716003	725.800000
785.752380	720.000000
785.788635	727.900000
785.825012	738.500000
785.861328	747.200000
785.897644	740.000000
785.933960	750.700000
785.970337	753.200000
786.006592	773.200000
786.042908	777.800000
786.079285	786.300000
786.115540	798.400000
786.151855	803.900000
786.188171	797.700000
786.224487	802.400000
786.260803	799.800000
786.297119	802.900000
786.333435	804.500000
786.369751	796.600000
786.406006	792.700000
786.442322	782.800000
786.478638	778.500000
786.514954	781.400000
786.551270	779.700000
786.587585	786.600000
786.623840	772.300000
786.660156	768.300000
786.696472	755.600000
786.732727	751.100000
786.769043	757.900000
786.805298	753.500000
786.841614	759.700000
786.877930	770.300000
786.914124	756.100000
786.950439	770.500000
786.986755	782.400000
787.023010	795.800000
787.059326	801.900000
787.095642	808.100000
787.131836	819.000000
787.168152	812.600000
787.204468	818.100000
787.240723	830.100000
787.276978	832.300000
787.313293	843.900000
787.349548	840.600000
787.385803	842.600000
787.422058	838.400000
787.458313	830.600000
787.494629	828.500000
787.530823	832.900000
787.567139	827.000000
787.603455	813.900000
787.639648	804.600000
787.675903	803.600000
787.712219	805.800000
787.748413	800.600000
787.784729	807.700000
787.820984	796.300000
787.857178	800.200000
787.893494	796.800000
787.929749	790.200000
787.965942	802.000000
788.002258	814.000000
788.038452	821.500000
788.074707	821.700000
788.110962	825.600000
788.147217	824.900000
788.183472	832.200000
788.219727	841.500000
788.255920	860.100000
788.292175	865.700000
788.328430	862.200000
788.364624	851.400000
788.400879	851.300000
788.437134	858.100000
788.473328	854.000000
788.509583	857.000000
788.545837	854.800000
788.582031	857.400000
788.618286	857.300000
788.654480	856.200000
788.690735	861.600000
788.726990	876.900000
788.763184	877.800000
788.799377	878.700000
788.835632	874.100000
788.871826	886.400000
788.908081	880.300000
788.944336	881.400000
788.980469	893.600000
789.016724	883.100000
789.052979	890.500000
789.089111	871.700000
789.125366	877.600000
789.161621	863.700000
789.197754	872.100000
789.234009	870.400000
789.270142	863.900000
789.306396	871.600000
789.342590	858.400000
789.378784	836.700000
789.414978	835.200000
789.451233	848.700000
789.487366	850.600000
789.523621	860.300000
789.559814	855.700000
789.595947	847.400000
789.632202	852.600000
789.668335	862.400000
789.704529	877.700000
789.740784	897.100000
789.776917	900.700000
789.813110	895.500000
789.849304	907.800000
789.885498	906.600000
789.921692	917.200000
789.957886	922.500000
789.994019	927.600000
790.030212	938.700000
790.066406	934.700000
790.102539	923.000000
790.138733	935.400000
790.174927	933.500000
790.211060	946.400000
790.247253	940.900000
790.283386	928.700000
790.319580	916.200000
790.355774	904.800000
790.391907	906.400000
790.428101	920.700000
790.464294	920.400000
790.500427	920.300000
790.536621	905.800000
790.572754	897.100000
790.608887	895.700000
790.645081	898.600000
790.681274	919.000000
790.717346	915.500000
790.753540	901.600000
790.789734	882.000000
790.825867	871.400000
790.862000	870.600000
790.898132	883.500000
790.934265	881.300000
790.970459	880.500000
791.006592	879.400000
791.042725	882.100000
791.078918	870.000000
791.114990	867.400000
791.151184	874.300000
791.187317	892.600000
791.223389	887.100000
791.259583	875.800000
791.295715	882.300000
791.331848	886.600000
791.367981	896.700000
791.404114	897.500000
791.440247	905.500000
791.476379	903.700000
791.512451	888.600000
791.548584	888.900000
791.584778	877.500000
791.620850	885.000000
791.656982	898.900000
791.693115	895.300000
791.729187	896.800000
791.765381	886.100000
791.801514	882.800000
791.837585	888.600000
791.873718	894.400000
791.909851	897.200000
791.945923	911.100000
791.982056	886.100000
792.018188	883.100000
792.054260	882.700000
792.090393	881.500000
792.126465	878.800000
792.162598	887.200000
792.198669	881.400000
792.234741	870.200000
792.270874	860.100000
792.307007	853.000000
792.343079	860.800000
792.379150	868.300000
792.415283	866.900000
792.451355	865.200000
792.487488	844.700000
792.523560	842.700000
792.559631	827.300000
792.595764	801.100000
792.631836	767.100000
792.667908	741.000000
792.703979	723.100000
792.740051	737.700000
792.776184	768.700000
792.812256	782.000000
792.848328	794.400000
792.884399	811.800000
792.920471	809.800000
792.956543	810.800000
792.992615	815.300000
793.028748	808.000000
793.064758	813.900000
793.100830	829.400000
793.136963	838.300000
793.172974	842.300000
793.209045	839.300000
793.245178	840.900000
793.281189	826.800000
793.317261	829.600000
793.353271	839.000000
793.389404	852.800000
793.425476	848.200000
793.461487	836.000000
793.497559	827.400000
793.533630	827.400000
793.569641	823.400000
793.605713	830.800000
793.641785	831.500000
793.677795	842.200000
793.713867	836.400000
793.749878	838.300000
793.785950	846.000000
793.822021	854.400000
793.858032	844.900000
793.894104	858.800000
793.930176	850.700000
793.966187	856.700000
794.002258	845.900000
794.038269	852.200000
794.074280	846.600000
794.110352	872.900000
794.146423	857.300000
794.182373	855.900000
794.218445	846.900000
794.254517	840.900000
794.290466	831.300000
794.326538	841.900000
794.362549	843.600000
794.398560	843.600000
794.434631	838.200000
794.470581	821.800000
794.506653	813.400000
794.542664	825.400000
794.578674	826.100000
794.614685	826.600000
794.650757	826.800000
794.686707	826.000000
794.722778	816.500000
794.758789	823.300000
794.794739	824.800000
794.830811	851.500000
794.866821	867.600000
794.902771	869.700000
794.938843	867.100000
794.974792	864.800000
795.010803	869.200000
795.046814	870.100000
795.082825	859.700000
795.118835	881.100000
795.154846	865.500000
795.190796	865.700000
795.226807	848.400000
795.262817	849.300000
795.298767	851.700000
795.334778	857.500000
795.370850	846.000000
795.406799	852.500000
795.442810	839.500000
795.478821	838.000000
795.514709	835.800000
795.550720	855.200000
795.586670	839.700000
795.622681	845.400000
795.658691	845.800000
795.694641	849.500000
795.730652	837.700000
795.766663	847.000000
795.802551	851.200000
795.838562	866.400000
795.874573	861.300000
795.910522	859.600000
795.946472	845.600000
795.982483	849.900000
796.018433	844.900000
796.054382	852.000000
796.090393	850.800000
796.126282	842.000000
796.162292	830.300000
796.198242	823.700000
796.234192	819.300000
796.270203	815.800000
796.306091	824.500000
796.342041	832.900000
796.378052	822.900000
796.413940	825.000000
796.449951	828.100000
796.485901	831.800000
796.521790	837.000000
796.557800	848.800000
796.593689	851.800000
796.629639	841.500000
796.665649	840.400000
796.701599	839.600000
796.737488	841.400000
796.773437	844.200000
796.809387	846.100000
796.845337	854.000000
796.881287	850.900000
796.917175	830.900000
796.953125	824.800000
796.989075	834.300000
797.024963	827.200000
797.060913	828.400000
797.096863	833.500000
797.132751	828.100000
797.168701	817.900000
797.204590	825.800000
797.240540	815.100000
797.276489	817.300000
797.312439	829.600000
797.348328	828.200000
797.384277	816.600000
797.420166	812.000000
797.456055	811.200000
797.492004	813.300000
797.527893	820.600000
797.563843	820.900000
797.599731	813.700000
797.635620	808.800000
797.671570	816.500000
797.707520	807.700000
797.743347	815.000000
797.779297	825.900000
797.815125	822.100000
797.851074	819.200000
797.887024	804.500000
797.922913	792.000000
797.958801	794.900000
797.994690	790.400000
798.030579	796.000000
798.066467	806.200000
798.102356	795.500000
798.138245	791.500000
798.174133	785.200000
798.210083	791.600000
798.245911	802.200000
798.281799	802.300000
798.317749	799.600000
798.353577	797.900000
798.389465	785.000000
798.425293	789.000000
798.461243	790.500000
798.497131	793.200000
798.532959	792.300000
798.568848	797.400000
798.604736	791.000000
798.640564	776.500000
798.676453	776.700000
798.712402	773.800000
798.748230	782.600000
798.784119	787.100000
798.820007	789.000000
798.855835	786.900000
798.891724	775.600000
798.927551	769.500000
798.963379	775.000000
798.999268	775.800000
799.035095	764.600000
799.070984	757.900000
799.106873	753.400000
799.142700	754.800000
799.178528	746.400000
799.214417	745.400000
799.250244	762.100000
799.286133	760.300000
799.321960	762.700000
799.357788	755.400000
799.393677	749.900000
799.429504	756.000000
799.465332	755.100000
799.501221	756.600000
799.537048	759.200000
799.572876	756.600000
799.608704	747.400000
799.644531	764.200000
799.680359	760.200000
799.716248	769.400000
799.752014	777.600000
799.787903	770.400000
799.823730	764.700000
799.859558	759.200000
799.895386	754.900000
799.931213	759.400000
799.967041	750.800000
800.002869	758.200000
800.038696	762.700000
800.074463	748.000000
800.110352	744.500000
800.146179	735.300000
800.181946	753.400000
800.217773	757.200000
800.253540	753.200000
800.289429	752.800000
800.325256	739.900000
800.361023	732.200000
800.396851	741.900000
800.432678	742.600000
800.468445	744.900000
800.504272	754.300000
800.540100	738.800000
800.575867	735.700000
800.611694	731.400000
800.647461	729.400000
800.683289	731.700000
800.719116	742.000000
800.754883	733.200000
800.790649	723.000000
800.826477	718.500000
800.862244	733.200000
800.898071	721.700000
800.933838	727.100000
800.969604	727.500000
801.005432	733.400000
801.041199	729.900000
801.076965	713.000000
801.112793	703.000000
801.148560	701.000000
801.184326	704.000000
801.220154	709.200000
801.255859	706.200000
801.291687	701.500000
801.327454	697.900000
801.363281	702.100000
801.398987	696.500000
801.434814	689.200000
801.470520	700.700000
801.506287	692.700000
801.542114	688.000000
801.577820	684.300000
801.613647	681.700000
801.649414	680.000000
801.685120	689.400000
801.720886	690.100000
801.756714	678.700000
801.792419	671.900000
801.828186	669.000000
801.863892	674.100000
801.899719	674.600000
801.935486	672.700000
801.971252	674.700000
802.006958	667.600000
802.042725	663.200000
802.078430	662.100000
802.114197	663.800000
802.149963	678.400000
802.185669	671.300000
802.221436	667.500000
802.257202	666.200000
802.292908	660.600000
802.328674	666.600000
802.364441	671.800000
802.400146	670.600000
802.435913	673.000000
802.471558	667.400000
802.507324	660.500000
802.543091	652.000000
802.578796	667.500000
802.614502	671.400000
802.650269	672.400000
802.685974	660.500000
802.721741	664.600000
802.757446	664.200000
802.793152	660.400000
802.828918	663.200000
802.864624	665.300000
802.900330	664.400000
802.936035	660.200000
802.971802	659.900000
803.007446	653.100000
803.043213	645.400000
803.078857	659.300000
803.114624	644.700000
803.150330	653.200000
803.185974	646.600000
803.221741	643.800000
803.257446	649.800000
803.293152	651.900000
803.328857	641.400000
803.364563	647.400000
803.400208	642.000000
803.435974	646.600000
803.471680	636.100000
803.507324	635.500000
803.543030	641.700000
803.578735	647.100000
803.614441	641.400000
803.650146	652.900000
803.685791	635.800000
803.721497	632.900000
803.757202	626.500000
803.792847	635.700000
803.828552	629.400000
803.864258	626.500000
803.899902	622.700000
803.935608	612.400000
803.971313	616.100000
804.006958	611.100000
804.042664	605.600000
804.078308	619.800000
804.113953	612.400000
804.149658	618.400000
804.185364	611.200000
804.221008	623.700000
804.256714	605.100000
804.292297	604.800000
804.328003	607.600000
804.363708	604.200000
804.399292	601.700000
804.434998	594.200000
804.470703	588.900000
804.506287	598.900000
804.541992	596.000000
804.577637	600.300000
804.613281	588.800000
804.648926	584.800000
804.684570	590.200000
804.720215	582.300000
804.755920	583.200000
804.791565	583.900000
804.827209	591.100000
804.862854	583.000000
804.898437	582.400000
804.934143	581.500000
804.969788	579.300000
805.005371	584.300000
805.041077	579.900000
805.076721	580.000000
805.112305	573.400000
805.147949	566.800000
805.183655	568.300000
805.219238	574.200000
805.254883	567.200000
805.290466	573.700000
805.326111	572.000000
805.361755	563.600000
805.397400	566.100000
805.432983	563.000000
805.468628	554.800000
805.504211	557.600000
805.539856	562.400000
805.575500	570.400000
805.611084	558.800000
805.646729	550.700000
805.682373	552.400000
805.717957	559.600000
805.753601	561.900000
805.789246	553.200000
805.824768	562.900000
805.860413	564.500000
805.895996	551.500000
805.931641	548.700000
805.967224	559.100000
806.002869	554.900000
806.038452	561.700000
806.074036	561.000000
806.109619	548.700000
806.145264	547.500000
806.180847	548.700000
806.216431	543.900000
806.252014	545.300000
806.287659	551.500000
806.323181	556.800000
806.358826	552.300000
806.394409	533.400000
806.429993	538.100000
806.465576	547.200000
806.501160	536.000000
806.536743	531.200000
806.572327	539.600000
806.607910	539.300000
806.643494	534.700000
806.679077	529.400000
806.714661	531.400000
806.750244	529.300000
806.785828	524.200000
806.821350	525.200000
806.856934	530.300000
806.892517	522.000000
806.928101	519.700000
806.963684	522.200000
806.999268	530.300000
807.034790	512.100000
807.070374	517.300000
807.105896	512.800000
807.141479	507.100000
807.177063	516.600000
807.212585	506.600000
807.248169	509.100000
807.283752	511.400000
807.319275	506.400000
807.354858	510.000000
807.390381	502.900000
807.425903	501.900000
807.461487	500.600000
807.497070	495.400000
807.532593	494.700000
807.568115	494.200000
807.603699	490.500000
807.639221	489.500000
807.674744	492.100000
807.710266	492.400000
807.745850	495.800000
807.781372	491.300000
807.816895	485.600000
807.852417	490.300000
807.888000	485.500000
807.923523	482.700000
807.959045	491.400000
807.994629	482.400000
808.030090	483.200000
808.065613	484.100000
808.101135	485.000000
808.136658	482.100000
808.172241	480.600000
808.207764	479.300000
808.243225	477.000000
808.278809	472.300000
808.314270	479.600000
808.349792	466.800000
808.385315	467.600000
808.420837	472.800000
808.456360	478.600000
808.491882	476.800000
808.527344	472.800000
808.562866	480.000000
808.598389	468.200000
808.633850	466.100000
808.669434	462.700000
808.704895	469.200000
808.740417	478.200000
808.775940	471.600000
808.811462	468.800000
808.846924	464.700000
808.882385	462.600000
808.917847	461.800000
808.953369	462.600000
808.988892	457.300000
809.024353	464.900000
809.059875	465.200000
809.095398	459.400000
809.130798	451.700000
809.166321	451.800000
809.201843	456.000000
809.237305	456.700000
809.272766	461.500000
809.308228	449.400000
809.343750	451.600000
809.379211	452.000000
809.414734	449.300000
809.450134	455.300000
809.485657	445.300000
809.521118	447.300000
809.556580	444.700000
809.592102	445.300000
809.627502	440.800000
809.663025	441.400000
809.698486	437.300000
809.733887	434.600000
809.769409	437.100000
809.804871	430.700000
809.840271	433.000000
809.875793	432.200000
809.911194	434.800000
809.946655	426.800000
809.982178	423.600000
810.017639	429.500000
810.053040	429.300000
810.088501	423.300000
810.123901	423.900000
810.159424	421.800000
810.194885	415.900000
810.230286	420.700000
810.265747	415.600000
810.301208	412.600000
810.336609	416.700000
810.372070	408.300000
810.407532	410.100000
810.442932	410.100000
810.478394	415.300000
810.513794	410.700000
810.549255	409.000000
810.584717	404.800000
810.620117	400.800000
810.655518	409.900000
810.690979	402.800000
810.726379	402.500000
810.761841	395.900000
810.797302	395.700000
810.832642	390.200000
810.868103	402.700000
810.903564	392.500000
810.938904	400.600000
810.974365	386.500000
811.009827	393.000000
811.045166	386.400000
811.080627	382.600000
811.115967	383.300000
811.151428	388.400000
811.186829	384.200000
811.222229	384.700000
811.257629	379.200000
811.293091	381.600000
811.328430	389.500000
811.363892	380.500000
811.399292	381.700000
811.434631	378.700000
811.470093	383.500000
811.505493	376.900000
811.540833	377.500000
811.576294	379.700000
811.611694	376.100000
811.647034	370.900000
811.682434	377.700000
811.717773	377.500000
811.753235	381.400000
811.788635	371.600000
811.823975	373.100000
811.859375	378.100000
811.894775	369.200000
811.930115	367.200000
811.965515	370.500000
812.000916	371.500000
812.036255	369.800000
812.071655	367.600000
812.106995	363.500000
812.142395	365.600000
812.177795	373.200000
812.213196	368.800000
812.248474	371.000000
812.283875	361.900000
812.319214	365.200000
812.354614	361.800000
812.390015	361.400000
812.425293	362.200000
812.460693	365.200000
812.496094	358.200000
812.531433	352.000000
812.566772	353.500000
812.602173	354.900000
812.637451	356.700000
812.672852	350.100000
812.708191	352.900000
812.743530	348.000000
812.778931	342.400000
812.814270	342.900000
812.849609	349.300000
812.884949	344.900000
812.920227	340.900000
812.955627	351.500000
812.990967	345.500000
813.026306	339.300000
813.061646	331.600000
813.096985	330.900000
813.132324	326.600000
813.167664	332.000000
813.203003	333.800000
813.238281	322.400000
813.273682	325.500000
813.308960	325.300000
813.344299	324.100000
813.379639	329.300000
813.414978	326.600000
813.450256	321.800000
813.485596	325.700000
813.520874	318.800000
813.556213	321.000000
813.591614	323.200000
813.626831	317.200000
813.662170	320.100000
813.697510	325.600000
813.732788	314.500000
813.768127	318.400000
813.803467	318.100000
813.838745	313.200000
813.874084	318.100000
813.909363	315.100000
813.944641	314.300000
813.979980	307.300000
814.015320	312.100000
814.050598	309.800000
814.085876	311.300000
814.121155	307.700000
814.156494	306.200000
814.191772	311.400000
814.227051	303.900000
814.262390	306.800000
814.297668	306.800000
814.332947	306.700000
814.368225	300.200000
814.403564	303.300000
814.438782	300.100000
814.474121	302.600000
814.509338	299.200000
814.544617	303.100000
814.579956	298.200000
814.615173	305.800000
814.650513	301.800000
814.685791	296.600000
814.721008	297.900000
814.756348	296.800000
814.791626	294.700000
814.826843	295.300000
814.862122	295.200000
814.897400	293.200000
814.932678	294.700000
814.967957	292.700000
815.003235	293.500000
815.038452	288.500000
815.073730	287.500000
815.108948	295.700000
815.144226	295.200000
815.179504	296.800000
815.214722	285.600000
815.250000	283.800000
815.285278	289.300000
815.320496	285.900000
815.355774	287.800000
815.391052	286.100000
815.426270	286.000000
815.461487	285.000000
815.496765	279.300000
815.531982	278.100000
815.567261	280.400000
815.602539	283.400000
815.637695	283.300000
815.672974	284.100000
815.708191	284.100000
815.743408	285.900000
815.778687	278.700000
815.813904	286.400000
815.849121	270.400000
815.884399	273.600000
815.919556	274.800000
815.954834	274.200000
815.990051	276.600000
816.025269	280.600000
816.060486	272.700000
816.095703	270.300000
816.130920	272.900000
816.166199	269.100000
816.201416	270.500000
816.236572	275.000000
816.271851	267.900000
816.307007	272.300000
816.342224	263.000000
816.377441	266.600000
816.412659	259.400000
816.447876	267.200000
816.483093	264.200000
816.518250	263.900000
816.553467	262.200000
816.588745	267.000000
816.623901	259.600000
816.659119	256.700000
816.694275	260.300000
816.729492	257.900000
816.764709	286.000000
816.799927	254.800000
816.835083	257.800000
816.870300	252.000000
816.905457	256.100000
816.940674	257.900000
816.975830	252.600000
817.010986	249.600000
817.046204	250.400000
817.081421	246.500000
817.116577	249.400000
817.151733	255.000000
817.186951	253.700000
817.222107	252.700000
817.257324	253.600000
817.292419	249.100000
817.327637	245.900000
817.362854	247.000000
817.398010	242.000000
817.433167	246.300000
817.468323	243.200000
817.503479	244.500000
817.538635	253.700000
817.573853	246.400000
817.608948	245.200000
817.644165	242.000000
817.679321	241.600000
817.714478	240.300000
817.749634	243.500000
817.784790	249.100000
817.819946	247.000000
817.855103	234.000000
817.890198	242.200000
817.925415	233.600000
817.960571	241.700000
817.995667	240.200000
818.030823	241.200000
818.066040	235.900000
818.101135	241.600000
818.136292	239.100000
818.171448	235.200000
818.206543	234.900000
818.241699	239.000000
818.276855	235.900000
818.311951	236.400000
818.347107	232.600000
818.382263	237.700000
818.417358	242.500000
818.452515	238.700000
818.487610	240.300000
818.522766	232.000000
818.557922	239.700000
818.593018	233.700000
818.628113	232.300000
818.663269	227.900000
818.698364	232.000000
818.733521	228.100000
818.768677	231.300000
818.803711	226.000000
818.838867	229.000000
818.874023	227.700000
818.909058	226.400000
818.944214	224.600000
818.979370	230.300000
819.014404	228.000000
819.049561	223.800000
819.084595	226.900000
819.119751	221.700000
819.154846	228.200000
819.189941	223.000000
819.225037	222.000000
819.260193	218.200000
819.295227	219.500000
819.330322	217.300000
819.365479	215.500000
819.400513	250.800000
819.435608	214.200000
819.470764	212.100000
819.505798	215.800000
819.540894	218.100000
819.575989	215.200000
819.611084	221.200000
819.646179	220.700000
819.681213	218.900000
819.716309	214.500000
819.751404	216.500000
819.786438	220.300000
819.821533	211.000000
819.856628	214.800000
819.891663	217.800000
819.926758	224.100000
819.961853	219.500000
819.996887	213.100000
820.031982	216.900000
820.067017	213.200000
820.102112	247.100000
820.137207	210.000000
820.172302	223.000000
820.207275	210.900000
820.242371	209.200000
820.277405	210.700000
820.312500	210.100000
820.347534	213.300000
820.382568	216.200000
820.417664	210.500000
820.452759	208.500000
820.487732	209.100000
820.522827	207.100000
820.557861	206.200000
820.592896	208.400000
820.627930	209.500000
820.662964	205.400000
820.698059	210.500000
820.733093	206.000000
820.768127	211.100000
820.803162	207.100000
820.838196	206.400000
820.873230	207.400000
820.908264	209.900000
820.943298	203.900000
820.978333	212.000000
821.013367	207.200000
821.048401	209.900000
821.083435	210.400000
821.118469	201.200000
821.153503	210.000000
821.188477	207.800000
821.223511	201.500000
821.258484	206.300000
821.293579	206.700000
821.328613	202.400000
821.363647	205.100000
821.398621	200.200000
821.433655	204.200000
821.468628	214.500000
821.503662	203.500000
821.538696	206.300000
821.573669	201.100000
821.608704	207.100000
821.643677	202.400000
821.678650	206.700000
821.713684	209.800000
821.748718	203.900000
821.783691	204.500000
821.818726	203.200000
821.853638	205.800000
821.888672	202.700000
821.923706	203.600000
821.958618	202.900000
821.993652	201.500000
822.028687	206.000000
822.063599	209.800000
822.098633	204.100000
822.133667	199.300000
822.168579	201.800000
822.203613	205.300000
822.238586	199.700000
822.273560	205.000000
822.308533	199.900000
822.343567	202.000000
822.378479	201.300000
822.413452	201.900000
822.448425	198.800000
822.483398	207.000000
822.518372	205.600000
822.553345	199.500000
822.588318	207.200000
822.623291	201.900000
822.658203	200.200000
822.693237	202.400000
822.728210	198.500000
822.763123	202.700000
822.798096	197.800000
822.833069	199.900000
822.867981	199.800000
822.902954	202.700000
822.937927	202.300000
822.972900	208.200000
823.007874	195.500000
823.042725	204.800000
823.077698	210.400000
823.112671	198.500000
823.147583	199.300000
823.182556	202.600000
823.217529	205.200000
823.252441	199.300000
823.287415	208.200000
823.322388	204.400000
823.357239	200.700000
823.392212	205.100000
823.427185	207.400000
823.462097	197.100000
823.497009	202.800000
823.531982	199.600000
823.566895	201.400000
823.601807	196.100000
823.636719	200.300000
823.671631	202.500000
823.706604	198.500000
823.741455	201.600000
823.776428	196.100000
823.811340	202.200000
823.846252	207.300000
823.881165	205.500000
823.916138	202.300000
823.950989	207.200000
823.985901	199.800000
824.020813	200.700000
824.055725	200.600000
824.090637	196.100000
824.125610	202.600000
824.160461	200.800000
824.195374	200.600000
824.230225	201.500000
824.265198	195.900000
824.300110	198.700000
824.334961	206.200000
824.369873	192.400000
824.404785	201.200000
824.439636	204.800000
824.474548	193.800000
824.509460	192.400000
824.544312	203.400000
824.579224	201.400000
824.614075	197.700000
824.648987	197.900000
824.683899	199.500000
824.718811	197.300000
824.753662	203.500000
824.788574	203.000000
824.823364	200.000000
824.858276	195.700000
824.893188	201.900000
824.928040	201.600000
824.962952	200.200000
824.997803	202.700000
825.032654	197.100000
825.067566	199.400000
825.102417	195.400000
825.137268	197.100000
825.172119	196.600000
825.206970	195.300000
825.241882	197.800000
825.276733	194.900000
825.311646	194.100000
825.346436	193.900000
825.381348	194.300000
825.416138	197.300000
825.450989	194.500000
825.485901	190.300000
825.520691	190.500000
825.555542	190.900000
825.590454	195.800000
825.625244	190.900000
825.660095	200.900000
825.695007	198.300000
825.729797	194.600000
825.764648	192.000000
825.799438	194.800000
825.834290	195.700000
825.869202	191.800000
825.903992	195.900000
825.938843	194.000000
825.973694	189.900000
826.008484	204.000000
826.043335	191.300000
826.078186	188.100000
826.112976	197.100000
826.147827	199.200000
826.182678	200.300000
826.217468	188.600000
826.252319	199.100000
826.287109	191.300000
826.321899	197.600000
826.356750	194.000000
826.391541	191.100000
826.426392	196.800000
826.461182	192.700000
826.495972	189.900000
826.530823	186.800000
826.565613	194.400000
826.600403	188.900000
826.635254	196.600000
826.670044	187.300000
826.704834	188.100000
826.739685	188.000000
826.774475	195.100000
826.809265	192.500000
826.844055	190.900000
826.878906	198.400000
826.913635	194.600000
826.948425	195.600000
826.983215	194.300000
827.018005	195.400000
827.052856	191.500000
827.087585	195.100000
827.122375	187.400000
827.157227	192.100000
827.191956	202.700000
827.226746	187.900000
827.261536	195.000000
827.296265	188.600000
827.331116	191.800000
827.365906	193.700000
827.400635	189.900000
827.435425	187.700000
827.470215	196.200000
827.504944	191.900000
827.539734	195.000000
827.574463	190.600000
827.609253	198.500000
827.644043	191.500000
827.678772	194.800000
827.713562	191.700000
827.748352	190.000000
827.783081	189.900000
827.817871	194.200000
827.852600	189.800000
827.887329	192.600000
827.922119	185.600000
827.956848	193.700000
827.991638	203.100000
828.026367	194.200000
828.061157	193.700000
828.095886	192.400000
828.130615	205.500000
828.165344	185.200000
828.200073	192.900000
828.234863	190.900000
828.269592	190.900000
828.304321	196.600000
828.339111	192.100000
828.373779	189.500000
828.408569	195.400000
828.443298	195.800000
828.477966	190.700000
828.512756	193.200000
828.547424	189.400000
828.582214	190.400000
828.616943	190.300000
828.651672	192.300000
828.686340	195.000000
828.721130	188.200000
828.755798	191.300000
828.790527	192.300000
828.825256	192.200000
828.859924	193.300000
828.894714	196.500000
828.929443	199.300000
828.964111	189.400000
828.998840	195.200000
829.033569	187.700000
829.068237	192.000000
829.102966	189.800000
829.137634	194.100000
829.172363	192.700000
829.207092	192.600000
829.241821	188.600000
829.276489	187.800000
829.311157	191.400000
829.345825	192.300000
829.380554	195.800000
829.415283	190.500000
829.449951	185.800000
829.484619	198.800000
829.519348	196.900000
829.554016	193.300000
829.588745	191.800000
829.623413	188.000000
829.658081	199.200000
829.692749	189.200000
829.727417	196.100000
829.762146	193.800000
829.796814	189.400000
829.831482	190.100000
829.866150	191.900000
829.900879	191.400000
829.935486	195.500000
829.970154	191.100000
830.004883	201.800000
830.039490	193.100000
830.074219	188.800000
830.108887	192.300000
830.143494	192.100000
830.178223	187.800000
830.212891	192.300000
830.247498	190.800000
830.282166	197.500000
830.316772	196.300000
830.351501	189.300000
830.386169	190.200000
830.420776	190.900000
830.455444	191.600000
830.490112	189.800000
830.524719	186.400000
830.559387	193.300000
830.594055	192.400000
830.628662	193.800000
830.663330	192.400000
830.697998	200.300000
830.732605	191.300000
830.767273	194.400000
830.801941	190.500000
830.836487	199.400000
830.871155	193.300000
830.905762	195.200000
830.940430	187.600000
830.975098	190.000000
831.009644	191.200000
831.044312	199.700000
831.078979	194.400000
831.113525	185.100000
831.148193	191.400000
831.182861	191.800000
831.217407	194.800000
831.252075	204.300000
831.286621	190.800000
831.321289	188.000000
831.355896	191.400000
831.390564	198.300000
831.425110	193.400000
831.459778	196.600000
831.494324	201.100000
831.528931	193.000000
831.563599	196.700000
831.598145	187.000000
831.632751	191.100000
831.667419	191.700000
831.701965	194.400000
831.736572	193.200000
831.771179	188.000000
831.805786	189.500000
831.840393	195.900000
831.874939	185.600000
831.909546	195.600000
831.944153	185.400000
831.978760	193.000000
832.013306	187.200000
832.047913	197.700000
832.082458	199.000000
832.117065	190.400000
832.151672	198.600000
832.186218	193.700000
832.220825	194.400000
832.255432	186.900000
832.289978	190.200000
832.324585	194.700000
832.359192	192.100000
832.393677	192.000000
832.428284	193.200000
832.462830	191.000000
832.497437	192.100000
832.531982	195.700000
832.566589	190.200000
832.601135	193.500000
832.635681	187.200000
832.670227	193.100000
832.704773	198.100000
832.739380	192.600000
832.773926	193.100000
832.808472	190.400000
832.843079	192.900000
832.877563	193.300000
832.912170	190.500000
832.946716	187.200000
832.981201	195.600000
833.015808	194.000000
833.050293	191.700000
833.084839	189.200000
833.119446	191.100000
833.153992	195.200000
833.188477	191.800000
833.223022	189.600000
833.257568	194.200000
833.292114	196.800000
833.326660	201.100000
833.361145	189.400000
833.395691	187.100000
833.430237	191.300000
833.464783	194.500000
833.499329	188.000000
833.533875	190.200000
833.568359	194.600000
833.602905	196.400000
833.637390	195.500000
833.671875	191.900000
833.706421	191.400000
833.740906	190.700000
833.775452	185.100000
833.809998	190.000000
833.844482	197.600000
833.879028	192.200000
833.913513	190.500000
833.947998	193.300000
833.982544	189.600000
834.017090	190.200000
834.051514	185.300000
834.086060	195.900000
834.120544	190.800000
834.155029	194.500000
834.189575	191.000000
834.223999	193.700000
834.258545	193.400000
834.293030	192.900000
834.327515	192.500000
834.362000	189.400000
834.396545	196.000000
834.430969	190.800000
834.465454	197.300000
834.500000	185.900000
834.534424	194.400000
834.568970	184.900000
834.603455	186.400000
834.637878	188.400000
834.672363	193.600000
834.706909	192.300000
834.741333	193.100000
834.775818	187.500000
834.810242	190.600000
834.844727	192.300000
834.879211	191.800000
834.913635	191.300000
834.948181	193.700000
834.982666	192.000000
835.017090	190.100000
835.051575	192.700000
835.086060	190.700000
835.120483	194.100000
835.154907	194.200000
835.189331	191.900000
835.223816	196.200000
835.258301	188.300000
835.292786	190.800000
835.327209	195.200000
835.361694	190.700000
835.396057	190.400000
835.430542	194.700000
835.465027	191.200000
835.499390	189.600000
835.533875	218.200000
835.568359	189.200000
835.602722	187.100000
835.637207	192.100000
835.671692	189.100000
835.706055	207.600000
835.740540	194.300000
835.774902	192.800000
835.809387	193.300000
835.843811	187.200000
835.878235	196.900000
835.912659	188.000000
835.947083	190.900000
835.981506	192.100000
836.015930	188.100000
836.050354	196.200000
836.084778	199.300000
836.119202	195.800000
836.153625	206.800000
836.187988	187.800000
836.222473	190.800000
836.256897	190.900000
836.291260	191.100000
836.325684	194.800000
836.360046	191.800000
836.394470	191.600000
836.428894	197.300000
836.463318	189.300000
836.497681	195.300000
836.532104	197.300000
836.566467	193.500000
836.600891	191.200000
836.635315	197.900000
836.669678	194.400000
836.704102	196.100000
836.738525	195.000000
836.772888	186.900000
836.807251	191.400000
836.841675	195.200000
836.876038	188.100000
836.910461	189.800000
836.944763	195.100000
836.979187	188.800000
837.013611	196.500000
837.047974	187.500000
837.082336	201.700000
837.116699	193.900000
837.151062	192.200000
837.185486	187.700000
837.219849	190.100000
837.254211	194.400000
837.288574	192.300000
837.322937	187.200000
837.357300	183.300000
837.391663	200.800000
837.426086	195.200000
837.460388	192.600000
837.494751	197.300000
837.529114	188.900000
837.563477	198.800000
837.597839	191.800000
837.632141	192.100000
837.666565	190.600000
837.700928	195.500000
837.735229	194.000000
837.769592	194.500000
837.803955	194.700000
837.838257	190.400000
837.872620	189.900000
837.906982	199.100000
837.941284	193.200000
837.975647	195.200000
838.010010	196.600000
838.044312	191.300000
838.078674	191.100000
838.112976	192.300000
838.147339	194.600000
838.181702	191.700000
838.216003	198.400000
838.250366	192.800000
838.284668	195.800000
838.318970	185.900000
838.353333	190.000000
838.387634	191.800000
838.421936	193.600000
838.456299	192.500000
838.490601	197.900000
838.524902	194.800000
838.559265	196.900000
838.593567	194.900000
838.627869	186.900000
838.662170	194.200000
838.696472	187.100000
838.730774	189.600000
838.765137	194.500000
838.799377	183.600000
838.833740	194.000000
838.868042	195.200000
838.902283	187.200000
838.936646	196.300000
838.970947	193.100000
839.005188	198.800000
839.039551	188.000000
839.073792	197.300000
839.108093	191.000000
839.142395	197.800000
839.176697	186.800000
839.210937	191.400000
839.245300	201.100000
839.279541	187.200000
839.313843	191.100000
839.348145	194.700000
839.382385	196.700000
839.416687	196.700000
839.450989	194.000000
839.485229	190.500000
839.519531	189.400000
839.553833	197.800000
839.588013	191.200000
839.622314	193.600000
839.656555	195.500000
839.690857	192.100000
839.725159	188.200000
839.759460	192.300000
839.793640	189.300000
839.827942	193.000000
839.862183	187.600000
839.896423	194.500000
839.930725	201.400000
839.964966	199.100000
839.999207	196.200000
840.033508	197.900000
840.067688	190.000000
840.101990	199.100000
840.136230	191.600000
840.170471	199.200000
840.204712	188.000000
840.238953	189.800000
840.273193	193.100000
840.307434	196.000000
840.341736	189.100000
840.375916	189.500000
840.410217	188.600000
840.444397	197.600000
840.478638	193.600000
840.512878	196.900000
840.547119	192.900000
840.581360	195.200000
840.615601	197.400000
840.649780	203.500000
840.684021	190.900000
840.718262	199.900000
840.752441	198.900000
840.786682	193.900000
840.820862	192.600000
840.855103	199.400000
840.889343	192.400000
840.923584	197.700000
840.957764	193.700000
840.992004	194.600000
841.026184	203.700000
841.060425	191.800000
841.094666	189.600000
841.128845	194.800000
841.163025	194.200000
841.197266	194.700000
841.231445	192.100000
841.265686	193.500000
841.299866	189.500000
841.334045	197.400000
841.368286	190.900000
841.402405	198.200000
841.436646	194.800000
841.470825	192.400000
841.505005	192.100000
841.539185	189.900000
841.573425	190.700000
841.607544	191.500000
841.641785	192.900000
841.675964	189.000000
841.710144	194.100000
841.744324	191.000000
841.778503	192.900000
841.812683	189.100000
841.846863	198.600000
841.881042	197.000000
841.915222	191.100000
841.949402	203.100000
841.983521	186.100000
842.017700	191.900000
842.051880	195.300000
842.086060	193.700000
842.120239	193.300000
842.154419	190.400000
842.188538	194.700000
842.222717	191.000000
842.256897	200.000000
842.291016	192.000000
842.325195	195.200000
842.359375	201.400000
842.393494	199.200000
842.427673	192.600000
842.461853	194.900000
842.495911	200.500000
842.530090	193.600000
842.564209	192.400000
842.598389	193.700000
842.632568	193.000000
842.666626	196.400000
842.700806	190.900000
842.734985	191.500000
842.769043	196.200000
842.803223	192.200000
842.837402	190.800000
842.871460	189.700000
842.905640	200.700000
842.939697	188.500000
842.973877	195.100000
843.007996	196.400000
843.042175	201.800000
843.076233	189.700000
843.110413	195.100000
843.144470	197.300000
843.178589	197.900000
843.212769	190.200000
843.246826	196.800000
843.280945	189.700000
843.315125	192.200000
843.349182	189.400000
843.383301	198.100000
843.417419	203.900000
843.451538	194.700000
843.485657	190.100000
843.519714	193.600000
843.553833	192.800000
843.587952	191.500000
843.622070	190.400000
843.656128	196.000000
843.690247	189.800000
843.724304	193.500000
843.758423	194.300000
843.792542	192.300000
843.826599	193.100000
843.860718	191.600000
843.894836	187.800000
843.928894	192.800000
843.963013	194.900000
843.997070	190.400000
844.031128	188.200000
844.065247	197.400000
844.099304	195.300000
844.133362	194.700000
844.167480	194.900000
844.201599	196.600000
844.235596	194.600000
844.269714	193.800000
844.303711	193.400000
844.337830	187.300000
844.371948	195.200000
844.405945	192.500000
844.440063	190.500000
844.474121	202.900000
844.508118	191.800000
844.542236	192.700000
844.576294	191.700000
844.610352	187.800000
844.644409	192.600000
844.678406	186.800000
844.712524	197.200000
844.746582	197.600000
844.780640	193.800000
844.814636	193.600000
844.848755	202.300000
844.882751	191.800000
844.916809	195.700000
844.950867	193.700000
844.984863	199.600000
845.018921	191.600000
845.052979	189.900000
845.086975	194.500000
845.121033	188.100000
845.155090	189.700000
845.189087	197.500000
845.223145	190.900000
845.257141	194.300000
845.291199	196.300000
845.325256	197.200000
845.359253	194.600000
845.393250	203.600000
845.427307	192.700000
845.461304	194.600000
845.495361	193.200000
845.529358	200.100000
845.563354	192.400000
845.597412	188.700000
845.631409	200.600000
845.665405	198.400000
845.699463	197.100000
845.733459	190.800000
845.767456	201.000000
845.801453	191.600000
845.835449	197.400000
845.869446	196.000000
845.903503	196.400000
845.937439	189.900000
845.971497	198.300000
846.005493	187.100000
846.039429	196.600000
846.073486	201.000000
846.107483	191.200000
846.141418	190.300000
846.175476	194.500000
846.209473	196.000000
846.243408	189.500000
846.277405	195.100000
846.311401	191.000000
846.345337	193.800000
846.379395	197.700000
846.413330	189.900000
846.447327	202.100000
846.481323	190.400000
846.515259	191.500000
846.549255	192.200000
846.583252	195.600000
846.617187	190.500000
846.651184	194.300000
846.685120	192.100000
846.719055	200.200000
846.753052	195.300000
846.786987	195.700000
846.820984	189.000000
846.854980	198.100000
846.888916	190.800000
846.922852	194.000000
846.956848	199.700000
846.990723	191.800000
847.024719	196.200000
847.058716	192.500000
847.092590	198.400000
847.126587	195.100000
847.160522	190.900000
847.194458	197.100000
847.228455	190.200000
847.262390	188.200000
847.296265	191.200000
847.330261	196.700000
847.364136	191.000000
847.398132	191.000000
847.432068	195.200000
847.466003	191.500000
847.499939	191.700000
847.533875	194.400000
847.567749	192.300000
847.601746	192.400000
847.635681	196.300000
847.669556	186.600000
847.703491	198.900000
847.737427	203.700000
847.771301	188.400000
847.805237	194.900000
847.839233	195.400000
847.873108	192.000000
847.907043	192.800000
847.940918	199.200000
847.974854	193.600000
848.008789	197.000000
848.042664	191.800000
848.076538	195.500000
848.110474	193.500000
848.144348	194.800000
848.178284	188.800000
848.212219	195.000000
848.246094	191.000000
848.279968	193.900000
848.313904	195.400000
848.347778	194.600000
848.381653	190.000000
848.415588	191.200000
848.449463	188.600000
848.483337	195.600000
848.517212	199.900000
848.551086	193.300000
848.585022	188.400000
848.618835	203.100000
848.652771	189.700000
848.686646	190.300000
848.720520	199.300000
848.754395	192.300000
848.788330	196.200000
848.822144	196.800000
848.856018	191.300000
848.889954	201.700000
848.923767	189.500000
848.957642	190.900000
848.991577	194.300000
849.025391	193.400000
849.059265	192.700000
849.093079	190.700000
849.126953	189.400000
849.160828	198.800000
849.194641	194.000000
849.228577	191.600000
849.262451	192.200000
849.296265	192.100000
849.330139	190.000000
849.364014	193.500000
849.397827	194.600000
849.431702	193.800000
849.465515	197.600000
849.499329	186.200000
849.533203	189.300000
849.567078	185.900000
849.600891	194.400000
849.634766	192.400000
849.668518	196.700000
849.702393	193.000000
849.736267	188.400000
849.770020	200.800000
849.803894	195.800000
849.837769	193.500000
849.871521	194.100000
849.905396	196.600000
849.939270	190.500000
849.973022	191.000000
850.006897	195.500000
850.040710	195.800000
850.074524	197.100000
850.108337	193.100000
850.142151	198.500000
850.175964	198.000000
850.209778	193.300000
850.243530	183.700000
850.277405	197.600000
850.311218	193.400000
850.344971	191.200000
850.378845	198.700000
850.412659	190.700000
850.446411	194.500000
850.480225	192.800000
850.514038	196.800000
850.547791	196.700000
850.581665	193.800000
850.615417	190.900000
850.649231	194.100000
850.683044	192.100000
850.716858	191.400000
850.750610	194.200000
850.784424	196.600000
850.818176	189.900000
850.851929	190.900000
850.885742	190.200000
850.919495	193.000000
850.953308	199.900000
850.987122	199.600000
851.020874	188.600000
851.054626	187.000000
851.088440	195.500000
851.122192	197.500000
851.156006	193.800000
851.189697	192.700000
851.223511	187.900000
851.257263	196.700000
851.291077	196.300000
851.324829	193.900000
851.358582	191.600000
851.392334	192.200000
851.426086	190.900000
851.459900	200.300000
851.493591	192.300000
851.527344	193.000000
851.561157	192.400000
851.594849	196.500000
851.628662	193.700000
851.662415	202.900000
851.696106	194.600000
851.729858	196.600000
851.763611	189.500000
851.797363	194.200000
851.831116	189.800000
851.864868	196.600000
851.898560	198.200000
851.932312	192.700000
851.966064	195.300000
851.999817	193.300000
852.033569	192.300000
852.067261	198.400000
852.101013	190.600000
852.134766	191.900000
852.168457	186.300000
852.202209	199.000000
852.235901	189.200000
852.269592	196.500000
852.303345	201.400000
852.337036	196.300000
852.370789	193.900000
852.404541	195.100000
852.438171	190.500000
852.471924	193.400000
852.505676	189.900000
852.539307	194.300000
852.573059	191.700000
852.606812	191.100000
852.640442	192.300000
852.674194	198.200000
852.707886	202.600000
852.741577	197.800000
852.775269	191.300000
852.809021	193.200000
852.842651	197.200000
852.876404	199.100000
852.910034	194.600000
852.943787	197.600000
852.977478	195.100000
853.011108	189.600000
853.044861	191.000000
853.078552	198.800000
853.112183	193.800000
853.145874	193.900000
853.179626	188.000000
853.213257	193.300000
853.246948	191.800000
853.280640	201.400000
853.314270	192.800000
853.347961	200.300000
853.381653	196.200000
853.415283	200.000000
853.448975	190.100000
853.482605	194.600000
853.516296	192.500000
853.549988	188.100000
853.583618	194.100000
853.617310	195.700000
853.651001	194.100000
853.684631	190.700000
853.718323	191.000000
853.751953	199.600000
853.785583	187.300000
853.819275	196.500000
853.852966	194.900000
853.886536	186.700000
853.920227	190.000000
853.953918	196.800000
853.987488	193.000000
854.021179	197.300000
854.054749	199.900000
854.088440	196.900000
854.122131	190.000000
854.155701	194.900000
854.189331	189.600000
854.223022	195.500000
854.256592	193.900000
854.290283	190.700000
854.323914	194.400000
854.357483	193.200000
854.391174	193.600000
854.424744	200.400000
854.458374	193.000000
854.492065	205.100000
854.525696	195.500000
854.559265	198.500000
854.592896	202.600000
854.626465	194.800000
854.660095	193.700000
854.693787	195.700000
854.727356	193.300000
854.760986	196.700000
854.794617	194.600000
854.828186	191.700000
854.861816	195.400000
854.895447	194.900000
854.929016	195.600000
854.962585	194.000000
854.996155	202.100000
855.029785	195.200000
855.063416	194.700000
855.097046	198.200000
855.130615	187.900000
855.164185	199.300000
855.197754	195.000000
855.231384	195.000000
855.264954	192.100000
855.298523	198.000000
855.332153	195.200000
855.365723	198.500000
855.399292	191.700000
855.432922	192.000000
855.466492	194.900000
855.500061	190.100000
855.533630	190.300000
855.567200	195.300000
855.600769	197.400000
855.634338	197.400000
855.667969	194.000000
855.701477	190.500000
855.735046	190.700000
855.768616	186.700000
855.802185	196.400000
855.835754	204.400000
855.869324	187.600000
855.902893	192.100000
855.936401	200.000000
855.969971	193.300000
856.003540	188.400000
856.037109	195.800000
856.070618	193.400000
856.104187	189.400000
856.137695	192.200000
856.171265	185.700000
856.204834	195.100000
856.238403	198.600000
856.271912	191.300000
856.305481	194.600000
856.338989	188.000000
856.372559	195.400000
856.406128	195.500000
856.439636	196.600000
856.473145	191.500000
856.506653	200.100000
856.540222	193.100000
856.573792	198.100000
856.607300	196.600000
856.640808	189.700000
856.674377	193.200000
856.707825	226.400000
856.741394	198.100000
856.774902	191.000000
856.808472	187.100000
856.841980	197.100000
856.875488	198.000000
856.908936	188.900000
856.942505	191.500000
856.976013	192.400000
857.009521	189.800000
857.043030	195.500000
857.076477	192.500000
857.110046	199.000000
857.143555	192.200000
857.177063	197.300000
857.210571	192.100000
857.244080	188.900000
857.277527	196.100000
857.311035	193.100000
857.344543	197.600000
857.378052	193.500000
857.411499	199.300000
857.445068	200.000000
857.478516	193.100000
857.512024	188.900000
857.545532	191.400000
857.578979	194.000000
857.612427	195.000000
857.645874	191.800000
857.679382	194.600000
857.712891	197.200000
857.746399	193.700000
857.779846	197.400000
857.813354	198.000000
857.846741	193.200000
857.880249	190.300000
857.913757	194.100000
857.947266	194.800000
857.980652	195.400000
858.014160	192.300000
858.047546	190.300000
858.081055	190.800000
858.114563	203.400000
858.147949	189.400000
858.181458	195.800000
858.214844	192.700000
858.248352	186.600000
858.281799	197.600000
858.315308	202.300000
858.348694	195.700000
858.382141	200.100000
858.415588	197.800000
858.449036	196.800000
858.482483	195.100000
858.515930	191.000000
858.549377	193.500000
858.582825	197.800000
858.616211	197.200000
858.649658	195.300000
858.683105	190.800000
858.716553	192.200000
858.750000	188.100000
858.783386	191.600000
858.816833	187.900000
858.850281	194.200000
858.883728	194.600000
858.917114	195.200000
858.950562	200.400000
858.983948	199.600000
859.017395	196.900000
859.050781	191.600000
859.084167	190.700000
859.117615	190.300000
859.151062	195.200000
859.184448	189.900000
859.217834	192.700000
859.251282	192.900000
859.284668	188.300000
859.318054	187.600000
859.351440	190.400000
859.384888	199.100000
859.418274	187.200000
859.451721	187.400000
859.485046	194.600000
859.518494	195.200000
859.551819	190.000000
859.585266	195.500000
859.618652	198.300000
859.652039	189.500000
859.685425	188.100000
859.718811	189.600000
859.752197	183.800000
859.785583	198.600000
859.819031	197.900000
859.852356	196.200000
859.885742	190.200000
859.919067	193.700000
859.952454	190.800000
859.985901	198.600000
860.019287	192.300000
860.052612	0.000000
860.085999	0.000000
860.119324	0.000000
860.152710	0.000000
860.186096	0.000000
860.219421	0.000000
860.252808	0.000000
860.286133	0.000000
860.319519	0.000000
860.352905	0.000000
860.386292	0.000000
860.419617	0.000000
860.452942	0.000000
860.486267	0.000000
860.519653	0.000000
860.553040	0.000000
860.586365	0.000000
860.619690	0.000000
860.653076	0.000000
860.686340	0.000000
860.719727	0.000000
860.753113	0.000000
860.786377	0.000000
860.819763	0.000000
860.853027	0.000000
860.886414	0.000000
860.919739	0.000000
860.953125	0.000000
860.986389	0.000000
861.019714	0.000000
861.053040	0.000000
861.086365	0.000000
861.119690	0.000000
861.153076	0.000000
861.186340	0.000000
861.219666	0.000000
861.252930	0.000000
861.286316	0.000000
861.319641	0.000000
861.352905	0.000000
861.386230	0.000000
861.419495	0.000000
861.452820	0.000000
861.486145	0.000000
861.519470	0.000000
861.552734	0.000000
861.586060	0.000000
861.619324	0.000000
861.652649	0.000000
861.685974	0.000000
861.719238	0.000000
861.752563	0.000000
861.785828	0.000000
861.819092	0.000000
861.852417	0.000000
861.885742	0.000000
861.918945	0.000000
861.952271	0.000000
861.985535	0.000000
862.018799	0.000000
862.052124	0.000000
862.085449	0.000000
862.118652	0.000000
862.151978	0.000000
862.185181	0.000000
862.218506	0.000000
862.251770	0.000000
862.285034	0.000000
862.318298	0.000000
862.351562	0.000000
862.384827	0.000000
862.418091	0.000000
862.451355	0.000000
862.484619	0.000000
862.517883	0.000000
862.551086	0.000000
862.584351	0.000000
862.617676	0.000000
862.650940	0.000000
862.684143	0.000000
862.717407	0.000000
862.750610	0.000000
862.783875	0.000000
862.817139	0.000000
862.850342	0.000000
862.883606	0.000000
862.916870	0.000000
862.950073	0.000000
862.983337	0.000000
863.016602	0.000000
863.049805	0.000000
863.083069	0.000000
863.116211	0.000000
863.149475	0.000000
863.182739	0.000000
863.216003	0.000000
863.249146	0.000000
863.282410	0.000000
863.315613	0.000000
863.348816	0.000000
863.382080	0.000000
863.415222	0.000000
863.448486	0.000000
863.481689	0.000000
863.514893	0.000000
863.548157	0.000000
863.581360	0.000000
863.614502	0.000000
863.647766	0.000000
863.680908	0.000000
863.714172	0.000000
863.747375	0.000000
863.780579	0.000000
863.813721	0.000000
863.846985	0.000000
863.880127	0.000000
863.913330	0.000000
863.946533	0.000000
863.979675	0.000000
864.012939	0.000000
