Model Number: SPM-001-M   
Serial Number: 10090201
Firmware Version: 004.17.6
Exposure Time: 300000.000000us
Data Taken on: 21-01-2021 14:54:37.361
Wavelength	Amplitude
733.770752	0.000000
733.808716	0.000000
733.846619	0.000000
733.884583	0.000000
733.922546	0.000000
733.960449	0.000000
733.998413	0.000000
734.036377	0.000000
734.074219	0.000000
734.112183	0.000000
734.150085	0.000000
734.188049	0.000000
734.226013	0.000000
734.263916	0.000000
734.301819	0.000000
734.339783	0.000000
734.377686	0.000000
734.415588	0.000000
734.453552	0.000000
734.491455	0.000000
734.529419	0.000000
734.567322	0.000000
734.605225	0.000000
734.643127	0.000000
734.681091	0.000000
734.718994	0.000000
734.756897	0.000000
734.794800	0.000000
734.832703	0.000000
734.870667	0.000000
734.908508	0.000000
734.946472	0.000000
734.984375	0.000000
735.022278	0.000000
735.060181	0.000000
735.098083	0.000000
735.135986	0.000000
735.173889	0.000000
735.211792	0.000000
735.249695	0.000000
735.287598	0.000000
735.325439	0.000000
735.363403	0.000000
735.401306	0.000000
735.439148	0.000000
735.477051	0.000000
735.515015	0.000000
735.552856	0.000000
735.590759	0.000000
735.628662	0.000000
735.666504	0.000000
735.704407	0.000000
735.742310	0.000000
735.780212	0.000000
735.818115	0.000000
735.856018	0.000000
735.893860	0.000000
735.931763	0.000000
735.969604	0.000000
736.007507	0.000000
736.045410	0.000000
736.083252	0.000000
736.121094	0.000000
736.158997	0.000000
736.196838	0.000000
736.234741	0.000000
736.272644	0.000000
736.310486	0.000000
736.348389	0.000000
736.386230	0.000000
736.424072	0.000000
736.461975	0.000000
736.499878	0.000000
736.537720	0.000000
736.575562	0.000000
736.613403	0.000000
736.651306	0.000000
736.689148	0.000000
736.726990	0.000000
736.764893	0.000000
736.802734	0.000000
736.840576	0.000000
736.878418	0.000000
736.916321	0.000000
736.954102	0.000000
736.992004	0.000000
737.029846	0.000000
737.067688	0.000000
737.105530	0.000000
737.143372	0.000000
737.181213	0.000000
737.219116	0.000000
737.256897	0.000000
737.294739	0.000000
737.332642	0.000000
737.370422	0.000000
737.408325	0.000000
737.446167	0.000000
737.483948	0.000000
737.521790	0.000000
737.559692	0.000000
737.597473	0.000000
737.635315	0.000000
737.673157	0.000000
737.710999	0.000000
737.748840	0.000000
737.786621	0.000000
737.824463	0.000000
737.862305	0.000000
737.900085	0.000000
737.937927	0.000000
737.975769	0.000000
738.013550	0.000000
738.051392	0.000000
738.089233	0.000000
738.127014	0.000000
738.164856	0.000000
738.202698	0.000000
738.240479	0.000000
738.278320	0.000000
738.316162	0.000000
738.353943	0.000000
738.391785	0.000000
738.429565	0.000000
738.467407	0.000000
738.505188	0.000000
738.542969	0.000000
738.580811	0.000000
738.618652	0.000000
738.656372	0.000000
738.694214	0.000000
738.732056	0.000000
738.769836	0.000000
738.807617	0.000000
738.845459	0.000000
738.883240	0.000000
738.921021	0.000000
738.958862	0.000000
738.996582	0.000000
739.034424	0.000000
739.072205	0.000000
739.109985	0.000000
739.147827	0.000000
739.185547	0.000000
739.223389	0.000000
739.261169	0.000000
739.298889	0.000000
739.336731	0.000000
739.374512	0.000000
739.412292	0.000000
739.450073	0.000000
739.487854	0.000000
739.525635	0.000000
739.563416	0.000000
739.601135	0.000000
739.638977	0.000000
739.676758	0.000000
739.714478	0.000000
739.752258	0.000000
739.790100	0.000000
739.827820	0.000000
739.865601	0.000000
739.903381	0.000000
739.941101	0.000000
739.978882	195.200000
740.016724	190.900000
740.054443	193.900000
740.092224	191.000000
740.130005	190.600000
740.167725	189.500000
740.205505	189.900000
740.243225	196.500000
740.281006	192.000000
740.318787	188.100000
740.356506	197.500000
740.394287	194.400000
740.432068	189.800000
740.469727	187.200000
740.507507	193.500000
740.545288	193.800000
740.583008	193.900000
740.620789	191.800000
740.658569	185.600000
740.696228	192.700000
740.734009	194.200000
740.771790	183.600000
740.809509	193.900000
740.847229	188.000000
740.884949	190.700000
740.922729	186.700000
740.960449	189.100000
740.998169	188.300000
741.035950	190.200000
741.073669	191.800000
741.111389	192.300000
741.149170	199.300000
741.186890	199.200000
741.224609	195.100000
741.262329	192.500000
741.300110	200.500000
741.337769	189.600000
741.375549	186.900000
741.413208	192.900000
741.450989	189.600000
741.488708	189.700000
741.526367	188.800000
741.564148	195.500000
741.601868	193.900000
741.639526	191.000000
741.677307	193.500000
741.715027	195.100000
741.752686	187.300000
741.790466	198.300000
741.828186	193.200000
741.865845	188.900000
741.903564	186.900000
741.941345	193.400000
741.979004	188.700000
742.016724	196.100000
742.054382	192.300000
742.092102	195.200000
742.129822	187.500000
742.167480	191.800000
742.205200	189.600000
742.242920	194.600000
742.280640	196.200000
742.318359	189.300000
742.356079	191.200000
742.393738	195.700000
742.431396	189.700000
742.469116	195.600000
742.506775	185.400000
742.544495	193.200000
742.582214	194.400000
742.619873	192.800000
742.657593	197.800000
742.695251	196.300000
742.732971	191.800000
742.770630	193.900000
742.808289	193.200000
742.846008	190.600000
742.883728	193.000000
742.921326	192.600000
742.959045	190.900000
742.996765	192.200000
743.034424	191.400000
743.072083	189.000000
743.109802	191.800000
743.147400	189.000000
743.185120	193.300000
743.222839	191.700000
743.260437	198.100000
743.298157	191.500000
743.335754	186.200000
743.373474	190.500000
743.411133	186.400000
743.448792	191.500000
743.486450	192.000000
743.524170	186.200000
743.561768	192.500000
743.599487	196.500000
743.637146	200.600000
743.674744	191.000000
743.712463	192.200000
743.750122	192.400000
743.787720	192.400000
743.825439	190.100000
743.863037	191.500000
743.900696	191.700000
743.938416	218.500000
743.976013	191.600000
744.013672	199.400000
744.051331	195.300000
744.088928	199.600000
744.126587	196.300000
744.164307	194.400000
744.201904	189.700000
744.239563	194.000000
744.277222	195.300000
744.314819	192.100000
744.352478	197.500000
744.390137	194.100000
744.427734	193.900000
744.465393	190.400000
744.502991	190.000000
744.540649	193.200000
744.578308	192.800000
744.615906	188.500000
744.653564	185.900000
744.691223	193.800000
744.728821	187.400000
744.766418	191.000000
744.804077	194.400000
744.841675	190.400000
744.879333	187.400000
744.916992	190.600000
744.954529	190.600000
744.992187	195.100000
745.029785	191.500000
745.067444	188.600000
745.105042	193.500000
745.142639	192.700000
745.180298	199.700000
745.217896	191.200000
745.255493	191.900000
745.293152	196.100000
745.330750	196.200000
745.368347	198.100000
745.405945	196.800000
745.443604	191.700000
745.481140	194.900000
745.518799	191.400000
745.556396	195.000000
745.593994	195.200000
745.631592	193.800000
745.669189	188.500000
745.706787	192.200000
745.744385	189.400000
745.781982	194.900000
745.819580	189.700000
745.857178	192.900000
745.894775	192.700000
745.932373	192.600000
745.969971	194.300000
746.007568	185.700000
746.045166	198.300000
746.082764	197.400000
746.120300	195.200000
746.157898	194.200000
746.195557	193.300000
746.233093	186.900000
746.270691	194.300000
746.308228	194.900000
746.345825	196.300000
746.383423	194.100000
746.420959	189.500000
746.458557	191.200000
746.496155	189.600000
746.533691	192.800000
746.571289	189.700000
746.608887	191.600000
746.646423	193.500000
746.684021	193.600000
746.721619	190.900000
746.759155	195.200000
746.796753	187.700000
746.834351	187.400000
746.871826	189.400000
746.909424	197.400000
746.946960	192.300000
746.984558	190.800000
747.022156	191.500000
747.059631	196.800000
747.097229	194.700000
747.134827	190.900000
747.172363	197.500000
747.209900	196.300000
747.247498	189.200000
747.285034	196.800000
747.322571	196.800000
747.360168	192.300000
747.397644	186.800000
747.435242	195.000000
747.472778	196.500000
747.510315	190.500000
747.547913	189.700000
747.585388	197.100000
747.622925	189.400000
747.660522	187.500000
747.697998	190.900000
747.735596	191.700000
747.773132	189.900000
747.810669	191.400000
747.848206	192.800000
747.885742	188.700000
747.923279	186.800000
747.960815	193.200000
747.998352	193.100000
748.035889	197.900000
748.073425	194.100000
748.110901	190.900000
748.148437	188.200000
748.185974	193.400000
748.223511	199.300000
748.261047	194.700000
748.298584	193.200000
748.336060	192.500000
748.373596	193.900000
748.411133	217.300000
748.448608	190.700000
748.486145	195.300000
748.523682	196.700000
748.561218	199.300000
748.598755	193.100000
748.636292	194.700000
748.673706	190.800000
748.711243	198.900000
748.748718	192.500000
748.786255	192.800000
748.823792	191.300000
748.861267	189.100000
748.898804	195.500000
748.936340	193.300000
748.973816	189.500000
749.011292	197.000000
749.048828	194.000000
749.086304	193.700000
749.123840	200.800000
749.161316	188.800000
749.198792	200.100000
749.236328	196.300000
749.273743	193.000000
749.311279	190.300000
749.348816	196.100000
749.386230	192.700000
749.423767	184.200000
749.461304	194.800000
749.498718	192.100000
749.536255	196.400000
749.573730	201.700000
749.611206	197.300000
749.648682	190.800000
749.686218	191.600000
749.723633	195.100000
749.761169	191.900000
749.798645	190.800000
749.836060	191.500000
749.873596	189.100000
749.911011	193.600000
749.948547	197.800000
749.986023	191.100000
750.023437	192.900000
750.060913	187.300000
750.098450	187.500000
750.135864	191.800000
750.173340	192.200000
750.210815	197.800000
750.248291	190.900000
750.285767	192.400000
750.323242	195.400000
750.360657	196.000000
750.398132	187.500000
750.435608	193.800000
750.473022	189.400000
750.510498	189.000000
750.547974	188.600000
750.585449	191.100000
750.622925	183.500000
750.660339	202.500000
750.697815	192.700000
750.735291	191.200000
750.772644	191.800000
750.810120	192.000000
750.847595	192.800000
750.885010	188.300000
750.922485	197.800000
750.959961	192.200000
750.997375	197.700000
751.034851	196.900000
751.072266	195.500000
751.109680	187.600000
751.147156	197.800000
751.184570	194.000000
751.221985	191.200000
751.259460	186.300000
751.296875	191.400000
751.334290	192.000000
751.371765	194.600000
751.409180	196.100000
751.446594	195.500000
751.484070	194.600000
751.521423	192.900000
751.558899	193.500000
751.596375	198.100000
751.633728	198.400000
751.671204	200.300000
751.708618	190.800000
751.746033	193.300000
751.783447	187.300000
751.820801	189.100000
751.858276	194.800000
751.895691	191.500000
751.933105	191.500000
751.970520	188.700000
752.007935	192.100000
752.045349	196.900000
752.082764	192.300000
752.120178	190.300000
752.157532	188.700000
752.195007	191.400000
752.232422	193.500000
752.269775	196.000000
752.307190	194.700000
752.344543	188.200000
752.382019	191.700000
752.419434	192.300000
752.456787	193.400000
752.494202	196.900000
752.531616	194.300000
752.568970	194.400000
752.606384	195.200000
752.643799	194.400000
752.681152	197.700000
752.718567	195.100000
752.755981	187.900000
752.793335	194.400000
752.830750	187.100000
752.868164	197.700000
752.905518	188.400000
752.942932	195.400000
752.980225	189.000000
753.017639	195.500000
753.055054	196.700000
753.092407	193.700000
753.129822	196.700000
753.167175	200.600000
753.204529	193.000000
753.241943	190.300000
753.279358	189.000000
753.316650	194.900000
753.354065	194.400000
753.391479	196.200000
753.428772	198.600000
753.466187	195.600000
753.503479	188.900000
753.540894	190.600000
753.578308	188.100000
753.615601	188.000000
753.653015	193.700000
753.690369	189.600000
753.727722	190.200000
753.765076	187.200000
753.802490	188.700000
753.839783	187.000000
753.877136	191.200000
753.914551	201.400000
753.951843	190.600000
753.989258	194.200000
754.026611	193.400000
754.063904	194.600000
754.101257	189.800000
754.138611	186.200000
754.175964	194.700000
754.213318	200.300000
754.250610	186.700000
754.288025	190.700000
754.325378	189.500000
754.362671	194.400000
754.400024	192.600000
754.437378	199.900000
754.474670	199.400000
754.512085	190.100000
754.549438	192.700000
754.586731	190.800000
754.624084	191.900000
754.661438	188.600000
754.698730	198.400000
754.736084	192.200000
754.773376	190.700000
754.810730	194.100000
754.848083	192.100000
754.885315	197.200000
754.922668	187.400000
754.960022	189.100000
754.997314	195.400000
755.034668	193.000000
755.072021	193.400000
755.109253	191.800000
755.146606	198.400000
755.183960	190.700000
755.221252	198.900000
755.258545	197.300000
755.295898	196.800000
755.333191	197.600000
755.370544	194.200000
755.407776	194.000000
755.445129	192.800000
755.482422	196.700000
755.519714	190.600000
755.557068	189.100000
755.594360	185.900000
755.631653	196.900000
755.668945	199.600000
755.706299	194.000000
755.743530	201.600000
755.780884	200.000000
755.818176	197.100000
755.855408	198.000000
755.892761	195.900000
755.930054	194.600000
755.967346	194.800000
756.004639	195.000000
756.041870	192.400000
756.079224	199.200000
756.116516	191.000000
756.153748	196.400000
756.191040	202.000000
756.228394	195.500000
756.265625	191.700000
756.302917	195.800000
756.340210	192.100000
756.377441	198.200000
756.414795	200.400000
756.452087	194.200000
756.489319	191.000000
756.526611	198.200000
756.563843	195.800000
756.601135	201.700000
756.638428	203.300000
756.675659	193.600000
756.712952	197.000000
756.750244	196.700000
756.787476	195.700000
756.824768	199.500000
756.862061	193.800000
756.899292	241.000000
756.936584	198.200000
756.973816	203.100000
757.011047	205.500000
757.048340	194.900000
757.085632	197.200000
757.122864	210.000000
757.160156	194.900000
757.197327	198.600000
757.234619	199.200000
757.271912	193.600000
757.309082	201.300000
757.346375	192.600000
757.383667	200.000000
757.420837	197.000000
757.458130	197.600000
757.495422	194.800000
757.532593	198.900000
757.569885	193.800000
757.607117	193.800000
757.644348	198.100000
757.681580	207.900000
757.718811	187.000000
757.756042	197.500000
757.793335	195.100000
757.830505	199.100000
757.867798	196.300000
757.905029	194.900000
757.942200	199.200000
757.979492	195.900000
758.016724	196.500000
758.053894	196.800000
758.091187	211.500000
758.128418	198.100000
758.165588	197.700000
758.202820	206.200000
758.240112	198.900000
758.277283	205.800000
758.314514	200.700000
758.351685	195.900000
758.388916	204.100000
758.426147	203.100000
758.463379	206.300000
758.500610	201.900000
758.537842	199.000000
758.575012	203.900000
758.612244	195.800000
758.649475	208.700000
758.686646	194.100000
758.723877	204.700000
758.761108	205.200000
758.798279	198.700000
758.835510	202.700000
758.872742	206.300000
758.909851	201.800000
758.947083	202.200000
758.984253	202.600000
759.021484	203.100000
759.058716	203.900000
759.095886	204.600000
759.133057	200.400000
759.170288	203.500000
759.207458	199.700000
759.244690	209.200000
759.281860	208.500000
759.319031	202.400000
759.356262	201.000000
759.393433	200.100000
759.430603	201.500000
759.467773	201.700000
759.505005	206.700000
759.542175	207.800000
759.579346	202.800000
759.616516	203.600000
759.653687	207.100000
759.690918	201.700000
759.728027	203.200000
759.765259	206.300000
759.802429	205.300000
759.839539	206.100000
759.876770	208.800000
759.913940	212.400000
759.951111	203.900000
759.988281	205.700000
760.025452	202.300000
760.062561	202.200000
760.099792	213.900000
760.136963	208.800000
760.174072	203.900000
760.211243	201.700000
760.248413	202.800000
760.285583	203.500000
760.322754	212.700000
760.359863	212.300000
760.397034	212.000000
760.434204	205.700000
760.471375	205.500000
760.508545	204.500000
760.545715	206.300000
760.582825	204.400000
760.619995	209.200000
760.657166	203.700000
760.694275	212.100000
760.731445	207.800000
760.768555	209.200000
760.805664	211.000000
760.842834	208.300000
760.879944	210.900000
760.917114	208.200000
760.954285	206.900000
760.991394	204.800000
761.028564	211.700000
761.065674	208.900000
761.102783	206.000000
761.139954	213.300000
761.177124	211.500000
761.214172	215.000000
761.251343	207.600000
761.288452	208.900000
761.325562	211.800000
761.362732	207.300000
761.399841	208.800000
761.436951	211.200000
761.474121	206.700000
761.511169	210.800000
761.548340	213.700000
761.585449	214.000000
761.622559	211.900000
761.659668	211.700000
761.696838	216.500000
761.733887	212.900000
761.771057	210.800000
761.808167	211.200000
761.845276	214.800000
761.882385	220.500000
761.919434	212.400000
761.956604	225.400000
761.993713	209.700000
762.030762	216.900000
762.067871	210.700000
762.105042	214.000000
762.142090	219.700000
762.179199	214.500000
762.216309	216.500000
762.253418	224.200000
762.290527	220.600000
762.327637	218.200000
762.364685	210.800000
762.401794	218.200000
762.438904	218.300000
762.475952	214.600000
762.513062	211.400000
762.550110	213.100000
762.587219	224.500000
762.624329	223.000000
762.661377	220.100000
762.698486	216.900000
762.735596	218.400000
762.772644	213.100000
762.809753	211.700000
762.846863	216.300000
762.883911	220.900000
762.921021	219.600000
762.958069	218.000000
762.995117	224.200000
763.032227	223.200000
763.069336	215.900000
763.106323	215.200000
763.143433	213.900000
763.180481	220.200000
763.217590	220.200000
763.254639	217.800000
763.291687	219.300000
763.328735	225.200000
763.365845	218.800000
763.402893	217.900000
763.439941	220.500000
763.477051	224.700000
763.514038	223.200000
763.551147	219.700000
763.588196	221.800000
763.625244	221.900000
763.662292	226.900000
763.699402	227.800000
763.736389	225.700000
763.773499	232.500000
763.810486	226.300000
763.847534	223.300000
763.884644	226.400000
763.921631	222.900000
763.958679	232.800000
763.995728	225.600000
764.032776	233.400000
764.069824	222.500000
764.106873	229.000000
764.143860	233.500000
764.180969	226.500000
764.218018	233.100000
764.255005	228.400000
764.292053	227.900000
764.329102	235.700000
764.366089	233.700000
764.403137	232.800000
764.440125	228.100000
764.477173	231.700000
764.514221	233.000000
764.551208	232.400000
764.588257	228.500000
764.625305	238.400000
764.662292	238.400000
764.699341	242.000000
764.736389	234.700000
764.773376	247.400000
764.810425	236.400000
764.847473	242.400000
764.884399	239.200000
764.921448	246.700000
764.958435	243.200000
764.995483	238.000000
765.032532	248.500000
765.069458	238.600000
765.106506	239.600000
765.143555	239.700000
765.180481	240.700000
765.217529	249.700000
765.254578	236.400000
765.291504	245.100000
765.328552	243.400000
765.365540	240.300000
765.402527	251.400000
765.439575	241.500000
765.476501	238.900000
765.513550	239.000000
765.550537	243.800000
765.587463	248.200000
765.624512	241.700000
765.661499	236.800000
765.698486	249.700000
765.735474	240.900000
765.772461	244.900000
765.809448	250.200000
765.846436	249.900000
765.883423	252.200000
765.920410	248.400000
765.957397	244.300000
765.994385	249.800000
766.031311	257.000000
766.068359	251.200000
766.105286	251.800000
766.142273	256.400000
766.179260	250.500000
766.216187	248.200000
766.253174	245.300000
766.290161	252.300000
766.327148	253.100000
766.364136	254.300000
766.401123	264.700000
766.438049	249.600000
766.475037	257.100000
766.512024	256.600000
766.548950	268.300000
766.585937	264.900000
766.622864	257.500000
766.659790	259.500000
766.696777	251.700000
766.733704	263.100000
766.770691	254.900000
766.807678	265.200000
766.844604	261.400000
766.881531	262.300000
766.918518	267.700000
766.955444	266.000000
766.992432	260.800000
767.029358	265.500000
767.066284	265.700000
767.103271	264.000000
767.140198	295.700000
767.177124	275.900000
767.214050	267.200000
767.251038	268.200000
767.287964	266.700000
767.324890	263.200000
767.361816	268.000000
767.398743	271.200000
767.435730	267.300000
767.472595	270.400000
767.509583	275.200000
767.546509	264.300000
767.583374	270.700000
767.620361	265.100000
767.657288	269.900000
767.694214	269.600000
767.731140	268.700000
767.768066	269.600000
767.804993	272.900000
767.841919	265.600000
767.878845	271.200000
767.915710	278.300000
767.952698	272.100000
767.989563	275.700000
768.026489	277.300000
768.063416	270.700000
768.100281	270.500000
768.137207	278.900000
768.174133	277.200000
768.211060	276.200000
768.247986	276.400000
768.284912	274.500000
768.321777	277.500000
768.358704	274.600000
768.395630	275.700000
768.432495	274.100000
768.469421	280.300000
768.506348	280.600000
768.543152	285.300000
768.580078	281.300000
768.616943	284.500000
768.653870	285.600000
768.690796	284.400000
768.727661	283.000000
768.764587	283.100000
768.801453	280.800000
768.838318	289.000000
768.875244	286.900000
768.912109	288.600000
768.948975	283.900000
768.985901	284.500000
769.022766	284.900000
769.059631	289.500000
769.096558	287.100000
769.133362	286.900000
769.170288	286.900000
769.207214	286.700000
769.244019	292.300000
769.280945	289.200000
769.317810	297.800000
769.354675	291.300000
769.391541	300.000000
769.428406	295.500000
769.465271	304.300000
769.502136	294.300000
769.539062	298.200000
769.575867	297.300000
769.612732	300.000000
769.649597	303.900000
769.686462	305.500000
769.723328	300.900000
769.760193	298.600000
769.797058	301.200000
769.833923	309.500000
769.870728	305.200000
769.907593	308.800000
769.944519	308.800000
769.981323	311.200000
770.018188	310.400000
770.055054	308.700000
770.091858	309.900000
770.128723	316.800000
770.165588	321.200000
770.202393	309.900000
770.239258	321.200000
770.276062	316.700000
770.312927	319.300000
770.349792	323.700000
770.386597	322.200000
770.423462	329.900000
770.460327	335.600000
770.497131	322.400000
770.533997	320.200000
770.570862	331.100000
770.607605	333.700000
770.644470	329.800000
770.681335	331.000000
770.718140	329.700000
770.754944	326.000000
770.791809	327.200000
770.828613	330.100000
770.865479	332.100000
770.902222	339.800000
770.939087	334.900000
770.975952	329.300000
771.012695	330.600000
771.049561	342.800000
771.086365	335.900000
771.123169	333.400000
771.159973	334.700000
771.196838	338.500000
771.233582	340.000000
771.270447	340.300000
771.307251	343.500000
771.344055	341.800000
771.380859	343.000000
771.417664	341.200000
771.454468	347.400000
771.491272	347.200000
771.528076	347.500000
771.564880	344.800000
771.601685	352.100000
771.638428	343.200000
771.675293	350.900000
771.712097	342.900000
771.748840	357.500000
771.785645	350.000000
771.822449	355.000000
771.859253	355.100000
771.896057	354.600000
771.932861	362.900000
771.969604	353.600000
772.006409	348.700000
772.043213	360.500000
772.079956	358.500000
772.116760	353.700000
772.153503	355.900000
772.190308	364.400000
772.227112	357.300000
772.263855	354.800000
772.300659	358.800000
772.337463	364.300000
772.374207	356.000000
772.411011	354.500000
772.447754	357.800000
772.484497	372.000000
772.521301	365.100000
772.558105	366.300000
772.594849	360.800000
772.631592	368.900000
772.668396	364.800000
772.705139	365.500000
772.741882	366.200000
772.778625	378.000000
772.815430	376.900000
772.852173	376.000000
772.888916	381.000000
772.925720	379.800000
772.962463	386.400000
772.999207	383.400000
773.035950	384.600000
773.072754	386.400000
773.109436	381.500000
773.146240	383.700000
773.182922	384.800000
773.219727	387.400000
773.256470	385.400000
773.293152	379.000000
773.329956	383.800000
773.366699	387.900000
773.403381	381.800000
773.440186	387.500000
773.476929	388.500000
773.513611	384.500000
773.550354	385.600000
773.587158	385.700000
773.623840	379.600000
773.660583	386.800000
773.697327	399.800000
773.734009	391.700000
773.770813	391.100000
773.807495	386.300000
773.844238	388.200000
773.880981	400.100000
773.917664	396.600000
773.954407	401.200000
773.991150	394.800000
774.027832	398.200000
774.064575	392.600000
774.101318	401.000000
774.138000	401.800000
774.174744	400.400000
774.211487	399.900000
774.248108	394.000000
774.284851	393.700000
774.321594	399.800000
774.358276	400.700000
774.395020	411.300000
774.431702	406.700000
774.468384	398.000000
774.505127	397.500000
774.541809	408.400000
774.578491	415.000000
774.615234	415.000000
774.651917	407.800000
774.688599	410.600000
774.725342	418.000000
774.762024	416.700000
774.798706	416.500000
774.835449	420.300000
774.872070	428.300000
774.908813	423.900000
774.945496	421.000000
774.982178	422.500000
775.018860	419.400000
775.055542	425.500000
775.092224	426.300000
775.128967	431.700000
775.165588	431.900000
775.202271	425.900000
775.239014	433.600000
775.275635	438.800000
775.312317	432.700000
775.349060	437.400000
775.385681	437.900000
775.422363	432.200000
775.459045	435.400000
775.495667	437.600000
775.532410	443.800000
775.569092	444.700000
775.605713	442.900000
775.642395	444.600000
775.679016	445.000000
775.715698	449.700000
775.752380	448.800000
775.789001	446.400000
775.825684	444.300000
775.862366	450.500000
775.898987	460.800000
775.935669	453.900000
775.972351	470.000000
776.008972	466.900000
776.045654	468.700000
776.082336	465.400000
776.118958	466.400000
776.155640	466.000000
776.192322	473.100000
776.228882	474.100000
776.265564	478.800000
776.302185	474.200000
776.338867	480.200000
776.375488	470.600000
776.412109	481.800000
776.448792	487.200000
776.485413	494.900000
776.522034	482.900000
776.558716	481.100000
776.595337	481.300000
776.631958	483.100000
776.668579	487.100000
776.705261	496.900000
776.741882	492.600000
776.778503	493.800000
776.815186	491.400000
776.851746	493.700000
776.888367	494.500000
776.924988	504.400000
776.961609	497.100000
776.998291	496.600000
777.034851	493.100000
777.071472	502.000000
777.108154	498.200000
777.144714	513.200000
777.181335	511.000000
777.218018	506.700000
777.254578	514.100000
777.291199	514.000000
777.327759	512.500000
777.364380	521.300000
777.401062	528.600000
777.437622	531.100000
777.474243	522.300000
777.510864	528.600000
777.547424	521.600000
777.584045	523.400000
777.620667	525.900000
777.657227	528.500000
777.693848	530.700000
777.730469	539.300000
777.767029	532.900000
777.803650	534.000000
777.840271	535.000000
777.876831	532.900000
777.913452	540.900000
777.950012	525.800000
777.986633	527.200000
778.023193	528.800000
778.059753	527.600000
778.096375	529.100000
778.132996	543.400000
778.169556	534.300000
778.206116	532.000000
778.242737	529.500000
778.279297	537.300000
778.315857	531.400000
778.352478	536.900000
778.389038	543.100000
778.425598	545.700000
778.462219	550.800000
778.498718	546.500000
778.535339	550.700000
778.571838	551.400000
778.608459	551.800000
778.645020	544.900000
778.681580	552.300000
778.718140	555.200000
778.754761	545.300000
778.791260	554.000000
778.827881	560.700000
778.864441	560.500000
778.900940	566.700000
778.937561	561.500000
778.974121	563.700000
779.010620	560.700000
779.047241	559.500000
779.083801	566.000000
779.120300	568.300000
779.156860	566.000000
779.193359	563.600000
779.229980	569.900000
779.266541	571.000000
779.303040	573.500000
779.339600	570.100000
779.376160	563.900000
779.412659	561.600000
779.449219	560.100000
779.485779	566.300000
779.522278	567.300000
779.558838	574.200000
779.595398	575.300000
779.631897	569.100000
779.668457	562.000000
779.705017	572.900000
779.741516	563.100000
779.778076	561.300000
779.814575	562.800000
779.851074	567.400000
779.887634	565.600000
779.924133	571.600000
779.960693	557.600000
779.997253	567.900000
780.033691	571.800000
780.070251	570.600000
780.106812	574.700000
780.143250	569.200000
780.179810	563.300000
780.216370	557.700000
780.252808	557.000000
780.289368	554.400000
780.325867	542.500000
780.362366	526.900000
780.398865	521.200000
780.435364	500.900000
780.471863	497.600000
780.508423	480.800000
780.544861	470.700000
780.581421	459.500000
780.617920	441.200000
780.654419	432.500000
780.690918	430.000000
780.727417	427.200000
780.763916	425.700000
780.800415	428.000000
780.836914	421.700000
780.873352	431.700000
780.909912	424.700000
780.946411	435.200000
780.982849	447.500000
781.019348	458.200000
781.055786	455.200000
781.092346	455.900000
781.128845	465.700000
781.165283	464.300000
781.201782	471.200000
781.238281	469.400000
781.274719	467.900000
781.311218	459.400000
781.347717	466.300000
781.384155	447.900000
781.420654	444.300000
781.457092	449.600000
781.493591	442.100000
781.530090	435.200000
781.566528	437.500000
781.602966	436.700000
781.639465	437.400000
781.675903	436.400000
781.712402	448.200000
781.748901	455.300000
781.785278	456.800000
781.821777	465.700000
781.858276	469.500000
781.894714	484.000000
781.931152	477.500000
781.967651	487.000000
782.004089	476.700000
782.040527	481.900000
782.076965	478.300000
782.113403	476.600000
782.149902	473.200000
782.186340	468.300000
782.222778	474.600000
782.259277	464.200000
782.295654	457.800000
782.332092	466.500000
782.368591	461.600000
782.404968	465.800000
782.441467	469.000000
782.477905	474.300000
782.514282	481.200000
782.550781	501.500000
782.587219	508.200000
782.623596	527.100000
782.660095	539.400000
782.696472	557.400000
782.732910	573.800000
782.769348	593.100000
782.805786	618.800000
782.842224	638.100000
782.878662	652.800000
782.915039	662.100000
782.951477	682.500000
782.987915	680.100000
783.024292	692.400000
783.060730	709.100000
783.097168	708.200000
783.133545	703.900000
783.169983	707.800000
783.206421	705.300000
783.242798	703.000000
783.279236	701.100000
783.315613	701.300000
783.352051	699.400000
783.388489	697.000000
783.424866	691.700000
783.461304	703.400000
783.497681	709.700000
783.534058	703.700000
783.570496	698.200000
783.606934	697.100000
783.643250	699.600000
783.679687	710.800000
783.716125	710.600000
783.752441	719.400000
783.788879	735.200000
783.825317	743.100000
783.861633	743.500000
783.898071	748.000000
783.934448	756.100000
783.970825	769.900000
784.007263	766.600000
784.043579	774.300000
784.080017	777.400000
784.116394	772.600000
784.152710	779.100000
784.189148	784.000000
784.225525	777.300000
784.261902	771.600000
784.298279	769.200000
784.334656	764.500000
784.371033	756.400000
784.407410	761.800000
784.443787	750.100000
784.480164	737.300000
784.516541	724.200000
784.552856	728.300000
784.589233	723.700000
784.625610	722.200000
784.661987	742.400000
784.698364	736.600000
784.734741	732.300000
784.771057	731.000000
784.807434	735.300000
784.843811	749.800000
784.880127	745.800000
784.916504	771.600000
784.952881	775.100000
784.989197	774.400000
785.025574	777.000000
785.061951	775.800000
785.098267	797.600000
785.134644	796.900000
785.170959	793.200000
785.207275	795.400000
785.243652	794.800000
785.279968	774.800000
785.316345	779.300000
785.352722	781.100000
785.388977	780.000000
785.425354	761.900000
785.461731	749.700000
785.498047	737.800000
785.534363	738.500000
785.570679	733.900000
785.606995	735.100000
785.643372	738.500000
785.679687	732.000000
785.716003	723.700000
785.752380	726.000000
785.788635	729.900000
785.825012	741.100000
785.861328	742.000000
785.897644	739.100000
785.933960	752.000000
785.970337	756.300000
786.006592	772.800000
786.042908	781.500000
786.079285	789.100000
786.115540	796.800000
786.151855	805.800000
786.188171	805.600000
786.224487	809.000000
786.260803	800.700000
786.297119	809.700000
786.333435	806.600000
786.369751	797.100000
786.406006	796.400000
786.442322	789.000000
786.478638	774.200000
786.514954	783.700000
786.551270	775.600000
786.587585	784.200000
786.623840	766.000000
786.660156	759.500000
786.696472	753.700000
786.732727	753.300000
786.769043	760.800000
786.805298	753.800000
786.841614	755.200000
786.877930	764.700000
786.914124	754.700000
786.950439	772.400000
786.986755	781.100000
787.023010	795.500000
787.059326	800.000000
787.095642	803.200000
787.131836	815.700000
787.168152	809.800000
787.204468	812.000000
787.240723	828.500000
787.276978	832.500000
787.313293	844.700000
787.349548	834.700000
787.385803	838.600000
787.422058	840.200000
787.458313	836.400000
787.494629	829.500000
787.530823	829.700000
787.567139	820.700000
787.603455	813.700000
787.639648	799.600000
787.675903	802.800000
787.712219	799.500000
787.748413	800.400000
787.784729	806.700000
787.820984	799.900000
787.857178	794.700000
787.893494	793.400000
787.929749	795.800000
787.965942	803.800000
788.002258	813.400000
788.038452	821.800000
788.074707	819.500000
788.110962	825.600000
788.147217	825.300000
788.183472	834.100000
788.219727	845.700000
788.255920	855.700000
788.292175	868.100000
788.328430	869.200000
788.364624	858.000000
788.400879	850.400000
788.437134	853.000000
788.473328	855.200000
788.509583	858.200000
788.545837	855.700000
788.582031	861.000000
788.618286	856.200000
788.654480	853.300000
788.690735	854.900000
788.726990	870.400000
788.763184	868.900000
788.799377	879.800000
788.835632	872.900000
788.871826	883.900000
788.908081	877.000000
788.944336	879.500000
788.980469	890.700000
789.016724	883.300000
789.052979	884.200000
789.089111	871.700000
789.125366	877.900000
789.161621	865.400000
789.197754	879.400000
789.234009	871.000000
789.270142	870.000000
789.306396	867.000000
789.342590	857.900000
789.378784	848.000000
789.414978	842.000000
789.451233	845.700000
789.487366	850.300000
789.523621	860.100000
789.559814	861.100000
789.595947	855.500000
789.632202	862.400000
789.668335	869.000000
789.704529	883.600000
789.740784	897.100000
789.776917	906.700000
789.813110	898.800000
789.849304	902.200000
789.885498	904.800000
789.921692	914.900000
789.957886	923.300000
789.994019	931.000000
790.030212	933.400000
790.066406	932.900000
790.102539	920.600000
790.138733	930.000000
790.174927	924.200000
790.211060	940.800000
790.247253	940.000000
790.283386	934.600000
790.319580	925.900000
790.355774	911.100000
790.391907	912.200000
790.428101	921.300000
790.464294	918.200000
790.500427	929.800000
790.536621	908.700000
790.572754	892.000000
790.608887	888.600000
790.645081	897.700000
790.681274	911.400000
790.717346	912.600000
790.753540	898.800000
790.789734	888.400000
790.825867	869.300000
790.862000	873.000000
790.898132	883.200000
790.934265	880.900000
790.970459	890.900000
791.006592	885.300000
791.042725	883.400000
791.078918	876.100000
791.114990	865.400000
791.151184	870.400000
791.187317	889.700000
791.223389	892.100000
791.259583	885.700000
791.295715	885.000000
791.331848	886.000000
791.367981	892.500000
791.404114	897.100000
791.440247	893.500000
791.476379	904.700000
791.512451	880.200000
791.548584	880.500000
791.584778	874.000000
791.620850	891.600000
791.656982	899.800000
791.693115	895.600000
791.729187	895.300000
791.765381	887.800000
791.801514	889.600000
791.837585	888.400000
791.873718	894.800000
791.909851	904.600000
791.945923	915.700000
791.982056	891.800000
792.018188	885.300000
792.054260	884.300000
792.090393	882.700000
792.126465	874.400000
792.162598	886.100000
792.198669	878.800000
792.234741	875.000000
792.270874	867.300000
792.307007	859.100000
792.343079	861.900000
792.379150	870.200000
792.415283	861.800000
792.451355	870.100000
792.487488	846.400000
792.523560	840.600000
792.559631	829.400000
792.595764	802.800000
792.631836	761.700000
792.667908	742.700000
792.703979	715.200000
792.740051	731.700000
792.776184	770.200000
792.812256	787.500000
792.848328	799.600000
792.884399	812.400000
792.920471	814.000000
792.956543	810.400000
792.992615	812.400000
793.028748	805.300000
793.064758	808.400000
793.100830	825.000000
793.136963	839.000000
793.172974	841.000000
793.209045	837.900000
793.245178	842.500000
793.281189	823.900000
793.317261	832.800000
793.353271	839.200000
793.389404	854.800000
793.425476	844.200000
793.461487	830.900000
793.497559	824.600000
793.533630	820.500000
793.569641	818.800000
793.605713	823.900000
793.641785	831.500000
793.677795	840.400000
793.713867	832.100000
793.749878	834.200000
793.785950	842.600000
793.822021	854.000000
793.858032	843.900000
793.894104	860.900000
793.930176	853.500000
793.966187	853.300000
794.002258	841.900000
794.038269	851.300000
794.074280	849.400000
794.110352	871.400000
794.146423	860.000000
794.182373	859.200000
794.218445	851.800000
794.254517	845.100000
794.290466	830.000000
794.326538	836.900000
794.362549	839.400000
794.398560	844.500000
794.434631	842.000000
794.470581	827.500000
794.506653	822.100000
794.542664	817.900000
794.578674	823.200000
794.614685	823.000000
794.650757	822.600000
794.686707	821.700000
794.722778	811.300000
794.758789	817.800000
794.794739	831.300000
794.830811	849.700000
794.866821	863.600000
794.902771	874.700000
794.938843	867.500000
794.974792	862.800000
795.010803	867.400000
795.046814	866.500000
795.082825	862.100000
795.118835	879.300000
795.154846	858.900000
795.190796	864.400000
795.226807	846.100000
795.262817	849.600000
795.298767	851.300000
795.334778	860.200000
795.370850	856.100000
795.406799	853.700000
795.442810	837.500000
795.478821	836.100000
795.514709	829.400000
795.550720	855.700000
795.586670	835.000000
795.622681	846.600000
795.658691	846.600000
795.694641	842.000000
795.730652	829.000000
795.766663	846.500000
795.802551	854.000000
795.838562	866.200000
795.874573	849.000000
795.910522	852.400000
795.946472	839.100000
795.982483	846.200000
796.018433	846.200000
796.054382	859.900000
796.090393	849.100000
796.126282	842.200000
796.162292	830.600000
796.198242	827.300000
796.234192	820.300000
796.270203	812.700000
796.306091	823.800000
796.342041	834.300000
796.378052	824.800000
796.413940	830.600000
796.449951	832.300000
796.485901	832.600000
796.521790	836.000000
796.557800	847.700000
796.593689	844.800000
796.629639	841.800000
796.665649	838.700000
796.701599	836.300000
796.737488	838.300000
796.773437	846.200000
796.809387	855.000000
796.845337	853.500000
796.881287	839.100000
796.917175	830.200000
796.953125	826.800000
796.989075	824.800000
797.024963	829.400000
797.060913	833.100000
797.096863	835.600000
797.132751	826.300000
797.168701	811.100000
797.204590	812.100000
797.240540	811.200000
797.276489	820.800000
797.312439	832.200000
797.348328	827.600000
797.384277	819.700000
797.420166	812.100000
797.456055	813.700000
797.492004	808.500000
797.527893	814.300000
797.563843	816.100000
797.599731	811.600000
797.635620	806.200000
797.671570	813.400000
797.707520	811.000000
797.743347	813.900000
797.779297	815.200000
797.815125	815.200000
797.851074	811.700000
797.887024	802.600000
797.922913	792.800000
797.958801	794.700000
797.994690	788.800000
798.030579	796.300000
798.066467	807.000000
798.102356	794.200000
798.138245	788.100000
798.174133	783.500000
798.210083	790.500000
798.245911	800.700000
798.281799	800.900000
798.317749	795.100000
798.353577	790.900000
798.389465	786.100000
798.425293	787.700000
798.461243	787.200000
798.497131	793.900000
798.532959	790.200000
798.568848	797.400000
798.604736	781.100000
798.640564	771.700000
798.676453	777.500000
798.712402	776.600000
798.748230	776.200000
798.784119	784.100000
798.820007	783.400000
798.855835	780.900000
798.891724	774.900000
798.927551	765.900000
798.963379	774.500000
798.999268	771.700000
799.035095	766.100000
799.070984	767.000000
799.106873	754.800000
799.142700	759.100000
799.178528	748.500000
799.214417	753.800000
799.250244	758.600000
799.286133	753.300000
799.321960	754.400000
799.357788	746.500000
799.393677	743.700000
799.429504	749.400000
799.465332	746.400000
799.501221	753.300000
799.537048	759.100000
799.572876	758.500000
799.608704	753.600000
799.644531	759.600000
799.680359	760.600000
799.716248	774.300000
799.752014	781.400000
799.787903	771.300000
799.823730	763.500000
799.859558	758.600000
799.895386	751.900000
799.931213	755.000000
799.967041	750.700000
800.002869	754.500000
800.038696	760.600000
800.074463	744.300000
800.110352	750.600000
800.146179	738.000000
800.181946	749.400000
800.217773	758.100000
800.253540	749.000000
800.289429	747.000000
800.325256	742.700000
800.361023	735.900000
800.396851	740.200000
800.432678	741.600000
800.468445	745.000000
800.504272	747.000000
800.540100	735.300000
800.575867	731.100000
800.611694	734.400000
800.647461	733.500000
800.683289	734.400000
800.719116	735.500000
800.754883	735.300000
800.790649	722.600000
800.826477	715.700000
800.862244	730.300000
800.898071	720.600000
800.933838	724.000000
800.969604	724.700000
801.005432	719.500000
801.041199	724.500000
801.076965	717.400000
801.112793	709.100000
801.148560	705.000000
801.184326	705.800000
801.220154	707.200000
801.255859	699.000000
801.291687	696.400000
801.327454	692.300000
801.363281	698.600000
801.398987	689.600000
801.434814	692.400000
801.470520	705.800000
801.506287	691.800000
801.542114	687.300000
801.577820	687.000000
801.613647	683.600000
801.649414	684.700000
801.685120	689.500000
801.720886	690.600000
801.756714	676.200000
801.792419	672.800000
801.828186	670.100000
801.863892	675.000000
801.899719	672.600000
801.935486	674.600000
801.971252	678.200000
802.006958	666.500000
802.042725	665.000000
802.078430	663.300000
802.114197	654.500000
802.149963	670.300000
802.185669	667.100000
802.221436	668.200000
802.257202	664.700000
802.292908	657.300000
802.328674	666.000000
802.364441	672.300000
802.400146	665.600000
802.435913	671.500000
802.471558	669.000000
802.507324	658.500000
802.543091	651.800000
802.578796	665.400000
802.614502	667.800000
802.650269	675.300000
802.685974	660.900000
802.721741	665.000000
802.757446	668.000000
802.793152	663.000000
802.828918	667.900000
802.864624	662.200000
802.900330	666.400000
802.936035	661.400000
802.971802	659.700000
803.007446	652.400000
803.043213	646.300000
803.078857	657.500000
803.114624	642.500000
803.150330	651.400000
803.185974	641.500000
803.221741	640.100000
803.257446	647.900000
803.293152	647.700000
803.328857	647.900000
803.364563	645.400000
803.400208	641.700000
803.435974	643.800000
803.471680	634.300000
803.507324	630.800000
803.543030	641.900000
803.578735	643.700000
803.614441	638.200000
803.650146	646.300000
803.685791	636.300000
803.721497	637.900000
803.757202	625.100000
803.792847	633.900000
803.828552	628.100000
803.864258	622.400000
803.899902	621.600000
803.935608	613.200000
803.971313	616.600000
804.006958	614.700000
804.042664	616.600000
804.078308	621.400000
804.113953	613.000000
804.149658	621.800000
804.185364	610.100000
804.221008	623.300000
804.256714	608.000000
804.292297	607.500000
804.328003	601.700000
804.363708	599.500000
804.399292	599.400000
804.434998	598.500000
804.470703	591.200000
804.506287	600.100000
804.541992	593.200000
804.577637	597.100000
804.613281	584.500000
804.648926	583.200000
804.684570	587.300000
804.720215	581.400000
804.755920	578.100000
804.791565	580.000000
804.827209	586.200000
804.862854	580.400000
804.898437	575.700000
804.934143	578.200000
804.969788	574.100000
805.005371	578.700000
805.041077	579.700000
805.076721	582.300000
805.112305	572.000000
805.147949	572.100000
805.183655	563.700000
805.219238	569.700000
805.254883	566.300000
805.290466	570.600000
805.326111	566.800000
805.361755	560.700000
805.397400	561.600000
805.432983	562.500000
805.468628	560.800000
805.504211	564.600000
805.539856	564.000000
805.575500	568.400000
805.611084	560.000000
805.646729	550.500000
805.682373	557.400000
805.717957	560.000000
805.753601	561.100000
805.789246	551.400000
805.824768	560.400000
805.860413	560.400000
805.895996	550.500000
805.931641	553.400000
805.967224	556.100000
806.002869	544.000000
806.038452	559.700000
806.074036	559.600000
806.109619	547.500000
806.145264	547.800000
806.180847	551.800000
806.216431	547.100000
806.252014	551.300000
806.287659	543.600000
806.323181	552.500000
806.358826	547.500000
806.394409	534.600000
806.429993	535.100000
806.465576	541.600000
806.501160	531.400000
806.536743	530.200000
806.572327	538.100000
806.607910	537.500000
806.643494	536.600000
806.679077	526.100000
806.714661	526.000000
806.750244	526.500000
806.785828	525.200000
806.821350	523.200000
806.856934	526.600000
806.892517	520.900000
806.928101	519.700000
806.963684	518.000000
806.999268	527.100000
807.034790	510.100000
807.070374	516.600000
807.105896	510.400000
807.141479	506.700000
807.177063	509.200000
807.212585	504.400000
807.248169	505.700000
807.283752	511.900000
807.319275	503.600000
807.354858	509.600000
807.390381	499.300000
807.425903	501.100000
807.461487	497.000000
807.497070	495.700000
807.532593	496.500000
807.568115	493.300000
807.603699	489.600000
807.639221	487.100000
807.674744	487.200000
807.710266	492.100000
807.745850	491.600000
807.781372	489.600000
807.816895	487.300000
807.852417	490.700000
807.888000	483.800000
807.923523	483.200000
807.959045	485.200000
807.994629	483.700000
808.030090	479.100000
808.065613	482.700000
808.101135	484.100000
808.136658	481.300000
808.172241	478.400000
808.207764	477.400000
808.243225	476.800000
808.278809	470.600000
808.314270	479.300000
808.349792	463.900000
808.385315	468.600000
808.420837	474.700000
808.456360	478.100000
808.491882	477.100000
808.527344	473.800000
808.562866	475.500000
808.598389	470.600000
808.633850	468.700000
808.669434	462.300000
808.704895	470.800000
808.740417	476.800000
808.775940	469.300000
808.811462	466.500000
808.846924	460.400000
808.882385	459.200000
808.917847	461.300000
808.953369	463.900000
808.988892	456.600000
809.024353	463.500000
809.059875	465.200000
809.095398	461.700000
809.130798	451.100000
809.166321	455.800000
809.201843	452.500000
809.237305	452.700000
809.272766	457.300000
809.308228	446.600000
809.343750	448.100000
809.379211	449.600000
809.414734	448.200000
809.450134	450.900000
809.485657	440.800000
809.521118	445.200000
809.556580	438.100000
809.592102	438.600000
809.627502	439.700000
809.663025	437.800000
809.698486	437.800000
809.733887	434.000000
809.769409	437.600000
809.804871	427.100000
809.840271	431.000000
809.875793	432.800000
809.911194	433.500000
809.946655	426.900000
809.982178	425.100000
810.017639	429.000000
810.053040	425.300000
810.088501	424.900000
810.123901	423.300000
810.159424	421.300000
810.194885	419.100000
810.230286	420.700000
810.265747	415.500000
810.301208	408.100000
810.336609	413.800000
810.372070	406.100000
810.407532	409.400000
810.442932	410.800000
810.478394	414.300000
810.513794	407.800000
810.549255	407.300000
810.584717	402.200000
810.620117	399.100000
810.655518	406.200000
810.690979	404.100000
810.726379	399.900000
810.761841	393.000000
810.797302	391.400000
810.832642	391.900000
810.868103	396.200000
810.903564	392.900000
810.938904	397.300000
810.974365	386.100000
811.009827	390.300000
811.045166	386.300000
811.080627	380.400000
811.115967	383.000000
811.151428	387.900000
811.186829	382.400000
811.222229	384.000000
811.257629	377.400000
811.293091	383.200000
811.328430	388.900000
811.363892	380.300000
811.399292	380.500000
811.434631	378.600000
811.470093	382.800000
811.505493	375.600000
811.540833	375.300000
811.576294	380.900000
811.611694	377.500000
811.647034	373.200000
811.682434	371.300000
811.717773	374.600000
811.753235	378.000000
811.788635	371.800000
811.823975	371.300000
811.859375	378.400000
811.894775	367.000000
811.930115	369.000000
811.965515	368.100000
812.000916	372.100000
812.036255	366.200000
812.071655	371.900000
812.106995	364.600000
812.142395	366.500000
812.177795	371.400000
812.213196	367.800000
812.248474	366.300000
812.283875	360.400000
812.319214	362.000000
812.354614	361.400000
812.390015	356.800000
812.425293	357.700000
812.460693	359.800000
812.496094	358.200000
812.531433	349.700000
812.566772	351.000000
812.602173	354.800000
812.637451	354.900000
812.672852	351.500000
812.708191	355.200000
812.743530	348.400000
812.778931	343.200000
812.814270	343.000000
812.849609	348.200000
812.884949	346.100000
812.920227	337.100000
812.955627	350.000000
812.990967	342.200000
813.026306	338.900000
813.061646	330.800000
813.096985	329.100000
813.132324	324.200000
813.167664	331.400000
813.203003	332.200000
813.238281	324.600000
813.273682	324.000000
813.308960	322.600000
813.344299	322.100000
813.379639	329.300000
813.414978	323.800000
813.450256	322.900000
813.485596	324.600000
813.520874	318.100000
813.556213	317.900000
813.591614	323.700000
813.626831	314.100000
813.662170	318.800000
813.697510	326.300000
813.732788	317.000000
813.768127	318.200000
813.803467	319.400000
813.838745	314.200000
813.874084	317.500000
813.909363	314.700000
813.944641	315.400000
813.979980	308.400000
814.015320	313.700000
814.050598	309.500000
814.085876	311.600000
814.121155	308.600000
814.156494	309.000000
814.191772	308.700000
814.227051	304.700000
814.262390	305.000000
814.297668	304.900000
814.332947	305.000000
814.368225	300.600000
814.403564	303.600000
814.438782	300.000000
814.474121	303.200000
814.509338	298.200000
814.544617	304.900000
814.579956	295.700000
814.615173	305.100000
814.650513	301.800000
814.685791	298.400000
814.721008	298.800000
814.756348	297.400000
814.791626	294.400000
814.826843	293.800000
814.862122	296.200000
814.897400	293.900000
814.932678	293.600000
814.967957	291.100000
815.003235	291.000000
815.038452	288.500000
815.073730	286.000000
815.108948	294.100000
815.144226	292.000000
815.179504	295.200000
815.214722	282.700000
815.250000	282.800000
815.285278	288.300000
815.320496	285.600000
815.355774	286.200000
815.391052	286.800000
815.426270	285.100000
815.461487	283.700000
815.496765	279.400000
815.531982	278.000000
815.567261	281.100000
815.602539	286.800000
815.637695	286.200000
815.672974	282.100000
815.708191	285.200000
815.743408	284.900000
815.778687	278.000000
815.813904	283.700000
815.849121	273.700000
815.884399	273.000000
815.919556	273.300000
815.954834	274.900000
815.990051	275.800000
816.025269	277.300000
816.060486	271.300000
816.095703	270.500000
816.130920	273.500000
816.166199	267.800000
816.201416	272.100000
816.236572	271.700000
816.271851	268.400000
816.307007	272.800000
816.342224	264.500000
816.377441	265.700000
816.412659	261.400000
816.447876	268.000000
816.483093	263.200000
816.518250	263.000000
816.553467	260.200000
816.588745	265.400000
816.623901	258.800000
816.659119	255.200000
816.694275	259.200000
816.729492	257.600000
816.764709	284.900000
816.799927	252.400000
816.835083	257.900000
816.870300	251.300000
816.905457	254.300000
816.940674	257.500000
816.975830	250.600000
817.010986	250.100000
817.046204	251.100000
817.081421	246.200000
817.116577	248.200000
817.151733	255.600000
817.186951	254.200000
817.222107	252.300000
817.257324	252.300000
817.292419	252.600000
817.327637	244.500000
817.362854	248.400000
817.398010	242.300000
817.433167	247.900000
817.468323	243.900000
817.503479	245.100000
817.538635	252.500000
817.573853	246.800000
817.608948	243.500000
817.644165	241.800000
817.679321	241.100000
817.714478	239.600000
817.749634	242.900000
817.784790	249.800000
817.819946	246.300000
817.855103	234.400000
817.890198	240.100000
817.925415	233.800000
817.960571	240.600000
817.995667	241.000000
818.030823	239.000000
818.066040	236.100000
818.101135	239.900000
818.136292	236.700000
818.171448	232.300000
818.206543	235.500000
818.241699	237.200000
818.276855	236.000000
818.311951	235.400000
818.347107	232.600000
818.382263	237.400000
818.417358	239.500000
818.452515	239.200000
818.487610	239.000000
818.522766	231.100000
818.557922	239.300000
818.593018	236.200000
818.628113	232.700000
818.663269	228.900000
818.698364	231.800000
818.733521	229.600000
818.768677	231.600000
818.803711	228.200000
818.838867	225.900000
818.874023	229.600000
818.909058	226.100000
818.944214	225.200000
818.979370	226.900000
819.014404	228.300000
819.049561	223.200000
819.084595	227.500000
819.119751	219.800000
819.154846	227.800000
819.189941	222.600000
819.225037	221.400000
819.260193	216.800000
819.295227	219.500000
819.330322	214.000000
819.365479	216.600000
819.400513	248.300000
819.435608	214.900000
819.470764	213.000000
819.505798	215.200000
819.540894	216.500000
819.575989	215.000000
819.611084	220.000000
819.646179	222.100000
819.681213	218.900000
819.716309	214.400000
819.751404	216.000000
819.786438	220.600000
819.821533	210.900000
819.856628	216.800000
819.891663	217.100000
819.926758	223.700000
819.961853	220.100000
819.996887	211.100000
820.031982	215.100000
820.067017	212.500000
820.102112	246.600000
820.137207	209.900000
820.172302	222.100000
820.207275	209.500000
820.242371	208.300000
820.277405	209.900000
820.312500	212.700000
820.347534	211.000000
820.382568	215.000000
820.417664	208.200000
820.452759	207.500000
820.487732	208.200000
820.522827	210.100000
820.557861	204.600000
820.592896	207.800000
820.627930	208.300000
820.662964	206.700000
820.698059	209.400000
820.733093	207.100000
820.768127	209.600000
820.803162	209.200000
820.838196	204.800000
820.873230	208.400000
820.908264	208.500000
820.943298	205.200000
820.978333	210.000000
821.013367	206.500000
821.048401	209.800000
821.083435	209.500000
821.118469	201.100000
821.153503	208.700000
821.188477	206.900000
821.223511	201.100000
821.258484	205.400000
821.293579	206.300000
821.328613	200.900000
821.363647	203.400000
821.398621	200.400000
821.433655	203.400000
821.468628	216.800000
821.503662	203.300000
821.538696	207.400000
821.573669	200.100000
821.608704	207.400000
821.643677	202.100000
821.678650	205.900000
821.713684	208.300000
821.748718	203.500000
821.783691	204.200000
821.818726	204.600000
821.853638	203.700000
821.888672	202.100000
821.923706	201.300000
821.958618	202.100000
821.993652	201.100000
822.028687	206.500000
822.063599	209.900000
822.098633	204.800000
822.133667	199.300000
822.168579	202.600000
822.203613	202.900000
822.238586	199.100000
822.273560	203.800000
822.308533	200.200000
822.343567	198.400000
822.378479	202.600000
822.413452	200.900000
822.448425	199.200000
822.483398	204.500000
822.518372	205.400000
822.553345	199.000000
822.588318	207.800000
822.623291	200.600000
822.658203	199.500000
822.693237	201.000000
822.728210	198.000000
822.763123	201.800000
822.798096	197.300000
822.833069	201.900000
822.867981	200.300000
822.902954	203.000000
822.937927	201.200000
822.972900	208.200000
823.007874	194.700000
823.042725	203.900000
823.077698	208.100000
823.112671	198.300000
823.147583	199.200000
823.182556	202.000000
823.217529	202.500000
823.252441	198.900000
823.287415	209.000000
823.322388	202.800000
823.357239	199.100000
823.392212	205.200000
823.427185	204.800000
823.462097	197.800000
823.497009	203.000000
823.531982	198.800000
823.566895	199.000000
823.601807	195.500000
823.636719	198.100000
823.671631	201.500000
823.706604	197.800000
823.741455	203.200000
823.776428	196.700000
823.811340	201.400000
823.846252	205.200000
823.881165	204.900000
823.916138	200.700000
823.950989	207.400000
823.985901	198.100000
824.020813	200.700000
824.055725	199.000000
824.090637	194.300000
824.125610	202.000000
824.160461	201.100000
824.195374	201.500000
824.230225	202.300000
824.265198	194.300000
824.300110	197.300000
824.334961	207.000000
824.369873	191.700000
824.404785	202.700000
824.439636	202.200000
824.474548	194.100000
824.509460	190.800000
824.544312	203.000000
824.579224	201.300000
824.614075	201.400000
824.648987	197.300000
824.683899	199.700000
824.718811	195.200000
824.753662	202.700000
824.788574	202.300000
824.823364	201.300000
824.858276	195.100000
824.893188	201.300000
824.928040	201.400000
824.962952	199.200000
824.997803	201.100000
825.032654	199.700000
825.067566	199.200000
825.102417	195.800000
825.137268	196.700000
825.172119	196.900000
825.206970	194.800000
825.241882	197.300000
825.276733	193.500000
825.311646	195.200000
825.346436	191.400000
825.381348	191.700000
825.416138	197.500000
825.450989	194.000000
825.485901	189.100000
825.520691	191.000000
825.555542	192.300000
825.590454	194.800000
825.625244	191.100000
825.660095	201.300000
825.695007	199.200000
825.729797	194.600000
825.764648	193.100000
825.799438	195.000000
825.834290	195.800000
825.869202	189.500000
825.903992	194.500000
825.938843	193.100000
825.973694	190.900000
826.008484	202.300000
826.043335	192.300000
826.078186	186.200000
826.112976	197.600000
826.147827	196.100000
826.182678	202.000000
826.217468	186.500000
826.252319	198.900000
826.287109	189.400000
826.321899	196.400000
826.356750	192.200000
826.391541	189.300000
826.426392	195.500000
826.461182	192.300000
826.495972	188.800000
826.530823	185.600000
826.565613	193.700000
826.600403	188.100000
826.635254	194.200000
826.670044	186.200000
826.704834	188.100000
826.739685	188.300000
826.774475	194.300000
826.809265	192.400000
826.844055	190.100000
826.878906	197.200000
826.913635	193.700000
826.948425	194.500000
826.983215	195.000000
827.018005	195.700000
827.052856	192.400000
827.087585	196.900000
827.122375	187.200000
827.157227	191.400000
827.191956	204.200000
827.226746	187.700000
827.261536	195.500000
827.296265	187.900000
827.331116	191.500000
827.365906	193.600000
827.400635	190.300000
827.435425	185.600000
827.470215	195.800000
827.504944	191.100000
827.539734	196.500000
827.574463	190.300000
827.609253	199.200000
827.644043	190.600000
827.678772	195.500000
827.713562	189.100000
827.748352	190.900000
827.783081	187.400000
827.817871	192.800000
827.852600	188.500000
827.887329	191.700000
827.922119	185.100000
827.956848	194.300000
827.991638	200.800000
828.026367	193.200000
828.061157	192.600000
828.095886	192.200000
828.130615	204.200000
828.165344	184.600000
828.200073	190.500000
828.234863	190.200000
828.269592	190.700000
828.304321	194.500000
828.339111	191.400000
828.373779	188.400000
828.408569	194.600000
828.443298	195.500000
828.477966	190.300000
828.512756	191.400000
828.547424	188.900000
828.582214	189.000000
828.616943	189.700000
828.651672	191.700000
828.686340	195.700000
828.721130	188.800000
828.755798	190.800000
828.790527	191.700000
828.825256	192.500000
828.859924	191.800000
828.894714	196.700000
828.929443	198.900000
828.964111	190.700000
828.998840	193.900000
829.033569	189.900000
829.068237	189.400000
829.102966	190.200000
829.137634	192.000000
829.172363	192.300000
829.207092	192.500000
829.241821	188.300000
829.276489	185.700000
829.311157	192.300000
829.345825	189.000000
829.380554	195.400000
829.415283	189.600000
829.449951	186.600000
829.484619	197.600000
829.519348	196.700000
829.554016	191.500000
829.588745	192.700000
829.623413	187.200000
829.658081	199.500000
829.692749	187.400000
829.727417	196.100000
829.762146	192.500000
829.796814	190.300000
829.831482	190.800000
829.866150	192.800000
829.900879	190.900000
829.935486	192.000000
829.970154	190.600000
830.004883	200.900000
830.039490	192.800000
830.074219	189.000000
830.108887	192.900000
830.143494	189.600000
830.178223	188.300000
830.212891	190.100000
830.247498	193.000000
830.282166	196.700000
830.316772	197.300000
830.351501	189.300000
830.386169	191.100000
830.420776	190.200000
830.455444	192.800000
830.490112	189.000000
830.524719	185.700000
830.559387	193.100000
830.594055	193.500000
830.628662	192.300000
830.663330	192.000000
830.697998	198.200000
830.732605	191.600000
830.767273	192.400000
830.801941	191.100000
830.836487	200.100000
830.871155	192.800000
830.905762	194.100000
830.940430	187.800000
830.975098	189.900000
831.009644	192.200000
831.044312	199.000000
831.078979	194.000000
831.113525	184.900000
831.148193	192.800000
831.182861	191.700000
831.217407	194.100000
831.252075	204.500000
831.286621	189.500000
831.321289	188.500000
831.355896	192.500000
831.390564	198.500000
831.425110	192.000000
831.459778	197.600000
831.494324	201.600000
831.528931	192.300000
831.563599	195.600000
831.598145	187.400000
831.632751	192.200000
831.667419	190.900000
831.701965	192.900000
831.736572	194.500000
831.771179	187.200000
831.805786	190.200000
831.840393	197.000000
831.874939	187.100000
831.909546	194.700000
831.944153	185.200000
831.978760	190.300000
832.013306	188.300000
832.047913	195.700000
832.082458	199.300000
832.117065	187.900000
832.151672	199.300000
832.186218	191.600000
832.220825	194.100000
832.255432	186.000000
832.289978	189.300000
832.324585	193.100000
832.359192	192.100000
832.393677	191.200000
832.428284	192.600000
832.462830	191.100000
832.497437	190.200000
832.531982	194.400000
832.566589	189.200000
832.601135	194.400000
832.635681	184.900000
832.670227	193.000000
832.704773	198.800000
832.739380	193.900000
832.773926	191.700000
832.808472	189.800000
832.843079	192.000000
832.877563	195.200000
832.912170	189.600000
832.946716	188.100000
832.981201	195.400000
833.015808	195.300000
833.050293	192.200000
833.084839	190.000000
833.119446	189.900000
833.153992	195.100000
833.188477	190.600000
833.223022	190.700000
833.257568	192.200000
833.292114	196.700000
833.326660	200.900000
833.361145	189.900000
833.395691	184.600000
833.430237	191.700000
833.464783	194.000000
833.499329	189.600000
833.533875	187.000000
833.568359	195.300000
833.602905	195.900000
833.637390	197.500000
833.671875	189.800000
833.706421	191.500000
833.740906	189.300000
833.775452	184.600000
833.809998	189.200000
833.844482	198.700000
833.879028	191.300000
833.913513	190.400000
833.947998	194.000000
833.982544	188.100000
834.017090	189.300000
834.051514	184.500000
834.086060	193.900000
834.120544	190.700000
834.155029	194.300000
834.189575	190.300000
834.223999	193.100000
834.258545	191.700000
834.293030	193.400000
834.327515	190.900000
834.362000	190.900000
834.396545	194.600000
834.430969	191.300000
834.465454	194.900000
834.500000	186.000000
834.534424	192.900000
834.568970	186.100000
834.603455	184.600000
834.637878	189.900000
834.672363	192.400000
834.706909	192.500000
834.741333	190.100000
834.775818	185.800000
834.810242	188.400000
834.844727	192.100000
834.879211	190.200000
834.913635	192.800000
834.948181	192.700000
834.982666	193.000000
835.017090	189.800000
835.051575	193.700000
835.086060	189.500000
835.120483	195.000000
835.154907	193.500000
835.189331	191.300000
835.223816	194.900000
835.258301	187.200000
835.292786	189.700000
835.327209	194.000000
835.361694	189.200000
835.396057	190.000000
835.430542	194.900000
835.465027	192.000000
835.499390	189.300000
835.533875	217.800000
835.568359	190.500000
835.602722	186.300000
835.637207	194.200000
835.671692	186.200000
835.706055	208.000000
835.740540	191.900000
835.774902	193.800000
835.809387	193.300000
835.843811	188.000000
835.878235	195.800000
835.912659	187.600000
835.947083	188.800000
835.981506	192.300000
836.015930	185.200000
836.050354	195.900000
836.084778	198.300000
836.119202	196.300000
836.153625	204.600000
836.187988	189.300000
836.222473	188.800000
836.256897	192.200000
836.291260	189.500000
836.325684	193.700000
836.360046	189.000000
836.394470	191.500000
836.428894	197.100000
836.463318	188.800000
836.497681	194.300000
836.532104	196.400000
836.566467	192.400000
836.600891	190.000000
836.635315	195.000000
836.669678	194.000000
836.704102	195.100000
836.738525	193.800000
836.772888	184.900000
836.807251	191.200000
836.841675	194.100000
836.876038	188.400000
836.910461	189.000000
836.944763	194.900000
836.979187	189.000000
837.013611	195.700000
837.047974	188.200000
837.082336	199.300000
837.116699	194.600000
837.151062	192.600000
837.185486	187.100000
837.219849	189.100000
837.254211	196.200000
837.288574	190.200000
837.322937	187.200000
837.357300	183.800000
837.391663	201.600000
837.426086	195.500000
837.460388	192.200000
837.494751	194.700000
837.529114	189.800000
837.563477	196.000000
837.597839	192.900000
837.632141	189.600000
837.666565	189.000000
837.700928	194.200000
837.735229	193.700000
837.769592	193.800000
837.803955	195.100000
837.838257	190.200000
837.872620	189.400000
837.906982	198.500000
837.941284	190.200000
837.975647	192.800000
838.010010	197.300000
838.044312	190.800000
838.078674	189.300000
838.112976	193.500000
838.147339	195.300000
838.181702	192.400000
838.216003	198.600000
838.250366	192.100000
838.284668	195.100000
838.318970	186.600000
838.353333	191.000000
838.387634	191.400000
838.421936	192.200000
838.456299	193.300000
838.490601	197.800000
838.524902	194.800000
838.559265	196.200000
838.593567	195.200000
838.627869	186.700000
838.662170	193.500000
838.696472	186.000000
838.730774	190.400000
838.765137	193.800000
838.799377	182.000000
838.833740	191.100000
838.868042	196.000000
838.902283	185.500000
838.936646	197.500000
838.970947	192.200000
839.005188	196.800000
839.039551	185.300000
839.073792	196.800000
839.108093	190.300000
839.142395	198.900000
839.176697	186.600000
839.210937	192.500000
839.245300	200.300000
839.279541	187.300000
839.313843	190.400000
839.348145	194.500000
839.382385	195.300000
839.416687	196.600000
839.450989	193.300000
839.485229	191.700000
839.519531	187.800000
839.553833	196.700000
839.588013	191.300000
839.622314	194.100000
839.656555	194.300000
839.690857	191.800000
839.725159	187.700000
839.759460	190.500000
839.793640	189.900000
839.827942	190.500000
839.862183	188.500000
839.896423	192.500000
839.930725	202.800000
839.964966	198.300000
839.999207	197.300000
840.033508	198.700000
840.067688	191.000000
840.101990	197.900000
840.136230	192.500000
840.170471	198.400000
840.204712	189.100000
840.238953	188.000000
840.273193	192.300000
840.307434	194.100000
840.341736	189.300000
840.375916	186.800000
840.410217	189.800000
840.444397	197.000000
840.478638	195.400000
840.512878	196.100000
840.547119	193.400000
840.581360	194.700000
840.615601	199.900000
840.649780	202.000000
840.684021	192.000000
840.718262	199.600000
840.752441	199.100000
840.786682	192.600000
840.820862	193.100000
840.855103	200.000000
840.889343	192.000000
840.923584	195.800000
840.957764	193.400000
840.992004	193.900000
841.026184	202.500000
841.060425	192.100000
841.094666	188.800000
841.128845	194.900000
841.163025	193.100000
841.197266	194.700000
841.231445	192.400000
841.265686	194.900000
841.299866	188.100000
841.334045	198.000000
841.368286	191.100000
841.402405	198.900000
841.436646	192.600000
841.470825	190.900000
841.505005	191.400000
841.539185	188.500000
841.573425	188.800000
841.607544	193.000000
841.641785	191.000000
841.675964	190.000000
841.710144	192.100000
841.744324	189.500000
841.778503	190.600000
841.812683	190.500000
841.846863	197.300000
841.881042	198.900000
841.915222	190.600000
841.949402	204.400000
841.983521	185.900000
842.017700	191.300000
842.051880	190.500000
842.086060	194.600000
842.120239	192.500000
842.154419	188.600000
842.188538	193.800000
842.222717	191.100000
842.256897	200.200000
842.291016	191.900000
842.325195	193.400000
842.359375	201.300000
842.393494	198.400000
842.427673	192.500000
842.461853	194.400000
842.495911	199.600000
842.530090	194.800000
842.564209	192.400000
842.598389	194.500000
842.632568	192.000000
842.666626	195.100000
842.700806	190.700000
842.734985	192.000000
842.769043	194.100000
842.803223	192.200000
842.837402	190.800000
842.871460	190.300000
842.905640	200.200000
842.939697	188.600000
842.973877	193.200000
843.007996	197.900000
843.042175	199.700000
843.076233	190.600000
843.110413	194.000000
843.144470	199.200000
843.178589	196.100000
843.212769	190.500000
843.246826	195.400000
843.280945	191.100000
843.315125	190.200000
843.349182	190.500000
843.383301	196.800000
843.417419	202.500000
843.451538	191.700000
843.485657	189.700000
843.519714	191.300000
843.553833	194.100000
843.587952	189.600000
843.622070	189.900000
843.656128	194.000000
843.690247	190.200000
843.724304	191.800000
843.758423	193.900000
843.792542	190.400000
843.826599	192.400000
843.860718	191.700000
843.894836	186.900000
843.928894	193.000000
843.963013	193.200000
843.997070	189.900000
844.031128	187.900000
844.065247	196.100000
844.099304	195.900000
844.133362	195.100000
844.167480	193.900000
844.201599	197.300000
844.235596	194.100000
844.269714	194.600000
844.303711	193.100000
844.337830	187.000000
844.371948	193.400000
844.405945	192.400000
844.440063	187.800000
844.474121	204.400000
844.508118	189.800000
844.542236	193.100000
844.576294	191.400000
844.610352	188.800000
844.644409	191.300000
844.678406	186.300000
844.712524	196.900000
844.746582	197.700000
844.780640	191.800000
844.814636	191.900000
844.848755	200.900000
844.882751	192.000000
844.916809	194.900000
844.950867	193.100000
844.984863	199.500000
845.018921	191.100000
845.052979	189.900000
845.086975	194.200000
845.121033	187.700000
845.155090	190.200000
845.189087	198.200000
845.223145	190.400000
845.257141	195.200000
845.291199	195.400000
845.325256	197.200000
845.359253	194.000000
845.393250	205.100000
845.427307	192.000000
845.461304	193.500000
845.495361	191.300000
845.529358	200.500000
845.563354	191.100000
845.597412	191.000000
845.631409	199.600000
845.665405	200.400000
845.699463	196.500000
845.733459	190.900000
845.767456	200.000000
845.801453	193.000000
845.835449	196.200000
845.869446	197.100000
845.903503	195.900000
845.937439	189.800000
845.971497	196.900000
846.005493	188.700000
846.039429	194.800000
846.073486	201.200000
846.107483	190.800000
846.141418	191.000000
846.175476	191.600000
846.209473	197.300000
846.243408	189.800000
846.277405	192.800000
846.311401	189.900000
846.345337	192.700000
846.379395	198.000000
846.413330	190.200000
846.447327	201.200000
846.481323	189.400000
846.515259	190.100000
846.549255	192.500000
846.583252	195.500000
846.617187	188.900000
846.651184	194.200000
846.685120	193.100000
846.719055	201.500000
846.753052	196.300000
846.786987	196.000000
846.820984	187.700000
846.854980	198.800000
846.888916	190.400000
846.922852	196.100000
846.956848	197.300000
846.990723	190.700000
847.024719	193.600000
847.058716	191.800000
847.092590	198.700000
847.126587	195.200000
847.160522	189.100000
847.194458	197.100000
847.228455	188.100000
847.262390	188.700000
847.296265	191.200000
847.330261	197.000000
847.364136	190.200000
847.398132	191.900000
847.432068	193.900000
847.466003	191.300000
847.499939	191.500000
847.533875	195.400000
847.567749	190.300000
847.601746	191.700000
847.635681	195.600000
847.669556	186.500000
847.703491	198.500000
847.737427	203.700000
847.771301	189.000000
847.805237	195.400000
847.839233	194.100000
847.873108	192.000000
847.907043	192.900000
847.940918	197.800000
847.974854	194.100000
848.008789	196.000000
848.042664	192.300000
848.076538	194.200000
848.110474	194.200000
848.144348	193.000000
848.178284	189.200000
848.212219	194.100000
848.246094	191.800000
848.279968	193.500000
848.313904	196.300000
848.347778	192.000000
848.381653	193.400000
848.415588	188.800000
848.449463	189.300000
848.483337	194.900000
848.517212	199.800000
848.551086	193.200000
848.585022	189.900000
848.618835	200.700000
848.652771	191.500000
848.686646	188.400000
848.720520	199.400000
848.754395	191.400000
848.788330	195.700000
848.822144	195.400000
848.856018	190.700000
848.889954	200.300000
848.923767	190.600000
848.957642	190.800000
848.991577	194.700000
849.025391	191.900000
849.059265	192.600000
849.093079	190.800000
849.126953	188.800000
849.160828	198.400000
849.194641	193.200000
849.228577	191.400000
849.262451	191.900000
849.296265	192.200000
849.330139	190.200000
849.364014	193.500000
849.397827	194.300000
849.431702	195.200000
849.465515	196.300000
849.499329	187.100000
849.533203	189.600000
849.567078	186.500000
849.600891	194.000000
849.634766	192.800000
849.668518	195.700000
849.702393	193.600000
849.736267	187.700000
849.770020	202.000000
849.803894	194.500000
849.837769	194.600000
849.871521	193.000000
849.905396	194.800000
849.939270	190.300000
849.973022	192.500000
850.006897	194.100000
850.040710	197.200000
850.074524	196.200000
850.108337	192.400000
850.142151	196.900000
850.175964	198.100000
850.209778	192.700000
850.243530	185.300000
850.277405	196.800000
850.311218	192.600000
850.344971	189.700000
850.378845	199.700000
850.412659	190.400000
850.446411	194.700000
850.480225	192.800000
850.514038	197.200000
850.547791	195.200000
850.581665	193.000000
850.615417	189.900000
850.649231	194.000000
850.683044	191.500000
850.716858	192.000000
850.750610	195.400000
850.784424	195.700000
850.818176	188.900000
850.851929	191.600000
850.885742	191.500000
850.919495	191.600000
850.953308	199.300000
850.987122	198.500000
851.020874	189.300000
851.054626	186.700000
851.088440	195.600000
851.122192	196.100000
851.156006	194.300000
851.189697	191.700000
851.223511	187.700000
851.257263	196.700000
851.291077	195.200000
851.324829	191.900000
851.358582	190.700000
851.392334	191.900000
851.426086	190.800000
851.459900	198.200000
851.493591	192.100000
851.527344	191.800000
851.561157	192.900000
851.594849	194.500000
851.628662	193.500000
851.662415	198.700000
851.696106	194.500000
851.729858	195.900000
851.763611	190.400000
851.797363	194.200000
851.831116	189.000000
851.864868	196.200000
851.898560	196.600000
851.932312	191.500000
851.966064	195.400000
851.999817	192.800000
852.033569	191.300000
852.067261	197.000000
852.101013	190.800000
852.134766	191.700000
852.168457	185.200000
852.202209	197.800000
852.235901	187.400000
852.269592	196.700000
852.303345	198.900000
852.337036	195.700000
852.370789	193.300000
852.404541	196.600000
852.438171	188.600000
852.471924	193.900000
852.505676	189.100000
852.539307	194.900000
852.573059	191.100000
852.606812	192.900000
852.640442	190.200000
852.674194	198.400000
852.707886	201.400000
852.741577	199.500000
852.775269	189.600000
852.809021	193.300000
852.842651	194.700000
852.876404	199.800000
852.910034	195.200000
852.943787	196.800000
852.977478	194.700000
853.011108	191.100000
853.044861	189.300000
853.078552	200.100000
853.112183	194.000000
853.145874	193.300000
853.179626	187.200000
853.213257	195.100000
853.246948	190.200000
853.280640	200.000000
853.314270	193.000000
853.347961	198.600000
853.381653	196.200000
853.415283	198.000000
853.448975	190.300000
853.482605	195.000000
853.516296	193.200000
853.549988	188.000000
853.583618	195.800000
853.617310	194.200000
853.651001	195.200000
853.684631	190.100000
853.718323	192.600000
853.751953	198.500000
853.785583	187.200000
853.819275	195.000000
853.852966	195.100000
853.886536	186.800000
853.920227	190.800000
853.953918	196.800000
853.987488	192.400000
854.021179	195.700000
854.054749	200.900000
854.088440	195.100000
854.122131	190.300000
854.155701	194.100000
854.189331	190.300000
854.223022	194.100000
854.256592	195.300000
854.290283	189.800000
854.323914	195.700000
854.357483	193.300000
854.391174	195.200000
854.424744	199.300000
854.458374	193.700000
854.492065	202.800000
854.525696	192.900000
854.559265	197.200000
854.592896	203.000000
854.626465	192.200000
854.660095	193.900000
854.693787	194.300000
854.727356	192.800000
854.760986	196.000000
854.794617	195.700000
854.828186	192.800000
854.861816	195.000000
854.895447	192.900000
854.929016	194.300000
854.962585	194.600000
854.996155	201.400000
855.029785	194.000000
855.063416	192.000000
855.097046	197.700000
855.130615	187.600000
855.164185	197.700000
855.197754	193.600000
855.231384	196.400000
855.264954	191.500000
855.298523	196.700000
855.332153	193.300000
855.365723	198.100000
855.399292	190.800000
855.432922	193.700000
855.466492	194.100000
855.500061	190.400000
855.533630	190.000000
855.567200	196.700000
855.600769	195.900000
855.634338	198.100000
855.667969	193.900000
855.701477	190.100000
855.735046	190.900000
855.768616	186.400000
855.802185	194.500000
855.835754	205.800000
855.869324	187.100000
855.902893	194.000000
855.936401	199.100000
855.969971	193.500000
856.003540	187.600000
856.037109	197.100000
856.070618	193.300000
856.104187	189.300000
856.137695	191.900000
856.171265	186.500000
856.204834	194.600000
856.238403	196.900000
856.271912	192.800000
856.305481	195.800000
856.338989	188.100000
856.372559	196.200000
856.406128	196.400000
856.439636	196.000000
856.473145	191.800000
856.506653	198.800000
856.540222	192.800000
856.573792	198.200000
856.607300	198.100000
856.640808	187.700000
856.674377	194.300000
856.707825	224.500000
856.741394	198.500000
856.774902	189.000000
856.808472	188.300000
856.841980	195.900000
856.875488	197.200000
856.908936	186.300000
856.942505	192.100000
856.976013	190.700000
857.009521	191.300000
857.043030	193.300000
857.076477	192.800000
857.110046	199.300000
857.143555	195.300000
857.177063	193.700000
857.210571	193.100000
857.244080	187.700000
857.277527	195.100000
857.311035	193.600000
857.344543	197.600000
857.378052	192.700000
857.411499	198.800000
857.445068	200.100000
857.478516	192.700000
857.512024	190.300000
857.545532	192.000000
857.578979	194.400000
857.612427	194.300000
857.645874	191.500000
857.679382	192.700000
857.712891	197.300000
857.746399	192.800000
857.779846	197.200000
857.813354	198.600000
857.846741	192.800000
857.880249	189.400000
857.913757	195.000000
857.947266	193.900000
857.980652	195.400000
858.014160	192.600000
858.047546	192.200000
858.081055	192.100000
858.114563	203.600000
858.147949	187.600000
858.181458	193.700000
858.214844	191.000000
858.248352	186.600000
858.281799	195.400000
858.315308	203.100000
858.348694	195.700000
858.382141	199.200000
858.415588	196.100000
858.449036	198.600000
858.482483	194.700000
858.515930	190.800000
858.549377	193.100000
858.582825	198.200000
858.616211	195.200000
858.649658	196.500000
858.683105	188.100000
858.716553	191.300000
858.750000	189.500000
858.783386	191.800000
858.816833	186.200000
858.850281	193.800000
858.883728	193.700000
858.917114	194.100000
858.950562	200.400000
858.983948	198.700000
859.017395	196.700000
859.050781	189.600000
859.084167	190.300000
859.117615	190.000000
859.151062	196.100000
859.184448	189.700000
859.217834	192.500000
859.251282	189.900000
859.284668	190.200000
859.318054	185.100000
859.351440	192.200000
859.384888	199.300000
859.418274	187.200000
859.451721	186.400000
859.485046	194.200000
859.518494	194.400000
859.551819	189.600000
859.585266	195.200000
859.618652	197.900000
859.652039	188.100000
859.685425	188.400000
859.718811	188.500000
859.752197	184.300000
859.785583	196.800000
859.819031	198.400000
859.852356	194.900000
859.885742	190.100000
859.919067	193.000000
859.952454	191.600000
859.985901	196.900000
860.019287	192.500000
860.052612	0.000000
860.085999	0.000000
860.119324	0.000000
860.152710	0.000000
860.186096	0.000000
860.219421	0.000000
860.252808	0.000000
860.286133	0.000000
860.319519	0.000000
860.352905	0.000000
860.386292	0.000000
860.419617	0.000000
860.452942	0.000000
860.486267	0.000000
860.519653	0.000000
860.553040	0.000000
860.586365	0.000000
860.619690	0.000000
860.653076	0.000000
860.686340	0.000000
860.719727	0.000000
860.753113	0.000000
860.786377	0.000000
860.819763	0.000000
860.853027	0.000000
860.886414	0.000000
860.919739	0.000000
860.953125	0.000000
860.986389	0.000000
861.019714	0.000000
861.053040	0.000000
861.086365	0.000000
861.119690	0.000000
861.153076	0.000000
861.186340	0.000000
861.219666	0.000000
861.252930	0.000000
861.286316	0.000000
861.319641	0.000000
861.352905	0.000000
861.386230	0.000000
861.419495	0.000000
861.452820	0.000000
861.486145	0.000000
861.519470	0.000000
861.552734	0.000000
861.586060	0.000000
861.619324	0.000000
861.652649	0.000000
861.685974	0.000000
861.719238	0.000000
861.752563	0.000000
861.785828	0.000000
861.819092	0.000000
861.852417	0.000000
861.885742	0.000000
861.918945	0.000000
861.952271	0.000000
861.985535	0.000000
862.018799	0.000000
862.052124	0.000000
862.085449	0.000000
862.118652	0.000000
862.151978	0.000000
862.185181	0.000000
862.218506	0.000000
862.251770	0.000000
862.285034	0.000000
862.318298	0.000000
862.351562	0.000000
862.384827	0.000000
862.418091	0.000000
862.451355	0.000000
862.484619	0.000000
862.517883	0.000000
862.551086	0.000000
862.584351	0.000000
862.617676	0.000000
862.650940	0.000000
862.684143	0.000000
862.717407	0.000000
862.750610	0.000000
862.783875	0.000000
862.817139	0.000000
862.850342	0.000000
862.883606	0.000000
862.916870	0.000000
862.950073	0.000000
862.983337	0.000000
863.016602	0.000000
863.049805	0.000000
863.083069	0.000000
863.116211	0.000000
863.149475	0.000000
863.182739	0.000000
863.216003	0.000000
863.249146	0.000000
863.282410	0.000000
863.315613	0.000000
863.348816	0.000000
863.382080	0.000000
863.415222	0.000000
863.448486	0.000000
863.481689	0.000000
863.514893	0.000000
863.548157	0.000000
863.581360	0.000000
863.614502	0.000000
863.647766	0.000000
863.680908	0.000000
863.714172	0.000000
863.747375	0.000000
863.780579	0.000000
863.813721	0.000000
863.846985	0.000000
863.880127	0.000000
863.913330	0.000000
863.946533	0.000000
863.979675	0.000000
864.012939	0.000000
