Model Number: SPM-001-M   
Serial Number: 10090201
Firmware Version: 004.17.6
Exposure Time: 300000.000000us
Data Taken on: 21-01-2021 14:44:01.068
Wavelength	Amplitude
733.770752	0.000000
733.808716	0.000000
733.846619	0.000000
733.884583	0.000000
733.922546	0.000000
733.960449	0.000000
733.998413	0.000000
734.036377	0.000000
734.074219	0.000000
734.112183	0.000000
734.150085	0.000000
734.188049	0.000000
734.226013	0.000000
734.263916	0.000000
734.301819	0.000000
734.339783	0.000000
734.377686	0.000000
734.415588	0.000000
734.453552	0.000000
734.491455	0.000000
734.529419	0.000000
734.567322	0.000000
734.605225	0.000000
734.643127	0.000000
734.681091	0.000000
734.718994	0.000000
734.756897	0.000000
734.794800	0.000000
734.832703	0.000000
734.870667	0.000000
734.908508	0.000000
734.946472	0.000000
734.984375	0.000000
735.022278	0.000000
735.060181	0.000000
735.098083	0.000000
735.135986	0.000000
735.173889	0.000000
735.211792	0.000000
735.249695	0.000000
735.287598	0.000000
735.325439	0.000000
735.363403	0.000000
735.401306	0.000000
735.439148	0.000000
735.477051	0.000000
735.515015	0.000000
735.552856	0.000000
735.590759	0.000000
735.628662	0.000000
735.666504	0.000000
735.704407	0.000000
735.742310	0.000000
735.780212	0.000000
735.818115	0.000000
735.856018	0.000000
735.893860	0.000000
735.931763	0.000000
735.969604	0.000000
736.007507	0.000000
736.045410	0.000000
736.083252	0.000000
736.121094	0.000000
736.158997	0.000000
736.196838	0.000000
736.234741	0.000000
736.272644	0.000000
736.310486	0.000000
736.348389	0.000000
736.386230	0.000000
736.424072	0.000000
736.461975	0.000000
736.499878	0.000000
736.537720	0.000000
736.575562	0.000000
736.613403	0.000000
736.651306	0.000000
736.689148	0.000000
736.726990	0.000000
736.764893	0.000000
736.802734	0.000000
736.840576	0.000000
736.878418	0.000000
736.916321	0.000000
736.954102	0.000000
736.992004	0.000000
737.029846	0.000000
737.067688	0.000000
737.105530	0.000000
737.143372	0.000000
737.181213	0.000000
737.219116	0.000000
737.256897	0.000000
737.294739	0.000000
737.332642	0.000000
737.370422	0.000000
737.408325	0.000000
737.446167	0.000000
737.483948	0.000000
737.521790	0.000000
737.559692	0.000000
737.597473	0.000000
737.635315	0.000000
737.673157	0.000000
737.710999	0.000000
737.748840	0.000000
737.786621	0.000000
737.824463	0.000000
737.862305	0.000000
737.900085	0.000000
737.937927	0.000000
737.975769	0.000000
738.013550	0.000000
738.051392	0.000000
738.089233	0.000000
738.127014	0.000000
738.164856	0.000000
738.202698	0.000000
738.240479	0.000000
738.278320	0.000000
738.316162	0.000000
738.353943	0.000000
738.391785	0.000000
738.429565	0.000000
738.467407	0.000000
738.505188	0.000000
738.542969	0.000000
738.580811	0.000000
738.618652	0.000000
738.656372	0.000000
738.694214	0.000000
738.732056	0.000000
738.769836	0.000000
738.807617	0.000000
738.845459	0.000000
738.883240	0.000000
738.921021	0.000000
738.958862	0.000000
738.996582	0.000000
739.034424	0.000000
739.072205	0.000000
739.109985	0.000000
739.147827	0.000000
739.185547	0.000000
739.223389	0.000000
739.261169	0.000000
739.298889	0.000000
739.336731	0.000000
739.374512	0.000000
739.412292	0.000000
739.450073	0.000000
739.487854	0.000000
739.525635	0.000000
739.563416	0.000000
739.601135	0.000000
739.638977	0.000000
739.676758	0.000000
739.714478	0.000000
739.752258	0.000000
739.790100	0.000000
739.827820	0.000000
739.865601	0.000000
739.903381	0.000000
739.941101	0.000000
739.978882	195.100000
740.016724	192.400000
740.054443	194.700000
740.092224	192.300000
740.130005	189.200000
740.167725	191.300000
740.205505	189.800000
740.243225	198.500000
740.281006	192.500000
740.318787	189.300000
740.356506	197.500000
740.394287	196.000000
740.432068	191.100000
740.469727	186.000000
740.507507	194.600000
740.545288	193.400000
740.583008	195.200000
740.620789	192.600000
740.658569	187.300000
740.696228	192.800000
740.734009	197.100000
740.771790	184.300000
740.809509	197.700000
740.847229	188.300000
740.884949	191.000000
740.922729	186.800000
740.960449	192.300000
740.998169	188.700000
741.035950	191.300000
741.073669	191.700000
741.111389	195.100000
741.149170	199.500000
741.186890	200.800000
741.224609	195.000000
741.262329	194.700000
741.300110	199.600000
741.337769	190.300000
741.375549	187.800000
741.413208	194.400000
741.450989	189.300000
741.488708	190.900000
741.526367	190.600000
741.564148	195.700000
741.601868	194.200000
741.639526	192.700000
741.677307	194.100000
741.715027	194.800000
741.752686	190.000000
741.790466	198.600000
741.828186	193.500000
741.865845	189.600000
741.903564	187.600000
741.941345	193.000000
741.979004	188.600000
742.016724	195.900000
742.054382	192.200000
742.092102	196.300000
742.129822	188.700000
742.167480	191.600000
742.205200	191.900000
742.242920	193.600000
742.280640	196.600000
742.318359	188.700000
742.356079	192.000000
742.393738	195.700000
742.431396	191.500000
742.469116	195.900000
742.506775	187.200000
742.544495	194.000000
742.582214	197.000000
742.619873	191.200000
742.657593	200.100000
742.695251	196.400000
742.732971	193.400000
742.770630	194.300000
742.808289	193.700000
742.846008	191.500000
742.883728	194.200000
742.921326	193.600000
742.959045	192.100000
742.996765	190.400000
743.034424	193.600000
743.072083	189.900000
743.109802	192.600000
743.147400	187.800000
743.185120	193.300000
743.222839	193.000000
743.260437	198.300000
743.298157	194.400000
743.335754	187.200000
743.373474	190.700000
743.411133	188.200000
743.448792	192.600000
743.486450	192.700000
743.524170	186.700000
743.561768	191.300000
743.599487	198.100000
743.637146	201.100000
743.674744	192.700000
743.712463	192.000000
743.750122	194.100000
743.787720	194.300000
743.825439	191.000000
743.863037	192.000000
743.900696	193.700000
743.938416	217.900000
743.976013	193.100000
744.013672	198.100000
744.051331	197.600000
744.088928	199.300000
744.126587	199.000000
744.164307	192.800000
744.201904	192.400000
744.239563	193.700000
744.277222	196.600000
744.314819	191.600000
744.352478	197.600000
744.390137	195.100000
744.427734	194.700000
744.465393	189.900000
744.502991	191.300000
744.540649	193.900000
744.578308	193.200000
744.615906	189.000000
744.653564	186.000000
744.691223	194.500000
744.728821	188.800000
744.766418	192.200000
744.804077	196.000000
744.841675	191.400000
744.879333	188.300000
744.916992	191.700000
744.954529	192.800000
744.992187	195.400000
745.029785	191.600000
745.067444	191.400000
745.105042	193.500000
745.142639	195.300000
745.180298	201.500000
745.217896	191.100000
745.255493	191.800000
745.293152	195.600000
745.330750	196.100000
745.368347	198.700000
745.405945	194.200000
745.443604	194.000000
745.481140	195.500000
745.518799	193.500000
745.556396	194.800000
745.593994	195.500000
745.631592	192.400000
745.669189	190.300000
745.706787	193.300000
745.744385	190.400000
745.781982	194.200000
745.819580	192.300000
745.857178	191.900000
745.894775	193.300000
745.932373	194.100000
745.969971	195.400000
746.007568	185.400000
746.045166	199.200000
746.082764	198.500000
746.120300	195.900000
746.157898	193.500000
746.195557	193.600000
746.233093	188.200000
746.270691	194.200000
746.308228	194.800000
746.345825	196.300000
746.383423	195.400000
746.420959	190.300000
746.458557	190.100000
746.496155	192.100000
746.533691	195.500000
746.571289	189.600000
746.608887	192.000000
746.646423	192.800000
746.684021	194.600000
746.721619	190.900000
746.759155	195.500000
746.796753	187.800000
746.834351	189.400000
746.871826	189.500000
746.909424	198.500000
746.946960	192.500000
746.984558	193.300000
747.022156	189.900000
747.059631	199.800000
747.097229	194.200000
747.134827	192.700000
747.172363	196.800000
747.209900	197.200000
747.247498	188.400000
747.285034	198.400000
747.322571	197.400000
747.360168	193.500000
747.397644	186.400000
747.435242	196.600000
747.472778	196.700000
747.510315	191.600000
747.547913	191.100000
747.585388	198.400000
747.622925	190.700000
747.660522	188.100000
747.697998	190.500000
747.735596	191.900000
747.773132	190.400000
747.810669	193.100000
747.848206	194.700000
747.885742	189.300000
747.923279	186.700000
747.960815	193.400000
747.998352	194.400000
748.035889	197.400000
748.073425	195.600000
748.110901	193.000000
748.148437	189.700000
748.185974	193.200000
748.223511	201.800000
748.261047	194.400000
748.298584	194.200000
748.336060	193.100000
748.373596	195.800000
748.411133	217.100000
748.448608	191.300000
748.486145	195.800000
748.523682	198.600000
748.561218	199.000000
748.598755	195.100000
748.636292	193.900000
748.673706	193.000000
748.711243	199.000000
748.748718	194.900000
748.786255	193.000000
748.823792	194.000000
748.861267	188.500000
748.898804	197.100000
748.936340	193.000000
748.973816	191.800000
749.011292	198.000000
749.048828	194.100000
749.086304	194.000000
749.123840	201.400000
749.161316	188.900000
749.198792	200.700000
749.236328	197.100000
749.273743	192.900000
749.311279	192.500000
749.348816	198.400000
749.386230	193.600000
749.423767	184.000000
749.461304	195.700000
749.498718	193.500000
749.536255	197.100000
749.573730	202.500000
749.611206	198.600000
749.648682	192.000000
749.686218	193.500000
749.723633	195.300000
749.761169	192.400000
749.798645	189.600000
749.836060	192.700000
749.873596	188.500000
749.911011	196.200000
749.948547	196.900000
749.986023	193.300000
750.023437	192.600000
750.060913	189.600000
750.098450	187.500000
750.135864	194.100000
750.173340	192.200000
750.210815	196.900000
750.248291	189.800000
750.285767	194.400000
750.323242	196.600000
750.360657	196.700000
750.398132	188.200000
750.435608	195.900000
750.473022	190.500000
750.510498	190.700000
750.547974	189.400000
750.585449	193.300000
750.622925	183.400000
750.660339	203.300000
750.697815	192.900000
750.735291	193.000000
750.772644	191.300000
750.810120	195.300000
750.847595	193.400000
750.885010	189.400000
750.922485	198.900000
750.959961	192.600000
750.997375	198.000000
751.034851	195.700000
751.072266	195.900000
751.109680	188.200000
751.147156	197.800000
751.184570	194.500000
751.221985	193.000000
751.259460	187.100000
751.296875	193.400000
751.334290	191.900000
751.371765	197.000000
751.409180	195.700000
751.446594	199.000000
751.484070	194.700000
751.521423	195.900000
751.558899	193.600000
751.596375	202.400000
751.633728	197.800000
751.671204	202.000000
751.708618	188.400000
751.746033	195.500000
751.783447	187.700000
751.820801	192.900000
751.858276	196.000000
751.895691	193.100000
751.933105	189.600000
751.970520	189.500000
752.007935	189.300000
752.045349	199.100000
752.082764	193.100000
752.120178	192.000000
752.157532	189.600000
752.195007	191.800000
752.232422	195.000000
752.269775	197.000000
752.307190	194.300000
752.344543	189.700000
752.382019	192.800000
752.419434	191.800000
752.456787	194.700000
752.494202	197.800000
752.531616	193.800000
752.568970	196.800000
752.606384	196.100000
752.643799	194.900000
752.681152	199.400000
752.718567	195.400000
752.755981	187.600000
752.793335	196.000000
752.830750	188.200000
752.868164	196.300000
752.905518	190.400000
752.942932	196.400000
752.980225	190.900000
753.017639	195.300000
753.055054	196.800000
753.092407	194.700000
753.129822	198.500000
753.167175	199.700000
753.204529	194.000000
753.241943	189.800000
753.279358	191.900000
753.316650	196.200000
753.354065	196.100000
753.391479	195.600000
753.428772	200.400000
753.466187	193.900000
753.503479	189.800000
753.540894	191.300000
753.578308	189.300000
753.615601	188.000000
753.653015	193.400000
753.690369	190.200000
753.727722	190.600000
753.765076	187.200000
753.802490	190.300000
753.839783	187.000000
753.877136	191.600000
753.914551	202.600000
753.951843	189.800000
753.989258	196.200000
754.026611	193.900000
754.063904	195.000000
754.101257	189.000000
754.138611	187.500000
754.175964	194.900000
754.213318	200.400000
754.250610	188.000000
754.288025	192.600000
754.325378	188.800000
754.362671	196.300000
754.400024	193.400000
754.437378	200.700000
754.474670	200.600000
754.512085	192.300000
754.549438	193.600000
754.586731	192.400000
754.624084	192.000000
754.661438	190.400000
754.698730	198.900000
754.736084	193.100000
754.773376	192.000000
754.810730	196.400000
754.848083	191.800000
754.885315	196.800000
754.922668	187.300000
754.960022	191.000000
754.997314	195.200000
755.034668	193.900000
755.072021	193.900000
755.109253	191.700000
755.146606	196.300000
755.183960	193.500000
755.221252	197.700000
755.258545	196.200000
755.295898	199.100000
755.333191	197.900000
755.370544	193.500000
755.407776	195.000000
755.445129	193.600000
755.482422	197.600000
755.519714	192.600000
755.557068	189.000000
755.594360	187.400000
755.631653	196.500000
755.668945	200.000000
755.706299	196.000000
755.743530	203.200000
755.780884	201.100000
755.818176	197.800000
755.855408	197.800000
755.892761	196.500000
755.930054	193.800000
755.967346	197.200000
756.004639	195.500000
756.041870	195.100000
756.079224	198.800000
756.116516	192.400000
756.153748	196.000000
756.191040	202.100000
756.228394	196.400000
756.265625	191.600000
756.302917	194.800000
756.340210	194.000000
756.377441	198.200000
756.414795	202.300000
756.452087	194.100000
756.489319	191.400000
756.526611	198.300000
756.563843	196.100000
756.601135	200.900000
756.638428	205.600000
756.675659	194.300000
756.712952	198.300000
756.750244	197.500000
756.787476	197.100000
756.824768	199.800000
756.862061	194.500000
756.899292	242.900000
756.936584	198.900000
756.973816	203.400000
757.011047	205.700000
757.048340	195.700000
757.085632	195.900000
757.122864	208.900000
757.160156	195.400000
757.197327	198.800000
757.234619	201.200000
757.271912	196.800000
757.309082	200.100000
757.346375	195.900000
757.383667	202.600000
757.420837	198.200000
757.458130	198.300000
757.495422	197.000000
757.532593	199.600000
757.569885	194.100000
757.607117	194.400000
757.644348	199.800000
757.681580	209.400000
757.718811	191.300000
757.756042	197.500000
757.793335	195.500000
757.830505	198.300000
757.867798	195.900000
757.905029	194.900000
757.942200	199.400000
757.979492	194.500000
758.016724	196.400000
758.053894	197.000000
758.091187	212.900000
758.128418	196.200000
758.165588	197.900000
758.202820	206.200000
758.240112	199.900000
758.277283	206.300000
758.314514	201.100000
758.351685	196.200000
758.388916	206.100000
758.426147	204.300000
758.463379	206.700000
758.500610	199.700000
758.537842	199.600000
758.575012	205.700000
758.612244	196.700000
758.649475	209.300000
758.686646	195.300000
758.723877	205.200000
758.761108	205.300000
758.798279	200.500000
758.835510	201.000000
758.872742	206.200000
758.909851	201.500000
758.947083	203.100000
758.984253	202.300000
759.021484	206.000000
759.058716	204.000000
759.095886	204.900000
759.133057	200.600000
759.170288	205.300000
759.207458	199.900000
759.244690	212.300000
759.281860	208.500000
759.319031	204.100000
759.356262	200.000000
759.393433	202.800000
759.430603	200.100000
759.467773	203.600000
759.505005	206.400000
759.542175	208.700000
759.579346	200.800000
759.616516	203.500000
759.653687	207.000000
759.690918	201.800000
759.728027	203.700000
759.765259	207.700000
759.802429	206.500000
759.839539	207.200000
759.876770	210.100000
759.913940	212.300000
759.951111	206.300000
759.988281	207.100000
760.025452	203.500000
760.062561	202.800000
760.099792	214.100000
760.136963	208.900000
760.174072	205.500000
760.211243	202.800000
760.248413	202.900000
760.285583	202.800000
760.322754	215.000000
760.359863	210.100000
760.397034	212.000000
760.434204	206.300000
760.471375	207.700000
760.508545	205.800000
760.545715	208.200000
760.582825	202.300000
760.619995	211.000000
760.657166	203.200000
760.694275	214.000000
760.731445	207.300000
760.768555	210.200000
760.805664	209.500000
760.842834	209.500000
760.879944	210.200000
760.917114	209.600000
760.954285	206.900000
760.991394	206.100000
761.028564	212.100000
761.065674	211.200000
761.102783	205.500000
761.139954	213.000000
761.177124	210.200000
761.214172	215.600000
761.251343	207.100000
761.288452	209.800000
761.325562	212.700000
761.362732	207.100000
761.399841	208.500000
761.436951	211.100000
761.474121	206.300000
761.511169	210.800000
761.548340	214.200000
761.585449	213.800000
761.622559	214.900000
761.659668	212.500000
761.696838	216.000000
761.733887	213.900000
761.771057	210.600000
761.808167	213.100000
761.845276	216.900000
761.882385	220.200000
761.919434	213.900000
761.956604	226.500000
761.993713	211.200000
762.030762	216.800000
762.067871	213.800000
762.105042	211.900000
762.142090	221.000000
762.179199	214.500000
762.216309	220.500000
762.253418	224.500000
762.290527	222.900000
762.327637	219.000000
762.364685	212.700000
762.401794	218.700000
762.438904	219.200000
762.475952	211.000000
762.513062	212.700000
762.550110	211.500000
762.587219	224.700000
762.624329	222.200000
762.661377	220.900000
762.698486	217.100000
762.735596	217.500000
762.772644	212.900000
762.809753	212.200000
762.846863	216.100000
762.883911	222.000000
762.921021	219.700000
762.958069	218.000000
762.995117	223.600000
763.032227	225.700000
763.069336	216.900000
763.106323	215.900000
763.143433	215.300000
763.180481	220.700000
763.217590	220.900000
763.254639	219.400000
763.291687	219.900000
763.328735	225.900000
763.365845	220.100000
763.402893	218.100000
763.439941	222.400000
763.477051	224.400000
763.514038	223.900000
763.551147	221.200000
763.588196	224.300000
763.625244	221.100000
763.662292	228.900000
763.699402	228.800000
763.736389	225.000000
763.773499	232.900000
763.810486	228.300000
763.847534	224.400000
763.884644	228.200000
763.921631	223.500000
763.958679	233.700000
763.995728	225.200000
764.032776	232.100000
764.069824	221.500000
764.106873	230.400000
764.143860	231.900000
764.180969	225.700000
764.218018	233.900000
764.255005	227.300000
764.292053	226.100000
764.329102	237.900000
764.366089	235.900000
764.403137	233.400000
764.440125	228.600000
764.477173	232.200000
764.514221	232.700000
764.551208	231.500000
764.588257	229.000000
764.625305	235.700000
764.662292	240.600000
764.699341	241.700000
764.736389	236.300000
764.773376	247.300000
764.810425	239.600000
764.847473	243.400000
764.884399	240.400000
764.921448	247.600000
764.958435	245.800000
764.995483	238.800000
765.032532	248.900000
765.069458	237.900000
765.106506	242.400000
765.143555	238.500000
765.180481	241.000000
765.217529	248.800000
765.254578	238.800000
765.291504	243.400000
765.328552	244.100000
765.365540	240.300000
765.402527	253.700000
765.439575	240.200000
765.476501	239.500000
765.513550	238.300000
765.550537	245.300000
765.587463	248.800000
765.624512	242.800000
765.661499	237.000000
765.698486	251.700000
765.735474	242.300000
765.772461	246.800000
765.809448	250.000000
765.846436	250.500000
765.883423	253.300000
765.920410	248.500000
765.957397	243.600000
765.994385	249.700000
766.031311	255.600000
766.068359	251.300000
766.105286	251.200000
766.142273	256.700000
766.179260	252.000000
766.216187	249.500000
766.253174	245.900000
766.290161	253.500000
766.327148	255.400000
766.364136	255.600000
766.401123	265.500000
766.438049	249.700000
766.475037	261.700000
766.512024	257.900000
766.548950	269.700000
766.585937	262.200000
766.622864	259.900000
766.659790	258.900000
766.696777	252.300000
766.733704	261.900000
766.770691	255.100000
766.807678	265.100000
766.844604	262.300000
766.881531	260.100000
766.918518	267.300000
766.955444	265.900000
766.992432	262.000000
767.029358	264.200000
767.066284	267.600000
767.103271	263.600000
767.140198	297.600000
767.177124	273.900000
767.214050	267.600000
767.251038	268.800000
767.287964	267.100000
767.324890	263.200000
767.361816	267.600000
767.398743	270.300000
767.435730	266.500000
767.472595	268.600000
767.509583	273.700000
767.546509	265.800000
767.583374	272.200000
767.620361	264.400000
767.657288	270.800000
767.694214	269.100000
767.731140	269.300000
767.768066	269.700000
767.804993	272.800000
767.841919	266.600000
767.878845	272.000000
767.915710	277.600000
767.952698	271.800000
767.989563	276.200000
768.026489	275.000000
768.063416	270.000000
768.100281	269.600000
768.137207	281.300000
768.174133	277.600000
768.211060	278.000000
768.247986	275.300000
768.284912	274.900000
768.321777	276.100000
768.358704	276.600000
768.395630	276.900000
768.432495	275.400000
768.469421	276.900000
768.506348	283.100000
768.543152	284.700000
768.580078	283.700000
768.616943	284.800000
768.653870	287.200000
768.690796	282.000000
768.727661	283.000000
768.764587	284.600000
768.801453	281.000000
768.838318	286.300000
768.875244	286.500000
768.912109	289.500000
768.948975	283.700000
768.985901	286.300000
769.022766	286.800000
769.059631	289.500000
769.096558	287.400000
769.133362	286.000000
769.170288	288.700000
769.207214	289.000000
769.244019	293.700000
769.280945	291.400000
769.317810	299.200000
769.354675	294.800000
769.391541	298.900000
769.428406	294.900000
769.465271	301.900000
769.502136	295.300000
769.539062	299.900000
769.575867	297.600000
769.612732	299.100000
769.649597	303.800000
769.686462	304.200000
769.723328	302.500000
769.760193	298.400000
769.797058	305.000000
769.833923	309.000000
769.870728	306.200000
769.907593	307.900000
769.944519	305.600000
769.981323	309.300000
770.018188	310.900000
770.055054	309.800000
770.091858	310.700000
770.128723	315.400000
770.165588	321.500000
770.202393	311.400000
770.239258	320.900000
770.276062	316.100000
770.312927	320.500000
770.349792	322.800000
770.386597	322.100000
770.423462	331.000000
770.460327	335.800000
770.497131	324.600000
770.533997	319.400000
770.570862	331.200000
770.607605	333.300000
770.644470	329.600000
770.681335	331.600000
770.718140	332.700000
770.754944	329.500000
770.791809	328.400000
770.828613	329.600000
770.865479	331.400000
770.902222	338.200000
770.939087	336.500000
770.975952	326.500000
771.012695	331.300000
771.049561	342.500000
771.086365	337.400000
771.123169	334.100000
771.159973	336.400000
771.196838	337.300000
771.233582	340.300000
771.270447	338.800000
771.307251	346.900000
771.344055	339.400000
771.380859	344.000000
771.417664	339.900000
771.454468	346.200000
771.491272	342.600000
771.528076	347.100000
771.564880	341.900000
771.601685	351.900000
771.638428	344.600000
771.675293	351.300000
771.712097	342.300000
771.748840	357.300000
771.785645	348.800000
771.822449	352.900000
771.859253	356.200000
771.896057	354.200000
771.932861	358.100000
771.969604	357.200000
772.006409	351.600000
772.043213	359.600000
772.079956	357.800000
772.116760	354.000000
772.153503	356.500000
772.190308	368.500000
772.227112	359.500000
772.263855	353.900000
772.300659	359.100000
772.337463	362.600000
772.374207	355.500000
772.411011	354.400000
772.447754	360.700000
772.484497	372.400000
772.521301	366.500000
772.558105	364.100000
772.594849	363.600000
772.631592	367.600000
772.668396	367.700000
772.705139	369.900000
772.741882	366.400000
772.778625	374.100000
772.815430	378.200000
772.852173	373.900000
772.888916	381.600000
772.925720	382.000000
772.962463	389.800000
772.999207	380.600000
773.035950	384.100000
773.072754	384.500000
773.109436	383.700000
773.146240	381.800000
773.182922	381.000000
773.219727	385.500000
773.256470	384.500000
773.293152	376.100000
773.329956	383.700000
773.366699	384.900000
773.403381	380.300000
773.440186	385.300000
773.476929	390.400000
773.513611	387.100000
773.550354	383.900000
773.587158	384.900000
773.623840	380.400000
773.660583	386.100000
773.697327	395.100000
773.734009	391.600000
773.770813	390.800000
773.807495	386.200000
773.844238	390.400000
773.880981	404.300000
773.917664	396.900000
773.954407	401.300000
773.991150	396.100000
774.027832	401.000000
774.064575	390.000000
774.101318	397.400000
774.138000	402.800000
774.174744	399.400000
774.211487	398.600000
774.248108	393.900000
774.284851	392.000000
774.321594	403.800000
774.358276	402.900000
774.395020	409.900000
774.431702	404.900000
774.468384	399.200000
774.505127	398.600000
774.541809	407.300000
774.578491	407.700000
774.615234	413.300000
774.651917	404.500000
774.688599	410.300000
774.725342	415.600000
774.762024	414.700000
774.798706	416.000000
774.835449	422.800000
774.872070	423.900000
774.908813	424.300000
774.945496	420.900000
774.982178	423.000000
775.018860	425.400000
775.055542	425.700000
775.092224	424.500000
775.128967	430.700000
775.165588	431.500000
775.202271	426.500000
775.239014	433.700000
775.275635	432.100000
775.312317	431.000000
775.349060	435.000000
775.385681	441.100000
775.422363	431.900000
775.459045	438.500000
775.495667	441.500000
775.532410	446.500000
775.569092	444.200000
775.605713	446.000000
775.642395	441.700000
775.679016	445.900000
775.715698	446.100000
775.752380	449.400000
775.789001	444.100000
775.825684	448.600000
775.862366	452.800000
775.898987	459.900000
775.935669	450.100000
775.972351	471.500000
776.008972	463.800000
776.045654	470.300000
776.082336	461.200000
776.118958	464.100000
776.155640	468.800000
776.192322	475.300000
776.228882	476.300000
776.265564	478.100000
776.302185	473.900000
776.338867	479.900000
776.375488	474.300000
776.412109	481.500000
776.448792	485.500000
776.485413	492.600000
776.522034	484.400000
776.558716	486.000000
776.595337	482.000000
776.631958	485.200000
776.668579	484.300000
776.705261	493.600000
776.741882	492.200000
776.778503	491.100000
776.815186	489.800000
776.851746	495.800000
776.888367	491.700000
776.924988	502.600000
776.961609	496.300000
776.998291	497.500000
777.034851	493.100000
777.071472	499.000000
777.108154	498.700000
777.144714	508.800000
777.181335	507.800000
777.218018	502.400000
777.254578	509.700000
777.291199	505.500000
777.327759	512.900000
777.364380	515.700000
777.401062	525.900000
777.437622	531.600000
777.474243	524.200000
777.510864	522.200000
777.547424	520.900000
777.584045	525.200000
777.620667	527.200000
777.657227	527.400000
777.693848	530.500000
777.730469	537.500000
777.767029	531.300000
777.803650	532.800000
777.840271	527.200000
777.876831	526.700000
777.913452	538.500000
777.950012	526.000000
777.986633	528.500000
778.023193	525.300000
778.059753	526.700000
778.096375	531.600000
778.132996	542.000000
778.169556	533.000000
778.206116	535.300000
778.242737	531.900000
778.279297	539.000000
778.315857	531.100000
778.352478	536.000000
778.389038	544.700000
778.425598	543.300000
778.462219	549.200000
778.498718	544.400000
778.535339	551.200000
778.571838	551.300000
778.608459	552.400000
778.645020	545.600000
778.681580	551.900000
778.718140	555.800000
778.754761	550.700000
778.791260	550.000000
778.827881	560.400000
778.864441	553.200000
778.900940	564.000000
778.937561	563.700000
778.974121	564.900000
779.010620	553.400000
779.047241	557.400000
779.083801	566.600000
779.120300	565.600000
779.156860	566.100000
779.193359	563.900000
779.229980	561.700000
779.266541	570.200000
779.303040	572.200000
779.339600	565.600000
779.376160	560.800000
779.412659	565.200000
779.449219	564.300000
779.485779	569.300000
779.522278	565.300000
779.558838	571.400000
779.595398	571.600000
779.631897	567.100000
779.668457	558.100000
779.705017	571.600000
779.741516	562.000000
779.778076	556.600000
779.814575	558.700000
779.851074	559.300000
779.887634	559.300000
779.924133	565.300000
779.960693	557.100000
779.997253	565.500000
780.033691	567.800000
780.070251	565.400000
780.106812	571.400000
780.143250	562.900000
780.179810	559.100000
780.216370	548.500000
780.252808	539.200000
780.289368	507.400000
780.325867	441.200000
780.362366	358.600000
780.398865	304.800000
780.435364	259.400000
780.471863	271.400000
780.508423	275.100000
780.544861	278.700000
780.581421	260.600000
780.617920	234.400000
780.654419	213.600000
780.690918	211.900000
780.727417	210.600000
780.763916	210.000000
780.800415	213.000000
780.836914	208.500000
780.873352	219.900000
780.909912	213.700000
780.946411	212.900000
780.982849	211.900000
781.019348	211.200000
781.055786	204.700000
781.092346	206.500000
781.128845	215.100000
781.165283	216.800000
781.201782	218.900000
781.238281	213.900000
781.274719	207.400000
781.311218	202.700000
781.347717	211.100000
781.384155	199.800000
781.420654	201.700000
781.457092	209.200000
781.493591	206.600000
781.530090	210.600000
781.566528	226.100000
781.602966	245.200000
781.639465	245.000000
781.675903	238.800000
781.712402	225.700000
781.748901	215.500000
781.785278	202.600000
781.821777	207.000000
781.858276	200.400000
781.894714	210.300000
781.931152	201.000000
781.967651	210.100000
782.004089	200.600000
782.040527	208.700000
782.076965	209.700000
782.113403	212.300000
782.149902	214.400000
782.186340	210.500000
782.222778	215.100000
782.259277	205.200000
782.295654	201.600000
782.332092	204.400000
782.368591	203.300000
782.404968	204.700000
782.441467	208.500000
782.477905	210.400000
782.514282	207.800000
782.550781	216.700000
782.587219	212.300000
782.623596	214.700000
782.660095	215.800000
782.696472	221.400000
782.732910	231.200000
782.769348	254.700000
782.805786	299.300000
782.842224	314.600000
782.878662	307.900000
782.915039	295.700000
782.951477	299.500000
782.987915	348.000000
783.024292	452.300000
783.060730	555.900000
783.097168	631.400000
783.133545	671.700000
783.169983	689.000000
783.206421	687.500000
783.242798	688.300000
783.279236	687.200000
783.315613	690.600000
783.352051	691.900000
783.388489	689.200000
783.424866	679.700000
783.461304	691.400000
783.497681	698.000000
783.534058	701.600000
783.570496	695.500000
783.606934	694.100000
783.643250	704.000000
783.679687	709.400000
783.716125	701.500000
783.752441	714.100000
783.788879	724.500000
783.825317	735.100000
783.861633	741.300000
783.898071	748.900000
783.934448	760.000000
783.970825	768.300000
784.007263	769.500000
784.043579	775.800000
784.080017	777.100000
784.116394	772.900000
784.152710	770.700000
784.189148	776.100000
784.225525	776.500000
784.261902	774.600000
784.298279	763.600000
784.334656	761.700000
784.371033	759.900000
784.407410	763.800000
784.443787	752.100000
784.480164	738.300000
784.516541	722.500000
784.552856	724.900000
784.589233	725.300000
784.625610	724.300000
784.661987	746.000000
784.698364	738.000000
784.734741	738.300000
784.771057	730.600000
784.807434	739.700000
784.843811	750.400000
784.880127	751.300000
784.916504	767.000000
784.952881	773.100000
784.989197	769.900000
785.025574	778.000000
785.061951	783.800000
785.098267	798.700000
785.134644	802.000000
785.170959	800.600000
785.207275	801.300000
785.243652	794.400000
785.279968	777.500000
785.316345	776.800000
785.352722	780.800000
785.388977	774.700000
785.425354	766.400000
785.461731	751.200000
785.498047	741.200000
785.534363	734.300000
785.570679	734.900000
785.606995	739.300000
785.643372	745.400000
785.679687	736.800000
785.716003	725.900000
785.752380	726.100000
785.788635	734.600000
785.825012	746.800000
785.861328	752.100000
785.897644	746.900000
785.933960	756.000000
785.970337	758.400000
786.006592	779.200000
786.042908	776.500000
786.079285	791.300000
786.115540	795.700000
786.151855	799.100000
786.188171	800.400000
786.224487	812.100000
786.260803	805.000000
786.297119	802.700000
786.333435	803.600000
786.369751	804.400000
786.406006	801.400000
786.442322	785.600000
786.478638	777.100000
786.514954	783.300000
786.551270	771.800000
786.587585	783.200000
786.623840	770.900000
786.660156	767.200000
786.696472	760.300000
786.732727	757.500000
786.769043	759.600000
786.805298	753.700000
786.841614	759.300000
786.877930	767.400000
786.914124	754.800000
786.950439	777.200000
786.986755	778.600000
787.023010	787.700000
787.059326	800.700000
787.095642	803.400000
787.131836	817.700000
787.168152	815.000000
787.204468	826.500000
787.240723	837.400000
787.276978	840.000000
787.313293	846.900000
787.349548	838.000000
787.385803	844.400000
787.422058	845.800000
787.458313	840.500000
787.494629	835.400000
787.530823	832.400000
787.567139	826.000000
787.603455	813.300000
787.639648	806.600000
787.675903	806.100000
787.712219	802.900000
787.748413	801.700000
787.784729	818.400000
787.820984	797.200000
787.857178	792.800000
787.893494	793.200000
787.929749	790.800000
787.965942	801.700000
788.002258	809.200000
788.038452	823.300000
788.074707	821.300000
788.110962	822.700000
788.147217	827.300000
788.183472	833.700000
788.219727	852.400000
788.255920	858.300000
788.292175	870.500000
788.328430	865.600000
788.364624	846.800000
788.400879	851.100000
788.437134	853.300000
788.473328	862.700000
788.509583	871.800000
788.545837	862.800000
788.582031	855.300000
788.618286	854.700000
788.654480	846.000000
788.690735	859.500000
788.726990	877.900000
788.763184	871.700000
788.799377	875.600000
788.835632	874.200000
788.871826	880.100000
788.908081	872.800000
788.944336	871.500000
788.980469	893.200000
789.016724	886.200000
789.052979	888.700000
789.089111	874.300000
789.125366	882.500000
789.161621	867.600000
789.197754	882.400000
789.234009	876.900000
789.270142	875.200000
789.306396	865.000000
789.342590	870.600000
789.378784	852.400000
789.414978	844.300000
789.451233	847.500000
789.487366	850.600000
789.523621	861.200000
789.559814	859.000000
789.595947	850.500000
789.632202	861.900000
789.668335	870.600000
789.704529	888.100000
789.740784	897.400000
789.776917	899.200000
789.813110	891.100000
789.849304	901.100000
789.885498	903.600000
789.921692	917.800000
789.957886	930.300000
789.994019	929.200000
790.030212	944.300000
790.066406	940.100000
790.102539	926.300000
790.138733	931.000000
790.174927	927.800000
790.211060	950.100000
790.247253	948.300000
790.283386	946.700000
790.319580	932.400000
790.355774	905.900000
790.391907	904.300000
790.428101	922.800000
790.464294	921.700000
790.500427	921.700000
790.536621	916.100000
790.572754	896.500000
790.608887	894.900000
790.645081	900.500000
790.681274	913.400000
790.717346	906.400000
790.753540	900.200000
790.789734	881.400000
790.825867	879.200000
790.862000	876.700000
790.898132	886.600000
790.934265	891.100000
790.970459	888.700000
791.006592	884.300000
791.042725	881.300000
791.078918	870.300000
791.114990	871.900000
791.151184	872.600000
791.187317	886.500000
791.223389	894.000000
791.259583	885.600000
791.295715	879.500000
791.331848	878.600000
791.367981	889.800000
791.404114	904.000000
791.440247	907.900000
791.476379	919.000000
791.512451	892.800000
791.548584	884.000000
791.584778	871.700000
791.620850	889.000000
791.656982	900.500000
791.693115	889.200000
791.729187	886.300000
791.765381	894.600000
791.801514	892.000000
791.837585	890.000000
791.873718	896.300000
791.909851	906.400000
791.945923	913.500000
791.982056	891.500000
792.018188	891.000000
792.054260	890.500000
792.090393	884.400000
792.126465	880.000000
792.162598	891.800000
792.198669	882.900000
792.234741	884.100000
792.270874	861.700000
792.307007	853.800000
792.343079	860.300000
792.379150	870.900000
792.415283	865.700000
792.451355	867.000000
792.487488	840.800000
792.523560	841.800000
792.559631	833.500000
792.595764	807.100000
792.631836	777.300000
792.667908	757.300000
792.703979	728.700000
792.740051	738.100000
792.776184	767.800000
792.812256	789.600000
792.848328	803.300000
792.884399	814.600000
792.920471	812.700000
792.956543	809.800000
792.992615	809.000000
793.028748	806.600000
793.064758	813.500000
793.100830	828.700000
793.136963	839.300000
793.172974	843.700000
793.209045	832.500000
793.245178	840.600000
793.281189	827.500000
793.317261	833.500000
793.353271	834.900000
793.389404	848.400000
793.425476	850.000000
793.461487	832.100000
793.497559	825.200000
793.533630	823.800000
793.569641	824.700000
793.605713	832.400000
793.641785	838.000000
793.677795	840.200000
793.713867	839.800000
793.749878	839.100000
793.785950	849.400000
793.822021	858.400000
793.858032	850.100000
793.894104	856.500000
793.930176	852.100000
793.966187	856.500000
794.002258	853.500000
794.038269	852.800000
794.074280	855.100000
794.110352	873.200000
794.146423	862.100000
794.182373	859.800000
794.218445	850.400000
794.254517	841.500000
794.290466	827.100000
794.326538	835.400000
794.362549	847.200000
794.398560	850.200000
794.434631	845.900000
794.470581	820.200000
794.506653	812.600000
794.542664	816.100000
794.578674	825.000000
794.614685	821.400000
794.650757	823.200000
794.686707	825.400000
794.722778	813.200000
794.758789	820.200000
794.794739	825.700000
794.830811	859.700000
794.866821	874.700000
794.902771	879.800000
794.938843	871.400000
794.974792	866.100000
795.010803	864.200000
795.046814	866.900000
795.082825	862.900000
795.118835	884.700000
795.154846	863.500000
795.190796	862.100000
795.226807	850.100000
795.262817	852.800000
795.298767	845.400000
795.334778	859.000000
795.370850	849.600000
795.406799	850.400000
795.442810	829.100000
795.478821	832.400000
795.514709	830.500000
795.550720	861.100000
795.586670	840.700000
795.622681	844.500000
795.658691	848.400000
795.694641	845.100000
795.730652	832.000000
795.766663	844.600000
795.802551	850.700000
795.838562	863.000000
795.874573	848.900000
795.910522	852.000000
795.946472	844.200000
795.982483	857.100000
796.018433	849.300000
796.054382	854.500000
796.090393	844.900000
796.126282	837.600000
796.162292	827.900000
796.198242	826.400000
796.234192	823.700000
796.270203	824.600000
796.306091	825.500000
796.342041	841.800000
796.378052	830.300000
796.413940	831.900000
796.449951	826.200000
796.485901	830.300000
796.521790	839.000000
796.557800	850.800000
796.593689	855.400000
796.629639	846.100000
796.665649	843.300000
796.701599	833.900000
796.737488	840.900000
796.773437	844.700000
796.809387	849.400000
796.845337	853.400000
796.881287	848.400000
796.917175	828.300000
796.953125	829.900000
796.989075	833.100000
797.024963	831.200000
797.060913	834.900000
797.096863	833.000000
797.132751	828.200000
797.168701	819.100000
797.204590	818.400000
797.240540	820.900000
797.276489	825.000000
797.312439	823.700000
797.348328	829.200000
797.384277	822.000000
797.420166	808.300000
797.456055	812.700000
797.492004	808.500000
797.527893	817.200000
797.563843	819.100000
797.599731	818.900000
797.635620	806.300000
797.671570	811.000000
797.707520	817.100000
797.743347	816.000000
797.779297	816.900000
797.815125	819.900000
797.851074	817.100000
797.887024	799.600000
797.922913	797.700000
797.958801	799.200000
797.994690	798.300000
798.030579	800.700000
798.066467	803.600000
798.102356	793.000000
798.138245	788.500000
798.174133	779.100000
798.210083	791.200000
798.245911	797.800000
798.281799	804.300000
798.317749	798.500000
798.353577	796.500000
798.389465	784.900000
798.425293	787.100000
798.461243	783.800000
798.497131	796.200000
798.532959	797.700000
798.568848	803.300000
798.604736	790.100000
798.640564	775.700000
798.676453	773.600000
798.712402	774.100000
798.748230	783.200000
798.784119	789.600000
798.820007	784.400000
798.855835	786.000000
798.891724	778.700000
798.927551	769.200000
798.963379	776.100000
798.999268	778.600000
799.035095	767.100000
799.070984	762.600000
799.106873	755.200000
799.142700	755.500000
799.178528	745.700000
799.214417	752.400000
799.250244	763.100000
799.286133	758.800000
799.321960	765.000000
799.357788	748.700000
799.393677	748.700000
799.429504	751.600000
799.465332	754.100000
799.501221	753.600000
799.537048	763.100000
799.572876	756.300000
799.608704	752.600000
799.644531	763.000000
799.680359	764.700000
799.716248	771.400000
799.752014	777.000000
799.787903	760.200000
799.823730	763.500000
799.859558	760.200000
799.895386	756.500000
799.931213	754.000000
799.967041	753.000000
800.002869	758.800000
800.038696	765.700000
800.074463	748.900000
800.110352	748.000000
800.146179	739.200000
800.181946	754.100000
800.217773	759.400000
800.253540	758.400000
800.289429	750.800000
800.325256	743.700000
800.361023	737.700000
800.396851	737.100000
800.432678	739.100000
800.468445	742.000000
800.504272	748.800000
800.540100	735.200000
800.575867	732.800000
800.611694	737.100000
800.647461	733.900000
800.683289	737.500000
800.719116	736.700000
800.754883	736.000000
800.790649	726.300000
800.826477	717.700000
800.862244	733.200000
800.898071	726.700000
800.933838	729.400000
800.969604	725.700000
801.005432	730.600000
801.041199	729.800000
801.076965	722.900000
801.112793	708.300000
801.148560	705.900000
801.184326	706.800000
801.220154	710.500000
801.255859	706.200000
801.291687	714.800000
801.327454	701.900000
801.363281	703.200000
801.398987	697.200000
801.434814	697.300000
801.470520	702.500000
801.506287	698.600000
801.542114	687.800000
801.577820	684.200000
801.613647	687.200000
801.649414	684.700000
801.685120	690.900000
801.720886	697.600000
801.756714	679.800000
801.792419	675.300000
801.828186	671.300000
801.863892	674.800000
801.899719	670.900000
801.935486	672.400000
801.971252	680.900000
802.006958	672.800000
802.042725	665.700000
802.078430	658.900000
802.114197	662.300000
802.149963	678.300000
802.185669	667.800000
802.221436	665.400000
802.257202	670.700000
802.292908	662.800000
802.328674	670.800000
802.364441	671.000000
802.400146	674.200000
802.435913	675.500000
802.471558	675.600000
802.507324	663.500000
802.543091	656.200000
802.578796	665.100000
802.614502	668.600000
802.650269	672.300000
802.685974	662.000000
802.721741	666.500000
802.757446	668.600000
802.793152	660.900000
802.828918	674.900000
802.864624	670.800000
802.900330	670.000000
802.936035	668.100000
802.971802	662.100000
803.007446	650.800000
803.043213	647.900000
803.078857	656.400000
803.114624	648.700000
803.150330	654.400000
803.185974	642.400000
803.221741	637.600000
803.257446	650.300000
803.293152	654.000000
803.328857	651.000000
803.364563	652.200000
803.400208	644.600000
803.435974	647.500000
803.471680	639.200000
803.507324	635.600000
803.543030	644.000000
803.578735	652.200000
803.614441	644.100000
803.650146	653.800000
803.685791	633.900000
803.721497	639.500000
803.757202	628.700000
803.792847	636.600000
803.828552	625.400000
803.864258	627.400000
803.899902	622.500000
803.935608	617.500000
803.971313	617.000000
804.006958	612.900000
804.042664	613.100000
804.078308	624.800000
804.113953	613.800000
804.149658	620.500000
804.185364	606.500000
804.221008	629.400000
804.256714	616.200000
804.292297	604.600000
804.328003	600.500000
804.363708	601.500000
804.399292	601.100000
804.434998	601.200000
804.470703	593.400000
804.506287	599.500000
804.541992	597.100000
804.577637	599.100000
804.613281	588.000000
804.648926	581.800000
804.684570	588.200000
804.720215	580.600000
804.755920	583.000000
804.791565	586.400000
804.827209	591.900000
804.862854	585.200000
804.898437	580.400000
804.934143	583.900000
804.969788	582.300000
805.005371	580.800000
805.041077	588.600000
805.076721	580.600000
805.112305	574.000000
805.147949	574.800000
805.183655	566.800000
805.219238	568.400000
805.254883	568.300000
805.290466	574.200000
805.326111	574.000000
805.361755	558.000000
805.397400	563.700000
805.432983	564.500000
805.468628	567.900000
805.504211	565.700000
805.539856	568.800000
805.575500	567.100000
805.611084	561.500000
805.646729	542.800000
805.682373	551.100000
805.717957	557.800000
805.753601	565.000000
805.789246	551.400000
805.824768	565.600000
805.860413	569.000000
805.895996	559.900000
805.931641	559.300000
805.967224	565.800000
806.002869	555.200000
806.038452	564.300000
806.074036	566.300000
806.109619	547.600000
806.145264	547.500000
806.180847	550.900000
806.216431	549.100000
806.252014	552.800000
806.287659	552.600000
806.323181	553.700000
806.358826	549.300000
806.394409	536.500000
806.429993	541.200000
806.465576	550.100000
806.501160	543.400000
806.536743	528.500000
806.572327	536.900000
806.607910	534.600000
806.643494	541.400000
806.679077	530.500000
806.714661	529.300000
806.750244	531.300000
806.785828	527.000000
806.821350	524.500000
806.856934	530.500000
806.892517	522.200000
806.928101	523.500000
806.963684	522.800000
806.999268	528.400000
807.034790	509.900000
807.070374	515.400000
807.105896	508.400000
807.141479	509.100000
807.177063	514.900000
807.212585	508.700000
807.248169	508.400000
807.283752	513.800000
807.319275	510.600000
807.354858	513.600000
807.390381	503.200000
807.425903	503.400000
807.461487	501.000000
807.497070	497.600000
807.532593	497.000000
807.568115	497.000000
807.603699	491.100000
807.639221	489.900000
807.674744	494.200000
807.710266	497.600000
807.745850	496.700000
807.781372	496.100000
807.816895	490.300000
807.852417	488.500000
807.888000	487.700000
807.923523	485.100000
807.959045	490.400000
807.994629	480.800000
808.030090	481.100000
808.065613	487.100000
808.101135	487.600000
808.136658	479.200000
808.172241	482.700000
808.207764	485.900000
808.243225	480.500000
808.278809	474.200000
808.314270	480.700000
808.349792	466.400000
808.385315	467.600000
808.420837	472.500000
808.456360	476.400000
808.491882	477.900000
808.527344	474.600000
808.562866	479.400000
808.598389	474.800000
808.633850	467.800000
808.669434	461.200000
808.704895	467.500000
808.740417	475.700000
808.775940	470.200000
808.811462	470.500000
808.846924	465.000000
808.882385	464.100000
808.917847	461.400000
808.953369	463.500000
808.988892	459.200000
809.024353	469.600000
809.059875	466.200000
809.095398	461.100000
809.130798	457.200000
809.166321	453.200000
809.201843	455.600000
809.237305	457.500000
809.272766	463.600000
809.308228	450.900000
809.343750	448.700000
809.379211	451.200000
809.414734	452.700000
809.450134	455.800000
809.485657	445.900000
809.521118	449.800000
809.556580	447.400000
809.592102	443.600000
809.627502	444.800000
809.663025	438.700000
809.698486	439.600000
809.733887	433.200000
809.769409	438.700000
809.804871	427.800000
809.840271	431.800000
809.875793	428.700000
809.911194	439.500000
809.946655	429.500000
809.982178	427.300000
810.017639	430.400000
810.053040	428.500000
810.088501	423.700000
810.123901	426.600000
810.159424	420.300000
810.194885	420.600000
810.230286	424.000000
810.265747	417.600000
810.301208	415.300000
810.336609	415.900000
810.372070	409.700000
810.407532	410.500000
810.442932	412.600000
810.478394	416.300000
810.513794	414.800000
810.549255	411.000000
810.584717	406.200000
810.620117	400.000000
810.655518	410.200000
810.690979	404.100000
810.726379	403.700000
810.761841	396.600000
810.797302	397.500000
810.832642	394.100000
810.868103	403.400000
810.903564	392.700000
810.938904	401.500000
810.974365	388.500000
811.009827	393.800000
811.045166	386.900000
811.080627	382.600000
811.115967	386.200000
811.151428	391.400000
811.186829	384.200000
811.222229	385.200000
811.257629	377.400000
811.293091	384.400000
811.328430	388.800000
811.363892	384.600000
811.399292	384.500000
811.434631	380.200000
811.470093	384.400000
811.505493	377.100000
811.540833	376.900000
811.576294	382.200000
811.611694	379.500000
811.647034	375.000000
811.682434	375.500000
811.717773	377.900000
811.753235	381.600000
811.788635	374.100000
811.823975	376.000000
811.859375	379.700000
811.894775	367.700000
811.930115	372.700000
811.965515	370.000000
812.000916	372.000000
812.036255	369.800000
812.071655	371.600000
812.106995	364.900000
812.142395	368.000000
812.177795	374.500000
812.213196	367.900000
812.248474	369.000000
812.283875	361.300000
812.319214	365.500000
812.354614	363.400000
812.390015	361.900000
812.425293	360.000000
812.460693	362.800000
812.496094	358.000000
812.531433	353.700000
812.566772	351.800000
812.602173	355.900000
812.637451	353.900000
812.672852	354.900000
812.708191	356.600000
812.743530	351.500000
812.778931	342.300000
812.814270	345.200000
812.849609	348.600000
812.884949	346.100000
812.920227	338.500000
812.955627	351.900000
812.990967	345.300000
813.026306	339.700000
813.061646	329.000000
813.096985	331.100000
813.132324	327.000000
813.167664	332.300000
813.203003	336.300000
813.238281	328.000000
813.273682	325.700000
813.308960	325.800000
813.344299	324.500000
813.379639	330.600000
813.414978	325.100000
813.450256	325.300000
813.485596	328.300000
813.520874	318.600000
813.556213	323.700000
813.591614	325.900000
813.626831	319.200000
813.662170	320.700000
813.697510	328.100000
813.732788	315.800000
813.768127	322.900000
813.803467	317.500000
813.838745	314.100000
813.874084	316.400000
813.909363	316.500000
813.944641	314.500000
813.979980	312.200000
814.015320	313.000000
814.050598	311.600000
814.085876	311.000000
814.121155	309.800000
814.156494	307.500000
814.191772	310.300000
814.227051	303.800000
814.262390	310.200000
814.297668	306.800000
814.332947	308.700000
814.368225	300.100000
814.403564	304.800000
814.438782	300.800000
814.474121	305.100000
814.509338	298.900000
814.544617	305.100000
814.579956	298.600000
814.615173	307.600000
814.650513	301.400000
814.685791	296.700000
814.721008	300.800000
814.756348	298.800000
814.791626	298.300000
814.826843	296.100000
814.862122	298.100000
814.897400	294.200000
814.932678	294.500000
814.967957	295.400000
815.003235	295.700000
815.038452	290.900000
815.073730	288.300000
815.108948	295.400000
815.144226	296.000000
815.179504	297.100000
815.214722	287.700000
815.250000	283.400000
815.285278	291.300000
815.320496	285.400000
815.355774	287.000000
815.391052	289.500000
815.426270	288.600000
815.461487	284.100000
815.496765	280.900000
815.531982	276.700000
815.567261	281.200000
815.602539	286.500000
815.637695	285.200000
815.672974	282.600000
815.708191	286.700000
815.743408	286.400000
815.778687	278.800000
815.813904	286.100000
815.849121	273.800000
815.884399	274.300000
815.919556	272.400000
815.954834	276.200000
815.990051	280.200000
816.025269	280.200000
816.060486	271.000000
816.095703	272.200000
816.130920	273.400000
816.166199	269.500000
816.201416	271.800000
816.236572	276.300000
816.271851	270.400000
816.307007	273.900000
816.342224	266.700000
816.377441	269.200000
816.412659	261.400000
816.447876	271.500000
816.483093	264.200000
816.518250	267.700000
816.553467	263.200000
816.588745	268.200000
816.623901	259.700000
816.659119	258.200000
816.694275	261.000000
816.729492	259.800000
816.764709	286.900000
816.799927	255.900000
816.835083	256.600000
816.870300	253.100000
816.905457	255.000000
816.940674	258.900000
816.975830	252.900000
817.010986	251.400000
817.046204	251.600000
817.081421	249.400000
817.116577	248.800000
817.151733	255.800000
817.186951	254.100000
817.222107	253.100000
817.257324	253.300000
817.292419	253.700000
817.327637	244.900000
817.362854	248.400000
817.398010	243.200000
817.433167	246.000000
817.468323	244.500000
817.503479	249.000000
817.538635	255.100000
817.573853	248.500000
817.608948	246.300000
817.644165	242.700000
817.679321	244.300000
817.714478	240.700000
817.749634	245.300000
817.784790	251.800000
817.819946	248.300000
817.855103	233.800000
817.890198	241.400000
817.925415	235.100000
817.960571	243.900000
817.995667	240.100000
818.030823	242.300000
818.066040	236.100000
818.101135	241.500000
818.136292	239.700000
818.171448	235.700000
818.206543	236.500000
818.241699	240.300000
818.276855	236.900000
818.311951	236.500000
818.347107	231.000000
818.382263	238.100000
818.417358	238.500000
818.452515	241.100000
818.487610	239.400000
818.522766	231.800000
818.557922	240.400000
818.593018	236.900000
818.628113	233.600000
818.663269	230.700000
818.698364	232.200000
818.733521	231.100000
818.768677	232.600000
818.803711	228.900000
818.838867	227.000000
818.874023	228.600000
818.909058	226.700000
818.944214	226.500000
818.979370	229.200000
819.014404	229.500000
819.049561	224.400000
819.084595	227.300000
819.119751	224.300000
819.154846	229.000000
819.189941	226.200000
819.225037	220.400000
819.260193	220.000000
819.295227	220.300000
819.330322	217.900000
819.365479	215.800000
819.400513	253.400000
819.435608	213.800000
819.470764	213.800000
819.505798	215.600000
819.540894	218.900000
819.575989	214.200000
819.611084	221.800000
819.646179	221.500000
819.681213	221.100000
819.716309	215.100000
819.751404	217.200000
819.786438	221.300000
819.821533	212.700000
819.856628	214.100000
819.891663	219.400000
819.926758	224.700000
819.961853	221.600000
819.996887	211.000000
820.031982	217.400000
820.067017	212.700000
820.102112	246.700000
820.137207	211.800000
820.172302	223.900000
820.207275	209.600000
820.242371	210.000000
820.277405	210.600000
820.312500	212.800000
820.347534	214.000000
820.382568	217.000000
820.417664	208.800000
820.452759	209.600000
820.487732	208.900000
820.522827	210.400000
820.557861	206.000000
820.592896	209.100000
820.627930	210.200000
820.662964	207.100000
820.698059	212.200000
820.733093	207.900000
820.768127	212.400000
820.803162	208.200000
820.838196	207.800000
820.873230	209.400000
820.908264	212.100000
820.943298	203.700000
820.978333	212.300000
821.013367	207.400000
821.048401	212.500000
821.083435	209.600000
821.118469	201.800000
821.153503	208.500000
821.188477	209.400000
821.223511	202.100000
821.258484	206.500000
821.293579	206.100000
821.328613	204.100000
821.363647	204.400000
821.398621	201.800000
821.433655	202.200000
821.468628	215.800000
821.503662	204.100000
821.538696	209.000000
821.573669	200.200000
821.608704	208.800000
821.643677	204.500000
821.678650	208.600000
821.713684	210.100000
821.748718	205.000000
821.783691	204.200000
821.818726	205.100000
821.853638	205.300000
821.888672	203.600000
821.923706	203.500000
821.958618	201.900000
821.993652	202.700000
822.028687	207.500000
822.063599	209.700000
822.098633	205.100000
822.133667	200.700000
822.168579	204.100000
822.203613	204.900000
822.238586	200.700000
822.273560	206.700000
822.308533	200.900000
822.343567	202.400000
822.378479	202.800000
822.413452	202.800000
822.448425	199.900000
822.483398	207.400000
822.518372	206.300000
822.553345	201.800000
822.588318	207.600000
822.623291	202.000000
822.658203	199.600000
822.693237	203.700000
822.728210	196.800000
822.763123	201.100000
822.798096	198.800000
822.833069	200.600000
822.867981	201.400000
822.902954	204.200000
822.937927	202.900000
822.972900	209.500000
823.007874	196.000000
823.042725	205.100000
823.077698	210.400000
823.112671	199.800000
823.147583	199.500000
823.182556	203.000000
823.217529	205.300000
823.252441	199.900000
823.287415	210.900000
823.322388	203.200000
823.357239	200.700000
823.392212	207.200000
823.427185	206.500000
823.462097	198.000000
823.497009	203.900000
823.531982	200.700000
823.566895	201.600000
823.601807	198.200000
823.636719	201.400000
823.671631	202.800000
823.706604	200.300000
823.741455	201.700000
823.776428	195.300000
823.811340	202.300000
823.846252	207.900000
823.881165	204.800000
823.916138	202.000000
823.950989	206.000000
823.985901	198.700000
824.020813	199.900000
824.055725	201.300000
824.090637	195.100000
824.125610	203.200000
824.160461	200.100000
824.195374	203.200000
824.230225	203.000000
824.265198	198.200000
824.300110	195.300000
824.334961	208.000000
824.369873	191.500000
824.404785	202.600000
824.439636	203.300000
824.474548	195.100000
824.509460	192.100000
824.544312	204.800000
824.579224	202.300000
824.614075	202.000000
824.648987	198.300000
824.683899	200.400000
824.718811	198.400000
824.753662	203.800000
824.788574	203.200000
824.823364	200.700000
824.858276	196.200000
824.893188	202.400000
824.928040	203.500000
824.962952	201.400000
824.997803	203.000000
825.032654	199.400000
825.067566	203.000000
825.102417	196.800000
825.137268	200.100000
825.172119	197.400000
825.206970	197.600000
825.241882	197.500000
825.276733	195.600000
825.311646	195.300000
825.346436	194.700000
825.381348	192.300000
825.416138	198.700000
825.450989	192.500000
825.485901	190.600000
825.520691	190.500000
825.555542	192.000000
825.590454	194.700000
825.625244	193.100000
825.660095	201.400000
825.695007	199.700000
825.729797	195.000000
825.764648	193.000000
825.799438	194.000000
825.834290	196.000000
825.869202	190.100000
825.903992	196.500000
825.938843	193.200000
825.973694	191.500000
826.008484	203.700000
826.043335	192.000000
826.078186	187.400000
826.112976	198.600000
826.147827	198.700000
826.182678	202.000000
826.217468	188.500000
826.252319	199.700000
826.287109	190.800000
826.321899	198.200000
826.356750	193.800000
826.391541	190.300000
826.426392	198.200000
826.461182	192.600000
826.495972	191.900000
826.530823	186.000000
826.565613	195.700000
826.600403	188.900000
826.635254	196.700000
826.670044	185.500000
826.704834	190.200000
826.739685	188.000000
826.774475	196.900000
826.809265	191.300000
826.844055	192.600000
826.878906	197.000000
826.913635	194.000000
826.948425	192.300000
826.983215	195.900000
827.018005	195.900000
827.052856	191.900000
827.087585	195.000000
827.122375	188.000000
827.157227	190.300000
827.191956	204.200000
827.226746	188.000000
827.261536	195.700000
827.296265	187.300000
827.331116	190.700000
827.365906	194.300000
827.400635	190.900000
827.435425	185.300000
827.470215	196.800000
827.504944	191.300000
827.539734	196.200000
827.574463	193.100000
827.609253	200.300000
827.644043	193.400000
827.678772	197.300000
827.713562	192.200000
827.748352	192.800000
827.783081	189.800000
827.817871	193.800000
827.852600	189.700000
827.887329	193.600000
827.922119	186.700000
827.956848	193.400000
827.991638	203.500000
828.026367	193.500000
828.061157	194.000000
828.095886	191.900000
828.130615	206.800000
828.165344	184.800000
828.200073	192.800000
828.234863	190.500000
828.269592	191.800000
828.304321	193.700000
828.339111	193.800000
828.373779	189.200000
828.408569	196.900000
828.443298	195.600000
828.477966	191.300000
828.512756	191.400000
828.547424	189.400000
828.582214	189.200000
828.616943	190.800000
828.651672	191.800000
828.686340	196.800000
828.721130	188.400000
828.755798	194.300000
828.790527	193.400000
828.825256	193.800000
828.859924	192.800000
828.894714	197.200000
828.929443	198.900000
828.964111	191.300000
828.998840	196.000000
829.033569	190.800000
829.068237	192.300000
829.102966	191.100000
829.137634	194.000000
829.172363	193.200000
829.207092	193.600000
829.241821	190.500000
829.276489	188.700000
829.311157	193.300000
829.345825	192.600000
829.380554	195.900000
829.415283	190.100000
829.449951	187.600000
829.484619	200.400000
829.519348	197.300000
829.554016	194.100000
829.588745	191.500000
829.623413	190.400000
829.658081	201.600000
829.692749	189.900000
829.727417	195.600000
829.762146	195.200000
829.796814	188.300000
829.831482	191.800000
829.866150	192.000000
829.900879	191.400000
829.935486	193.000000
829.970154	191.200000
830.004883	202.300000
830.039490	193.700000
830.074219	189.600000
830.108887	195.100000
830.143494	192.500000
830.178223	186.900000
830.212891	190.900000
830.247498	192.300000
830.282166	198.700000
830.316772	198.300000
830.351501	191.000000
830.386169	193.000000
830.420776	192.300000
830.455444	194.500000
830.490112	189.300000
830.524719	188.200000
830.559387	195.500000
830.594055	194.400000
830.628662	193.800000
830.663330	192.200000
830.697998	199.800000
830.732605	192.200000
830.767273	195.000000
830.801941	192.000000
830.836487	201.200000
830.871155	193.900000
830.905762	196.300000
830.940430	187.200000
830.975098	190.900000
831.009644	192.800000
831.044312	200.600000
831.078979	193.700000
831.113525	187.400000
831.148193	192.000000
831.182861	192.900000
831.217407	194.500000
831.252075	207.100000
831.286621	190.000000
831.321289	189.200000
831.355896	193.100000
831.390564	197.800000
831.425110	191.800000
831.459778	198.900000
831.494324	201.700000
831.528931	194.000000
831.563599	196.800000
831.598145	188.500000
831.632751	192.100000
831.667419	192.700000
831.701965	194.100000
831.736572	194.900000
831.771179	189.100000
831.805786	189.500000
831.840393	198.400000
831.874939	186.800000
831.909546	195.400000
831.944153	187.300000
831.978760	192.800000
832.013306	189.600000
832.047913	197.800000
832.082458	199.000000
832.117065	191.300000
832.151672	199.700000
832.186218	195.000000
832.220825	194.200000
832.255432	187.300000
832.289978	189.500000
832.324585	195.500000
832.359192	193.400000
832.393677	192.100000
832.428284	192.000000
832.462830	192.800000
832.497437	191.400000
832.531982	195.600000
832.566589	190.300000
832.601135	195.000000
832.635681	185.800000
832.670227	193.300000
832.704773	197.800000
832.739380	194.200000
832.773926	191.200000
832.808472	190.600000
832.843079	191.800000
832.877563	194.300000
832.912170	191.300000
832.946716	187.000000
832.981201	194.800000
833.015808	196.400000
833.050293	192.400000
833.084839	189.900000
833.119446	192.200000
833.153992	196.100000
833.188477	192.000000
833.223022	190.900000
833.257568	193.900000
833.292114	198.400000
833.326660	203.300000
833.361145	190.000000
833.395691	187.400000
833.430237	192.800000
833.464783	195.500000
833.499329	190.300000
833.533875	189.900000
833.568359	194.700000
833.602905	197.800000
833.637390	196.300000
833.671875	191.600000
833.706421	191.700000
833.740906	192.000000
833.775452	183.500000
833.809998	191.800000
833.844482	198.000000
833.879028	192.300000
833.913513	189.600000
833.947998	196.100000
833.982544	188.100000
834.017090	190.200000
834.051514	185.300000
834.086060	195.500000
834.120544	190.500000
834.155029	195.100000
834.189575	190.800000
834.223999	194.100000
834.258545	192.700000
834.293030	193.400000
834.327515	192.800000
834.362000	190.700000
834.396545	194.200000
834.430969	192.200000
834.465454	196.200000
834.500000	187.700000
834.534424	194.300000
834.568970	186.100000
834.603455	185.800000
834.637878	189.900000
834.672363	195.100000
834.706909	192.400000
834.741333	192.300000
834.775818	187.000000
834.810242	190.600000
834.844727	191.800000
834.879211	192.600000
834.913635	191.500000
834.948181	193.900000
834.982666	192.900000
835.017090	191.400000
835.051575	195.000000
835.086060	191.800000
835.120483	193.700000
835.154907	196.000000
835.189331	190.400000
835.223816	196.200000
835.258301	186.900000
835.292786	192.100000
835.327209	193.100000
835.361694	190.200000
835.396057	189.700000
835.430542	195.800000
835.465027	191.400000
835.499390	189.900000
835.533875	216.600000
835.568359	190.200000
835.602722	187.200000
835.637207	193.800000
835.671692	185.900000
835.706055	208.500000
835.740540	193.400000
835.774902	194.400000
835.809387	192.500000
835.843811	188.100000
835.878235	197.100000
835.912659	188.200000
835.947083	191.500000
835.981506	192.700000
836.015930	188.300000
836.050354	196.300000
836.084778	198.900000
836.119202	195.900000
836.153625	206.600000
836.187988	189.500000
836.222473	191.500000
836.256897	193.400000
836.291260	191.600000
836.325684	193.600000
836.360046	192.300000
836.394470	192.600000
836.428894	198.400000
836.463318	189.700000
836.497681	197.100000
836.532104	197.600000
836.566467	194.100000
836.600891	190.300000
836.635315	198.100000
836.669678	192.900000
836.704102	196.500000
836.738525	192.000000
836.772888	188.500000
836.807251	189.100000
836.841675	196.400000
836.876038	188.200000
836.910461	190.500000
836.944763	195.700000
836.979187	190.200000
837.013611	196.000000
837.047974	188.800000
837.082336	199.700000
837.116699	194.800000
837.151062	191.700000
837.185486	186.500000
837.219849	190.200000
837.254211	196.300000
837.288574	190.900000
837.322937	188.100000
837.357300	184.800000
837.391663	202.000000
837.426086	196.100000
837.460388	193.800000
837.494751	195.400000
837.529114	190.700000
837.563477	198.000000
837.597839	193.900000
837.632141	193.700000
837.666565	191.400000
837.700928	195.300000
837.735229	194.400000
837.769592	196.700000
837.803955	194.800000
837.838257	192.200000
837.872620	189.800000
837.906982	200.200000
837.941284	191.000000
837.975647	195.600000
838.010010	196.800000
838.044312	192.700000
838.078674	189.900000
838.112976	195.000000
838.147339	193.900000
838.181702	193.900000
838.216003	198.500000
838.250366	193.500000
838.284668	194.300000
838.318970	187.100000
838.353333	190.700000
838.387634	193.100000
838.421936	191.500000
838.456299	193.300000
838.490601	197.300000
838.524902	195.400000
838.559265	195.200000
838.593567	196.400000
838.627869	188.200000
838.662170	195.100000
838.696472	187.000000
838.730774	190.500000
838.765137	195.100000
838.799377	182.900000
838.833740	192.900000
838.868042	198.700000
838.902283	187.100000
838.936646	198.800000
838.970947	194.400000
839.005188	198.300000
839.039551	190.000000
839.073792	197.900000
839.108093	190.300000
839.142395	200.000000
839.176697	188.100000
839.210937	194.200000
839.245300	203.800000
839.279541	187.800000
839.313843	193.000000
839.348145	194.300000
839.382385	197.300000
839.416687	196.600000
839.450989	195.600000
839.485229	191.400000
839.519531	192.500000
839.553833	195.600000
839.588013	191.900000
839.622314	193.700000
839.656555	195.000000
839.690857	191.700000
839.725159	188.800000
839.759460	191.600000
839.793640	191.000000
839.827942	192.700000
839.862183	189.100000
839.896423	192.700000
839.930725	202.300000
839.964966	199.500000
839.999207	197.500000
840.033508	199.100000
840.067688	191.000000
840.101990	198.500000
840.136230	193.100000
840.170471	197.600000
840.204712	189.700000
840.238953	189.900000
840.273193	193.300000
840.307434	196.500000
840.341736	188.700000
840.375916	189.400000
840.410217	190.100000
840.444397	197.500000
840.478638	194.900000
840.512878	198.700000
840.547119	193.500000
840.581360	196.400000
840.615601	197.900000
840.649780	203.200000
840.684021	191.400000
840.718262	200.500000
840.752441	198.300000
840.786682	195.000000
840.820862	192.300000
840.855103	199.900000
840.889343	191.800000
840.923584	197.100000
840.957764	193.500000
840.992004	196.000000
841.026184	203.800000
841.060425	193.300000
841.094666	188.500000
841.128845	196.000000
841.163025	192.400000
841.197266	194.400000
841.231445	191.200000
841.265686	195.900000
841.299866	188.600000
841.334045	199.600000
841.368286	191.900000
841.402405	198.900000
841.436646	194.200000
841.470825	191.300000
841.505005	190.700000
841.539185	189.700000
841.573425	189.800000
841.607544	192.700000
841.641785	193.300000
841.675964	190.000000
841.710144	193.000000
841.744324	190.800000
841.778503	192.800000
841.812683	189.000000
841.846863	199.200000
841.881042	199.100000
841.915222	190.700000
841.949402	203.700000
841.983521	186.300000
842.017700	191.300000
842.051880	194.900000
842.086060	195.900000
842.120239	195.600000
842.154419	189.000000
842.188538	195.400000
842.222717	189.900000
842.256897	201.300000
842.291016	190.900000
842.325195	194.900000
842.359375	200.500000
842.393494	200.100000
842.427673	191.500000
842.461853	195.300000
842.495911	199.400000
842.530090	194.900000
842.564209	190.400000
842.598389	194.300000
842.632568	191.700000
842.666626	195.600000
842.700806	191.100000
842.734985	190.500000
842.769043	195.000000
842.803223	192.800000
842.837402	191.800000
842.871460	190.000000
842.905640	202.200000
842.939697	189.700000
842.973877	192.600000
843.007996	197.700000
843.042175	200.900000
843.076233	191.700000
843.110413	195.200000
843.144470	199.700000
843.178589	197.900000
843.212769	192.800000
843.246826	196.700000
843.280945	191.000000
843.315125	193.200000
843.349182	189.000000
843.383301	199.100000
843.417419	203.500000
843.451538	194.300000
843.485657	191.300000
843.519714	195.500000
843.553833	193.900000
843.587952	193.000000
843.622070	188.900000
843.656128	197.300000
843.690247	190.800000
843.724304	193.700000
843.758423	194.700000
843.792542	191.300000
843.826599	192.500000
843.860718	192.000000
843.894836	187.000000
843.928894	194.900000
843.963013	192.600000
843.997070	190.100000
844.031128	188.100000
844.065247	198.200000
844.099304	195.100000
844.133362	194.800000
844.167480	193.600000
844.201599	198.400000
844.235596	193.800000
844.269714	195.800000
844.303711	193.300000
844.337830	187.700000
844.371948	195.700000
844.405945	193.200000
844.440063	190.300000
844.474121	204.000000
844.508118	192.100000
844.542236	191.800000
844.576294	193.700000
844.610352	189.400000
844.644409	193.500000
844.678406	185.000000
844.712524	198.800000
844.746582	198.700000
844.780640	193.500000
844.814636	191.700000
844.848755	204.800000
844.882751	191.200000
844.916809	199.000000
844.950867	195.300000
844.984863	202.300000
845.018921	190.700000
845.052979	191.500000
845.086975	192.000000
845.121033	188.400000
845.155090	189.600000
845.189087	198.800000
845.223145	190.200000
845.257141	195.900000
845.291199	194.900000
845.325256	197.900000
845.359253	194.500000
845.393250	204.200000
845.427307	190.500000
845.461304	194.700000
845.495361	193.100000
845.529358	201.900000
845.563354	192.300000
845.597412	190.200000
845.631409	200.100000
845.665405	199.800000
845.699463	197.100000
845.733459	190.900000
845.767456	202.400000
845.801453	193.100000
845.835449	198.700000
845.869446	196.800000
845.903503	196.300000
845.937439	190.600000
845.971497	201.000000
846.005493	188.000000
846.039429	198.700000
846.073486	202.300000
846.107483	192.800000
846.141418	193.100000
846.175476	194.800000
846.209473	198.200000
846.243408	190.800000
846.277405	192.700000
846.311401	192.300000
846.345337	192.100000
846.379395	198.800000
846.413330	190.400000
846.447327	203.300000
846.481323	188.100000
846.515259	192.000000
846.549255	190.500000
846.583252	197.000000
846.617187	188.600000
846.651184	195.300000
846.685120	191.600000
846.719055	202.200000
846.753052	195.600000
846.786987	197.500000
846.820984	188.700000
846.854980	201.100000
846.888916	189.100000
846.922852	194.700000
846.956848	198.500000
846.990723	191.500000
847.024719	195.500000
847.058716	191.300000
847.092590	199.200000
847.126587	194.900000
847.160522	192.600000
847.194458	197.100000
847.228455	191.600000
847.262390	190.500000
847.296265	193.000000
847.330261	197.000000
847.364136	192.300000
847.398132	192.700000
847.432068	195.600000
847.466003	193.100000
847.499939	193.800000
847.533875	195.100000
847.567749	192.000000
847.601746	191.300000
847.635681	197.300000
847.669556	186.300000
847.703491	199.300000
847.737427	203.000000
847.771301	190.500000
847.805237	194.900000
847.839233	194.900000
847.873108	192.400000
847.907043	194.100000
847.940918	198.200000
847.974854	195.400000
848.008789	196.600000
848.042664	193.900000
848.076538	194.900000
848.110474	194.300000
848.144348	192.700000
848.178284	188.800000
848.212219	194.100000
848.246094	191.700000
848.279968	194.300000
848.313904	196.100000
848.347778	193.300000
848.381653	192.500000
848.415588	190.900000
848.449463	190.700000
848.483337	197.100000
848.517212	201.300000
848.551086	194.100000
848.585022	190.900000
848.618835	203.400000
848.652771	191.600000
848.686646	190.900000
848.720520	199.900000
848.754395	194.100000
848.788330	197.400000
848.822144	197.600000
848.856018	191.300000
848.889954	203.100000
848.923767	190.700000
848.957642	191.100000
848.991577	194.600000
849.025391	194.200000
849.059265	191.700000
849.093079	192.900000
849.126953	188.400000
849.160828	198.700000
849.194641	192.300000
849.228577	193.700000
849.262451	191.700000
849.296265	193.600000
849.330139	190.500000
849.364014	193.700000
849.397827	193.500000
849.431702	196.000000
849.465515	196.700000
849.499329	186.900000
849.533203	190.000000
849.567078	186.700000
849.600891	195.500000
849.634766	193.400000
849.668518	195.200000
849.702393	193.400000
849.736267	188.900000
849.770020	202.200000
849.803894	195.200000
849.837769	195.300000
849.871521	192.800000
849.905396	197.000000
849.939270	190.800000
849.973022	192.900000
850.006897	196.800000
850.040710	196.500000
850.074524	198.600000
850.108337	192.100000
850.142151	199.600000
850.175964	200.300000
850.209778	193.900000
850.243530	184.000000
850.277405	199.900000
850.311218	192.500000
850.344971	192.300000
850.378845	200.700000
850.412659	193.100000
850.446411	196.200000
850.480225	194.800000
850.514038	195.800000
850.547791	199.000000
850.581665	191.500000
850.615417	191.700000
850.649231	193.600000
850.683044	193.100000
850.716858	192.800000
850.750610	196.800000
850.784424	196.500000
850.818176	190.100000
850.851929	191.500000
850.885742	190.900000
850.919495	192.000000
850.953308	200.600000
850.987122	199.600000
851.020874	188.700000
851.054626	187.600000
851.088440	196.100000
851.122192	195.300000
851.156006	196.000000
851.189697	191.700000
851.223511	189.300000
851.257263	197.000000
851.291077	195.100000
851.324829	193.500000
851.358582	190.600000
851.392334	192.500000
851.426086	191.900000
851.459900	201.600000
851.493591	194.700000
851.527344	193.500000
851.561157	192.300000
851.594849	197.800000
851.628662	193.200000
851.662415	202.600000
851.696106	194.800000
851.729858	198.600000
851.763611	189.800000
851.797363	195.400000
851.831116	189.100000
851.864868	197.600000
851.898560	196.200000
851.932312	192.400000
851.966064	194.300000
851.999817	194.700000
852.033569	191.500000
852.067261	199.400000
852.101013	190.200000
852.134766	194.100000
852.168457	184.600000
852.202209	199.500000
852.235901	188.900000
852.269592	196.900000
852.303345	198.200000
852.337036	195.800000
852.370789	193.700000
852.404541	197.800000
852.438171	189.200000
852.471924	194.400000
852.505676	189.000000
852.539307	195.300000
852.573059	191.800000
852.606812	192.200000
852.640442	191.300000
852.674194	197.700000
852.707886	201.900000
852.741577	198.600000
852.775269	190.300000
852.809021	194.900000
852.842651	196.400000
852.876404	199.500000
852.910034	195.900000
852.943787	198.000000
852.977478	197.300000
853.011108	190.700000
853.044861	191.800000
853.078552	199.100000
853.112183	197.000000
853.145874	193.000000
853.179626	188.700000
853.213257	194.400000
853.246948	193.700000
853.280640	199.900000
853.314270	193.200000
853.347961	197.400000
853.381653	197.300000
853.415283	197.000000
853.448975	191.700000
853.482605	195.600000
853.516296	194.900000
853.549988	188.500000
853.583618	195.700000
853.617310	194.700000
853.651001	194.700000
853.684631	189.600000
853.718323	192.000000
853.751953	198.900000
853.785583	188.600000
853.819275	196.700000
853.852966	195.600000
853.886536	187.800000
853.920227	190.900000
853.953918	197.300000
853.987488	192.900000
854.021179	196.100000
854.054749	201.600000
854.088440	196.500000
854.122131	190.400000
854.155701	195.000000
854.189331	191.000000
854.223022	196.600000
854.256592	195.700000
854.290283	192.500000
854.323914	195.900000
854.357483	195.500000
854.391174	195.900000
854.424744	200.800000
854.458374	193.600000
854.492065	205.500000
854.525696	193.400000
854.559265	200.700000
854.592896	203.000000
854.626465	194.800000
854.660095	193.200000
854.693787	197.000000
854.727356	191.200000
854.760986	198.600000
854.794617	196.100000
854.828186	192.900000
854.861816	195.300000
854.895447	195.400000
854.929016	193.800000
854.962585	195.900000
854.996155	200.300000
855.029785	195.400000
855.063416	194.200000
855.097046	197.100000
855.130615	188.900000
855.164185	198.200000
855.197754	194.500000
855.231384	195.200000
855.264954	192.200000
855.298523	197.900000
855.332153	193.500000
855.365723	198.400000
855.399292	192.500000
855.432922	194.000000
855.466492	195.700000
855.500061	189.900000
855.533630	190.800000
855.567200	196.100000
855.600769	198.000000
855.634338	198.300000
855.667969	196.100000
855.701477	190.100000
855.735046	191.600000
855.768616	187.900000
855.802185	196.300000
855.835754	205.600000
855.869324	188.700000
855.902893	192.600000
855.936401	201.200000
855.969971	194.500000
856.003540	191.000000
856.037109	195.500000
856.070618	193.000000
856.104187	189.500000
856.137695	193.300000
856.171265	185.000000
856.204834	194.000000
856.238403	194.900000
856.271912	192.300000
856.305481	195.300000
856.338989	190.200000
856.372559	196.300000
856.406128	196.100000
856.439636	195.700000
856.473145	192.300000
856.506653	199.100000
856.540222	194.800000
856.573792	198.400000
856.607300	198.200000
856.640808	190.400000
856.674377	194.800000
856.707825	228.000000
856.741394	199.000000
856.774902	191.100000
856.808472	187.500000
856.841980	196.600000
856.875488	199.300000
856.908936	190.400000
856.942505	192.100000
856.976013	193.800000
857.009521	190.700000
857.043030	195.300000
857.076477	192.800000
857.110046	201.500000
857.143555	194.900000
857.177063	196.500000
857.210571	191.500000
857.244080	191.100000
857.277527	195.800000
857.311035	196.100000
857.344543	197.000000
857.378052	193.800000
857.411499	197.700000
857.445068	201.300000
857.478516	192.900000
857.512024	191.400000
857.545532	192.700000
857.578979	195.600000
857.612427	192.900000
857.645874	191.600000
857.679382	194.200000
857.712891	199.500000
857.746399	190.900000
857.779846	198.000000
857.813354	198.200000
857.846741	194.200000
857.880249	189.600000
857.913757	196.800000
857.947266	195.100000
857.980652	196.900000
858.014160	191.900000
858.047546	192.400000
858.081055	192.600000
858.114563	204.400000
858.147949	189.900000
858.181458	196.400000
858.214844	194.600000
858.248352	187.700000
858.281799	197.100000
858.315308	203.400000
858.348694	197.200000
858.382141	201.200000
858.415588	197.600000
858.449036	196.700000
858.482483	197.200000
858.515930	191.500000
858.549377	195.200000
858.582825	199.000000
858.616211	197.000000
858.649658	197.400000
858.683105	191.700000
858.716553	191.300000
858.750000	190.200000
858.783386	190.500000
858.816833	189.100000
858.850281	193.300000
858.883728	196.000000
858.917114	194.200000
858.950562	201.900000
858.983948	198.800000
859.017395	199.500000
859.050781	192.400000
859.084167	190.600000
859.117615	189.800000
859.151062	195.900000
859.184448	189.100000
859.217834	193.800000
859.251282	191.600000
859.284668	190.900000
859.318054	187.500000
859.351440	193.600000
859.384888	198.700000
859.418274	189.100000
859.451721	186.800000
859.485046	195.900000
859.518494	195.300000
859.551819	190.000000
859.585266	196.700000
859.618652	198.100000
859.652039	190.900000
859.685425	189.600000
859.718811	190.900000
859.752197	186.000000
859.785583	199.900000
859.819031	198.400000
859.852356	196.900000
859.885742	190.200000
859.919067	195.500000
859.952454	191.800000
859.985901	198.200000
860.019287	192.100000
860.052612	0.000000
860.085999	0.000000
860.119324	0.000000
860.152710	0.000000
860.186096	0.000000
860.219421	0.000000
860.252808	0.000000
860.286133	0.000000
860.319519	0.000000
860.352905	0.000000
860.386292	0.000000
860.419617	0.000000
860.452942	0.000000
860.486267	0.000000
860.519653	0.000000
860.553040	0.000000
860.586365	0.000000
860.619690	0.000000
860.653076	0.000000
860.686340	0.000000
860.719727	0.000000
860.753113	0.000000
860.786377	0.000000
860.819763	0.000000
860.853027	0.000000
860.886414	0.000000
860.919739	0.000000
860.953125	0.000000
860.986389	0.000000
861.019714	0.000000
861.053040	0.000000
861.086365	0.000000
861.119690	0.000000
861.153076	0.000000
861.186340	0.000000
861.219666	0.000000
861.252930	0.000000
861.286316	0.000000
861.319641	0.000000
861.352905	0.000000
861.386230	0.000000
861.419495	0.000000
861.452820	0.000000
861.486145	0.000000
861.519470	0.000000
861.552734	0.000000
861.586060	0.000000
861.619324	0.000000
861.652649	0.000000
861.685974	0.000000
861.719238	0.000000
861.752563	0.000000
861.785828	0.000000
861.819092	0.000000
861.852417	0.000000
861.885742	0.000000
861.918945	0.000000
861.952271	0.000000
861.985535	0.000000
862.018799	0.000000
862.052124	0.000000
862.085449	0.000000
862.118652	0.000000
862.151978	0.000000
862.185181	0.000000
862.218506	0.000000
862.251770	0.000000
862.285034	0.000000
862.318298	0.000000
862.351562	0.000000
862.384827	0.000000
862.418091	0.000000
862.451355	0.000000
862.484619	0.000000
862.517883	0.000000
862.551086	0.000000
862.584351	0.000000
862.617676	0.000000
862.650940	0.000000
862.684143	0.000000
862.717407	0.000000
862.750610	0.000000
862.783875	0.000000
862.817139	0.000000
862.850342	0.000000
862.883606	0.000000
862.916870	0.000000
862.950073	0.000000
862.983337	0.000000
863.016602	0.000000
863.049805	0.000000
863.083069	0.000000
863.116211	0.000000
863.149475	0.000000
863.182739	0.000000
863.216003	0.000000
863.249146	0.000000
863.282410	0.000000
863.315613	0.000000
863.348816	0.000000
863.382080	0.000000
863.415222	0.000000
863.448486	0.000000
863.481689	0.000000
863.514893	0.000000
863.548157	0.000000
863.581360	0.000000
863.614502	0.000000
863.647766	0.000000
863.680908	0.000000
863.714172	0.000000
863.747375	0.000000
863.780579	0.000000
863.813721	0.000000
863.846985	0.000000
863.880127	0.000000
863.913330	0.000000
863.946533	0.000000
863.979675	0.000000
864.012939	0.000000
