Model Number: SPM-001-M   
Serial Number: 10090201
Firmware Version: 004.17.6
Exposure Time: 300000.000000us
Data Taken on: 21-01-2021 14:09:49.688
Wavelength	Amplitude
733.770752	0.000000
733.808716	0.000000
733.846619	0.000000
733.884583	0.000000
733.922546	0.000000
733.960449	0.000000
733.998413	0.000000
734.036377	0.000000
734.074219	0.000000
734.112183	0.000000
734.150085	0.000000
734.188049	0.000000
734.226013	0.000000
734.263916	0.000000
734.301819	0.000000
734.339783	0.000000
734.377686	0.000000
734.415588	0.000000
734.453552	0.000000
734.491455	0.000000
734.529419	0.000000
734.567322	0.000000
734.605225	0.000000
734.643127	0.000000
734.681091	0.000000
734.718994	0.000000
734.756897	0.000000
734.794800	0.000000
734.832703	0.000000
734.870667	0.000000
734.908508	0.000000
734.946472	0.000000
734.984375	0.000000
735.022278	0.000000
735.060181	0.000000
735.098083	0.000000
735.135986	0.000000
735.173889	0.000000
735.211792	0.000000
735.249695	0.000000
735.287598	0.000000
735.325439	0.000000
735.363403	0.000000
735.401306	0.000000
735.439148	0.000000
735.477051	0.000000
735.515015	0.000000
735.552856	0.000000
735.590759	0.000000
735.628662	0.000000
735.666504	0.000000
735.704407	0.000000
735.742310	0.000000
735.780212	0.000000
735.818115	0.000000
735.856018	0.000000
735.893860	0.000000
735.931763	0.000000
735.969604	0.000000
736.007507	0.000000
736.045410	0.000000
736.083252	0.000000
736.121094	0.000000
736.158997	0.000000
736.196838	0.000000
736.234741	0.000000
736.272644	0.000000
736.310486	0.000000
736.348389	0.000000
736.386230	0.000000
736.424072	0.000000
736.461975	0.000000
736.499878	0.000000
736.537720	0.000000
736.575562	0.000000
736.613403	0.000000
736.651306	0.000000
736.689148	0.000000
736.726990	0.000000
736.764893	0.000000
736.802734	0.000000
736.840576	0.000000
736.878418	0.000000
736.916321	0.000000
736.954102	0.000000
736.992004	0.000000
737.029846	0.000000
737.067688	0.000000
737.105530	0.000000
737.143372	0.000000
737.181213	0.000000
737.219116	0.000000
737.256897	0.000000
737.294739	0.000000
737.332642	0.000000
737.370422	0.000000
737.408325	0.000000
737.446167	0.000000
737.483948	0.000000
737.521790	0.000000
737.559692	0.000000
737.597473	0.000000
737.635315	0.000000
737.673157	0.000000
737.710999	0.000000
737.748840	0.000000
737.786621	0.000000
737.824463	0.000000
737.862305	0.000000
737.900085	0.000000
737.937927	0.000000
737.975769	0.000000
738.013550	0.000000
738.051392	0.000000
738.089233	0.000000
738.127014	0.000000
738.164856	0.000000
738.202698	0.000000
738.240479	0.000000
738.278320	0.000000
738.316162	0.000000
738.353943	0.000000
738.391785	0.000000
738.429565	0.000000
738.467407	0.000000
738.505188	0.000000
738.542969	0.000000
738.580811	0.000000
738.618652	0.000000
738.656372	0.000000
738.694214	0.000000
738.732056	0.000000
738.769836	0.000000
738.807617	0.000000
738.845459	0.000000
738.883240	0.000000
738.921021	0.000000
738.958862	0.000000
738.996582	0.000000
739.034424	0.000000
739.072205	0.000000
739.109985	0.000000
739.147827	0.000000
739.185547	0.000000
739.223389	0.000000
739.261169	0.000000
739.298889	0.000000
739.336731	0.000000
739.374512	0.000000
739.412292	0.000000
739.450073	0.000000
739.487854	0.000000
739.525635	0.000000
739.563416	0.000000
739.601135	0.000000
739.638977	0.000000
739.676758	0.000000
739.714478	0.000000
739.752258	0.000000
739.790100	0.000000
739.827820	0.000000
739.865601	0.000000
739.903381	0.000000
739.941101	0.000000
739.978882	193.500000
740.016724	191.200000
740.054443	193.800000
740.092224	190.900000
740.130005	189.200000
740.167725	189.700000
740.205505	187.600000
740.243225	196.300000
740.281006	190.300000
740.318787	188.600000
740.356506	195.500000
740.394287	195.700000
740.432068	187.300000
740.469727	188.300000
740.507507	194.300000
740.545288	192.900000
740.583008	190.900000
740.620789	193.200000
740.658569	184.400000
740.696228	191.700000
740.734009	194.700000
740.771790	183.700000
740.809509	193.100000
740.847229	187.500000
740.884949	188.900000
740.922729	185.900000
740.960449	188.800000
740.998169	187.000000
741.035950	188.600000
741.073669	191.200000
741.111389	190.500000
741.149170	197.500000
741.186890	198.300000
741.224609	193.300000
741.262329	192.000000
741.300110	197.100000
741.337769	188.300000
741.375549	186.700000
741.413208	192.200000
741.450989	188.400000
741.488708	189.000000
741.526367	188.300000
741.564148	194.800000
741.601868	193.000000
741.639526	191.200000
741.677307	191.300000
741.715027	192.900000
741.752686	187.200000
741.790466	197.800000
741.828186	191.500000
741.865845	188.500000
741.903564	185.000000
741.941345	190.100000
741.979004	187.500000
742.016724	196.300000
742.054382	190.900000
742.092102	195.700000
742.129822	186.200000
742.167480	190.500000
742.205200	189.400000
742.242920	193.500000
742.280640	194.100000
742.318359	187.800000
742.356079	190.300000
742.393738	195.700000
742.431396	189.200000
742.469116	195.800000
742.506775	183.300000
742.544495	191.400000
742.582214	194.100000
742.619873	191.100000
742.657593	196.500000
742.695251	197.000000
742.732971	189.900000
742.770630	192.300000
742.808289	192.300000
742.846008	190.300000
742.883728	192.600000
742.921326	191.300000
742.959045	190.200000
742.996765	188.100000
743.034424	192.000000
743.072083	188.500000
743.109802	189.600000
743.147400	186.900000
743.185120	191.800000
743.222839	190.300000
743.260437	197.700000
743.298157	191.400000
743.335754	185.900000
743.373474	190.200000
743.411133	186.900000
743.448792	191.400000
743.486450	192.500000
743.524170	184.500000
743.561768	191.500000
743.599487	195.000000
743.637146	200.700000
743.674744	189.500000
743.712463	190.900000
743.750122	190.400000
743.787720	193.400000
743.825439	188.500000
743.863037	190.900000
743.900696	190.400000
743.938416	217.700000
743.976013	190.700000
744.013672	198.300000
744.051331	193.500000
744.088928	198.400000
744.126587	195.500000
744.164307	193.500000
744.201904	188.600000
744.239563	192.300000
744.277222	194.100000
744.314819	191.500000
744.352478	196.200000
744.390137	192.300000
744.427734	192.900000
744.465393	188.300000
744.502991	188.700000
744.540649	192.400000
744.578308	192.500000
744.615906	187.500000
744.653564	184.000000
744.691223	192.000000
744.728821	188.100000
744.766418	189.700000
744.804077	192.700000
744.841675	189.500000
744.879333	187.100000
744.916992	188.700000
744.954529	191.300000
744.992187	195.000000
745.029785	190.500000
745.067444	188.100000
745.105042	192.300000
745.142639	192.500000
745.180298	201.600000
745.217896	189.600000
745.255493	191.000000
745.293152	193.500000
745.330750	195.900000
745.368347	197.000000
745.405945	195.100000
745.443604	191.400000
745.481140	194.800000
745.518799	190.400000
745.556396	193.200000
745.593994	193.200000
745.631592	193.400000
745.669189	187.400000
745.706787	192.200000
745.744385	188.400000
745.781982	194.500000
745.819580	188.300000
745.857178	191.900000
745.894775	191.600000
745.932373	192.400000
745.969971	192.300000
746.007568	184.900000
746.045166	197.600000
746.082764	195.600000
746.120300	193.400000
746.157898	194.200000
746.195557	191.200000
746.233093	185.400000
746.270691	193.800000
746.308228	191.700000
746.345825	195.200000
746.383423	193.200000
746.420959	189.600000
746.458557	188.500000
746.496155	191.300000
746.533691	191.200000
746.571289	188.400000
746.608887	189.400000
746.646423	192.500000
746.684021	190.900000
746.721619	189.800000
746.759155	191.900000
746.796753	187.200000
746.834351	185.000000
746.871826	189.700000
746.909424	195.100000
746.946960	191.700000
746.984558	189.800000
747.022156	190.500000
747.059631	198.000000
747.097229	194.100000
747.134827	188.300000
747.172363	195.700000
747.209900	194.500000
747.247498	187.800000
747.285034	195.000000
747.322571	197.600000
747.360168	191.500000
747.397644	184.600000
747.435242	193.700000
747.472778	194.700000
747.510315	191.200000
747.547913	190.200000
747.585388	195.900000
747.622925	189.500000
747.660522	186.900000
747.697998	188.200000
747.735596	191.200000
747.773132	188.700000
747.810669	191.300000
747.848206	193.100000
747.885742	189.700000
747.923279	186.300000
747.960815	193.600000
747.998352	192.500000
748.035889	195.100000
748.073425	192.800000
748.110901	191.100000
748.148437	187.200000
748.185974	192.100000
748.223511	196.900000
748.261047	193.900000
748.298584	190.700000
748.336060	192.400000
748.373596	192.400000
748.411133	217.100000
748.448608	188.400000
748.486145	195.100000
748.523682	195.600000
748.561218	198.000000
748.598755	192.100000
748.636292	194.100000
748.673706	190.500000
748.711243	198.800000
748.748718	191.900000
748.786255	191.300000
748.823792	191.400000
748.861267	188.400000
748.898804	193.300000
748.936340	192.300000
748.973816	187.200000
749.011292	196.400000
749.048828	193.000000
749.086304	192.400000
749.123840	200.700000
749.161316	187.700000
749.198792	198.400000
749.236328	195.700000
749.273743	191.100000
749.311279	190.400000
749.348816	195.300000
749.386230	191.100000
749.423767	183.900000
749.461304	193.800000
749.498718	193.000000
749.536255	195.800000
749.573730	201.500000
749.611206	197.200000
749.648682	190.100000
749.686218	190.400000
749.723633	194.900000
749.761169	188.000000
749.798645	188.400000
749.836060	188.200000
749.873596	190.000000
749.911011	192.300000
749.948547	197.400000
749.986023	190.600000
750.023437	191.800000
750.060913	186.800000
750.098450	186.800000
750.135864	190.400000
750.173340	191.800000
750.210815	196.800000
750.248291	188.000000
750.285767	190.400000
750.323242	195.700000
750.360657	192.800000
750.398132	188.900000
750.435608	193.600000
750.473022	189.200000
750.510498	188.800000
750.547974	187.300000
750.585449	190.300000
750.622925	184.000000
750.660339	201.400000
750.697815	191.900000
750.735291	190.700000
750.772644	191.400000
750.810120	192.500000
750.847595	193.300000
750.885010	187.700000
750.922485	196.900000
750.959961	191.100000
750.997375	197.800000
751.034851	195.400000
751.072266	192.800000
751.109680	187.500000
751.147156	195.600000
751.184570	194.000000
751.221985	191.200000
751.259460	187.600000
751.296875	191.800000
751.334290	191.900000
751.371765	193.900000
751.409180	195.000000
751.446594	196.300000
751.484070	194.900000
751.521423	192.800000
751.558899	192.600000
751.596375	197.900000
751.633728	197.700000
751.671204	198.600000
751.708618	189.700000
751.746033	193.800000
751.783447	188.100000
751.820801	188.500000
751.858276	194.000000
751.895691	192.100000
751.933105	191.700000
751.970520	186.500000
752.007935	190.800000
752.045349	194.200000
752.082764	191.900000
752.120178	189.500000
752.157532	189.400000
752.195007	188.400000
752.232422	192.600000
752.269775	195.400000
752.307190	192.800000
752.344543	188.200000
752.382019	191.600000
752.419434	191.300000
752.456787	193.400000
752.494202	196.700000
752.531616	191.300000
752.568970	195.200000
752.606384	193.700000
752.643799	193.100000
752.681152	196.500000
752.718567	194.700000
752.755981	185.100000
752.793335	196.300000
752.830750	185.200000
752.868164	195.600000
752.905518	187.300000
752.942932	196.000000
752.980225	188.100000
753.017639	195.600000
753.055054	193.700000
753.092407	193.800000
753.129822	195.300000
753.167175	199.100000
753.204529	192.300000
753.241943	190.800000
753.279358	188.100000
753.316650	194.600000
753.354065	192.500000
753.391479	195.600000
753.428772	197.600000
753.466187	193.300000
753.503479	187.900000
753.540894	190.800000
753.578308	186.900000
753.615601	186.500000
753.653015	193.100000
753.690369	189.100000
753.727722	190.500000
753.765076	185.900000
753.802490	187.600000
753.839783	185.100000
753.877136	191.000000
753.914551	200.000000
753.951843	190.100000
753.989258	192.800000
754.026611	192.200000
754.063904	191.600000
754.101257	188.600000
754.138611	185.100000
754.175964	193.400000
754.213318	200.700000
754.250610	186.500000
754.288025	188.800000
754.325378	188.600000
754.362671	194.900000
754.400024	192.400000
754.437378	199.000000
754.474670	198.300000
754.512085	188.200000
754.549438	193.800000
754.586731	190.000000
754.624084	191.600000
754.661438	189.000000
754.698730	199.900000
754.736084	189.300000
754.773376	191.300000
754.810730	192.100000
754.848083	190.900000
754.885315	195.700000
754.922668	186.500000
754.960022	187.700000
754.997314	194.600000
755.034668	191.600000
755.072021	193.300000
755.109253	190.400000
755.146606	197.800000
755.183960	190.700000
755.221252	197.100000
755.258545	195.000000
755.295898	195.800000
755.333191	197.800000
755.370544	193.800000
755.407776	192.300000
755.445129	193.000000
755.482422	197.000000
755.519714	189.300000
755.557068	186.700000
755.594360	186.500000
755.631653	196.900000
755.668945	197.300000
755.706299	192.900000
755.743530	202.400000
755.780884	198.700000
755.818176	195.900000
755.855408	197.100000
755.892761	193.800000
755.930054	194.900000
755.967346	194.600000
756.004639	195.200000
756.041870	191.900000
756.079224	198.500000
756.116516	189.400000
756.153748	196.600000
756.191040	201.500000
756.228394	196.400000
756.265625	188.500000
756.302917	194.300000
756.340210	191.200000
756.377441	197.100000
756.414795	198.400000
756.452087	194.800000
756.489319	188.900000
756.526611	196.800000
756.563843	194.300000
756.601135	199.700000
756.638428	201.000000
756.675659	193.900000
756.712952	196.600000
756.750244	196.300000
756.787476	195.600000
756.824768	198.900000
756.862061	193.700000
756.899292	241.500000
756.936584	198.100000
756.973816	202.600000
757.011047	204.000000
757.048340	194.600000
757.085632	196.900000
757.122864	207.000000
757.160156	192.800000
757.197327	195.400000
757.234619	200.200000
757.271912	194.200000
757.309082	200.300000
757.346375	192.100000
757.383667	199.900000
757.420837	196.400000
757.458130	196.500000
757.495422	193.200000
757.532593	198.100000
757.569885	190.100000
757.607117	194.000000
757.644348	196.700000
757.681580	206.300000
757.718811	187.500000
757.756042	197.400000
757.793335	194.600000
757.830505	199.700000
757.867798	194.000000
757.905029	194.900000
757.942200	196.500000
757.979492	194.900000
758.016724	195.700000
758.053894	196.500000
758.091187	209.600000
758.128418	198.300000
758.165588	196.200000
758.202820	206.300000
758.240112	197.400000
758.277283	204.800000
758.314514	199.000000
758.351685	195.300000
758.388916	204.400000
758.426147	203.900000
758.463379	204.600000
758.500610	199.200000
758.537842	199.700000
758.575012	202.200000
758.612244	195.700000
758.649475	206.700000
758.686646	193.800000
758.723877	202.900000
758.761108	205.900000
758.798279	198.700000
758.835510	200.800000
758.872742	203.900000
758.909851	201.800000
758.947083	200.800000
758.984253	202.300000
759.021484	203.200000
759.058716	203.600000
759.095886	202.600000
759.133057	200.700000
759.170288	203.200000
759.207458	200.400000
759.244690	209.000000
759.281860	208.600000
759.319031	200.800000
759.356262	200.800000
759.393433	200.500000
759.430603	200.800000
759.467773	200.600000
759.505005	205.600000
759.542175	205.000000
759.579346	201.300000
759.616516	201.900000
759.653687	207.000000
759.690918	200.500000
759.728027	202.400000
759.765259	204.500000
759.802429	205.500000
759.839539	204.900000
759.876770	207.900000
759.913940	210.000000
759.951111	202.600000
759.988281	204.900000
760.025452	201.200000
760.062561	201.000000
760.099792	211.800000
760.136963	205.400000
760.174072	202.800000
760.211243	200.800000
760.248413	201.700000
760.285583	201.100000
760.322754	211.900000
760.359863	209.800000
760.397034	209.000000
760.434204	206.800000
760.471375	204.200000
760.508545	206.500000
760.545715	203.700000
760.582825	202.500000
760.619995	207.800000
760.657166	202.000000
760.694275	210.200000
760.731445	208.400000
760.768555	207.000000
760.805664	210.200000
760.842834	206.700000
760.879944	210.400000
760.917114	207.500000
760.954285	208.300000
760.991394	201.500000
761.028564	212.400000
761.065674	208.700000
761.102783	204.700000
761.139954	210.300000
761.177124	209.400000
761.214172	213.800000
761.251343	206.800000
761.288452	207.100000
761.325562	210.800000
761.362732	206.200000
761.399841	208.300000
761.436951	210.100000
761.474121	205.600000
761.511169	210.400000
761.548340	212.600000
761.585449	210.400000
761.622559	211.400000
761.659668	211.900000
761.696838	213.900000
761.733887	211.500000
761.771057	207.400000
761.808167	210.500000
761.845276	212.400000
761.882385	220.600000
761.919434	209.500000
761.956604	225.300000
761.993713	208.700000
762.030762	215.700000
762.067871	210.400000
762.105042	212.300000
762.142090	217.400000
762.179199	214.100000
762.216309	216.400000
762.253418	225.700000
762.290527	219.800000
762.327637	218.500000
762.364685	209.800000
762.401794	217.700000
762.438904	216.800000
762.475952	211.900000
762.513062	209.200000
762.550110	212.400000
762.587219	222.900000
762.624329	221.800000
762.661377	216.400000
762.698486	216.700000
762.735596	215.400000
762.772644	213.200000
762.809753	210.700000
762.846863	214.500000
762.883911	218.000000
762.921021	218.100000
762.958069	217.000000
762.995117	222.600000
763.032227	223.100000
763.069336	214.800000
763.106323	216.000000
763.143433	213.600000
763.180481	218.400000
763.217590	219.400000
763.254639	218.000000
763.291687	216.300000
763.328735	225.100000
763.365845	217.400000
763.402893	217.600000
763.439941	218.900000
763.477051	222.800000
763.514038	221.500000
763.551147	219.200000
763.588196	220.700000
763.625244	219.800000
763.662292	225.900000
763.699402	228.600000
763.736389	221.300000
763.773499	231.100000
763.810486	224.200000
763.847534	222.500000
763.884644	224.500000
763.921631	221.900000
763.958679	230.100000
763.995728	222.900000
764.032776	229.100000
764.069824	221.200000
764.106873	227.600000
764.143860	233.200000
764.180969	225.000000
764.218018	231.800000
764.255005	224.400000
764.292053	227.000000
764.329102	234.500000
764.366089	234.000000
764.403137	231.300000
764.440125	226.900000
764.477173	228.700000
764.514221	231.300000
764.551208	231.000000
764.588257	225.700000
764.625305	235.000000
764.662292	237.800000
764.699341	238.900000
764.736389	233.400000
764.773376	245.900000
764.810425	236.800000
764.847473	241.300000
764.884399	237.900000
764.921448	243.700000
764.958435	243.600000
764.995483	237.300000
765.032532	247.700000
765.069458	238.000000
765.106506	238.200000
765.143555	237.300000
765.180481	239.300000
765.217529	247.500000
765.254578	234.900000
765.291504	243.600000
765.328552	240.500000
765.365540	238.800000
765.402527	249.000000
765.439575	241.000000
765.476501	236.000000
765.513550	238.500000
765.550537	240.500000
765.587463	248.200000
765.624512	240.100000
765.661499	235.200000
765.698486	247.700000
765.735474	239.200000
765.772461	243.000000
765.809448	248.200000
765.846436	246.400000
765.883423	251.300000
765.920410	245.900000
765.957397	242.200000
765.994385	247.500000
766.031311	254.400000
766.068359	248.000000
766.105286	248.300000
766.142273	254.000000
766.179260	248.900000
766.216187	247.500000
766.253174	243.100000
766.290161	250.700000
766.327148	253.500000
766.364136	253.100000
766.401123	263.400000
766.438049	249.400000
766.475037	257.400000
766.512024	255.400000
766.548950	265.400000
766.585937	260.400000
766.622864	257.900000
766.659790	257.400000
766.696777	248.300000
766.733704	260.600000
766.770691	253.200000
766.807678	265.000000
766.844604	260.300000
766.881531	260.700000
766.918518	262.200000
766.955444	263.300000
766.992432	257.800000
767.029358	264.100000
767.066284	264.500000
767.103271	262.600000
767.140198	294.100000
767.177124	272.600000
767.214050	263.300000
767.251038	267.500000
767.287964	263.700000
767.324890	262.500000
767.361816	265.200000
767.398743	269.500000
767.435730	263.900000
767.472595	267.100000
767.509583	269.900000
767.546509	262.800000
767.583374	266.600000
767.620361	260.900000
767.657288	267.900000
767.694214	268.100000
767.731140	267.400000
767.768066	266.600000
767.804993	271.100000
767.841919	263.000000
767.878845	270.300000
767.915710	274.300000
767.952698	270.200000
767.989563	271.600000
768.026489	273.000000
768.063416	267.100000
768.100281	267.300000
768.137207	277.400000
768.174133	275.600000
768.211060	272.700000
768.247986	274.300000
768.284912	270.300000
768.321777	274.100000
768.358704	271.700000
768.395630	275.200000
768.432495	268.500000
768.469421	275.500000
768.506348	277.900000
768.543152	284.400000
768.580078	280.700000
768.616943	281.000000
768.653870	284.400000
768.690796	283.200000
768.727661	278.700000
768.764587	282.100000
768.801453	277.800000
768.838318	284.900000
768.875244	283.700000
768.912109	288.900000
768.948975	280.600000
768.985901	283.500000
769.022766	284.000000
769.059631	288.600000
769.096558	284.400000
769.133362	284.800000
769.170288	283.700000
769.207214	284.900000
769.244019	289.100000
769.280945	288.400000
769.317810	297.100000
769.354675	293.000000
769.391541	297.900000
769.428406	293.000000
769.465271	302.800000
769.502136	293.600000
769.539062	296.700000
769.575867	294.600000
769.612732	298.100000
769.649597	299.000000
769.686462	303.600000
769.723328	298.300000
769.760193	301.100000
769.797058	298.800000
769.833923	307.600000
769.870728	302.600000
769.907593	306.500000
769.944519	304.700000
769.981323	309.000000
770.018188	308.400000
770.055054	306.700000
770.091858	305.700000
770.128723	316.200000
770.165588	321.600000
770.202393	310.700000
770.239258	320.200000
770.276062	316.500000
770.312927	316.000000
770.349792	322.500000
770.386597	319.200000
770.423462	326.700000
770.460327	331.700000
770.497131	322.400000
770.533997	318.200000
770.570862	328.300000
770.607605	330.700000
770.644470	328.600000
770.681335	328.500000
770.718140	327.900000
770.754944	325.600000
770.791809	323.300000
770.828613	325.400000
770.865479	326.500000
770.902222	334.200000
770.939087	331.100000
770.975952	326.200000
771.012695	328.400000
771.049561	343.200000
771.086365	333.200000
771.123169	331.400000
771.159973	330.700000
771.196838	337.900000
771.233582	338.000000
771.270447	335.100000
771.307251	340.700000
771.344055	337.300000
771.380859	339.800000
771.417664	337.900000
771.454468	344.900000
771.491272	346.200000
771.528076	342.400000
771.564880	341.600000
771.601685	346.300000
771.638428	343.100000
771.675293	348.200000
771.712097	339.500000
771.748840	353.400000
771.785645	348.400000
771.822449	350.400000
771.859253	353.800000
771.896057	350.700000
771.932861	357.200000
771.969604	352.200000
772.006409	349.200000
772.043213	357.100000
772.079956	355.200000
772.116760	348.500000
772.153503	350.200000
772.190308	361.800000
772.227112	354.400000
772.263855	350.800000
772.300659	354.400000
772.337463	361.800000
772.374207	353.600000
772.411011	352.700000
772.447754	356.500000
772.484497	368.900000
772.521301	359.900000
772.558105	364.100000
772.594849	360.800000
772.631592	366.000000
772.668396	361.500000
772.705139	366.800000
772.741882	367.000000
772.778625	378.200000
772.815430	374.600000
772.852173	372.300000
772.888916	377.000000
772.925720	379.100000
772.962463	382.100000
772.999207	380.600000
773.035950	384.000000
773.072754	385.600000
773.109436	377.200000
773.146240	378.600000
773.182922	375.900000
773.219727	383.400000
773.256470	380.400000
773.293152	372.200000
773.329956	378.400000
773.366699	383.200000
773.403381	375.300000
773.440186	383.300000
773.476929	382.100000
773.513611	382.600000
773.550354	382.000000
773.587158	383.100000
773.623840	379.200000
773.660583	384.000000
773.697327	394.500000
773.734009	388.300000
773.770813	382.800000
773.807495	384.600000
773.844238	387.000000
773.880981	396.500000
773.917664	393.700000
773.954407	396.400000
773.991150	393.300000
774.027832	398.000000
774.064575	390.200000
774.101318	396.500000
774.138000	400.300000
774.174744	394.700000
774.211487	395.700000
774.248108	387.200000
774.284851	390.500000
774.321594	397.200000
774.358276	397.200000
774.395020	406.100000
774.431702	405.900000
774.468384	396.900000
774.505127	396.100000
774.541809	403.600000
774.578491	410.200000
774.615234	408.900000
774.651917	403.100000
774.688599	407.800000
774.725342	416.200000
774.762024	410.500000
774.798706	416.100000
774.835449	415.800000
774.872070	422.600000
774.908813	417.800000
774.945496	418.500000
774.982178	418.000000
775.018860	421.200000
775.055542	422.600000
775.092224	423.500000
775.128967	428.500000
775.165588	430.700000
775.202271	425.000000
775.239014	432.000000
775.275635	432.200000
775.312317	430.600000
775.349060	439.000000
775.385681	436.700000
775.422363	432.300000
775.459045	434.300000
775.495667	437.300000
775.532410	440.200000
775.569092	441.100000
775.605713	441.300000
775.642395	441.800000
775.679016	441.100000
775.715698	443.400000
775.752380	444.000000
775.789001	441.600000
775.825684	442.900000
775.862366	449.900000
775.898987	459.400000
775.935669	451.800000
775.972351	464.700000
776.008972	462.700000
776.045654	458.900000
776.082336	459.300000
776.118958	459.900000
776.155640	465.600000
776.192322	470.200000
776.228882	477.200000
776.265564	475.000000
776.302185	473.700000
776.338867	476.000000
776.375488	470.400000
776.412109	478.900000
776.448792	484.600000
776.485413	490.500000
776.522034	483.100000
776.558716	477.300000
776.595337	481.100000
776.631958	484.400000
776.668579	483.000000
776.705261	490.500000
776.741882	488.000000
776.778503	485.900000
776.815186	486.700000
776.851746	492.400000
776.888367	491.300000
776.924988	498.300000
776.961609	490.800000
776.998291	495.200000
777.034851	488.500000
777.071472	496.800000
777.108154	491.900000
777.144714	506.900000
777.181335	503.700000
777.218018	499.700000
777.254578	504.800000
777.291199	505.700000
777.327759	509.200000
777.364380	518.900000
777.401062	519.700000
777.437622	529.900000
777.474243	518.600000
777.510864	524.100000
777.547424	520.000000
777.584045	525.000000
777.620667	524.400000
777.657227	527.700000
777.693848	522.800000
777.730469	537.800000
777.767029	527.900000
777.803650	534.700000
777.840271	527.300000
777.876831	531.000000
777.913452	538.600000
777.950012	526.400000
777.986633	524.500000
778.023193	526.200000
778.059753	524.800000
778.096375	523.300000
778.132996	538.600000
778.169556	531.500000
778.206116	532.700000
778.242737	529.200000
778.279297	534.600000
778.315857	529.600000
778.352478	538.200000
778.389038	542.500000
778.425598	540.000000
778.462219	546.400000
778.498718	542.900000
778.535339	548.100000
778.571838	547.200000
778.608459	551.300000
778.645020	544.400000
778.681580	553.700000
778.718140	552.400000
778.754761	547.000000
778.791260	551.100000
778.827881	557.600000
778.864441	556.300000
778.900940	562.700000
778.937561	561.800000
778.974121	562.500000
779.010620	552.700000
779.047241	557.600000
779.083801	563.500000
779.120300	563.200000
779.156860	568.700000
779.193359	563.200000
779.229980	569.600000
779.266541	569.600000
779.303040	575.800000
779.339600	566.000000
779.376160	566.200000
779.412659	566.800000
779.449219	561.900000
779.485779	567.400000
779.522278	567.700000
779.558838	570.300000
779.595398	572.200000
779.631897	568.900000
779.668457	564.200000
779.705017	571.100000
779.741516	566.800000
779.778076	566.100000
779.814575	567.200000
779.851074	569.700000
779.887634	568.900000
779.924133	573.700000
779.960693	564.400000
779.997253	571.600000
780.033691	573.300000
780.070251	574.800000
780.106812	585.200000
780.143250	584.000000
780.179810	578.200000
780.216370	583.300000
780.252808	583.600000
780.289368	591.700000
780.325867	590.500000
780.362366	590.800000
780.398865	598.000000
780.435364	593.600000
780.471863	603.300000
780.508423	598.000000
780.544861	602.700000
780.581421	603.700000
780.617920	590.600000
780.654419	587.500000
780.690918	593.000000
780.727417	602.300000
780.763916	604.800000
780.800415	612.500000
780.836914	596.600000
780.873352	610.100000
780.909912	601.700000
780.946411	604.900000
780.982849	609.600000
781.019348	622.500000
781.055786	617.600000
781.092346	612.600000
781.128845	620.100000
781.165283	622.900000
781.201782	633.500000
781.238281	635.000000
781.274719	641.200000
781.311218	638.800000
781.347717	651.600000
781.384155	636.400000
781.420654	642.900000
781.457092	646.500000
781.493591	646.300000
781.530090	639.700000
781.566528	642.200000
781.602966	640.100000
781.639465	639.400000
781.675903	639.300000
781.712402	645.300000
781.748901	650.400000
781.785278	643.600000
781.821777	651.600000
781.858276	653.800000
781.894714	663.900000
781.931152	655.500000
781.967651	662.500000
782.004089	658.400000
782.040527	664.500000
782.076965	665.400000
782.113403	664.900000
782.149902	664.400000
782.186340	668.200000
782.222778	681.900000
782.259277	668.200000
782.295654	668.200000
782.332092	670.700000
782.368591	653.000000
782.404968	625.000000
782.441467	590.800000
782.477905	534.500000
782.514282	477.500000
782.550781	444.000000
782.587219	406.700000
782.623596	386.400000
782.660095	386.100000
782.696472	429.300000
782.732910	505.300000
782.769348	594.700000
782.805786	668.500000
782.842224	707.200000
782.878662	714.800000
782.915039	715.900000
782.951477	718.600000
782.987915	720.900000
783.024292	727.200000
783.060730	733.400000
783.097168	725.600000
783.133545	715.800000
783.169983	712.000000
783.206421	712.600000
783.242798	707.200000
783.279236	701.400000
783.315613	704.300000
783.352051	702.400000
783.388489	698.500000
783.424866	692.100000
783.461304	697.800000
783.497681	704.900000
783.534058	700.800000
783.570496	700.800000
783.606934	699.100000
783.643250	702.800000
783.679687	708.600000
783.716125	706.800000
783.752441	714.800000
783.788879	729.900000
783.825317	740.500000
783.861633	746.100000
783.898071	749.100000
783.934448	764.200000
783.970825	766.100000
784.007263	768.200000
784.043579	776.300000
784.080017	776.000000
784.116394	774.800000
784.152710	776.600000
784.189148	784.800000
784.225525	781.500000
784.261902	771.700000
784.298279	768.400000
784.334656	767.100000
784.371033	760.700000
784.407410	761.700000
784.443787	745.500000
784.480164	734.000000
784.516541	719.800000
784.552856	731.000000
784.589233	723.000000
784.625610	722.100000
784.661987	748.900000
784.698364	743.300000
784.734741	728.300000
784.771057	731.600000
784.807434	736.400000
784.843811	752.800000
784.880127	749.600000
784.916504	774.400000
784.952881	767.000000
784.989197	768.800000
785.025574	774.700000
785.061951	786.500000
785.098267	807.300000
785.134644	799.100000
785.170959	794.800000
785.207275	803.700000
785.243652	803.300000
785.279968	787.600000
785.316345	786.200000
785.352722	784.700000
785.388977	778.500000
785.425354	768.300000
785.461731	748.500000
785.498047	740.200000
785.534363	732.600000
785.570679	739.100000
785.606995	734.900000
785.643372	736.400000
785.679687	737.000000
785.716003	725.100000
785.752380	720.500000
785.788635	734.500000
785.825012	744.200000
785.861328	748.400000
785.897644	743.300000
785.933960	752.200000
785.970337	767.300000
786.006592	772.700000
786.042908	783.300000
786.079285	794.600000
786.115540	808.200000
786.151855	805.500000
786.188171	803.200000
786.224487	804.500000
786.260803	801.800000
786.297119	806.100000
786.333435	808.200000
786.369751	808.200000
786.406006	804.200000
786.442322	791.700000
786.478638	774.300000
786.514954	783.200000
786.551270	781.000000
786.587585	788.700000
786.623840	778.300000
786.660156	768.100000
786.696472	760.700000
786.732727	753.300000
786.769043	760.900000
786.805298	754.400000
786.841614	763.100000
786.877930	764.700000
786.914124	752.700000
786.950439	772.800000
786.986755	783.600000
787.023010	792.800000
787.059326	801.000000
787.095642	808.100000
787.131836	816.300000
787.168152	816.800000
787.204468	826.000000
787.240723	839.500000
787.276978	841.800000
787.313293	849.500000
787.349548	853.300000
787.385803	863.600000
787.422058	850.900000
787.458313	843.600000
787.494629	838.200000
787.530823	835.700000
787.567139	821.200000
787.603455	813.200000
787.639648	809.500000
787.675903	811.000000
787.712219	807.500000
787.748413	802.700000
787.784729	813.200000
787.820984	804.700000
787.857178	798.400000
787.893494	796.500000
787.929749	792.300000
787.965942	800.400000
788.002258	815.900000
788.038452	818.200000
788.074707	817.500000
788.110962	831.000000
788.147217	836.400000
788.183472	844.200000
788.219727	848.700000
788.255920	865.800000
788.292175	873.800000
788.328430	875.400000
788.364624	857.600000
788.400879	856.900000
788.437134	864.500000
788.473328	862.600000
788.509583	866.500000
788.545837	862.000000
788.582031	862.200000
788.618286	861.800000
788.654480	852.000000
788.690735	862.000000
788.726990	874.900000
788.763184	876.600000
788.799377	882.900000
788.835632	880.700000
788.871826	887.200000
788.908081	885.100000
788.944336	884.700000
788.980469	898.200000
789.016724	888.000000
789.052979	889.600000
789.089111	874.300000
789.125366	880.900000
789.161621	867.200000
789.197754	875.700000
789.234009	874.500000
789.270142	873.000000
789.306396	869.000000
789.342590	864.500000
789.378784	849.600000
789.414978	839.000000
789.451233	846.800000
789.487366	849.700000
789.523621	857.900000
789.559814	857.800000
789.595947	849.100000
789.632202	862.300000
789.668335	873.000000
789.704529	894.800000
789.740784	911.100000
789.776917	910.300000
789.813110	905.900000
789.849304	913.800000
789.885498	911.500000
789.921692	928.700000
789.957886	934.300000
789.994019	942.800000
790.030212	948.300000
790.066406	949.400000
790.102539	938.800000
790.138733	953.800000
790.174927	947.800000
790.211060	956.100000
790.247253	947.400000
790.283386	937.900000
790.319580	937.000000
790.355774	919.500000
790.391907	913.900000
790.428101	931.500000
790.464294	927.700000
790.500427	924.900000
790.536621	911.900000
790.572754	900.700000
790.608887	892.600000
790.645081	893.100000
790.681274	903.900000
790.717346	909.500000
790.753540	904.500000
790.789734	888.300000
790.825867	876.900000
790.862000	886.800000
790.898132	897.300000
790.934265	895.900000
790.970459	889.100000
791.006592	888.400000
791.042725	885.300000
791.078918	876.000000
791.114990	870.500000
791.151184	876.900000
791.187317	898.600000
791.223389	907.800000
791.259583	888.500000
791.295715	888.600000
791.331848	896.100000
791.367981	904.900000
791.404114	900.100000
791.440247	905.500000
791.476379	912.000000
791.512451	889.800000
791.548584	886.400000
791.584778	884.300000
791.620850	894.400000
791.656982	908.700000
791.693115	902.400000
791.729187	896.800000
791.765381	895.000000
791.801514	902.000000
791.837585	897.600000
791.873718	903.700000
791.909851	909.800000
791.945923	924.500000
791.982056	907.800000
792.018188	896.600000
792.054260	894.200000
792.090393	893.700000
792.126465	888.500000
792.162598	898.100000
792.198669	890.200000
792.234741	887.500000
792.270874	879.800000
792.307007	871.500000
792.343079	864.800000
792.379150	876.800000
792.415283	875.500000
792.451355	880.900000
792.487488	854.200000
792.523560	849.000000
792.559631	845.600000
792.595764	821.600000
792.631836	788.300000
792.667908	770.700000
792.703979	746.700000
792.740051	757.300000
792.776184	786.200000
792.812256	806.100000
792.848328	814.400000
792.884399	824.600000
792.920471	827.100000
792.956543	824.700000
792.992615	822.600000
793.028748	815.300000
793.064758	821.800000
793.100830	838.200000
793.136963	857.900000
793.172974	856.800000
793.209045	849.600000
793.245178	856.500000
793.281189	843.200000
793.317261	839.900000
793.353271	847.000000
793.389404	862.500000
793.425476	857.900000
793.461487	845.100000
793.497559	840.500000
793.533630	841.500000
793.569641	830.600000
793.605713	836.300000
793.641785	838.600000
793.677795	848.200000
793.713867	841.100000
793.749878	850.600000
793.785950	855.900000
793.822021	867.100000
793.858032	856.700000
793.894104	875.600000
793.930176	866.900000
793.966187	870.400000
794.002258	855.200000
794.038269	867.100000
794.074280	867.500000
794.110352	889.200000
794.146423	866.800000
794.182373	869.900000
794.218445	860.000000
794.254517	853.500000
794.290466	838.000000
794.326538	847.500000
794.362549	856.200000
794.398560	860.400000
794.434631	853.400000
794.470581	840.800000
794.506653	829.300000
794.542664	831.200000
794.578674	827.300000
794.614685	826.900000
794.650757	831.600000
794.686707	833.800000
794.722778	827.900000
794.758789	827.900000
794.794739	842.200000
794.830811	870.500000
794.866821	889.700000
794.902771	892.400000
794.938843	881.300000
794.974792	877.200000
795.010803	885.700000
795.046814	879.000000
795.082825	869.200000
795.118835	889.800000
795.154846	877.500000
795.190796	873.900000
795.226807	853.500000
795.262817	856.900000
795.298767	864.200000
795.334778	874.600000
795.370850	865.000000
795.406799	861.500000
795.442810	852.600000
795.478821	843.800000
795.514709	839.700000
795.550720	870.400000
795.586670	852.200000
795.622681	858.900000
795.658691	856.400000
795.694641	858.600000
795.730652	844.600000
795.766663	850.000000
795.802551	859.800000
795.838562	872.900000
795.874573	873.900000
795.910522	868.300000
795.946472	857.400000
795.982483	861.800000
796.018433	859.300000
796.054382	869.600000
796.090393	858.200000
796.126282	857.200000
796.162292	840.700000
796.198242	840.100000
796.234192	833.100000
796.270203	832.200000
796.306091	842.000000
796.342041	850.100000
796.378052	844.400000
796.413940	846.500000
796.449951	849.000000
796.485901	844.700000
796.521790	852.700000
796.557800	870.200000
796.593689	869.200000
796.629639	865.600000
796.665649	852.900000
796.701599	849.800000
796.737488	851.600000
796.773437	859.100000
796.809387	859.800000
796.845337	875.200000
796.881287	862.200000
796.917175	846.300000
796.953125	838.200000
796.989075	842.000000
797.024963	842.500000
797.060913	842.400000
797.096863	843.700000
797.132751	841.600000
797.168701	820.400000
797.204590	822.600000
797.240540	825.200000
797.276489	836.700000
797.312439	843.000000
797.348328	847.200000
797.384277	834.100000
797.420166	820.500000
797.456055	820.800000
797.492004	822.400000
797.527893	825.800000
797.563843	833.700000
797.599731	828.400000
797.635620	821.600000
797.671570	826.300000
797.707520	824.800000
797.743347	826.500000
797.779297	834.800000
797.815125	834.900000
797.851074	827.900000
797.887024	818.400000
797.922913	808.000000
797.958801	814.300000
797.994690	809.100000
798.030579	822.200000
798.066467	823.000000
798.102356	806.500000
798.138245	800.500000
798.174133	798.500000
798.210083	803.000000
798.245911	818.900000
798.281799	818.600000
798.317749	818.100000
798.353577	811.200000
798.389465	808.500000
798.425293	804.400000
798.461243	806.200000
798.497131	804.200000
798.532959	809.700000
798.568848	821.400000
798.604736	812.900000
798.640564	798.800000
798.676453	798.100000
798.712402	792.300000
798.748230	799.300000
798.784119	801.000000
798.820007	801.100000
798.855835	803.200000
798.891724	795.100000
798.927551	779.700000
798.963379	793.300000
798.999268	796.200000
799.035095	791.900000
799.070984	785.100000
799.106873	774.000000
799.142700	775.000000
799.178528	766.600000
799.214417	773.000000
799.250244	779.300000
799.286133	771.700000
799.321960	776.900000
799.357788	769.600000
799.393677	766.500000
799.429504	772.200000
799.465332	768.600000
799.501221	772.100000
799.537048	775.500000
799.572876	769.000000
799.608704	765.900000
799.644531	776.000000
799.680359	774.900000
799.716248	783.600000
799.752014	792.600000
799.787903	784.700000
799.823730	781.500000
799.859558	776.700000
799.895386	764.400000
799.931213	771.500000
799.967041	769.400000
800.002869	770.100000
800.038696	779.700000
800.074463	761.700000
800.110352	760.900000
800.146179	755.400000
800.181946	771.200000
800.217773	773.300000
800.253540	768.100000
800.289429	763.100000
800.325256	753.700000
800.361023	744.500000
800.396851	755.300000
800.432678	758.600000
800.468445	761.600000
800.504272	763.000000
800.540100	744.400000
800.575867	742.600000
800.611694	746.500000
800.647461	743.300000
800.683289	750.800000
800.719116	760.000000
800.754883	753.500000
800.790649	740.100000
800.826477	736.500000
800.862244	753.900000
800.898071	740.700000
800.933838	744.000000
800.969604	743.400000
801.005432	739.300000
801.041199	740.900000
801.076965	730.300000
801.112793	721.400000
801.148560	712.100000
801.184326	719.900000
801.220154	722.700000
801.255859	719.200000
801.291687	715.100000
801.327454	711.400000
801.363281	710.900000
801.398987	708.100000
801.434814	710.800000
801.470520	715.400000
801.506287	711.500000
801.542114	706.100000
801.577820	705.000000
801.613647	704.200000
801.649414	700.100000
801.685120	707.400000
801.720886	715.300000
801.756714	708.800000
801.792419	700.600000
801.828186	688.600000
801.863892	691.400000
801.899719	686.900000
801.935486	685.600000
801.971252	693.200000
802.006958	687.400000
802.042725	684.800000
802.078430	685.700000
802.114197	678.700000
802.149963	693.900000
802.185669	681.600000
802.221436	674.400000
802.257202	678.200000
802.292908	675.600000
802.328674	682.000000
802.364441	682.700000
802.400146	677.600000
802.435913	686.000000
802.471558	677.500000
802.507324	670.700000
802.543091	673.300000
802.578796	689.100000
802.614502	687.500000
802.650269	690.700000
802.685974	673.800000
802.721741	683.700000
802.757446	683.000000
802.793152	676.400000
802.828918	682.700000
802.864624	683.400000
802.900330	686.900000
802.936035	687.100000
802.971802	676.900000
803.007446	666.500000
803.043213	662.600000
803.078857	672.300000
803.114624	666.200000
803.150330	669.500000
803.185974	658.400000
803.221741	655.100000
803.257446	662.500000
803.293152	665.700000
803.328857	661.800000
803.364563	661.300000
803.400208	660.900000
803.435974	663.100000
803.471680	655.600000
803.507324	645.600000
803.543030	652.200000
803.578735	654.900000
803.614441	655.300000
803.650146	660.800000
803.685791	643.800000
803.721497	644.700000
803.757202	639.200000
803.792847	643.300000
803.828552	639.500000
803.864258	637.900000
803.899902	639.200000
803.935608	624.400000
803.971313	630.800000
804.006958	627.900000
804.042664	623.900000
804.078308	633.600000
804.113953	630.000000
804.149658	631.000000
804.185364	624.900000
804.221008	639.400000
804.256714	623.900000
804.292297	619.200000
804.328003	620.800000
804.363708	616.200000
804.399292	613.900000
804.434998	610.500000
804.470703	602.800000
804.506287	612.400000
804.541992	605.000000
804.577637	610.200000
804.613281	602.600000
804.648926	599.600000
804.684570	604.400000
804.720215	599.100000
804.755920	598.300000
804.791565	600.400000
804.827209	602.500000
804.862854	595.300000
804.898437	591.900000
804.934143	593.300000
804.969788	592.100000
805.005371	591.300000
805.041077	594.500000
805.076721	593.100000
805.112305	589.600000
805.147949	581.600000
805.183655	576.500000
805.219238	585.300000
805.254883	578.100000
805.290466	585.700000
805.326111	581.700000
805.361755	577.900000
805.397400	574.600000
805.432983	573.300000
805.468628	572.300000
805.504211	575.400000
805.539856	573.400000
805.575500	575.700000
805.611084	572.900000
805.646729	563.400000
805.682373	566.600000
805.717957	574.000000
805.753601	575.600000
805.789246	562.500000
805.824768	570.300000
805.860413	577.400000
805.895996	565.200000
805.931641	563.400000
805.967224	570.200000
806.002869	565.900000
806.038452	575.100000
806.074036	578.100000
806.109619	559.500000
806.145264	561.100000
806.180847	562.400000
806.216431	559.700000
806.252014	559.800000
806.287659	561.700000
806.323181	567.400000
806.358826	561.000000
806.394409	549.800000
806.429993	551.700000
806.465576	559.600000
806.501160	546.500000
806.536743	538.900000
806.572327	548.300000
806.607910	546.900000
806.643494	544.700000
806.679077	539.600000
806.714661	541.100000
806.750244	543.800000
806.785828	539.300000
806.821350	538.300000
806.856934	539.900000
806.892517	532.800000
806.928101	529.400000
806.963684	532.400000
806.999268	534.500000
807.034790	522.700000
807.070374	525.600000
807.105896	521.200000
807.141479	520.500000
807.177063	524.600000
807.212585	518.000000
807.248169	521.500000
807.283752	528.100000
807.319275	521.200000
807.354858	522.000000
807.390381	515.100000
807.425903	511.000000
807.461487	506.900000
807.497070	504.800000
807.532593	509.400000
807.568115	505.900000
807.603699	502.000000
807.639221	496.600000
807.674744	503.600000
807.710266	505.000000
807.745850	502.300000
807.781372	499.800000
807.816895	498.300000
807.852417	496.000000
807.888000	495.800000
807.923523	492.900000
807.959045	494.700000
807.994629	491.100000
808.030090	494.100000
808.065613	500.500000
808.101135	498.900000
808.136658	494.400000
808.172241	492.600000
808.207764	496.300000
808.243225	489.000000
808.278809	481.600000
808.314270	485.500000
808.349792	477.900000
808.385315	476.700000
808.420837	482.200000
808.456360	488.100000
808.491882	491.500000
808.527344	485.100000
808.562866	489.900000
808.598389	481.200000
808.633850	481.700000
808.669434	473.600000
808.704895	483.400000
808.740417	486.300000
808.775940	477.900000
808.811462	475.000000
808.846924	470.000000
808.882385	468.500000
808.917847	469.700000
808.953369	471.300000
808.988892	471.100000
809.024353	476.500000
809.059875	476.400000
809.095398	469.400000
809.130798	462.600000
809.166321	461.100000
809.201843	463.900000
809.237305	465.300000
809.272766	473.800000
809.308228	461.800000
809.343750	458.400000
809.379211	459.800000
809.414734	458.700000
809.450134	462.100000
809.485657	449.100000
809.521118	453.500000
809.556580	449.900000
809.592102	452.300000
809.627502	448.600000
809.663025	448.300000
809.698486	446.000000
809.733887	441.700000
809.769409	442.000000
809.804871	436.700000
809.840271	436.200000
809.875793	439.900000
809.911194	444.400000
809.946655	436.200000
809.982178	434.500000
810.017639	439.500000
810.053040	436.200000
810.088501	435.000000
810.123901	433.800000
810.159424	428.400000
810.194885	426.200000
810.230286	430.000000
810.265747	422.400000
810.301208	420.600000
810.336609	421.600000
810.372070	416.800000
810.407532	418.300000
810.442932	420.000000
810.478394	424.100000
810.513794	419.900000
810.549255	415.800000
810.584717	412.100000
810.620117	405.900000
810.655518	412.200000
810.690979	410.500000
810.726379	412.000000
810.761841	399.500000
810.797302	403.000000
810.832642	400.100000
810.868103	410.400000
810.903564	399.600000
810.938904	407.800000
810.974365	396.500000
811.009827	400.400000
811.045166	396.100000
811.080627	385.500000
811.115967	388.500000
811.151428	394.800000
811.186829	392.200000
811.222229	391.300000
811.257629	382.900000
811.293091	389.000000
811.328430	394.600000
811.363892	387.400000
811.399292	390.700000
811.434631	385.000000
811.470093	391.000000
811.505493	382.300000
811.540833	382.900000
811.576294	384.300000
811.611694	383.600000
811.647034	379.600000
811.682434	380.200000
811.717773	385.000000
811.753235	387.500000
811.788635	377.500000
811.823975	379.100000
811.859375	384.200000
811.894775	375.900000
811.930115	377.400000
811.965515	376.200000
812.000916	377.500000
812.036255	374.600000
812.071655	374.300000
812.106995	369.800000
812.142395	371.900000
812.177795	375.500000
812.213196	374.400000
812.248474	372.600000
812.283875	364.000000
812.319214	365.400000
812.354614	369.400000
812.390015	362.100000
812.425293	363.400000
812.460693	364.500000
812.496094	359.600000
812.531433	356.800000
812.566772	358.800000
812.602173	360.900000
812.637451	360.300000
812.672852	356.500000
812.708191	359.100000
812.743530	352.900000
812.778931	347.100000
812.814270	346.500000
812.849609	354.600000
812.884949	348.100000
812.920227	342.600000
812.955627	352.900000
812.990967	346.400000
813.026306	342.000000
813.061646	334.700000
813.096985	331.400000
813.132324	332.900000
813.167664	334.600000
813.203003	337.800000
813.238281	326.000000
813.273682	331.700000
813.308960	325.400000
813.344299	327.700000
813.379639	331.200000
813.414978	327.600000
813.450256	325.500000
813.485596	328.500000
813.520874	322.100000
813.556213	325.400000
813.591614	327.600000
813.626831	320.600000
813.662170	322.800000
813.697510	330.800000
813.732788	316.000000
813.768127	321.500000
813.803467	319.100000
813.838745	319.500000
813.874084	319.500000
813.909363	320.600000
813.944641	319.300000
813.979980	312.600000
814.015320	313.800000
814.050598	312.400000
814.085876	312.800000
814.121155	309.300000
814.156494	310.000000
814.191772	310.300000
814.227051	307.500000
814.262390	307.300000
814.297668	308.600000
814.332947	306.100000
814.368225	304.100000
814.403564	305.600000
814.438782	302.900000
814.474121	302.200000
814.509338	299.400000
814.544617	304.500000
814.579956	299.500000
814.615173	308.900000
814.650513	304.800000
814.685791	298.900000
814.721008	303.400000
814.756348	299.300000
814.791626	299.400000
814.826843	298.300000
814.862122	298.700000
814.897400	295.000000
814.932678	297.900000
814.967957	295.100000
815.003235	298.500000
815.038452	289.700000
815.073730	288.000000
815.108948	297.400000
815.144226	296.000000
815.179504	299.000000
815.214722	288.900000
815.250000	286.600000
815.285278	291.400000
815.320496	287.700000
815.355774	288.200000
815.391052	288.700000
815.426270	288.400000
815.461487	285.300000
815.496765	279.900000
815.531982	278.600000
815.567261	281.600000
815.602539	288.300000
815.637695	284.600000
815.672974	284.500000
815.708191	286.000000
815.743408	288.500000
815.778687	279.500000
815.813904	286.800000
815.849121	275.800000
815.884399	272.500000
815.919556	274.200000
815.954834	277.600000
815.990051	277.500000
816.025269	280.800000
816.060486	271.600000
816.095703	271.700000
816.130920	274.900000
816.166199	272.600000
816.201416	273.200000
816.236572	275.800000
816.271851	267.900000
816.307007	274.100000
816.342224	262.600000
816.377441	269.000000
816.412659	262.500000
816.447876	269.400000
816.483093	266.000000
816.518250	267.000000
816.553467	262.500000
816.588745	267.500000
816.623901	260.400000
816.659119	255.200000
816.694275	259.800000
816.729492	257.300000
816.764709	285.800000
816.799927	256.300000
816.835083	258.500000
816.870300	252.500000
816.905457	257.300000
816.940674	256.200000
816.975830	253.200000
817.010986	252.400000
817.046204	252.000000
817.081421	247.800000
817.116577	249.800000
817.151733	255.200000
817.186951	253.600000
817.222107	251.100000
817.257324	254.100000
817.292419	251.300000
817.327637	245.900000
817.362854	245.800000
817.398010	244.100000
817.433167	245.300000
817.468323	245.700000
817.503479	246.600000
817.538635	254.400000
817.573853	248.200000
817.608948	246.100000
817.644165	242.300000
817.679321	240.900000
817.714478	239.400000
817.749634	244.300000
817.784790	248.700000
817.819946	248.400000
817.855103	234.000000
817.890198	243.100000
817.925415	234.900000
817.960571	241.900000
817.995667	240.100000
818.030823	241.200000
818.066040	236.400000
818.101135	239.600000
818.136292	236.700000
818.171448	234.000000
818.206543	236.600000
818.241699	238.800000
818.276855	237.200000
818.311951	236.000000
818.347107	232.400000
818.382263	237.800000
818.417358	240.000000
818.452515	239.200000
818.487610	240.600000
818.522766	229.600000
818.557922	239.300000
818.593018	234.300000
818.628113	234.100000
818.663269	229.400000
818.698364	231.300000
818.733521	227.600000
818.768677	232.700000
818.803711	226.800000
818.838867	226.700000
818.874023	228.500000
818.909058	227.200000
818.944214	223.100000
818.979370	228.000000
819.014404	226.100000
819.049561	226.300000
819.084595	227.700000
819.119751	221.700000
819.154846	226.700000
819.189941	224.100000
819.225037	220.700000
819.260193	218.900000
819.295227	218.200000
819.330322	216.500000
819.365479	215.500000
819.400513	250.800000
819.435608	214.200000
819.470764	213.400000
819.505798	213.700000
819.540894	215.100000
819.575989	214.800000
819.611084	220.000000
819.646179	220.800000
819.681213	217.600000
819.716309	214.200000
819.751404	216.300000
819.786438	220.300000
819.821533	211.100000
819.856628	215.600000
819.891663	216.200000
819.926758	223.100000
819.961853	219.900000
819.996887	211.000000
820.031982	216.000000
820.067017	213.100000
820.102112	245.700000
820.137207	212.100000
820.172302	222.300000
820.207275	208.400000
820.242371	206.500000
820.277405	210.800000
820.312500	210.800000
820.347534	211.700000
820.382568	215.900000
820.417664	208.300000
820.452759	207.500000
820.487732	207.800000
820.522827	207.900000
820.557861	207.200000
820.592896	205.400000
820.627930	208.500000
820.662964	205.800000
820.698059	211.900000
820.733093	205.700000
820.768127	210.900000
820.803162	206.500000
820.838196	205.200000
820.873230	206.600000
820.908264	208.600000
820.943298	204.800000
820.978333	210.000000
821.013367	207.300000
821.048401	210.200000
821.083435	210.500000
821.118469	200.800000
821.153503	209.500000
821.188477	207.800000
821.223511	201.700000
821.258484	204.800000
821.293579	205.900000
821.328613	200.000000
821.363647	203.700000
821.398621	199.800000
821.433655	203.200000
821.468628	213.700000
821.503662	203.400000
821.538696	205.200000
821.573669	200.100000
821.608704	205.300000
821.643677	203.900000
821.678650	205.700000
821.713684	208.900000
821.748718	203.900000
821.783691	203.000000
821.818726	203.200000
821.853638	204.300000
821.888672	201.800000
821.923706	203.400000
821.958618	201.100000
821.993652	202.000000
822.028687	205.900000
822.063599	209.600000
822.098633	203.000000
822.133667	198.900000
822.168579	200.700000
822.203613	203.800000
822.238586	199.100000
822.273560	204.400000
822.308533	200.200000
822.343567	200.200000
822.378479	201.800000
822.413452	200.500000
822.448425	197.500000
822.483398	205.300000
822.518372	204.400000
822.553345	198.200000
822.588318	208.000000
822.623291	199.600000
822.658203	197.900000
822.693237	201.500000
822.728210	198.500000
822.763123	200.000000
822.798096	198.600000
822.833069	199.900000
822.867981	199.500000
822.902954	202.500000
822.937927	202.200000
822.972900	207.700000
823.007874	196.800000
823.042725	203.900000
823.077698	210.100000
823.112671	196.900000
823.147583	199.200000
823.182556	202.100000
823.217529	204.400000
823.252441	197.900000
823.287415	209.700000
823.322388	202.900000
823.357239	199.700000
823.392212	204.500000
823.427185	205.400000
823.462097	196.500000
823.497009	202.100000
823.531982	198.200000
823.566895	201.200000
823.601807	197.800000
823.636719	200.700000
823.671631	201.800000
823.706604	199.300000
823.741455	201.300000
823.776428	193.800000
823.811340	202.300000
823.846252	206.900000
823.881165	205.200000
823.916138	200.200000
823.950989	205.600000
823.985901	198.100000
824.020813	201.000000
824.055725	199.300000
824.090637	195.000000
824.125610	201.300000
824.160461	202.500000
824.195374	200.600000
824.230225	202.800000
824.265198	195.500000
824.300110	197.000000
824.334961	207.400000
824.369873	193.600000
824.404785	201.500000
824.439636	203.200000
824.474548	192.000000
824.509460	191.600000
824.544312	202.800000
824.579224	201.300000
824.614075	200.200000
824.648987	196.900000
824.683899	198.200000
824.718811	196.500000
824.753662	202.900000
824.788574	202.600000
824.823364	198.900000
824.858276	195.500000
824.893188	201.700000
824.928040	202.100000
824.962952	198.500000
824.997803	200.900000
825.032654	198.100000
825.067566	199.900000
825.102417	195.100000
825.137268	197.000000
825.172119	195.900000
825.206970	194.700000
825.241882	196.300000
825.276733	194.300000
825.311646	193.700000
825.346436	192.200000
825.381348	193.200000
825.416138	197.400000
825.450989	192.700000
825.485901	189.200000
825.520691	190.600000
825.555542	191.000000
825.590454	194.300000
825.625244	188.900000
825.660095	201.900000
825.695007	197.800000
825.729797	196.200000
825.764648	190.900000
825.799438	194.200000
825.834290	195.000000
825.869202	189.100000
825.903992	193.100000
825.938843	192.300000
825.973694	190.200000
826.008484	203.300000
826.043335	189.000000
826.078186	187.500000
826.112976	196.500000
826.147827	198.200000
826.182678	199.600000
826.217468	187.600000
826.252319	197.700000
826.287109	190.000000
826.321899	195.900000
826.356750	193.600000
826.391541	187.700000
826.426392	196.100000
826.461182	192.100000
826.495972	189.100000
826.530823	184.500000
826.565613	193.700000
826.600403	188.700000
826.635254	195.400000
826.670044	186.400000
826.704834	187.600000
826.739685	187.700000
826.774475	195.000000
826.809265	192.600000
826.844055	189.600000
826.878906	196.100000
826.913635	193.300000
826.948425	193.000000
826.983215	195.000000
827.018005	194.600000
827.052856	189.100000
827.087585	194.500000
827.122375	185.700000
827.157227	191.100000
827.191956	201.000000
827.226746	188.400000
827.261536	193.400000
827.296265	187.400000
827.331116	188.900000
827.365906	193.100000
827.400635	189.600000
827.435425	184.800000
827.470215	194.300000
827.504944	191.400000
827.539734	194.100000
827.574463	190.200000
827.609253	196.900000
827.644043	190.600000
827.678772	193.700000
827.713562	190.600000
827.748352	190.600000
827.783081	187.300000
827.817871	191.700000
827.852600	189.000000
827.887329	192.000000
827.922119	185.800000
827.956848	193.800000
827.991638	202.100000
828.026367	191.900000
828.061157	192.700000
828.095886	192.800000
828.130615	205.100000
828.165344	184.500000
828.200073	190.200000
828.234863	189.400000
828.269592	191.700000
828.304321	194.700000
828.339111	191.600000
828.373779	189.400000
828.408569	194.100000
828.443298	194.800000
828.477966	189.000000
828.512756	191.000000
828.547424	187.200000
828.582214	189.200000
828.616943	189.700000
828.651672	191.800000
828.686340	194.000000
828.721130	188.700000
828.755798	191.000000
828.790527	190.300000
828.825256	191.400000
828.859924	193.700000
828.894714	195.600000
828.929443	198.300000
828.964111	188.500000
828.998840	194.000000
829.033569	188.300000
829.068237	191.600000
829.102966	188.300000
829.137634	192.700000
829.172363	192.600000
829.207092	191.900000
829.241821	188.600000
829.276489	187.300000
829.311157	191.200000
829.345825	190.200000
829.380554	195.800000
829.415283	188.500000
829.449951	185.900000
829.484619	199.500000
829.519348	196.700000
829.554016	191.400000
829.588745	191.500000
829.623413	188.300000
829.658081	199.800000
829.692749	187.400000
829.727417	194.800000
829.762146	192.300000
829.796814	187.300000
829.831482	190.400000
829.866150	190.500000
829.900879	189.400000
829.935486	192.500000
829.970154	188.700000
830.004883	201.600000
830.039490	191.900000
830.074219	188.100000
830.108887	192.500000
830.143494	189.400000
830.178223	185.600000
830.212891	192.200000
830.247498	190.300000
830.282166	196.400000
830.316772	193.900000
830.351501	188.800000
830.386169	190.800000
830.420776	190.700000
830.455444	190.600000
830.490112	189.100000
830.524719	184.100000
830.559387	193.000000
830.594055	192.000000
830.628662	191.800000
830.663330	190.500000
830.697998	197.800000
830.732605	191.100000
830.767273	192.000000
830.801941	191.700000
830.836487	199.700000
830.871155	192.800000
830.905762	192.900000
830.940430	185.600000
830.975098	189.600000
831.009644	191.800000
831.044312	199.300000
831.078979	194.700000
831.113525	184.900000
831.148193	190.700000
831.182861	189.700000
831.217407	193.200000
831.252075	202.500000
831.286621	189.700000
831.321289	188.600000
831.355896	191.000000
831.390564	195.700000
831.425110	192.700000
831.459778	195.900000
831.494324	200.700000
831.528931	192.700000
831.563599	196.400000
831.598145	185.800000
831.632751	190.200000
831.667419	188.700000
831.701965	192.600000
831.736572	193.200000
831.771179	187.800000
831.805786	188.000000
831.840393	197.100000
831.874939	184.900000
831.909546	194.900000
831.944153	185.000000
831.978760	191.300000
832.013306	186.800000
832.047913	197.700000
832.082458	198.300000
832.117065	189.300000
832.151672	198.800000
832.186218	194.200000
832.220825	194.200000
832.255432	185.200000
832.289978	187.500000
832.324585	194.000000
832.359192	191.900000
832.393677	191.400000
832.428284	192.100000
832.462830	190.100000
832.497437	190.200000
832.531982	193.200000
832.566589	189.600000
832.601135	192.800000
832.635681	185.000000
832.670227	190.500000
832.704773	197.700000
832.739380	192.700000
832.773926	192.100000
832.808472	187.600000
832.843079	191.000000
832.877563	192.400000
832.912170	190.500000
832.946716	185.100000
832.981201	195.000000
833.015808	192.800000
833.050293	191.300000
833.084839	188.000000
833.119446	192.000000
833.153992	194.600000
833.188477	189.900000
833.223022	188.300000
833.257568	193.800000
833.292114	196.200000
833.326660	201.600000
833.361145	189.800000
833.395691	185.500000
833.430237	190.500000
833.464783	193.600000
833.499329	189.500000
833.533875	188.500000
833.568359	194.100000
833.602905	196.200000
833.637390	195.400000
833.671875	190.700000
833.706421	190.600000
833.740906	190.100000
833.775452	183.800000
833.809998	188.600000
833.844482	196.800000
833.879028	190.600000
833.913513	189.300000
833.947998	193.200000
833.982544	187.800000
834.017090	187.400000
834.051514	183.700000
834.086060	193.600000
834.120544	190.700000
834.155029	193.000000
834.189575	190.300000
834.223999	192.200000
834.258545	192.800000
834.293030	191.600000
834.327515	190.700000
834.362000	189.000000
834.396545	194.100000
834.430969	190.400000
834.465454	195.000000
834.500000	184.700000
834.534424	191.500000
834.568970	184.800000
834.603455	185.200000
834.637878	187.300000
834.672363	193.100000
834.706909	190.300000
834.741333	190.600000
834.775818	185.100000
834.810242	187.200000
834.844727	191.200000
834.879211	190.500000
834.913635	191.500000
834.948181	192.200000
834.982666	191.800000
835.017090	189.500000
835.051575	191.800000
835.086060	189.800000
835.120483	193.500000
835.154907	193.300000
835.189331	190.400000
835.223816	194.800000
835.258301	186.900000
835.292786	188.800000
835.327209	194.500000
835.361694	188.500000
835.396057	189.900000
835.430542	193.100000
835.465027	189.700000
835.499390	188.200000
835.533875	216.000000
835.568359	188.100000
835.602722	185.600000
835.637207	192.400000
835.671692	187.200000
835.706055	206.700000
835.740540	192.300000
835.774902	192.500000
835.809387	192.900000
835.843811	185.600000
835.878235	196.500000
835.912659	186.300000
835.947083	187.600000
835.981506	189.800000
836.015930	186.500000
836.050354	194.700000
836.084778	196.800000
836.119202	193.300000
836.153625	204.100000
836.187988	187.700000
836.222473	188.800000
836.256897	192.300000
836.291260	189.900000
836.325684	191.800000
836.360046	188.500000
836.394470	190.600000
836.428894	197.600000
836.463318	189.100000
836.497681	194.100000
836.532104	196.100000
836.566467	191.900000
836.600891	189.500000
836.635315	195.100000
836.669678	191.700000
836.704102	194.300000
836.738525	193.300000
836.772888	184.800000
836.807251	188.400000
836.841675	194.600000
836.876038	187.500000
836.910461	189.500000
836.944763	193.400000
836.979187	187.000000
837.013611	194.700000
837.047974	187.600000
837.082336	199.500000
837.116699	193.200000
837.151062	192.300000
837.185486	185.300000
837.219849	189.500000
837.254211	194.800000
837.288574	190.600000
837.322937	186.600000
837.357300	183.600000
837.391663	199.400000
837.426086	194.100000
837.460388	190.500000
837.494751	194.300000
837.529114	188.400000
837.563477	196.700000
837.597839	191.700000
837.632141	189.800000
837.666565	188.300000
837.700928	195.300000
837.735229	193.000000
837.769592	195.200000
837.803955	193.900000
837.838257	189.600000
837.872620	188.800000
837.906982	197.200000
837.941284	190.900000
837.975647	192.700000
838.010010	196.700000
838.044312	189.400000
838.078674	188.800000
838.112976	191.900000
838.147339	193.200000
838.181702	191.500000
838.216003	197.700000
838.250366	192.600000
838.284668	193.700000
838.318970	185.400000
838.353333	190.400000
838.387634	190.400000
838.421936	190.600000
838.456299	191.300000
838.490601	196.800000
838.524902	193.800000
838.559265	195.100000
838.593567	195.100000
838.627869	185.700000
838.662170	192.600000
838.696472	188.000000
838.730774	188.000000
838.765137	194.100000
838.799377	180.200000
838.833740	189.700000
838.868042	193.900000
838.902283	186.200000
838.936646	195.800000
838.970947	192.200000
839.005188	196.500000
839.039551	186.500000
839.073792	195.100000
839.108093	190.700000
839.142395	198.000000
839.176697	187.200000
839.210937	192.900000
839.245300	199.600000
839.279541	187.800000
839.313843	191.100000
839.348145	193.700000
839.382385	195.800000
839.416687	194.300000
839.450989	192.900000
839.485229	190.000000
839.519531	190.000000
839.553833	194.400000
839.588013	191.200000
839.622314	192.200000
839.656555	194.400000
839.690857	189.900000
839.725159	187.900000
839.759460	190.300000
839.793640	189.300000
839.827942	190.700000
839.862183	186.200000
839.896423	192.600000
839.930725	202.300000
839.964966	199.700000
839.999207	195.000000
840.033508	197.400000
840.067688	188.600000
840.101990	197.700000
840.136230	191.100000
840.170471	197.400000
840.204712	187.700000
840.238953	187.900000
840.273193	190.200000
840.307434	193.800000
840.341736	188.000000
840.375916	186.900000
840.410217	187.200000
840.444397	195.000000
840.478638	192.400000
840.512878	196.500000
840.547119	190.200000
840.581360	195.600000
840.615601	198.400000
840.649780	201.100000
840.684021	191.500000
840.718262	198.600000
840.752441	197.800000
840.786682	191.900000
840.820862	192.300000
840.855103	198.100000
840.889343	191.200000
840.923584	196.200000
840.957764	191.700000
840.992004	192.800000
841.026184	202.400000
841.060425	192.300000
841.094666	189.000000
841.128845	194.600000
841.163025	191.800000
841.197266	194.300000
841.231445	191.700000
841.265686	194.200000
841.299866	188.500000
841.334045	196.600000
841.368286	191.500000
841.402405	196.500000
841.436646	194.600000
841.470825	188.700000
841.505005	190.500000
841.539185	187.800000
841.573425	187.900000
841.607544	190.200000
841.641785	191.100000
841.675964	188.100000
841.710144	190.600000
841.744324	189.500000
841.778503	191.300000
841.812683	188.500000
841.846863	197.100000
841.881042	197.500000
841.915222	188.300000
841.949402	202.200000
841.983521	185.200000
842.017700	190.800000
842.051880	192.400000
842.086060	192.500000
842.120239	191.600000
842.154419	189.800000
842.188538	193.500000
842.222717	188.900000
842.256897	199.200000
842.291016	190.200000
842.325195	193.400000
842.359375	198.600000
842.393494	198.900000
842.427673	191.300000
842.461853	192.700000
842.495911	198.500000
842.530090	193.500000
842.564209	190.700000
842.598389	193.900000
842.632568	193.200000
842.666626	192.900000
842.700806	189.700000
842.734985	189.800000
842.769043	194.600000
842.803223	190.300000
842.837402	190.800000
842.871460	188.200000
842.905640	199.700000
842.939697	188.000000
842.973877	192.100000
843.007996	195.700000
843.042175	199.100000
843.076233	189.400000
843.110413	193.600000
843.144470	197.200000
843.178589	194.500000
843.212769	189.600000
843.246826	195.000000
843.280945	188.500000
843.315125	192.100000
843.349182	187.900000
843.383301	195.800000
843.417419	201.800000
843.451538	192.200000
843.485657	191.000000
843.519714	191.800000
843.553833	192.800000
843.587952	190.300000
843.622070	188.000000
843.656128	194.300000
843.690247	189.500000
843.724304	193.000000
843.758423	192.700000
843.792542	189.900000
843.826599	191.700000
843.860718	191.000000
843.894836	185.600000
843.928894	193.400000
843.963013	192.700000
843.997070	188.200000
844.031128	187.700000
844.065247	194.700000
844.099304	193.700000
844.133362	193.200000
844.167480	194.300000
844.201599	197.600000
844.235596	194.300000
844.269714	193.300000
844.303711	193.200000
844.337830	185.300000
844.371948	193.900000
844.405945	191.500000
844.440063	187.700000
844.474121	202.500000
844.508118	189.600000
844.542236	191.400000
844.576294	190.600000
844.610352	187.600000
844.644409	191.200000
844.678406	185.600000
844.712524	195.900000
844.746582	196.900000
844.780640	192.000000
844.814636	191.100000
844.848755	202.700000
844.882751	191.100000
844.916809	196.600000
844.950867	193.600000
844.984863	197.900000
845.018921	190.800000
845.052979	189.200000
845.086975	192.200000
845.121033	187.700000
845.155090	187.800000
845.189087	198.500000
845.223145	189.100000
845.257141	194.900000
845.291199	193.800000
845.325256	197.100000
845.359253	193.100000
845.393250	204.700000
845.427307	189.300000
845.461304	193.500000
845.495361	191.400000
845.529358	199.200000
845.563354	190.600000
845.597412	188.900000
845.631409	198.000000
845.665405	197.600000
845.699463	194.600000
845.733459	189.700000
845.767456	200.500000
845.801453	190.100000
845.835449	196.200000
845.869446	195.800000
845.903503	193.700000
845.937439	187.900000
845.971497	198.500000
846.005493	186.800000
846.039429	196.400000
846.073486	201.100000
846.107483	189.500000
846.141418	190.300000
846.175476	194.100000
846.209473	196.200000
846.243408	189.500000
846.277405	193.000000
846.311401	189.600000
846.345337	190.100000
846.379395	196.900000
846.413330	189.600000
846.447327	201.400000
846.481323	188.700000
846.515259	190.800000
846.549255	191.100000
846.583252	195.900000
846.617187	188.600000
846.651184	193.100000
846.685120	191.000000
846.719055	200.900000
846.753052	195.800000
846.786987	196.000000
846.820984	186.400000
846.854980	197.500000
846.888916	188.800000
846.922852	193.100000
846.956848	197.300000
846.990723	190.000000
847.024719	193.800000
847.058716	190.600000
847.092590	197.900000
847.126587	194.100000
847.160522	190.200000
847.194458	196.900000
847.228455	188.600000
847.262390	187.500000
847.296265	192.000000
847.330261	195.000000
847.364136	190.100000
847.398132	190.700000
847.432068	192.300000
847.466003	190.900000
847.499939	191.600000
847.533875	193.500000
847.567749	192.200000
847.601746	191.600000
847.635681	194.400000
847.669556	185.600000
847.703491	197.900000
847.737427	202.900000
847.771301	189.300000
847.805237	194.200000
847.839233	193.400000
847.873108	192.000000
847.907043	190.800000
847.940918	198.300000
847.974854	194.700000
848.008789	195.200000
848.042664	192.300000
848.076538	194.100000
848.110474	192.700000
848.144348	193.500000
848.178284	187.800000
848.212219	193.000000
848.246094	191.100000
848.279968	193.000000
848.313904	195.800000
848.347778	193.700000
848.381653	191.000000
848.415588	190.900000
848.449463	189.000000
848.483337	194.400000
848.517212	198.300000
848.551086	191.600000
848.585022	187.500000
848.618835	200.200000
848.652771	189.300000
848.686646	188.400000
848.720520	197.500000
848.754395	190.600000
848.788330	195.200000
848.822144	196.200000
848.856018	190.700000
848.889954	201.400000
848.923767	188.100000
848.957642	188.900000
848.991577	193.300000
849.025391	191.900000
849.059265	191.100000
849.093079	190.200000
849.126953	187.900000
849.160828	196.500000
849.194641	192.300000
849.228577	190.400000
849.262451	191.200000
849.296265	190.800000
849.330139	188.800000
849.364014	192.700000
849.397827	193.400000
849.431702	192.700000
849.465515	195.800000
849.499329	184.500000
849.533203	189.200000
849.567078	185.000000
849.600891	193.700000
849.634766	192.300000
849.668518	195.600000
849.702393	192.900000
849.736267	188.100000
849.770020	200.400000
849.803894	193.400000
849.837769	192.200000
849.871521	192.400000
849.905396	194.800000
849.939270	188.800000
849.973022	190.900000
850.006897	194.100000
850.040710	194.600000
850.074524	194.900000
850.108337	190.700000
850.142151	197.800000
850.175964	196.700000
850.209778	191.600000
850.243530	182.600000
850.277405	195.300000
850.311218	191.700000
850.344971	191.100000
850.378845	197.100000
850.412659	189.400000
850.446411	193.300000
850.480225	192.700000
850.514038	196.400000
850.547791	196.700000
850.581665	192.300000
850.615417	190.800000
850.649231	192.400000
850.683044	192.400000
850.716858	192.500000
850.750610	194.400000
850.784424	195.400000
850.818176	189.200000
850.851929	190.500000
850.885742	188.500000
850.919495	191.000000
850.953308	199.300000
850.987122	197.500000
851.020874	188.000000
851.054626	187.400000
851.088440	194.900000
851.122192	195.300000
851.156006	192.300000
851.189697	192.100000
851.223511	188.500000
851.257263	197.600000
851.291077	193.800000
851.324829	190.000000
851.358582	191.900000
851.392334	191.200000
851.426086	188.900000
851.459900	198.700000
851.493591	193.700000
851.527344	192.100000
851.561157	191.900000
851.594849	193.500000
851.628662	191.800000
851.662415	199.900000
851.696106	193.700000
851.729858	195.800000
851.763611	187.500000
851.797363	193.900000
851.831116	189.300000
851.864868	195.500000
851.898560	196.800000
851.932312	191.400000
851.966064	193.800000
851.999817	192.500000
852.033569	191.700000
852.067261	197.900000
852.101013	190.000000
852.134766	191.200000
852.168457	184.400000
852.202209	197.400000
852.235901	189.000000
852.269592	195.800000
852.303345	198.300000
852.337036	196.400000
852.370789	192.600000
852.404541	195.400000
852.438171	188.800000
852.471924	193.300000
852.505676	188.700000
852.539307	193.500000
852.573059	191.000000
852.606812	191.600000
852.640442	190.000000
852.674194	196.000000
852.707886	201.200000
852.741577	196.900000
852.775269	189.900000
852.809021	193.400000
852.842651	194.700000
852.876404	198.100000
852.910034	192.400000
852.943787	196.000000
852.977478	194.400000
853.011108	190.200000
853.044861	190.500000
853.078552	196.300000
853.112183	192.400000
853.145874	191.900000
853.179626	187.000000
853.213257	193.200000
853.246948	189.600000
853.280640	200.500000
853.314270	192.400000
853.347961	197.700000
853.381653	195.400000
853.415283	197.600000
853.448975	191.300000
853.482605	194.000000
853.516296	193.300000
853.549988	189.000000
853.583618	195.600000
853.617310	193.600000
853.651001	194.500000
853.684631	188.000000
853.718323	190.000000
853.751953	197.000000
853.785583	187.200000
853.819275	196.000000
853.852966	194.500000
853.886536	186.900000
853.920227	189.500000
853.953918	195.900000
853.987488	192.400000
854.021179	195.400000
854.054749	198.600000
854.088440	195.100000
854.122131	188.600000
854.155701	193.900000
854.189331	189.100000
854.223022	195.300000
854.256592	193.400000
854.290283	189.600000
854.323914	194.300000
854.357483	194.300000
854.391174	193.500000
854.424744	198.300000
854.458374	193.500000
854.492065	202.900000
854.525696	189.900000
854.559265	197.300000
854.592896	201.100000
854.626465	193.000000
854.660095	192.200000
854.693787	194.800000
854.727356	190.700000
854.760986	195.300000
854.794617	193.700000
854.828186	191.300000
854.861816	194.100000
854.895447	194.600000
854.929016	192.000000
854.962585	194.300000
854.996155	200.400000
855.029785	194.600000
855.063416	193.700000
855.097046	195.800000
855.130615	189.400000
855.164185	197.500000
855.197754	193.500000
855.231384	195.000000
855.264954	191.400000
855.298523	195.000000
855.332153	194.800000
855.365723	197.900000
855.399292	189.200000
855.432922	191.900000
855.466492	195.400000
855.500061	190.000000
855.533630	188.800000
855.567200	195.600000
855.600769	196.200000
855.634338	196.100000
855.667969	193.700000
855.701477	189.100000
855.735046	189.700000
855.768616	186.700000
855.802185	194.100000
855.835754	203.500000
855.869324	186.300000
855.902893	191.500000
855.936401	197.700000
855.969971	193.800000
856.003540	187.800000
856.037109	195.600000
856.070618	192.500000
856.104187	188.600000
856.137695	190.700000
856.171265	185.900000
856.204834	193.200000
856.238403	195.800000
856.271912	192.000000
856.305481	193.200000
856.338989	189.000000
856.372559	195.200000
856.406128	195.600000
856.439636	197.100000
856.473145	192.200000
856.506653	198.800000
856.540222	192.900000
856.573792	196.400000
856.607300	196.800000
856.640808	188.100000
856.674377	192.300000
856.707825	225.300000
856.741394	197.900000
856.774902	189.600000
856.808472	185.600000
856.841980	195.100000
856.875488	196.100000
856.908936	187.500000
856.942505	191.000000
856.976013	192.000000
857.009521	188.000000
857.043030	191.500000
857.076477	191.100000
857.110046	198.000000
857.143555	192.500000
857.177063	196.100000
857.210571	192.100000
857.244080	186.800000
857.277527	194.100000
857.311035	193.100000
857.344543	196.600000
857.378052	191.500000
857.411499	199.100000
857.445068	199.600000
857.478516	192.400000
857.512024	189.500000
857.545532	191.700000
857.578979	196.000000
857.612427	192.300000
857.645874	188.900000
857.679382	193.400000
857.712891	197.100000
857.746399	191.600000
857.779846	198.500000
857.813354	196.000000
857.846741	192.400000
857.880249	189.800000
857.913757	195.400000
857.947266	193.700000
857.980652	196.500000
858.014160	191.200000
858.047546	190.200000
858.081055	190.900000
858.114563	202.700000
858.147949	187.600000
858.181458	194.100000
858.214844	191.600000
858.248352	185.200000
858.281799	196.300000
858.315308	202.600000
858.348694	194.400000
858.382141	199.300000
858.415588	196.800000
858.449036	195.200000
858.482483	193.800000
858.515930	191.200000
858.549377	191.100000
858.582825	197.100000
858.616211	194.600000
858.649658	195.000000
858.683105	189.300000
858.716553	191.200000
858.750000	189.200000
858.783386	189.900000
858.816833	187.300000
858.850281	193.500000
858.883728	193.600000
858.917114	194.200000
858.950562	199.300000
858.983948	198.300000
859.017395	197.300000
859.050781	190.800000
859.084167	190.100000
859.117615	188.900000
859.151062	196.400000
859.184448	190.800000
859.217834	191.900000
859.251282	189.600000
859.284668	188.500000
859.318054	185.500000
859.351440	191.500000
859.384888	198.800000
859.418274	188.800000
859.451721	186.200000
859.485046	194.200000
859.518494	194.900000
859.551819	188.600000
859.585266	195.100000
859.618652	197.400000
859.652039	188.100000
859.685425	187.800000
859.718811	189.300000
859.752197	183.900000
859.785583	196.800000
859.819031	196.800000
859.852356	194.300000
859.885742	188.000000
859.919067	193.300000
859.952454	189.700000
859.985901	195.200000
860.019287	190.300000
860.052612	0.000000
860.085999	0.000000
860.119324	0.000000
860.152710	0.000000
860.186096	0.000000
860.219421	0.000000
860.252808	0.000000
860.286133	0.000000
860.319519	0.000000
860.352905	0.000000
860.386292	0.000000
860.419617	0.000000
860.452942	0.000000
860.486267	0.000000
860.519653	0.000000
860.553040	0.000000
860.586365	0.000000
860.619690	0.000000
860.653076	0.000000
860.686340	0.000000
860.719727	0.000000
860.753113	0.000000
860.786377	0.000000
860.819763	0.000000
860.853027	0.000000
860.886414	0.000000
860.919739	0.000000
860.953125	0.000000
860.986389	0.000000
861.019714	0.000000
861.053040	0.000000
861.086365	0.000000
861.119690	0.000000
861.153076	0.000000
861.186340	0.000000
861.219666	0.000000
861.252930	0.000000
861.286316	0.000000
861.319641	0.000000
861.352905	0.000000
861.386230	0.000000
861.419495	0.000000
861.452820	0.000000
861.486145	0.000000
861.519470	0.000000
861.552734	0.000000
861.586060	0.000000
861.619324	0.000000
861.652649	0.000000
861.685974	0.000000
861.719238	0.000000
861.752563	0.000000
861.785828	0.000000
861.819092	0.000000
861.852417	0.000000
861.885742	0.000000
861.918945	0.000000
861.952271	0.000000
861.985535	0.000000
862.018799	0.000000
862.052124	0.000000
862.085449	0.000000
862.118652	0.000000
862.151978	0.000000
862.185181	0.000000
862.218506	0.000000
862.251770	0.000000
862.285034	0.000000
862.318298	0.000000
862.351562	0.000000
862.384827	0.000000
862.418091	0.000000
862.451355	0.000000
862.484619	0.000000
862.517883	0.000000
862.551086	0.000000
862.584351	0.000000
862.617676	0.000000
862.650940	0.000000
862.684143	0.000000
862.717407	0.000000
862.750610	0.000000
862.783875	0.000000
862.817139	0.000000
862.850342	0.000000
862.883606	0.000000
862.916870	0.000000
862.950073	0.000000
862.983337	0.000000
863.016602	0.000000
863.049805	0.000000
863.083069	0.000000
863.116211	0.000000
863.149475	0.000000
863.182739	0.000000
863.216003	0.000000
863.249146	0.000000
863.282410	0.000000
863.315613	0.000000
863.348816	0.000000
863.382080	0.000000
863.415222	0.000000
863.448486	0.000000
863.481689	0.000000
863.514893	0.000000
863.548157	0.000000
863.581360	0.000000
863.614502	0.000000
863.647766	0.000000
863.680908	0.000000
863.714172	0.000000
863.747375	0.000000
863.780579	0.000000
863.813721	0.000000
863.846985	0.000000
863.880127	0.000000
863.913330	0.000000
863.946533	0.000000
863.979675	0.000000
864.012939	0.000000
