Model Number: SPM-001-M   
Serial Number: 10090201
Firmware Version: 004.17.6
Exposure Time: 300000.000000us
Data Taken on: 21-01-2021 14:12:37.687
Wavelength	Amplitude
733.770752	0.000000
733.808716	0.000000
733.846619	0.000000
733.884583	0.000000
733.922546	0.000000
733.960449	0.000000
733.998413	0.000000
734.036377	0.000000
734.074219	0.000000
734.112183	0.000000
734.150085	0.000000
734.188049	0.000000
734.226013	0.000000
734.263916	0.000000
734.301819	0.000000
734.339783	0.000000
734.377686	0.000000
734.415588	0.000000
734.453552	0.000000
734.491455	0.000000
734.529419	0.000000
734.567322	0.000000
734.605225	0.000000
734.643127	0.000000
734.681091	0.000000
734.718994	0.000000
734.756897	0.000000
734.794800	0.000000
734.832703	0.000000
734.870667	0.000000
734.908508	0.000000
734.946472	0.000000
734.984375	0.000000
735.022278	0.000000
735.060181	0.000000
735.098083	0.000000
735.135986	0.000000
735.173889	0.000000
735.211792	0.000000
735.249695	0.000000
735.287598	0.000000
735.325439	0.000000
735.363403	0.000000
735.401306	0.000000
735.439148	0.000000
735.477051	0.000000
735.515015	0.000000
735.552856	0.000000
735.590759	0.000000
735.628662	0.000000
735.666504	0.000000
735.704407	0.000000
735.742310	0.000000
735.780212	0.000000
735.818115	0.000000
735.856018	0.000000
735.893860	0.000000
735.931763	0.000000
735.969604	0.000000
736.007507	0.000000
736.045410	0.000000
736.083252	0.000000
736.121094	0.000000
736.158997	0.000000
736.196838	0.000000
736.234741	0.000000
736.272644	0.000000
736.310486	0.000000
736.348389	0.000000
736.386230	0.000000
736.424072	0.000000
736.461975	0.000000
736.499878	0.000000
736.537720	0.000000
736.575562	0.000000
736.613403	0.000000
736.651306	0.000000
736.689148	0.000000
736.726990	0.000000
736.764893	0.000000
736.802734	0.000000
736.840576	0.000000
736.878418	0.000000
736.916321	0.000000
736.954102	0.000000
736.992004	0.000000
737.029846	0.000000
737.067688	0.000000
737.105530	0.000000
737.143372	0.000000
737.181213	0.000000
737.219116	0.000000
737.256897	0.000000
737.294739	0.000000
737.332642	0.000000
737.370422	0.000000
737.408325	0.000000
737.446167	0.000000
737.483948	0.000000
737.521790	0.000000
737.559692	0.000000
737.597473	0.000000
737.635315	0.000000
737.673157	0.000000
737.710999	0.000000
737.748840	0.000000
737.786621	0.000000
737.824463	0.000000
737.862305	0.000000
737.900085	0.000000
737.937927	0.000000
737.975769	0.000000
738.013550	0.000000
738.051392	0.000000
738.089233	0.000000
738.127014	0.000000
738.164856	0.000000
738.202698	0.000000
738.240479	0.000000
738.278320	0.000000
738.316162	0.000000
738.353943	0.000000
738.391785	0.000000
738.429565	0.000000
738.467407	0.000000
738.505188	0.000000
738.542969	0.000000
738.580811	0.000000
738.618652	0.000000
738.656372	0.000000
738.694214	0.000000
738.732056	0.000000
738.769836	0.000000
738.807617	0.000000
738.845459	0.000000
738.883240	0.000000
738.921021	0.000000
738.958862	0.000000
738.996582	0.000000
739.034424	0.000000
739.072205	0.000000
739.109985	0.000000
739.147827	0.000000
739.185547	0.000000
739.223389	0.000000
739.261169	0.000000
739.298889	0.000000
739.336731	0.000000
739.374512	0.000000
739.412292	0.000000
739.450073	0.000000
739.487854	0.000000
739.525635	0.000000
739.563416	0.000000
739.601135	0.000000
739.638977	0.000000
739.676758	0.000000
739.714478	0.000000
739.752258	0.000000
739.790100	0.000000
739.827820	0.000000
739.865601	0.000000
739.903381	0.000000
739.941101	0.000000
739.978882	194.500000
740.016724	191.500000
740.054443	194.100000
740.092224	188.800000
740.130005	189.700000
740.167725	190.400000
740.205505	189.100000
740.243225	194.800000
740.281006	191.700000
740.318787	185.800000
740.356506	197.000000
740.394287	194.400000
740.432068	188.600000
740.469727	186.300000
740.507507	194.300000
740.545288	192.200000
740.583008	192.000000
740.620789	191.600000
740.658569	186.000000
740.696228	191.300000
740.734009	194.700000
740.771790	182.500000
740.809509	193.100000
740.847229	187.200000
740.884949	188.800000
740.922729	185.900000
740.960449	189.600000
740.998169	186.100000
741.035950	188.900000
741.073669	190.900000
741.111389	191.400000
741.149170	199.700000
741.186890	197.800000
741.224609	193.700000
741.262329	193.000000
741.300110	196.500000
741.337769	187.900000
741.375549	185.500000
741.413208	191.600000
741.450989	187.900000
741.488708	189.000000
741.526367	188.600000
741.564148	193.700000
741.601868	193.100000
741.639526	190.200000
741.677307	191.800000
741.715027	192.800000
741.752686	186.800000
741.790466	197.600000
741.828186	191.600000
741.865845	188.100000
741.903564	185.700000
741.941345	190.100000
741.979004	187.600000
742.016724	193.800000
742.054382	191.700000
742.092102	194.600000
742.129822	186.400000
742.167480	189.400000
742.205200	190.600000
742.242920	192.100000
742.280640	193.300000
742.318359	188.700000
742.356079	189.700000
742.393738	194.300000
742.431396	189.600000
742.469116	195.000000
742.506775	184.600000
742.544495	193.200000
742.582214	193.700000
742.619873	191.200000
742.657593	197.200000
742.695251	193.900000
742.732971	190.700000
742.770630	194.200000
742.808289	192.700000
742.846008	190.600000
742.883728	191.600000
742.921326	190.400000
742.959045	189.900000
742.996765	190.500000
743.034424	190.500000
743.072083	189.100000
743.109802	189.500000
743.147400	187.200000
743.185120	191.500000
743.222839	191.000000
743.260437	197.600000
743.298157	192.800000
743.335754	185.900000
743.373474	190.900000
743.411133	186.700000
743.448792	191.900000
743.486450	190.800000
743.524170	186.300000
743.561768	189.700000
743.599487	196.000000
743.637146	198.300000
743.674744	190.000000
743.712463	189.300000
743.750122	192.100000
743.787720	192.500000
743.825439	188.300000
743.863037	189.200000
743.900696	190.500000
743.938416	216.200000
743.976013	191.400000
744.013672	197.600000
744.051331	194.600000
744.088928	198.200000
744.126587	195.100000
744.164307	191.200000
744.201904	189.700000
744.239563	192.100000
744.277222	193.700000
744.314819	191.300000
744.352478	195.400000
744.390137	191.800000
744.427734	193.900000
744.465393	188.600000
744.502991	189.500000
744.540649	192.900000
744.578308	192.000000
744.615906	188.800000
744.653564	183.700000
744.691223	193.300000
744.728821	186.900000
744.766418	190.900000
744.804077	194.300000
744.841675	189.500000
744.879333	186.100000
744.916992	189.300000
744.954529	189.700000
744.992187	194.700000
745.029785	190.200000
745.067444	189.000000
745.105042	191.900000
745.142639	192.700000
745.180298	199.200000
745.217896	189.300000
745.255493	190.200000
745.293152	193.900000
745.330750	195.700000
745.368347	197.700000
745.405945	194.100000
745.443604	191.600000
745.481140	194.600000
745.518799	191.700000
745.556396	193.500000
745.593994	193.200000
745.631592	191.300000
745.669189	187.900000
745.706787	192.000000
745.744385	190.400000
745.781982	194.800000
745.819580	189.700000
745.857178	192.000000
745.894775	191.200000
745.932373	192.200000
745.969971	192.600000
746.007568	185.200000
746.045166	198.600000
746.082764	196.400000
746.120300	192.500000
746.157898	192.700000
746.195557	191.500000
746.233093	186.600000
746.270691	194.000000
746.308228	192.100000
746.345825	194.700000
746.383423	194.000000
746.420959	190.000000
746.458557	187.900000
746.496155	189.100000
746.533691	192.100000
746.571289	187.200000
746.608887	191.700000
746.646423	192.300000
746.684021	191.400000
746.721619	188.600000
746.759155	193.100000
746.796753	186.300000
746.834351	186.500000
746.871826	188.400000
746.909424	196.800000
746.946960	191.700000
746.984558	191.800000
747.022156	190.600000
747.059631	196.900000
747.097229	194.700000
747.134827	190.100000
747.172363	195.500000
747.209900	193.900000
747.247498	188.200000
747.285034	196.700000
747.322571	195.600000
747.360168	190.300000
747.397644	186.600000
747.435242	195.200000
747.472778	194.800000
747.510315	190.400000
747.547913	190.000000
747.585388	195.400000
747.622925	189.800000
747.660522	186.300000
747.697998	190.000000
747.735596	190.900000
747.773132	188.500000
747.810669	191.500000
747.848206	194.100000
747.885742	188.200000
747.923279	187.100000
747.960815	192.800000
747.998352	192.500000
748.035889	195.000000
748.073425	192.800000
748.110901	189.100000
748.148437	187.300000
748.185974	191.300000
748.223511	199.800000
748.261047	194.400000
748.298584	191.600000
748.336060	191.100000
748.373596	192.800000
748.411133	216.600000
748.448608	188.800000
748.486145	194.000000
748.523682	195.700000
748.561218	197.300000
748.598755	192.400000
748.636292	192.700000
748.673706	190.800000
748.711243	197.400000
748.748718	191.900000
748.786255	191.700000
748.823792	192.500000
748.861267	186.300000
748.898804	193.200000
748.936340	192.600000
748.973816	189.500000
749.011292	196.300000
749.048828	193.100000
749.086304	192.000000
749.123840	200.500000
749.161316	188.200000
749.198792	197.900000
749.236328	195.200000
749.273743	191.200000
749.311279	191.800000
749.348816	194.900000
749.386230	192.100000
749.423767	183.300000
749.461304	195.000000
749.498718	191.500000
749.536255	195.700000
749.573730	199.400000
749.611206	197.000000
749.648682	191.200000
749.686218	190.800000
749.723633	194.800000
749.761169	190.600000
749.798645	188.000000
749.836060	191.500000
749.873596	189.300000
749.911011	193.700000
749.948547	196.000000
749.986023	190.900000
750.023437	191.400000
750.060913	187.900000
750.098450	186.400000
750.135864	191.200000
750.173340	191.400000
750.210815	195.900000
750.248291	186.500000
750.285767	192.200000
750.323242	195.800000
750.360657	195.600000
750.398132	188.000000
750.435608	193.800000
750.473022	187.700000
750.510498	189.200000
750.547974	188.800000
750.585449	191.000000
750.622925	183.400000
750.660339	203.100000
750.697815	191.300000
750.735291	190.700000
750.772644	191.000000
750.810120	191.900000
750.847595	192.700000
750.885010	188.200000
750.922485	197.500000
750.959961	191.100000
750.997375	197.400000
751.034851	193.900000
751.072266	194.600000
751.109680	187.300000
751.147156	195.600000
751.184570	192.200000
751.221985	192.500000
751.259460	185.000000
751.296875	189.800000
751.334290	190.500000
751.371765	195.000000
751.409180	194.800000
751.446594	196.300000
751.484070	192.600000
751.521423	193.400000
751.558899	191.300000
751.596375	199.800000
751.633728	196.900000
751.671204	200.200000
751.708618	188.000000
751.746033	194.000000
751.783447	187.300000
751.820801	190.500000
751.858276	193.900000
751.895691	190.400000
751.933105	189.800000
751.970520	188.600000
752.007935	190.200000
752.045349	196.300000
752.082764	190.700000
752.120178	189.300000
752.157532	189.200000
752.195007	190.400000
752.232422	192.600000
752.269775	195.100000
752.307190	194.400000
752.344543	188.400000
752.382019	190.300000
752.419434	190.100000
752.456787	193.400000
752.494202	195.200000
752.531616	192.900000
752.568970	193.700000
752.606384	192.500000
752.643799	192.500000
752.681152	196.300000
752.718567	193.500000
752.755981	186.500000
752.793335	194.300000
752.830750	186.400000
752.868164	196.600000
752.905518	187.900000
752.942932	194.000000
752.980225	187.400000
753.017639	194.400000
753.055054	194.800000
753.092407	192.800000
753.129822	196.300000
753.167175	199.000000
753.204529	191.300000
753.241943	189.800000
753.279358	187.900000
753.316650	193.100000
753.354065	193.000000
753.391479	195.500000
753.428772	199.100000
753.466187	192.600000
753.503479	188.700000
753.540894	190.400000
753.578308	188.600000
753.615601	187.800000
753.653015	192.000000
753.690369	190.000000
753.727722	191.100000
753.765076	187.500000
753.802490	188.000000
753.839783	185.200000
753.877136	191.100000
753.914551	201.100000
753.951843	189.800000
753.989258	193.800000
754.026611	192.000000
754.063904	193.300000
754.101257	189.100000
754.138611	185.800000
754.175964	192.500000
754.213318	198.700000
754.250610	187.700000
754.288025	190.200000
754.325378	187.100000
754.362671	194.700000
754.400024	191.000000
754.437378	199.900000
754.474670	197.600000
754.512085	188.400000
754.549438	191.400000
754.586731	188.500000
754.624084	190.200000
754.661438	187.500000
754.698730	198.800000
754.736084	191.500000
754.773376	190.800000
754.810730	193.700000
754.848083	190.500000
754.885315	195.700000
754.922668	187.100000
754.960022	188.900000
754.997314	193.300000
755.034668	192.200000
755.072021	191.900000
755.109253	190.400000
755.146606	195.800000
755.183960	191.600000
755.221252	197.600000
755.258545	194.900000
755.295898	196.700000
755.333191	196.400000
755.370544	193.400000
755.407776	192.200000
755.445129	191.800000
755.482422	196.000000
755.519714	190.400000
755.557068	188.200000
755.594360	186.000000
755.631653	195.200000
755.668945	197.500000
755.706299	195.000000
755.743530	201.400000
755.780884	198.900000
755.818176	195.700000
755.855408	196.200000
755.892761	194.400000
755.930054	193.300000
755.967346	193.800000
756.004639	192.700000
756.041870	192.700000
756.079224	197.300000
756.116516	190.700000
756.153748	196.100000
756.191040	201.000000
756.228394	195.500000
756.265625	189.600000
756.302917	193.600000
756.340210	190.300000
756.377441	196.700000
756.414795	199.800000
756.452087	191.800000
756.489319	188.500000
756.526611	195.900000
756.563843	193.900000
756.601135	199.600000
756.638428	201.700000
756.675659	192.800000
756.712952	196.500000
756.750244	195.200000
756.787476	195.300000
756.824768	199.300000
756.862061	194.500000
756.899292	240.600000
756.936584	197.400000
756.973816	202.900000
757.011047	204.300000
757.048340	195.000000
757.085632	194.900000
757.122864	208.400000
757.160156	193.100000
757.197327	196.300000
757.234619	199.000000
757.271912	194.300000
757.309082	199.200000
757.346375	192.000000
757.383667	200.400000
757.420837	194.700000
757.458130	196.800000
757.495422	194.600000
757.532593	198.700000
757.569885	190.900000
757.607117	191.400000
757.644348	196.200000
757.681580	206.100000
757.718811	186.300000
757.756042	195.500000
757.793335	193.500000
757.830505	198.500000
757.867798	194.000000
757.905029	193.900000
757.942200	195.900000
757.979492	194.300000
758.016724	196.200000
758.053894	195.500000
758.091187	211.100000
758.128418	197.100000
758.165588	196.600000
758.202820	205.900000
758.240112	198.300000
758.277283	204.500000
758.314514	199.100000
758.351685	194.900000
758.388916	203.700000
758.426147	203.800000
758.463379	204.600000
758.500610	199.900000
758.537842	198.700000
758.575012	204.600000
758.612244	196.300000
758.649475	206.800000
758.686646	194.100000
758.723877	203.700000
758.761108	204.100000
758.798279	197.400000
758.835510	201.700000
758.872742	205.100000
758.909851	201.500000
758.947083	201.500000
758.984253	199.900000
759.021484	203.000000
759.058716	202.800000
759.095886	203.500000
759.133057	199.400000
759.170288	201.300000
759.207458	198.700000
759.244690	209.000000
759.281860	207.600000
759.319031	201.600000
759.356262	199.900000
759.393433	200.600000
759.430603	201.300000
759.467773	200.600000
759.505005	205.900000
759.542175	207.400000
759.579346	200.800000
759.616516	202.300000
759.653687	205.600000
759.690918	199.700000
759.728027	203.100000
759.765259	205.000000
759.802429	206.900000
759.839539	205.600000
759.876770	208.100000
759.913940	212.300000
759.951111	204.000000
759.988281	203.800000
760.025452	201.000000
760.062561	200.100000
760.099792	211.100000
760.136963	206.000000
760.174072	202.300000
760.211243	201.500000
760.248413	199.400000
760.285583	200.600000
760.322754	212.500000
760.359863	209.700000
760.397034	208.500000
760.434204	204.700000
760.471375	204.200000
760.508545	205.700000
760.545715	205.500000
760.582825	201.700000
760.619995	208.600000
760.657166	201.900000
760.694275	209.400000
760.731445	207.800000
760.768555	207.000000
760.805664	209.300000
760.842834	207.800000
760.879944	209.800000
760.917114	207.500000
760.954285	207.200000
760.991394	203.100000
761.028564	210.900000
761.065674	207.200000
761.102783	203.900000
761.139954	211.600000
761.177124	210.900000
761.214172	213.000000
761.251343	206.300000
761.288452	207.600000
761.325562	210.500000
761.362732	205.300000
761.399841	208.600000
761.436951	211.100000
761.474121	205.900000
761.511169	209.300000
761.548340	212.000000
761.585449	210.800000
761.622559	212.000000
761.659668	210.500000
761.696838	214.600000
761.733887	211.600000
761.771057	208.500000
761.808167	209.300000
761.845276	214.000000
761.882385	220.700000
761.919434	211.100000
761.956604	225.600000
761.993713	210.200000
762.030762	216.300000
762.067871	212.200000
762.105042	211.700000
762.142090	217.300000
762.179199	213.200000
762.216309	216.300000
762.253418	223.700000
762.290527	220.200000
762.327637	218.500000
762.364685	209.900000
762.401794	217.400000
762.438904	216.200000
762.475952	211.900000
762.513062	211.400000
762.550110	210.500000
762.587219	222.700000
762.624329	220.900000
762.661377	217.400000
762.698486	215.700000
762.735596	214.800000
762.772644	211.700000
762.809753	209.700000
762.846863	215.700000
762.883911	220.400000
762.921021	217.800000
762.958069	217.700000
762.995117	223.000000
763.032227	223.900000
763.069336	216.100000
763.106323	213.700000
763.143433	212.600000
763.180481	220.000000
763.217590	218.800000
763.254639	216.300000
763.291687	217.000000
763.328735	223.900000
763.365845	217.900000
763.402893	217.700000
763.439941	220.600000
763.477051	223.900000
763.514038	221.900000
763.551147	219.100000
763.588196	220.800000
763.625244	218.600000
763.662292	226.200000
763.699402	228.400000
763.736389	222.700000
763.773499	230.700000
763.810486	225.700000
763.847534	223.100000
763.884644	226.000000
763.921631	223.000000
763.958679	231.100000
763.995728	224.100000
764.032776	231.600000
764.069824	222.800000
764.106873	228.900000
764.143860	231.200000
764.180969	223.700000
764.218018	231.600000
764.255005	226.000000
764.292053	226.700000
764.329102	233.600000
764.366089	234.500000
764.403137	232.400000
764.440125	226.400000
764.477173	229.300000
764.514221	231.900000
764.551208	231.900000
764.588257	226.600000
764.625305	234.400000
764.662292	238.000000
764.699341	239.500000
764.736389	233.200000
764.773376	244.900000
764.810425	236.000000
764.847473	241.500000
764.884399	238.300000
764.921448	245.600000
764.958435	241.500000
764.995483	236.500000
765.032532	249.300000
765.069458	238.100000
765.106506	239.400000
765.143555	237.100000
765.180481	240.700000
765.217529	246.100000
765.254578	236.000000
765.291504	243.600000
765.328552	240.600000
765.365540	237.900000
765.402527	250.100000
765.439575	240.100000
765.476501	236.500000
765.513550	236.900000
765.550537	241.900000
765.587463	246.700000
765.624512	239.000000
765.661499	234.600000
765.698486	248.100000
765.735474	238.900000
765.772461	242.200000
765.809448	248.000000
765.846436	246.900000
765.883423	251.200000
765.920410	246.100000
765.957397	243.700000
765.994385	249.400000
766.031311	254.400000
766.068359	249.700000
766.105286	248.700000
766.142273	254.200000
766.179260	250.000000
766.216187	247.500000
766.253174	243.800000
766.290161	250.200000
766.327148	251.800000
766.364136	251.300000
766.401123	263.300000
766.438049	248.400000
766.475037	256.500000
766.512024	255.000000
766.548950	266.600000
766.585937	262.600000
766.622864	255.700000
766.659790	256.500000
766.696777	249.500000
766.733704	259.900000
766.770691	253.300000
766.807678	264.600000
766.844604	259.300000
766.881531	260.500000
766.918518	264.200000
766.955444	265.100000
766.992432	259.000000
767.029358	262.600000
767.066284	264.600000
767.103271	263.000000
767.140198	294.100000
767.177124	274.200000
767.214050	265.700000
767.251038	266.300000
767.287964	264.000000
767.324890	262.400000
767.361816	264.700000
767.398743	269.300000
767.435730	265.800000
767.472595	268.400000
767.509583	270.400000
767.546509	263.600000
767.583374	269.200000
767.620361	263.800000
767.657288	266.900000
767.694214	267.200000
767.731140	268.100000
767.768066	269.900000
767.804993	271.900000
767.841919	264.200000
767.878845	268.800000
767.915710	276.500000
767.952698	270.900000
767.989563	273.000000
768.026489	274.000000
768.063416	266.400000
768.100281	267.400000
768.137207	278.800000
768.174133	275.000000
768.211060	275.400000
768.247986	273.300000
768.284912	273.300000
768.321777	274.700000
768.358704	269.200000
768.395630	274.700000
768.432495	270.800000
768.469421	274.700000
768.506348	277.200000
768.543152	282.500000
768.580078	280.900000
768.616943	279.600000
768.653870	283.300000
768.690796	282.400000
768.727661	280.500000
768.764587	283.300000
768.801453	277.800000
768.838318	287.100000
768.875244	284.100000
768.912109	288.600000
768.948975	282.700000
768.985901	284.600000
769.022766	282.800000
769.059631	287.300000
769.096558	282.700000
769.133362	284.800000
769.170288	285.500000
769.207214	285.600000
769.244019	290.200000
769.280945	289.600000
769.317810	295.900000
769.354675	290.500000
769.391541	297.700000
769.428406	293.800000
769.465271	301.500000
769.502136	293.300000
769.539062	296.900000
769.575867	297.400000
769.612732	297.000000
769.649597	301.700000
769.686462	303.700000
769.723328	299.800000
769.760193	297.500000
769.797058	300.100000
769.833923	306.400000
769.870728	303.500000
769.907593	304.400000
769.944519	305.500000
769.981323	307.300000
770.018188	306.500000
770.055054	305.500000
770.091858	307.200000
770.128723	315.500000
770.165588	320.800000
770.202393	312.100000
770.239258	319.200000
770.276062	314.900000
770.312927	316.600000
770.349792	322.300000
770.386597	319.000000
770.423462	327.200000
770.460327	332.100000
770.497131	322.900000
770.533997	317.900000
770.570862	329.400000
770.607605	331.500000
770.644470	327.800000
770.681335	330.000000
770.718140	328.000000
770.754944	325.500000
770.791809	325.000000
770.828613	324.900000
770.865479	328.200000
770.902222	337.300000
770.939087	332.200000
770.975952	325.200000
771.012695	328.800000
771.049561	341.000000
771.086365	333.500000
771.123169	332.500000
771.159973	332.800000
771.196838	333.200000
771.233582	337.500000
771.270447	337.700000
771.307251	341.400000
771.344055	335.900000
771.380859	341.100000
771.417664	337.100000
771.454468	345.300000
771.491272	343.000000
771.528076	343.300000
771.564880	341.700000
771.601685	347.900000
771.638428	340.900000
771.675293	346.200000
771.712097	340.900000
771.748840	356.500000
771.785645	347.500000
771.822449	351.100000
771.859253	351.700000
771.896057	350.300000
771.932861	359.900000
771.969604	353.500000
772.006409	344.400000
772.043213	356.800000
772.079956	354.000000
772.116760	351.200000
772.153503	353.800000
772.190308	364.800000
772.227112	355.200000
772.263855	352.000000
772.300659	358.200000
772.337463	363.800000
772.374207	354.100000
772.411011	351.400000
772.447754	356.700000
772.484497	371.000000
772.521301	363.900000
772.558105	361.100000
772.594849	363.400000
772.631592	365.900000
772.668396	365.500000
772.705139	365.800000
772.741882	365.900000
772.778625	374.900000
772.815430	376.700000
772.852173	373.000000
772.888916	378.700000
772.925720	378.800000
772.962463	384.500000
772.999207	379.900000
773.035950	381.800000
773.072754	380.500000
773.109436	378.900000
773.146240	379.500000
773.182922	376.500000
773.219727	384.100000
773.256470	381.900000
773.293152	376.100000
773.329956	382.500000
773.366699	383.600000
773.403381	375.700000
773.440186	381.300000
773.476929	384.700000
773.513611	380.200000
773.550354	383.400000
773.587158	381.800000
773.623840	376.600000
773.660583	383.200000
773.697327	396.300000
773.734009	387.900000
773.770813	388.200000
773.807495	384.500000
773.844238	387.500000
773.880981	397.200000
773.917664	393.600000
773.954407	400.400000
773.991150	391.900000
774.027832	396.400000
774.064575	392.700000
774.101318	394.600000
774.138000	400.500000
774.174744	398.700000
774.211487	397.100000
774.248108	390.700000
774.284851	392.600000
774.321594	400.800000
774.358276	399.300000
774.395020	408.000000
774.431702	402.500000
774.468384	400.500000
774.505127	396.700000
774.541809	402.100000
774.578491	407.900000
774.615234	412.400000
774.651917	403.900000
774.688599	404.800000
774.725342	413.500000
774.762024	412.900000
774.798706	416.000000
774.835449	417.700000
774.872070	423.200000
774.908813	421.200000
774.945496	422.200000
774.982178	420.000000
775.018860	418.800000
775.055542	421.200000
775.092224	423.100000
775.128967	429.500000
775.165588	428.900000
775.202271	424.400000
775.239014	431.200000
775.275635	434.300000
775.312317	432.300000
775.349060	435.400000
775.385681	436.000000
775.422363	432.700000
775.459045	436.600000
775.495667	438.400000
775.532410	439.600000
775.569092	441.700000
775.605713	441.300000
775.642395	443.000000
775.679016	441.700000
775.715698	441.700000
775.752380	444.900000
775.789001	442.700000
775.825684	445.600000
775.862366	445.300000
775.898987	458.400000
775.935669	450.000000
775.972351	466.500000
776.008972	460.400000
776.045654	463.100000
776.082336	461.800000
776.118958	462.800000
776.155640	465.600000
776.192322	474.300000
776.228882	473.300000
776.265564	476.400000
776.302185	474.000000
776.338867	476.700000
776.375488	468.000000
776.412109	476.800000
776.448792	479.800000
776.485413	490.500000
776.522034	482.100000
776.558716	476.600000
776.595337	478.000000
776.631958	484.800000
776.668579	485.200000
776.705261	496.100000
776.741882	490.600000
776.778503	492.300000
776.815186	488.300000
776.851746	492.800000
776.888367	493.700000
776.924988	501.500000
776.961609	492.500000
776.998291	494.600000
777.034851	490.600000
777.071472	498.000000
777.108154	493.900000
777.144714	509.300000
777.181335	502.800000
777.218018	500.700000
777.254578	507.000000
777.291199	505.400000
777.327759	510.400000
777.364380	517.900000
777.401062	523.700000
777.437622	530.100000
777.474243	519.600000
777.510864	524.800000
777.547424	518.800000
777.584045	524.500000
777.620667	526.800000
777.657227	525.100000
777.693848	525.400000
777.730469	535.200000
777.767029	529.000000
777.803650	533.400000
777.840271	529.400000
777.876831	528.800000
777.913452	541.800000
777.950012	526.000000
777.986633	523.400000
778.023193	525.100000
778.059753	524.800000
778.096375	525.200000
778.132996	542.300000
778.169556	529.800000
778.206116	534.700000
778.242737	529.800000
778.279297	534.800000
778.315857	527.700000
778.352478	536.400000
778.389038	541.100000
778.425598	540.700000
778.462219	544.700000
778.498718	543.700000
778.535339	546.800000
778.571838	549.000000
778.608459	554.000000
778.645020	547.000000
778.681580	550.700000
778.718140	551.300000
778.754761	547.700000
778.791260	553.900000
778.827881	560.600000
778.864441	558.800000
778.900940	566.400000
778.937561	563.500000
778.974121	563.600000
779.010620	554.100000
779.047241	559.700000
779.083801	564.300000
779.120300	563.000000
779.156860	567.300000
779.193359	566.700000
779.229980	569.200000
779.266541	573.600000
779.303040	575.500000
779.339600	570.200000
779.376160	560.600000
779.412659	561.600000
779.449219	560.500000
779.485779	565.300000
779.522278	565.500000
779.558838	569.600000
779.595398	567.800000
779.631897	563.900000
779.668457	564.600000
779.705017	571.000000
779.741516	567.900000
779.778076	564.600000
779.814575	571.800000
779.851074	569.600000
779.887634	565.500000
779.924133	573.900000
779.960693	563.700000
779.997253	573.700000
780.033691	581.800000
780.070251	581.500000
780.106812	589.000000
780.143250	584.700000
780.179810	578.400000
780.216370	577.700000
780.252808	581.400000
780.289368	591.500000
780.325867	591.300000
780.362366	588.000000
780.398865	597.100000
780.435364	593.100000
780.471863	601.100000
780.508423	600.700000
780.544861	603.600000
780.581421	607.200000
780.617920	602.700000
780.654419	592.200000
780.690918	597.700000
780.727417	606.500000
780.763916	606.800000
780.800415	612.900000
780.836914	602.300000
780.873352	611.100000
780.909912	599.500000
780.946411	607.200000
780.982849	613.100000
781.019348	624.200000
781.055786	618.600000
781.092346	615.500000
781.128845	620.100000
781.165283	623.100000
781.201782	633.500000
781.238281	639.600000
781.274719	644.300000
781.311218	641.600000
781.347717	653.100000
781.384155	634.600000
781.420654	641.900000
781.457092	652.900000
781.493591	649.900000
781.530090	643.200000
781.566528	644.600000
781.602966	641.700000
781.639465	645.800000
781.675903	643.700000
781.712402	646.500000
781.748901	653.100000
781.785278	648.800000
781.821777	650.900000
781.858276	650.100000
781.894714	666.000000
781.931152	656.300000
781.967651	668.000000
782.004089	658.700000
782.040527	668.300000
782.076965	668.300000
782.113403	665.500000
782.149902	670.300000
782.186340	676.900000
782.222778	681.800000
782.259277	669.800000
782.295654	667.600000
782.332092	678.700000
782.368591	678.800000
782.404968	675.200000
782.441467	669.000000
782.477905	659.300000
782.514282	634.000000
782.550781	620.000000
782.587219	590.100000
782.623596	572.400000
782.660095	544.500000
782.696472	526.500000
782.732910	521.000000
782.769348	533.600000
782.805786	574.700000
782.842224	619.700000
782.878662	653.700000
782.915039	687.600000
782.951477	706.300000
782.987915	708.900000
783.024292	722.000000
783.060730	733.800000
783.097168	725.300000
783.133545	712.800000
783.169983	711.300000
783.206421	713.400000
783.242798	710.300000
783.279236	704.100000
783.315613	705.700000
783.352051	703.500000
783.388489	704.000000
783.424866	694.300000
783.461304	698.000000
783.497681	707.900000
783.534058	706.000000
783.570496	705.000000
783.606934	701.600000
783.643250	705.900000
783.679687	709.800000
783.716125	704.700000
783.752441	714.700000
783.788879	732.400000
783.825317	746.200000
783.861633	750.000000
783.898071	750.700000
783.934448	763.900000
783.970825	774.500000
784.007263	776.400000
784.043579	781.000000
784.080017	782.900000
784.116394	777.400000
784.152710	777.200000
784.189148	781.900000
784.225525	778.700000
784.261902	772.200000
784.298279	765.500000
784.334656	771.000000
784.371033	762.200000
784.407410	761.300000
784.443787	746.900000
784.480164	738.100000
784.516541	726.900000
784.552856	735.200000
784.589233	731.200000
784.625610	720.400000
784.661987	743.300000
784.698364	742.300000
784.734741	737.700000
784.771057	738.500000
784.807434	742.500000
784.843811	758.200000
784.880127	755.800000
784.916504	777.600000
784.952881	778.100000
784.989197	780.000000
785.025574	774.100000
785.061951	779.800000
785.098267	795.600000
785.134644	794.300000
785.170959	796.200000
785.207275	802.300000
785.243652	794.300000
785.279968	784.200000
785.316345	780.900000
785.352722	783.300000
785.388977	781.900000
785.425354	762.400000
785.461731	746.200000
785.498047	740.500000
785.534363	737.000000
785.570679	735.300000
785.606995	740.100000
785.643372	735.500000
785.679687	737.900000
785.716003	724.000000
785.752380	721.300000
785.788635	724.800000
785.825012	740.100000
785.861328	749.600000
785.897644	738.700000
785.933960	752.300000
785.970337	763.600000
786.006592	776.500000
786.042908	783.400000
786.079285	790.800000
786.115540	808.000000
786.151855	804.300000
786.188171	804.200000
786.224487	804.600000
786.260803	798.500000
786.297119	800.700000
786.333435	808.400000
786.369751	800.100000
786.406006	798.200000
786.442322	786.200000
786.478638	777.000000
786.514954	779.200000
786.551270	774.900000
786.587585	787.200000
786.623840	773.600000
786.660156	767.100000
786.696472	751.500000
786.732727	752.400000
786.769043	761.300000
786.805298	759.100000
786.841614	758.900000
786.877930	767.900000
786.914124	760.100000
786.950439	773.100000
786.986755	784.300000
787.023010	798.400000
787.059326	806.800000
787.095642	809.900000
787.131836	822.600000
787.168152	819.700000
787.204468	829.500000
787.240723	839.500000
787.276978	845.600000
787.313293	854.000000
787.349548	849.600000
787.385803	851.700000
787.422058	843.800000
787.458313	838.900000
787.494629	838.100000
787.530823	837.100000
787.567139	824.700000
787.603455	819.000000
787.639648	802.100000
787.675903	805.200000
787.712219	797.600000
787.748413	802.000000
787.784729	810.000000
787.820984	801.700000
787.857178	793.700000
787.893494	790.600000
787.929749	795.900000
787.965942	807.200000
788.002258	818.600000
788.038452	826.700000
788.074707	821.100000
788.110962	830.200000
788.147217	826.400000
788.183472	837.500000
788.219727	849.300000
788.255920	859.700000
788.292175	872.500000
788.328430	871.700000
788.364624	860.200000
788.400879	856.900000
788.437134	858.600000
788.473328	859.300000
788.509583	867.600000
788.545837	864.600000
788.582031	857.100000
788.618286	861.600000
788.654480	851.900000
788.690735	866.000000
788.726990	884.700000
788.763184	874.400000
788.799377	884.500000
788.835632	874.300000
788.871826	879.700000
788.908081	878.200000
788.944336	880.500000
788.980469	893.800000
789.016724	885.200000
789.052979	894.200000
789.089111	872.300000
789.125366	884.700000
789.161621	873.400000
789.197754	881.800000
789.234009	881.700000
789.270142	874.100000
789.306396	870.100000
789.342590	866.600000
789.378784	847.800000
789.414978	841.800000
789.451233	851.100000
789.487366	852.200000
789.523621	861.700000
789.559814	862.700000
789.595947	856.900000
789.632202	863.500000
789.668335	873.200000
789.704529	889.600000
789.740784	909.600000
789.776917	914.900000
789.813110	906.000000
789.849304	907.500000
789.885498	907.400000
789.921692	929.100000
789.957886	933.700000
789.994019	934.300000
790.030212	946.900000
790.066406	945.100000
790.102539	936.600000
790.138733	947.800000
790.174927	940.100000
790.211060	953.900000
790.247253	952.600000
790.283386	946.400000
790.319580	930.500000
790.355774	918.300000
790.391907	918.300000
790.428101	927.300000
790.464294	928.800000
790.500427	932.400000
790.536621	917.800000
790.572754	902.500000
790.608887	896.000000
790.645081	904.600000
790.681274	916.300000
790.717346	917.000000
790.753540	905.400000
790.789734	888.100000
790.825867	877.300000
790.862000	877.400000
790.898132	891.400000
790.934265	892.900000
790.970459	894.500000
791.006592	898.100000
791.042725	890.900000
791.078918	884.700000
791.114990	877.300000
791.151184	875.200000
791.187317	897.300000
791.223389	899.000000
791.259583	889.400000
791.295715	887.000000
791.331848	886.500000
791.367981	904.700000
791.404114	900.000000
791.440247	905.300000
791.476379	908.200000
791.512451	888.200000
791.548584	885.600000
791.584778	885.000000
791.620850	894.900000
791.656982	907.500000
791.693115	903.700000
791.729187	902.900000
791.765381	895.200000
791.801514	891.900000
791.837585	893.000000
791.873718	900.700000
791.909851	910.600000
791.945923	922.500000
791.982056	897.700000
792.018188	892.600000
792.054260	895.900000
792.090393	890.400000
792.126465	881.500000
792.162598	898.000000
792.198669	895.900000
792.234741	885.300000
792.270874	878.800000
792.307007	861.500000
792.343079	866.700000
792.379150	877.300000
792.415283	874.400000
792.451355	876.900000
792.487488	852.000000
792.523560	849.100000
792.559631	842.800000
792.595764	817.900000
792.631836	783.000000
792.667908	763.500000
792.703979	741.700000
792.740051	754.700000
792.776184	780.300000
792.812256	797.700000
792.848328	810.700000
792.884399	825.300000
792.920471	821.000000
792.956543	823.100000
792.992615	816.000000
793.028748	815.600000
793.064758	820.400000
793.100830	837.600000
793.136963	849.800000
793.172974	854.300000
793.209045	853.300000
793.245178	860.200000
793.281189	842.900000
793.317261	848.400000
793.353271	850.400000
793.389404	863.900000
793.425476	854.700000
793.461487	840.200000
793.497559	835.800000
793.533630	833.300000
793.569641	833.200000
793.605713	843.600000
793.641785	843.400000
793.677795	850.200000
793.713867	846.400000
793.749878	854.100000
793.785950	859.500000
793.822021	867.100000
793.858032	853.100000
793.894104	871.200000
793.930176	864.000000
793.966187	871.100000
794.002258	860.400000
794.038269	863.700000
794.074280	864.300000
794.110352	890.700000
794.146423	876.200000
794.182373	877.500000
794.218445	867.400000
794.254517	862.300000
794.290466	847.400000
794.326538	844.900000
794.362549	851.000000
794.398560	856.800000
794.434631	853.000000
794.470581	832.100000
794.506653	829.800000
794.542664	834.700000
794.578674	846.500000
794.614685	840.800000
794.650757	836.300000
794.686707	830.400000
794.722778	827.000000
794.758789	831.500000
794.794739	848.300000
794.830811	869.200000
794.866821	883.700000
794.902771	890.300000
794.938843	883.300000
794.974792	883.500000
795.010803	883.600000
795.046814	881.100000
795.082825	874.900000
795.118835	888.600000
795.154846	871.200000
795.190796	869.400000
795.226807	855.000000
795.262817	860.700000
795.298767	864.300000
795.334778	873.500000
795.370850	867.300000
795.406799	868.000000
795.442810	856.600000
795.478821	848.200000
795.514709	846.100000
795.550720	872.900000
795.586670	852.600000
795.622681	862.700000
795.658691	862.200000
795.694641	859.800000
795.730652	849.700000
795.766663	850.000000
795.802551	860.100000
795.838562	878.900000
795.874573	872.900000
795.910522	874.700000
795.946472	862.000000
795.982483	861.800000
796.018433	855.200000
796.054382	867.500000
796.090393	863.500000
796.126282	858.500000
796.162292	842.200000
796.198242	838.800000
796.234192	836.800000
796.270203	834.000000
796.306091	836.800000
796.342041	849.000000
796.378052	844.000000
796.413940	848.300000
796.449951	848.600000
796.485901	840.100000
796.521790	849.700000
796.557800	863.800000
796.593689	862.800000
796.629639	856.100000
796.665649	857.700000
796.701599	856.100000
796.737488	857.100000
796.773437	859.200000
796.809387	859.800000
796.845337	865.700000
796.881287	855.500000
796.917175	839.100000
796.953125	839.200000
796.989075	846.200000
797.024963	843.300000
797.060913	840.500000
797.096863	845.600000
797.132751	841.900000
797.168701	824.800000
797.204590	823.200000
797.240540	827.400000
797.276489	834.100000
797.312439	842.800000
797.348328	843.200000
797.384277	838.700000
797.420166	828.000000
797.456055	829.300000
797.492004	821.500000
797.527893	827.100000
797.563843	833.500000
797.599731	833.500000
797.635620	825.600000
797.671570	827.600000
797.707520	830.500000
797.743347	829.200000
797.779297	834.500000
797.815125	830.700000
797.851074	823.400000
797.887024	812.600000
797.922913	804.200000
797.958801	809.700000
797.994690	803.300000
798.030579	812.300000
798.066467	817.200000
798.102356	810.600000
798.138245	802.200000
798.174133	796.000000
798.210083	801.000000
798.245911	813.800000
798.281799	819.000000
798.317749	810.400000
798.353577	812.600000
798.389465	805.000000
798.425293	806.200000
798.461243	807.500000
798.497131	806.500000
798.532959	813.800000
798.568848	820.100000
798.604736	809.200000
798.640564	795.600000
798.676453	788.400000
798.712402	789.300000
798.748230	797.600000
798.784119	801.700000
798.820007	799.000000
798.855835	798.500000
798.891724	791.700000
798.927551	784.900000
798.963379	791.700000
798.999268	791.000000
799.035095	785.000000
799.070984	783.800000
799.106873	776.500000
799.142700	776.300000
799.178528	768.900000
799.214417	766.400000
799.250244	775.500000
799.286133	778.500000
799.321960	777.100000
799.357788	764.800000
799.393677	764.100000
799.429504	767.900000
799.465332	771.000000
799.501221	772.900000
799.537048	774.700000
799.572876	770.600000
799.608704	765.600000
799.644531	769.900000
799.680359	776.300000
799.716248	785.600000
799.752014	788.100000
799.787903	782.700000
799.823730	782.000000
799.859558	773.500000
799.895386	771.800000
799.931213	773.900000
799.967041	765.000000
800.002869	769.300000
800.038696	780.000000
800.074463	764.700000
800.110352	764.500000
800.146179	750.900000
800.181946	763.600000
800.217773	769.500000
800.253540	766.400000
800.289429	762.600000
800.325256	749.300000
800.361023	744.400000
800.396851	752.500000
800.432678	758.600000
800.468445	763.200000
800.504272	769.800000
800.540100	750.600000
800.575867	745.500000
800.611694	751.500000
800.647461	744.100000
800.683289	747.800000
800.719116	753.900000
800.754883	752.100000
800.790649	746.500000
800.826477	740.000000
800.862244	752.900000
800.898071	736.400000
800.933838	742.200000
800.969604	745.700000
801.005432	742.600000
801.041199	742.600000
801.076965	728.600000
801.112793	722.600000
801.148560	718.800000
801.184326	721.700000
801.220154	723.200000
801.255859	713.900000
801.291687	713.800000
801.327454	708.900000
801.363281	708.800000
801.398987	714.900000
801.434814	712.900000
801.470520	715.400000
801.506287	710.400000
801.542114	702.000000
801.577820	694.500000
801.613647	692.600000
801.649414	698.100000
801.685120	705.900000
801.720886	708.300000
801.756714	694.700000
801.792419	688.900000
801.828186	680.200000
801.863892	690.900000
801.899719	692.000000
801.935486	686.700000
801.971252	698.600000
802.006958	693.800000
802.042725	681.400000
802.078430	679.500000
802.114197	676.500000
802.149963	692.500000
802.185669	678.100000
802.221436	675.400000
802.257202	681.900000
802.292908	680.200000
802.328674	687.600000
802.364441	685.100000
802.400146	678.700000
802.435913	682.700000
802.471558	678.700000
802.507324	675.700000
802.543091	672.400000
802.578796	685.600000
802.614502	683.500000
802.650269	689.600000
802.685974	676.400000
802.721741	683.000000
802.757446	682.500000
802.793152	680.800000
802.828918	686.300000
802.864624	685.900000
802.900330	681.600000
802.936035	680.000000
802.971802	676.500000
803.007446	667.000000
803.043213	656.700000
803.078857	668.800000
803.114624	661.700000
803.150330	668.500000
803.185974	659.200000
803.221741	660.300000
803.257446	662.800000
803.293152	663.500000
803.328857	660.100000
803.364563	660.100000
803.400208	659.700000
803.435974	661.500000
803.471680	651.700000
803.507324	649.400000
803.543030	659.800000
803.578735	660.300000
803.614441	653.200000
803.650146	665.800000
803.685791	652.800000
803.721497	647.100000
803.757202	641.200000
803.792847	652.300000
803.828552	643.300000
803.864258	643.800000
803.899902	638.900000
803.935608	625.800000
803.971313	631.100000
804.006958	631.300000
804.042664	629.400000
804.078308	634.500000
804.113953	632.100000
804.149658	634.800000
804.185364	622.700000
804.221008	635.200000
804.256714	616.300000
804.292297	614.300000
804.328003	611.500000
804.363708	614.800000
804.399292	613.600000
804.434998	610.900000
804.470703	603.900000
804.506287	617.500000
804.541992	606.200000
804.577637	610.700000
804.613281	602.500000
804.648926	597.100000
804.684570	599.800000
804.720215	598.800000
804.755920	594.100000
804.791565	595.200000
804.827209	600.500000
804.862854	594.600000
804.898437	591.400000
804.934143	597.600000
804.969788	593.100000
805.005371	590.700000
805.041077	593.200000
805.076721	592.200000
805.112305	581.900000
805.147949	584.300000
805.183655	574.900000
805.219238	585.200000
805.254883	579.600000
805.290466	588.300000
805.326111	580.900000
805.361755	575.500000
805.397400	573.300000
805.432983	573.700000
805.468628	570.300000
805.504211	579.300000
805.539856	576.800000
805.575500	581.100000
805.611084	573.300000
805.646729	565.200000
805.682373	563.900000
805.717957	572.700000
805.753601	572.000000
805.789246	562.800000
805.824768	576.100000
805.860413	578.600000
805.895996	567.400000
805.931641	561.700000
805.967224	571.500000
806.002869	566.000000
806.038452	574.500000
806.074036	574.400000
806.109619	565.300000
806.145264	557.300000
806.180847	562.200000
806.216431	556.000000
806.252014	557.400000
806.287659	557.900000
806.323181	566.500000
806.358826	560.900000
806.394409	550.300000
806.429993	549.400000
806.465576	557.000000
806.501160	548.700000
806.536743	542.200000
806.572327	548.300000
806.607910	543.700000
806.643494	545.800000
806.679077	541.000000
806.714661	538.500000
806.750244	538.800000
806.785828	534.300000
806.821350	536.500000
806.856934	538.400000
806.892517	531.000000
806.928101	528.300000
806.963684	532.200000
806.999268	537.600000
807.034790	522.500000
807.070374	524.900000
807.105896	520.400000
807.141479	517.000000
807.177063	522.900000
807.212585	515.500000
807.248169	515.000000
807.283752	525.900000
807.319275	520.000000
807.354858	522.700000
807.390381	513.800000
807.425903	508.900000
807.461487	508.500000
807.497070	506.400000
807.532593	508.000000
807.568115	502.700000
807.603699	499.100000
807.639221	499.600000
807.674744	504.400000
807.710266	504.800000
807.745850	504.600000
807.781372	500.400000
807.816895	496.900000
807.852417	498.300000
807.888000	497.400000
807.923523	494.600000
807.959045	496.700000
807.994629	493.200000
808.030090	490.300000
808.065613	496.400000
808.101135	499.000000
808.136658	493.600000
808.172241	489.300000
808.207764	491.200000
808.243225	486.800000
808.278809	479.500000
808.314270	487.600000
808.349792	475.500000
808.385315	477.300000
808.420837	484.000000
808.456360	487.800000
808.491882	485.800000
808.527344	482.000000
808.562866	491.300000
808.598389	481.700000
808.633850	477.100000
808.669434	472.300000
808.704895	479.300000
808.740417	484.500000
808.775940	479.500000
808.811462	474.300000
808.846924	469.100000
808.882385	470.000000
808.917847	468.200000
808.953369	472.700000
808.988892	467.200000
809.024353	472.800000
809.059875	469.000000
809.095398	469.800000
809.130798	462.300000
809.166321	465.600000
809.201843	464.600000
809.237305	463.900000
809.272766	468.100000
809.308228	458.500000
809.343750	459.000000
809.379211	458.300000
809.414734	458.100000
809.450134	463.600000
809.485657	449.000000
809.521118	457.900000
809.556580	452.900000
809.592102	452.700000
809.627502	450.100000
809.663025	446.500000
809.698486	444.900000
809.733887	442.000000
809.769409	445.800000
809.804871	436.600000
809.840271	437.500000
809.875793	438.000000
809.911194	443.300000
809.946655	441.000000
809.982178	432.200000
810.017639	437.700000
810.053040	432.600000
810.088501	431.300000
810.123901	432.700000
810.159424	428.500000
810.194885	425.700000
810.230286	427.800000
810.265747	423.800000
810.301208	422.200000
810.336609	423.200000
810.372070	415.000000
810.407532	418.900000
810.442932	419.400000
810.478394	424.600000
810.513794	416.900000
810.549255	415.100000
810.584717	411.900000
810.620117	408.000000
810.655518	415.000000
810.690979	409.100000
810.726379	406.500000
810.761841	403.900000
810.797302	401.700000
810.832642	399.000000
810.868103	408.600000
810.903564	398.800000
810.938904	403.800000
810.974365	394.700000
811.009827	398.800000
811.045166	394.400000
811.080627	388.400000
811.115967	387.500000
811.151428	394.200000
811.186829	389.900000
811.222229	388.600000
811.257629	383.300000
811.293091	389.500000
811.328430	392.100000
811.363892	388.100000
811.399292	389.800000
811.434631	385.600000
811.470093	390.000000
811.505493	385.000000
811.540833	382.700000
811.576294	385.100000
811.611694	380.100000
811.647034	376.300000
811.682434	378.200000
811.717773	379.000000
811.753235	384.300000
811.788635	378.900000
811.823975	378.600000
811.859375	386.500000
811.894775	373.300000
811.930115	375.800000
811.965515	377.200000
812.000916	376.000000
812.036255	369.000000
812.071655	375.400000
812.106995	371.400000
812.142395	372.000000
812.177795	376.300000
812.213196	374.300000
812.248474	373.400000
812.283875	363.200000
812.319214	367.500000
812.354614	368.200000
812.390015	364.000000
812.425293	365.200000
812.460693	363.300000
812.496094	359.500000
812.531433	356.500000
812.566772	355.500000
812.602173	358.300000
812.637451	357.700000
812.672852	354.900000
812.708191	357.800000
812.743530	351.200000
812.778931	347.900000
812.814270	347.500000
812.849609	354.000000
812.884949	349.800000
812.920227	342.000000
812.955627	355.800000
812.990967	348.000000
813.026306	343.200000
813.061646	334.800000
813.096985	331.500000
813.132324	328.000000
813.167664	331.800000
813.203003	336.500000
813.238281	330.000000
813.273682	329.200000
813.308960	326.700000
813.344299	328.600000
813.379639	334.400000
813.414978	327.500000
813.450256	327.700000
813.485596	329.100000
813.520874	324.500000
813.556213	323.900000
813.591614	329.800000
813.626831	321.700000
813.662170	324.600000
813.697510	331.200000
813.732788	320.300000
813.768127	320.700000
813.803467	320.300000
813.838745	317.100000
813.874084	320.400000
813.909363	318.600000
813.944641	318.800000
813.979980	311.400000
814.015320	315.600000
814.050598	311.300000
814.085876	313.100000
814.121155	309.800000
814.156494	310.100000
814.191772	311.500000
814.227051	308.400000
814.262390	309.200000
814.297668	308.000000
814.332947	308.400000
814.368225	301.800000
814.403564	305.300000
814.438782	303.300000
814.474121	304.500000
814.509338	303.500000
814.544617	306.400000
814.579956	297.900000
814.615173	307.500000
814.650513	305.100000
814.685791	299.000000
814.721008	300.900000
814.756348	301.500000
814.791626	299.500000
814.826843	298.300000
814.862122	297.500000
814.897400	297.700000
814.932678	296.100000
814.967957	296.800000
815.003235	295.700000
815.038452	291.700000
815.073730	288.000000
815.108948	298.600000
815.144226	295.400000
815.179504	298.500000
815.214722	287.600000
815.250000	287.300000
815.285278	291.700000
815.320496	288.600000
815.355774	288.100000
815.391052	290.600000
815.426270	287.000000
815.461487	286.800000
815.496765	281.800000
815.531982	278.900000
815.567261	281.900000
815.602539	287.100000
815.637695	284.100000
815.672974	285.700000
815.708191	285.100000
815.743408	286.800000
815.778687	279.700000
815.813904	286.400000
815.849121	275.600000
815.884399	274.000000
815.919556	274.600000
815.954834	274.800000
815.990051	278.100000
816.025269	279.700000
816.060486	271.100000
816.095703	270.800000
816.130920	273.900000
816.166199	270.500000
816.201416	272.200000
816.236572	274.800000
816.271851	269.800000
816.307007	272.300000
816.342224	265.200000
816.377441	267.100000
816.412659	260.400000
816.447876	267.900000
816.483093	266.900000
816.518250	266.700000
816.553467	262.400000
816.588745	266.900000
816.623901	260.500000
816.659119	256.000000
816.694275	261.500000
816.729492	256.600000
816.764709	287.700000
816.799927	254.100000
816.835083	258.800000
816.870300	253.800000
816.905457	257.000000
816.940674	257.000000
816.975830	254.100000
817.010986	250.100000
817.046204	250.200000
817.081421	247.400000
817.116577	249.700000
817.151733	254.100000
817.186951	254.900000
817.222107	251.600000
817.257324	253.200000
817.292419	251.800000
817.327637	245.100000
817.362854	246.500000
817.398010	242.500000
817.433167	245.100000
817.468323	244.400000
817.503479	245.200000
817.538635	253.900000
817.573853	247.200000
817.608948	244.000000
817.644165	242.900000
817.679321	239.900000
817.714478	239.800000
817.749634	243.300000
817.784790	249.500000
817.819946	245.300000
817.855103	235.600000
817.890198	239.300000
817.925415	234.400000
817.960571	241.800000
817.995667	241.100000
818.030823	238.500000
818.066040	238.200000
818.101135	238.700000
818.136292	238.000000
818.171448	233.100000
818.206543	235.600000
818.241699	238.300000
818.276855	237.300000
818.311951	234.500000
818.347107	230.500000
818.382263	236.500000
818.417358	240.300000
818.452515	238.400000
818.487610	240.100000
818.522766	229.900000
818.557922	238.800000
818.593018	233.900000
818.628113	232.600000
818.663269	228.500000
818.698364	232.000000
818.733521	229.600000
818.768677	232.100000
818.803711	226.200000
818.838867	227.600000
818.874023	227.500000
818.909058	226.800000
818.944214	224.100000
818.979370	228.300000
819.014404	226.900000
819.049561	223.100000
819.084595	226.700000
819.119751	220.100000
819.154846	224.700000
819.189941	223.100000
819.225037	221.100000
819.260193	216.800000
819.295227	217.900000
819.330322	214.900000
819.365479	215.700000
819.400513	250.400000
819.435608	215.400000
819.470764	211.600000
819.505798	215.400000
819.540894	217.400000
819.575989	215.200000
819.611084	220.700000
819.646179	223.100000
819.681213	217.900000
819.716309	215.000000
819.751404	214.600000
819.786438	220.100000
819.821533	211.000000
819.856628	215.200000
819.891663	216.700000
819.926758	223.500000
819.961853	218.100000
819.996887	211.800000
820.031982	215.800000
820.067017	212.000000
820.102112	244.700000
820.137207	210.900000
820.172302	222.600000
820.207275	208.400000
820.242371	208.600000
820.277405	208.600000
820.312500	211.000000
820.347534	212.500000
820.382568	213.900000
820.417664	208.100000
820.452759	208.700000
820.487732	207.800000
820.522827	208.200000
820.557861	204.900000
820.592896	208.700000
820.627930	208.700000
820.662964	206.100000
820.698059	209.800000
820.733093	206.200000
820.768127	211.100000
820.803162	206.600000
820.838196	204.600000
820.873230	207.500000
820.908264	207.100000
820.943298	205.400000
820.978333	210.100000
821.013367	208.100000
821.048401	209.400000
821.083435	208.400000
821.118469	200.000000
821.153503	209.600000
821.188477	206.600000
821.223511	201.100000
821.258484	204.100000
821.293579	206.300000
821.328613	201.000000
821.363647	204.300000
821.398621	200.500000
821.433655	201.800000
821.468628	213.800000
821.503662	203.700000
821.538696	206.800000
821.573669	199.700000
821.608704	205.600000
821.643677	202.500000
821.678650	206.300000
821.713684	208.500000
821.748718	204.500000
821.783691	201.500000
821.818726	204.300000
821.853638	204.300000
821.888672	202.200000
821.923706	202.000000
821.958618	200.400000
821.993652	199.600000
822.028687	206.600000
822.063599	209.200000
822.098633	203.500000
822.133667	198.600000
822.168579	202.500000
822.203613	202.800000
822.238586	199.300000
822.273560	204.500000
822.308533	199.700000
822.343567	199.700000
822.378479	202.400000
822.413452	199.200000
822.448425	198.100000
822.483398	205.300000
822.518372	205.400000
822.553345	198.500000
822.588318	207.700000
822.623291	200.400000
822.658203	200.000000
822.693237	200.700000
822.728210	198.600000
822.763123	202.000000
822.798096	197.200000
822.833069	200.800000
822.867981	200.700000
822.902954	202.200000
822.937927	201.800000
822.972900	207.000000
823.007874	194.800000
823.042725	204.000000
823.077698	209.200000
823.112671	197.400000
823.147583	200.200000
823.182556	203.000000
823.217529	204.200000
823.252441	197.600000
823.287415	209.300000
823.322388	203.900000
823.357239	199.500000
823.392212	204.700000
823.427185	205.100000
823.462097	197.200000
823.497009	201.400000
823.531982	199.400000
823.566895	199.800000
823.601807	196.100000
823.636719	198.400000
823.671631	202.900000
823.706604	197.900000
823.741455	201.800000
823.776428	194.700000
823.811340	203.400000
823.846252	205.100000
823.881165	205.500000
823.916138	201.400000
823.950989	206.500000
823.985901	198.100000
824.020813	200.500000
824.055725	197.900000
824.090637	195.800000
824.125610	201.300000
824.160461	199.800000
824.195374	200.200000
824.230225	201.400000
824.265198	194.000000
824.300110	196.900000
824.334961	206.000000
824.369873	192.100000
824.404785	201.600000
824.439636	203.000000
824.474548	193.300000
824.509460	190.800000
824.544312	203.600000
824.579224	199.500000
824.614075	199.300000
824.648987	195.400000
824.683899	198.500000
824.718811	195.800000
824.753662	202.600000
824.788574	201.800000
824.823364	198.300000
824.858276	193.500000
824.893188	201.700000
824.928040	201.700000
824.962952	199.800000
824.997803	200.900000
825.032654	198.700000
825.067566	199.300000
825.102417	196.600000
825.137268	195.900000
825.172119	197.000000
825.206970	195.100000
825.241882	195.700000
825.276733	193.400000
825.311646	195.700000
825.346436	193.300000
825.381348	194.000000
825.416138	196.500000
825.450989	193.000000
825.485901	188.900000
825.520691	190.600000
825.555542	191.000000
825.590454	195.600000
825.625244	190.600000
825.660095	200.700000
825.695007	197.200000
825.729797	194.200000
825.764648	191.700000
825.799438	195.300000
825.834290	194.800000
825.869202	189.400000
825.903992	193.200000
825.938843	191.100000
825.973694	190.600000
826.008484	202.600000
826.043335	190.400000
826.078186	186.800000
826.112976	197.500000
826.147827	196.400000
826.182678	199.700000
826.217468	186.700000
826.252319	199.200000
826.287109	189.800000
826.321899	196.000000
826.356750	191.100000
826.391541	189.000000
826.426392	196.200000
826.461182	193.000000
826.495972	188.200000
826.530823	186.800000
826.565613	192.800000
826.600403	189.000000
826.635254	195.500000
826.670044	187.700000
826.704834	186.300000
826.739685	188.300000
826.774475	193.800000
826.809265	192.100000
826.844055	188.900000
826.878906	196.500000
826.913635	193.200000
826.948425	193.900000
826.983215	193.500000
827.018005	195.900000
827.052856	189.500000
827.087585	195.500000
827.122375	186.600000
827.157227	191.100000
827.191956	201.400000
827.226746	188.000000
827.261536	193.800000
827.296265	187.500000
827.331116	189.500000
827.365906	192.200000
827.400635	189.500000
827.435425	184.100000
827.470215	193.400000
827.504944	190.400000
827.539734	194.500000
827.574463	189.800000
827.609253	198.400000
827.644043	191.700000
827.678772	195.700000
827.713562	189.700000
827.748352	188.800000
827.783081	187.900000
827.817871	193.500000
827.852600	188.700000
827.887329	190.100000
827.922119	183.700000
827.956848	194.200000
827.991638	201.200000
828.026367	193.700000
828.061157	191.300000
828.095886	193.000000
828.130615	204.500000
828.165344	185.500000
828.200073	191.000000
828.234863	192.100000
828.269592	190.800000
828.304321	195.800000
828.339111	189.100000
828.373779	188.800000
828.408569	195.200000
828.443298	193.900000
828.477966	189.300000
828.512756	191.600000
828.547424	186.900000
828.582214	188.800000
828.616943	190.500000
828.651672	190.700000
828.686340	194.300000
828.721130	189.100000
828.755798	191.900000
828.790527	191.200000
828.825256	190.600000
828.859924	192.200000
828.894714	196.600000
828.929443	197.600000
828.964111	188.100000
828.998840	194.600000
829.033569	187.500000
829.068237	189.500000
829.102966	188.400000
829.137634	191.800000
829.172363	192.600000
829.207092	191.700000
829.241821	188.700000
829.276489	184.700000
829.311157	191.600000
829.345825	190.500000
829.380554	196.400000
829.415283	186.700000
829.449951	187.000000
829.484619	197.700000
829.519348	197.200000
829.554016	190.200000
829.588745	192.400000
829.623413	186.100000
829.658081	200.700000
829.692749	186.000000
829.727417	194.800000
829.762146	192.600000
829.796814	189.700000
829.831482	189.900000
829.866150	192.600000
829.900879	188.900000
829.935486	193.900000
829.970154	190.400000
830.004883	201.400000
830.039490	191.700000
830.074219	188.300000
830.108887	192.700000
830.143494	190.700000
830.178223	186.900000
830.212891	190.400000
830.247498	191.300000
830.282166	196.200000
830.316772	195.600000
830.351501	189.000000
830.386169	190.200000
830.420776	189.800000
830.455444	190.200000
830.490112	189.700000
830.524719	184.900000
830.559387	193.500000
830.594055	193.900000
830.628662	190.400000
830.663330	191.300000
830.697998	197.200000
830.732605	190.400000
830.767273	192.300000
830.801941	190.500000
830.836487	198.200000
830.871155	193.500000
830.905762	193.600000
830.940430	187.800000
830.975098	188.300000
831.009644	192.700000
831.044312	197.300000
831.078979	193.500000
831.113525	185.200000
831.148193	193.100000
831.182861	190.900000
831.217407	193.100000
831.252075	200.800000
831.286621	190.300000
831.321289	188.500000
831.355896	192.300000
831.390564	196.200000
831.425110	193.300000
831.459778	196.200000
831.494324	202.200000
831.528931	191.400000
831.563599	195.300000
831.598145	186.700000
831.632751	191.000000
831.667419	190.200000
831.701965	194.000000
831.736572	193.000000
831.771179	185.500000
831.805786	188.500000
831.840393	195.700000
831.874939	185.000000
831.909546	193.700000
831.944153	183.700000
831.978760	189.900000
832.013306	187.400000
832.047913	195.100000
832.082458	197.700000
832.117065	189.400000
832.151672	199.500000
832.186218	191.400000
832.220825	194.300000
832.255432	184.700000
832.289978	189.900000
832.324585	192.300000
832.359192	193.700000
832.393677	189.900000
832.428284	191.600000
832.462830	190.300000
832.497437	190.400000
832.531982	193.400000
832.566589	189.300000
832.601135	193.300000
832.635681	186.000000
832.670227	191.500000
832.704773	197.200000
832.739380	192.000000
832.773926	192.100000
832.808472	188.800000
832.843079	190.800000
832.877563	192.700000
832.912170	189.400000
832.946716	186.200000
832.981201	194.500000
833.015808	193.100000
833.050293	190.200000
833.084839	188.000000
833.119446	188.400000
833.153992	193.600000
833.188477	189.100000
833.223022	188.100000
833.257568	192.100000
833.292114	194.900000
833.326660	200.400000
833.361145	188.800000
833.395691	184.400000
833.430237	190.600000
833.464783	192.200000
833.499329	187.900000
833.533875	188.000000
833.568359	194.500000
833.602905	194.200000
833.637390	194.900000
833.671875	187.800000
833.706421	188.200000
833.740906	187.700000
833.775452	183.000000
833.809998	188.500000
833.844482	197.300000
833.879028	190.000000
833.913513	189.400000
833.947998	193.200000
833.982544	188.500000
834.017090	189.200000
834.051514	182.400000
834.086060	193.500000
834.120544	191.400000
834.155029	192.000000
834.189575	190.000000
834.223999	192.400000
834.258545	191.100000
834.293030	191.500000
834.327515	190.300000
834.362000	188.200000
834.396545	194.300000
834.430969	188.500000
834.465454	194.500000
834.500000	187.000000
834.534424	193.900000
834.568970	185.200000
834.603455	184.200000
834.637878	187.700000
834.672363	190.600000
834.706909	191.200000
834.741333	191.500000
834.775818	185.600000
834.810242	187.500000
834.844727	191.400000
834.879211	189.900000
834.913635	190.700000
834.948181	191.600000
834.982666	191.900000
835.017090	189.600000
835.051575	193.500000
835.086060	189.400000
835.120483	192.300000
835.154907	193.400000
835.189331	190.900000
835.223816	194.600000
835.258301	186.800000
835.292786	187.500000
835.327209	195.500000
835.361694	186.200000
835.396057	188.200000
835.430542	192.800000
835.465027	191.200000
835.499390	187.900000
835.533875	217.000000
835.568359	188.800000
835.602722	185.500000
835.637207	192.000000
835.671692	186.400000
835.706055	207.600000
835.740540	192.900000
835.774902	192.600000
835.809387	192.000000
835.843811	187.600000
835.878235	196.500000
835.912659	186.700000
835.947083	188.400000
835.981506	190.600000
836.015930	184.900000
836.050354	194.300000
836.084778	196.600000
836.119202	194.300000
836.153625	203.400000
836.187988	187.800000
836.222473	188.600000
836.256897	191.400000
836.291260	189.500000
836.325684	192.700000
836.360046	188.700000
836.394470	190.800000
836.428894	195.700000
836.463318	189.500000
836.497681	192.400000
836.532104	196.900000
836.566467	192.000000
836.600891	190.300000
836.635315	194.300000
836.669678	193.400000
836.704102	194.900000
836.738525	194.600000
836.772888	185.400000
836.807251	189.100000
836.841675	194.300000
836.876038	188.000000
836.910461	188.300000
836.944763	194.900000
836.979187	186.700000
837.013611	196.100000
837.047974	185.600000
837.082336	200.100000
837.116699	192.300000
837.151062	190.600000
837.185486	186.900000
837.219849	189.700000
837.254211	193.700000
837.288574	190.400000
837.322937	186.500000
837.357300	182.100000
837.391663	199.600000
837.426086	193.500000
837.460388	192.100000
837.494751	195.300000
837.529114	189.700000
837.563477	196.200000
837.597839	191.200000
837.632141	190.600000
837.666565	187.600000
837.700928	193.200000
837.735229	192.200000
837.769592	192.500000
837.803955	193.900000
837.838257	189.000000
837.872620	188.500000
837.906982	196.100000
837.941284	190.700000
837.975647	191.400000
838.010010	196.700000
838.044312	189.700000
838.078674	189.800000
838.112976	192.000000
838.147339	193.200000
838.181702	191.800000
838.216003	198.500000
838.250366	193.200000
838.284668	196.000000
838.318970	186.200000
838.353333	191.400000
838.387634	189.800000
838.421936	191.900000
838.456299	191.800000
838.490601	196.900000
838.524902	194.200000
838.559265	194.500000
838.593567	195.000000
838.627869	186.700000
838.662170	191.900000
838.696472	187.200000
838.730774	188.300000
838.765137	193.800000
838.799377	180.400000
838.833740	190.300000
838.868042	194.800000
838.902283	184.200000
838.936646	196.500000
838.970947	191.500000
839.005188	196.000000
839.039551	186.100000
839.073792	197.000000
839.108093	190.200000
839.142395	198.000000
839.176697	185.500000
839.210937	192.100000
839.245300	198.000000
839.279541	186.000000
839.313843	189.900000
839.348145	193.800000
839.382385	193.200000
839.416687	196.300000
839.450989	193.400000
839.485229	190.100000
839.519531	188.800000
839.553833	196.000000
839.588013	189.700000
839.622314	192.800000
839.656555	192.300000
839.690857	191.100000
839.725159	186.400000
839.759460	191.500000
839.793640	189.000000
839.827942	190.900000
839.862183	187.000000
839.896423	193.600000
839.930725	202.000000
839.964966	199.300000
839.999207	196.000000
840.033508	197.800000
840.067688	188.400000
840.101990	197.000000
840.136230	190.400000
840.170471	197.100000
840.204712	186.600000
840.238953	187.100000
840.273193	191.700000
840.307434	194.900000
840.341736	188.700000
840.375916	186.100000
840.410217	187.300000
840.444397	195.300000
840.478638	192.500000
840.512878	194.900000
840.547119	192.400000
840.581360	193.100000
840.615601	198.200000
840.649780	199.700000
840.684021	190.400000
840.718262	198.100000
840.752441	199.000000
840.786682	191.500000
840.820862	193.200000
840.855103	197.700000
840.889343	190.900000
840.923584	195.300000
840.957764	194.300000
840.992004	192.600000
841.026184	204.800000
841.060425	190.500000
841.094666	187.900000
841.128845	194.200000
841.163025	192.500000
841.197266	192.900000
841.231445	192.300000
841.265686	194.000000
841.299866	187.700000
841.334045	196.500000
841.368286	190.600000
841.402405	196.100000
841.436646	194.200000
841.470825	189.100000
841.505005	191.000000
841.539185	187.600000
841.573425	188.700000
841.607544	192.100000
841.641785	190.400000
841.675964	188.300000
841.710144	191.800000
841.744324	188.600000
841.778503	190.800000
841.812683	188.300000
841.846863	197.800000
841.881042	197.700000
841.915222	189.100000
841.949402	203.400000
841.983521	185.600000
842.017700	190.700000
842.051880	191.300000
842.086060	194.300000
842.120239	191.400000
842.154419	189.900000
842.188538	192.200000
842.222717	188.900000
842.256897	198.500000
842.291016	191.500000
842.325195	192.400000
842.359375	200.100000
842.393494	196.600000
842.427673	193.100000
842.461853	192.400000
842.495911	200.200000
842.530090	194.100000
842.564209	190.900000
842.598389	192.600000
842.632568	192.900000
842.666626	195.200000
842.700806	190.100000
842.734985	189.300000
842.769043	194.800000
842.803223	191.000000
842.837402	190.600000
842.871460	187.600000
842.905640	199.500000
842.939697	188.600000
842.973877	192.600000
843.007996	195.700000
843.042175	200.600000
843.076233	189.800000
843.110413	193.600000
843.144470	197.700000
843.178589	196.500000
843.212769	190.100000
843.246826	196.000000
843.280945	189.200000
843.315125	190.100000
843.349182	188.300000
843.383301	195.300000
843.417419	201.600000
843.451538	190.500000
843.485657	190.700000
843.519714	191.700000
843.553833	192.300000
843.587952	190.400000
843.622070	190.300000
843.656128	194.100000
843.690247	190.700000
843.724304	190.600000
843.758423	193.800000
843.792542	189.900000
843.826599	192.800000
843.860718	190.200000
843.894836	186.100000
843.928894	192.300000
843.963013	193.800000
843.997070	188.600000
844.031128	189.100000
844.065247	195.800000
844.099304	195.300000
844.133362	193.200000
844.167480	193.400000
844.201599	196.200000
844.235596	193.900000
844.269714	194.500000
844.303711	192.600000
844.337830	185.900000
844.371948	194.400000
844.405945	190.900000
844.440063	187.100000
844.474121	202.700000
844.508118	189.500000
844.542236	190.300000
844.576294	191.800000
844.610352	187.800000
844.644409	190.700000
844.678406	185.100000
844.712524	195.500000
844.746582	197.200000
844.780640	190.400000
844.814636	191.500000
844.848755	202.300000
844.882751	190.300000
844.916809	194.500000
844.950867	194.300000
844.984863	198.100000
845.018921	189.800000
845.052979	188.600000
845.086975	193.700000
845.121033	186.700000
845.155090	189.700000
845.189087	196.700000
845.223145	190.500000
845.257141	193.000000
845.291199	195.400000
845.325256	196.300000
845.359253	194.000000
845.393250	203.600000
845.427307	191.500000
845.461304	193.200000
845.495361	193.400000
845.529358	200.000000
845.563354	191.000000
845.597412	188.300000
845.631409	199.400000
845.665405	197.700000
845.699463	195.400000
845.733459	189.600000
845.767456	198.000000
845.801453	191.400000
845.835449	196.900000
845.869446	195.200000
845.903503	194.400000
845.937439	189.300000
845.971497	195.800000
846.005493	187.000000
846.039429	195.600000
846.073486	200.300000
846.107483	190.100000
846.141418	191.200000
846.175476	192.600000
846.209473	196.400000
846.243408	189.200000
846.277405	192.800000
846.311401	188.700000
846.345337	191.000000
846.379395	196.400000
846.413330	188.700000
846.447327	201.000000
846.481323	189.100000
846.515259	189.000000
846.549255	191.200000
846.583252	193.900000
846.617187	189.400000
846.651184	192.800000
846.685120	191.200000
846.719055	198.200000
846.753052	195.900000
846.786987	194.700000
846.820984	187.700000
846.854980	197.100000
846.888916	189.900000
846.922852	194.400000
846.956848	198.600000
846.990723	190.000000
847.024719	193.700000
847.058716	190.900000
847.092590	198.200000
847.126587	193.400000
847.160522	189.900000
847.194458	195.800000
847.228455	189.800000
847.262390	188.800000
847.296265	190.300000
847.330261	195.400000
847.364136	190.900000
847.398132	189.900000
847.432068	193.200000
847.466003	190.100000
847.499939	190.400000
847.533875	195.100000
847.567749	190.100000
847.601746	190.600000
847.635681	192.900000
847.669556	186.300000
847.703491	196.200000
847.737427	202.400000
847.771301	188.000000
847.805237	194.300000
847.839233	192.700000
847.873108	192.300000
847.907043	190.900000
847.940918	197.400000
847.974854	191.800000
848.008789	195.800000
848.042664	191.100000
848.076538	193.400000
848.110474	191.900000
848.144348	193.700000
848.178284	185.900000
848.212219	193.700000
848.246094	190.100000
848.279968	192.700000
848.313904	193.300000
848.347778	191.300000
848.381653	191.200000
848.415588	190.400000
848.449463	189.400000
848.483337	194.800000
848.517212	197.800000
848.551086	192.800000
848.585022	187.800000
848.618835	200.000000
848.652771	189.400000
848.686646	187.300000
848.720520	197.400000
848.754395	191.700000
848.788330	194.700000
848.822144	194.900000
848.856018	189.300000
848.889954	199.200000
848.923767	189.800000
848.957642	189.700000
848.991577	192.000000
849.025391	191.500000
849.059265	192.200000
849.093079	189.100000
849.126953	188.600000
849.160828	196.100000
849.194641	192.200000
849.228577	189.600000
849.262451	191.100000
849.296265	190.200000
849.330139	189.600000
849.364014	192.400000
849.397827	193.800000
849.431702	193.100000
849.465515	196.000000
849.499329	184.400000
849.533203	189.100000
849.567078	184.600000
849.600891	196.100000
849.634766	191.300000
849.668518	195.800000
849.702393	191.500000
849.736267	186.900000
849.770020	201.200000
849.803894	193.700000
849.837769	192.400000
849.871521	193.300000
849.905396	195.000000
849.939270	188.100000
849.973022	190.100000
850.006897	195.100000
850.040710	194.600000
850.074524	195.200000
850.108337	190.600000
850.142151	196.600000
850.175964	196.300000
850.209778	192.200000
850.243530	181.900000
850.277405	196.800000
850.311218	192.600000
850.344971	190.500000
850.378845	198.700000
850.412659	188.300000
850.446411	193.400000
850.480225	191.700000
850.514038	196.600000
850.547791	195.000000
850.581665	192.400000
850.615417	188.900000
850.649231	194.000000
850.683044	189.700000
850.716858	191.800000
850.750610	191.900000
850.784424	196.200000
850.818176	188.200000
850.851929	191.500000
850.885742	188.600000
850.919495	192.400000
850.953308	197.700000
850.987122	199.300000
851.020874	187.600000
851.054626	187.500000
851.088440	195.100000
851.122192	195.900000
851.156006	193.800000
851.189697	192.300000
851.223511	188.500000
851.257263	196.600000
851.291077	193.800000
851.324829	192.200000
851.358582	189.400000
851.392334	191.600000
851.426086	190.400000
851.459900	199.100000
851.493591	192.900000
851.527344	192.500000
851.561157	192.200000
851.594849	194.300000
851.628662	192.700000
851.662415	199.500000
851.696106	194.200000
851.729858	195.800000
851.763611	187.300000
851.797363	192.500000
851.831116	188.400000
851.864868	194.400000
851.898560	197.400000
851.932312	190.800000
851.966064	195.000000
851.999817	192.500000
852.033569	191.500000
852.067261	197.600000
852.101013	190.500000
852.134766	190.600000
852.168457	187.100000
852.202209	196.400000
852.235901	189.500000
852.269592	194.300000
852.303345	198.300000
852.337036	195.400000
852.370789	193.800000
852.404541	196.100000
852.438171	188.900000
852.471924	192.100000
852.505676	189.400000
852.539307	194.300000
852.573059	190.500000
852.606812	190.800000
852.640442	191.200000
852.674194	195.900000
852.707886	202.400000
852.741577	197.700000
852.775269	188.500000
852.809021	193.100000
852.842651	194.300000
852.876404	196.400000
852.910034	193.100000
852.943787	195.300000
852.977478	195.200000
853.011108	188.800000
853.044861	187.800000
853.078552	197.900000
853.112183	193.700000
853.145874	192.900000
853.179626	186.300000
853.213257	193.000000
853.246948	191.300000
853.280640	199.100000
853.314270	190.800000
853.347961	197.200000
853.381653	194.400000
853.415283	196.600000
853.448975	189.600000
853.482605	193.900000
853.516296	191.700000
853.549988	188.600000
853.583618	195.300000
853.617310	194.900000
853.651001	193.100000
853.684631	189.800000
853.718323	190.200000
853.751953	199.100000
853.785583	185.500000
853.819275	195.200000
853.852966	194.500000
853.886536	187.200000
853.920227	188.200000
853.953918	196.100000
853.987488	192.100000
854.021179	195.200000
854.054749	197.900000
854.088440	194.400000
854.122131	188.800000
854.155701	194.100000
854.189331	188.400000
854.223022	194.100000
854.256592	195.100000
854.290283	189.800000
854.323914	194.000000
854.357483	192.800000
854.391174	193.700000
854.424744	198.400000
854.458374	193.600000
854.492065	202.700000
854.525696	191.000000
854.559265	197.600000
854.592896	202.000000
854.626465	192.300000
854.660095	192.100000
854.693787	194.800000
854.727356	191.200000
854.760986	196.400000
854.794617	194.900000
854.828186	189.800000
854.861816	195.000000
854.895447	191.900000
854.929016	194.400000
854.962585	193.400000
854.996155	200.600000
855.029785	192.500000
855.063416	193.600000
855.097046	195.800000
855.130615	189.200000
855.164185	197.000000
855.197754	193.900000
855.231384	194.000000
855.264954	192.200000
855.298523	194.900000
855.332153	194.000000
855.365723	195.800000
855.399292	190.300000
855.432922	191.300000
855.466492	194.200000
855.500061	189.300000
855.533630	190.900000
855.567200	194.400000
855.600769	196.500000
855.634338	197.600000
855.667969	193.400000
855.701477	189.100000
855.735046	190.300000
855.768616	187.400000
855.802185	194.100000
855.835754	204.100000
855.869324	185.400000
855.902893	191.800000
855.936401	196.100000
855.969971	193.000000
856.003540	187.600000
856.037109	196.600000
856.070618	191.700000
856.104187	188.800000
856.137695	189.800000
856.171265	185.200000
856.204834	192.900000
856.238403	197.400000
856.271912	189.400000
856.305481	194.500000
856.338989	187.100000
856.372559	196.600000
856.406128	194.500000
856.439636	196.900000
856.473145	191.100000
856.506653	198.800000
856.540222	193.000000
856.573792	197.200000
856.607300	196.100000
856.640808	188.800000
856.674377	192.600000
856.707825	225.300000
856.741394	197.900000
856.774902	188.700000
856.808472	185.700000
856.841980	194.500000
856.875488	197.500000
856.908936	186.900000
856.942505	192.100000
856.976013	191.800000
857.009521	188.500000
857.043030	192.100000
857.076477	190.900000
857.110046	197.800000
857.143555	194.100000
857.177063	194.600000
857.210571	192.200000
857.244080	187.500000
857.277527	193.700000
857.311035	191.800000
857.344543	197.000000
857.378052	191.900000
857.411499	196.700000
857.445068	198.700000
857.478516	191.800000
857.512024	188.400000
857.545532	191.100000
857.578979	194.000000
857.612427	195.100000
857.645874	189.200000
857.679382	193.700000
857.712891	196.500000
857.746399	192.200000
857.779846	196.800000
857.813354	196.500000
857.846741	192.400000
857.880249	189.500000
857.913757	193.900000
857.947266	194.300000
857.980652	194.200000
858.014160	191.200000
858.047546	190.500000
858.081055	191.000000
858.114563	201.300000
858.147949	188.000000
858.181458	194.200000
858.214844	191.600000
858.248352	186.100000
858.281799	196.400000
858.315308	202.400000
858.348694	194.700000
858.382141	198.600000
858.415588	194.800000
858.449036	195.800000
858.482483	194.400000
858.515930	190.800000
858.549377	192.500000
858.582825	197.600000
858.616211	195.100000
858.649658	195.900000
858.683105	188.600000
858.716553	190.500000
858.750000	187.800000
858.783386	190.800000
858.816833	186.800000
858.850281	193.500000
858.883728	193.500000
858.917114	193.900000
858.950562	197.600000
858.983948	198.800000
859.017395	196.300000
859.050781	192.700000
859.084167	189.100000
859.117615	189.600000
859.151062	194.000000
859.184448	191.200000
859.217834	191.400000
859.251282	191.400000
859.284668	188.100000
859.318054	187.100000
859.351440	191.300000
859.384888	199.600000
859.418274	188.000000
859.451721	187.400000
859.485046	194.700000
859.518494	194.400000
859.551819	189.500000
859.585266	196.000000
859.618652	197.000000
859.652039	186.600000
859.685425	188.500000
859.718811	187.700000
859.752197	184.100000
859.785583	196.600000
859.819031	198.600000
859.852356	194.200000
859.885742	188.900000
859.919067	191.800000
859.952454	189.800000
859.985901	195.600000
860.019287	191.800000
860.052612	0.000000
860.085999	0.000000
860.119324	0.000000
860.152710	0.000000
860.186096	0.000000
860.219421	0.000000
860.252808	0.000000
860.286133	0.000000
860.319519	0.000000
860.352905	0.000000
860.386292	0.000000
860.419617	0.000000
860.452942	0.000000
860.486267	0.000000
860.519653	0.000000
860.553040	0.000000
860.586365	0.000000
860.619690	0.000000
860.653076	0.000000
860.686340	0.000000
860.719727	0.000000
860.753113	0.000000
860.786377	0.000000
860.819763	0.000000
860.853027	0.000000
860.886414	0.000000
860.919739	0.000000
860.953125	0.000000
860.986389	0.000000
861.019714	0.000000
861.053040	0.000000
861.086365	0.000000
861.119690	0.000000
861.153076	0.000000
861.186340	0.000000
861.219666	0.000000
861.252930	0.000000
861.286316	0.000000
861.319641	0.000000
861.352905	0.000000
861.386230	0.000000
861.419495	0.000000
861.452820	0.000000
861.486145	0.000000
861.519470	0.000000
861.552734	0.000000
861.586060	0.000000
861.619324	0.000000
861.652649	0.000000
861.685974	0.000000
861.719238	0.000000
861.752563	0.000000
861.785828	0.000000
861.819092	0.000000
861.852417	0.000000
861.885742	0.000000
861.918945	0.000000
861.952271	0.000000
861.985535	0.000000
862.018799	0.000000
862.052124	0.000000
862.085449	0.000000
862.118652	0.000000
862.151978	0.000000
862.185181	0.000000
862.218506	0.000000
862.251770	0.000000
862.285034	0.000000
862.318298	0.000000
862.351562	0.000000
862.384827	0.000000
862.418091	0.000000
862.451355	0.000000
862.484619	0.000000
862.517883	0.000000
862.551086	0.000000
862.584351	0.000000
862.617676	0.000000
862.650940	0.000000
862.684143	0.000000
862.717407	0.000000
862.750610	0.000000
862.783875	0.000000
862.817139	0.000000
862.850342	0.000000
862.883606	0.000000
862.916870	0.000000
862.950073	0.000000
862.983337	0.000000
863.016602	0.000000
863.049805	0.000000
863.083069	0.000000
863.116211	0.000000
863.149475	0.000000
863.182739	0.000000
863.216003	0.000000
863.249146	0.000000
863.282410	0.000000
863.315613	0.000000
863.348816	0.000000
863.382080	0.000000
863.415222	0.000000
863.448486	0.000000
863.481689	0.000000
863.514893	0.000000
863.548157	0.000000
863.581360	0.000000
863.614502	0.000000
863.647766	0.000000
863.680908	0.000000
863.714172	0.000000
863.747375	0.000000
863.780579	0.000000
863.813721	0.000000
863.846985	0.000000
863.880127	0.000000
863.913330	0.000000
863.946533	0.000000
863.979675	0.000000
864.012939	0.000000
