Model Number: SPM-001-M   
Serial Number: 10090201
Firmware Version: 004.17.6
Exposure Time: 300000.000000us
Data Taken on: 21-01-2021 14:11:10.688
Wavelength	Amplitude
733.770752	0.000000
733.808716	0.000000
733.846619	0.000000
733.884583	0.000000
733.922546	0.000000
733.960449	0.000000
733.998413	0.000000
734.036377	0.000000
734.074219	0.000000
734.112183	0.000000
734.150085	0.000000
734.188049	0.000000
734.226013	0.000000
734.263916	0.000000
734.301819	0.000000
734.339783	0.000000
734.377686	0.000000
734.415588	0.000000
734.453552	0.000000
734.491455	0.000000
734.529419	0.000000
734.567322	0.000000
734.605225	0.000000
734.643127	0.000000
734.681091	0.000000
734.718994	0.000000
734.756897	0.000000
734.794800	0.000000
734.832703	0.000000
734.870667	0.000000
734.908508	0.000000
734.946472	0.000000
734.984375	0.000000
735.022278	0.000000
735.060181	0.000000
735.098083	0.000000
735.135986	0.000000
735.173889	0.000000
735.211792	0.000000
735.249695	0.000000
735.287598	0.000000
735.325439	0.000000
735.363403	0.000000
735.401306	0.000000
735.439148	0.000000
735.477051	0.000000
735.515015	0.000000
735.552856	0.000000
735.590759	0.000000
735.628662	0.000000
735.666504	0.000000
735.704407	0.000000
735.742310	0.000000
735.780212	0.000000
735.818115	0.000000
735.856018	0.000000
735.893860	0.000000
735.931763	0.000000
735.969604	0.000000
736.007507	0.000000
736.045410	0.000000
736.083252	0.000000
736.121094	0.000000
736.158997	0.000000
736.196838	0.000000
736.234741	0.000000
736.272644	0.000000
736.310486	0.000000
736.348389	0.000000
736.386230	0.000000
736.424072	0.000000
736.461975	0.000000
736.499878	0.000000
736.537720	0.000000
736.575562	0.000000
736.613403	0.000000
736.651306	0.000000
736.689148	0.000000
736.726990	0.000000
736.764893	0.000000
736.802734	0.000000
736.840576	0.000000
736.878418	0.000000
736.916321	0.000000
736.954102	0.000000
736.992004	0.000000
737.029846	0.000000
737.067688	0.000000
737.105530	0.000000
737.143372	0.000000
737.181213	0.000000
737.219116	0.000000
737.256897	0.000000
737.294739	0.000000
737.332642	0.000000
737.370422	0.000000
737.408325	0.000000
737.446167	0.000000
737.483948	0.000000
737.521790	0.000000
737.559692	0.000000
737.597473	0.000000
737.635315	0.000000
737.673157	0.000000
737.710999	0.000000
737.748840	0.000000
737.786621	0.000000
737.824463	0.000000
737.862305	0.000000
737.900085	0.000000
737.937927	0.000000
737.975769	0.000000
738.013550	0.000000
738.051392	0.000000
738.089233	0.000000
738.127014	0.000000
738.164856	0.000000
738.202698	0.000000
738.240479	0.000000
738.278320	0.000000
738.316162	0.000000
738.353943	0.000000
738.391785	0.000000
738.429565	0.000000
738.467407	0.000000
738.505188	0.000000
738.542969	0.000000
738.580811	0.000000
738.618652	0.000000
738.656372	0.000000
738.694214	0.000000
738.732056	0.000000
738.769836	0.000000
738.807617	0.000000
738.845459	0.000000
738.883240	0.000000
738.921021	0.000000
738.958862	0.000000
738.996582	0.000000
739.034424	0.000000
739.072205	0.000000
739.109985	0.000000
739.147827	0.000000
739.185547	0.000000
739.223389	0.000000
739.261169	0.000000
739.298889	0.000000
739.336731	0.000000
739.374512	0.000000
739.412292	0.000000
739.450073	0.000000
739.487854	0.000000
739.525635	0.000000
739.563416	0.000000
739.601135	0.000000
739.638977	0.000000
739.676758	0.000000
739.714478	0.000000
739.752258	0.000000
739.790100	0.000000
739.827820	0.000000
739.865601	0.000000
739.903381	0.000000
739.941101	0.000000
739.978882	194.600000
740.016724	192.800000
740.054443	193.700000
740.092224	189.800000
740.130005	188.400000
740.167725	188.800000
740.205505	189.400000
740.243225	196.300000
740.281006	191.500000
740.318787	187.200000
740.356506	197.800000
740.394287	194.500000
740.432068	189.400000
740.469727	186.900000
740.507507	194.200000
740.545288	191.200000
740.583008	193.200000
740.620789	191.400000
740.658569	185.700000
740.696228	191.300000
740.734009	194.100000
740.771790	183.200000
740.809509	194.400000
740.847229	186.700000
740.884949	190.700000
740.922729	185.200000
740.960449	190.200000
740.998169	187.200000
741.035950	188.500000
741.073669	192.000000
741.111389	192.000000
741.149170	198.600000
741.186890	199.100000
741.224609	193.600000
741.262329	193.600000
741.300110	197.800000
741.337769	188.500000
741.375549	187.000000
741.413208	193.000000
741.450989	188.100000
741.488708	189.400000
741.526367	189.000000
741.564148	194.800000
741.601868	195.200000
741.639526	191.200000
741.677307	192.600000
741.715027	193.500000
741.752686	186.700000
741.790466	195.900000
741.828186	193.600000
741.865845	187.200000
741.903564	185.600000
741.941345	191.700000
741.979004	188.200000
742.016724	195.600000
742.054382	191.000000
742.092102	194.600000
742.129822	187.200000
742.167480	190.100000
742.205200	190.200000
742.242920	192.000000
742.280640	193.500000
742.318359	188.500000
742.356079	191.400000
742.393738	193.800000
742.431396	189.600000
742.469116	193.700000
742.506775	184.700000
742.544495	193.300000
742.582214	195.400000
742.619873	191.200000
742.657593	198.700000
742.695251	195.500000
742.732971	191.400000
742.770630	193.800000
742.808289	192.900000
742.846008	191.600000
742.883728	193.300000
742.921326	191.200000
742.959045	190.700000
742.996765	191.000000
743.034424	191.600000
743.072083	190.500000
743.109802	190.800000
743.147400	188.100000
743.185120	193.100000
743.222839	192.500000
743.260437	196.300000
743.298157	192.700000
743.335754	185.500000
743.373474	190.900000
743.411133	186.900000
743.448792	191.200000
743.486450	192.700000
743.524170	187.000000
743.561768	191.900000
743.599487	195.400000
743.637146	199.700000
743.674744	191.000000
743.712463	189.100000
743.750122	191.800000
743.787720	193.100000
743.825439	189.800000
743.863037	190.200000
743.900696	191.800000
743.938416	215.600000
743.976013	191.900000
744.013672	198.000000
744.051331	194.800000
744.088928	197.700000
744.126587	196.000000
744.164307	192.800000
744.201904	189.400000
744.239563	193.700000
744.277222	195.300000
744.314819	191.200000
744.352478	196.200000
744.390137	192.500000
744.427734	194.200000
744.465393	189.700000
744.502991	190.000000
744.540649	194.000000
744.578308	192.900000
744.615906	187.800000
744.653564	185.600000
744.691223	194.100000
744.728821	188.600000
744.766418	191.400000
744.804077	192.900000
744.841675	189.500000
744.879333	187.500000
744.916992	191.600000
744.954529	191.600000
744.992187	195.500000
745.029785	191.000000
745.067444	189.800000
745.105042	192.100000
745.142639	193.400000
745.180298	200.500000
745.217896	191.600000
745.255493	189.900000
745.293152	193.200000
745.330750	195.500000
745.368347	197.900000
745.405945	193.800000
745.443604	190.800000
745.481140	194.700000
745.518799	192.100000
745.556396	193.600000
745.593994	194.000000
745.631592	191.000000
745.669189	187.100000
745.706787	192.700000
745.744385	186.900000
745.781982	193.700000
745.819580	188.500000
745.857178	191.600000
745.894775	190.800000
745.932373	193.400000
745.969971	192.700000
746.007568	184.000000
746.045166	198.400000
746.082764	195.500000
746.120300	194.400000
746.157898	193.300000
746.195557	190.900000
746.233093	187.200000
746.270691	193.500000
746.308228	193.800000
746.345825	194.600000
746.383423	194.300000
746.420959	189.400000
746.458557	188.800000
746.496155	191.100000
746.533691	192.600000
746.571289	187.400000
746.608887	192.200000
746.646423	191.600000
746.684021	193.200000
746.721619	189.100000
746.759155	194.000000
746.796753	187.400000
746.834351	187.200000
746.871826	188.800000
746.909424	197.900000
746.946960	191.000000
746.984558	191.100000
747.022156	189.600000
747.059631	197.700000
747.097229	193.700000
747.134827	189.000000
747.172363	196.300000
747.209900	195.000000
747.247498	186.700000
747.285034	195.000000
747.322571	197.300000
747.360168	189.300000
747.397644	185.800000
747.435242	194.400000
747.472778	194.700000
747.510315	190.400000
747.547913	190.600000
747.585388	195.700000
747.622925	191.200000
747.660522	186.800000
747.697998	190.500000
747.735596	191.000000
747.773132	190.700000
747.810669	192.300000
747.848206	194.000000
747.885742	189.200000
747.923279	186.800000
747.960815	192.600000
747.998352	191.900000
748.035889	194.900000
748.073425	192.400000
748.110901	189.600000
748.148437	188.100000
748.185974	191.800000
748.223511	199.800000
748.261047	194.000000
748.298584	192.400000
748.336060	191.600000
748.373596	193.000000
748.411133	215.300000
748.448608	189.400000
748.486145	193.000000
748.523682	195.400000
748.561218	198.400000
748.598755	191.900000
748.636292	192.500000
748.673706	189.400000
748.711243	197.600000
748.748718	191.400000
748.786255	191.300000
748.823792	190.100000
748.861267	187.100000
748.898804	194.700000
748.936340	193.500000
748.973816	189.300000
749.011292	198.300000
749.048828	193.300000
749.086304	193.900000
749.123840	198.500000
749.161316	189.900000
749.198792	198.200000
749.236328	195.800000
749.273743	192.000000
749.311279	191.400000
749.348816	196.200000
749.386230	191.300000
749.423767	182.400000
749.461304	194.500000
749.498718	193.800000
749.536255	196.900000
749.573730	201.500000
749.611206	195.900000
749.648682	190.100000
749.686218	192.300000
749.723633	193.900000
749.761169	189.700000
749.798645	190.100000
749.836060	191.800000
749.873596	190.400000
749.911011	193.400000
749.948547	197.000000
749.986023	191.800000
750.023437	190.700000
750.060913	187.500000
750.098450	187.100000
750.135864	190.800000
750.173340	190.900000
750.210815	196.700000
750.248291	188.100000
750.285767	191.500000
750.323242	194.800000
750.360657	193.400000
750.398132	188.300000
750.435608	194.500000
750.473022	188.600000
750.510498	189.000000
750.547974	188.200000
750.585449	190.600000
750.622925	183.700000
750.660339	201.600000
750.697815	192.500000
750.735291	191.000000
750.772644	192.100000
750.810120	192.100000
750.847595	193.900000
750.885010	189.200000
750.922485	196.100000
750.959961	192.700000
750.997375	197.000000
751.034851	196.400000
751.072266	195.600000
751.109680	186.500000
751.147156	196.500000
751.184570	193.500000
751.221985	192.100000
751.259460	187.100000
751.296875	192.500000
751.334290	190.400000
751.371765	194.500000
751.409180	194.700000
751.446594	194.800000
751.484070	192.500000
751.521423	192.300000
751.558899	192.900000
751.596375	199.000000
751.633728	197.200000
751.671204	200.900000
751.708618	188.000000
751.746033	192.700000
751.783447	186.400000
751.820801	190.000000
751.858276	193.900000
751.895691	190.900000
751.933105	190.300000
751.970520	186.900000
752.007935	189.700000
752.045349	195.500000
752.082764	189.700000
752.120178	190.000000
752.157532	189.900000
752.195007	189.400000
752.232422	193.800000
752.269775	195.400000
752.307190	194.800000
752.344543	188.100000
752.382019	190.900000
752.419434	189.500000
752.456787	193.900000
752.494202	196.300000
752.531616	192.200000
752.568970	194.000000
752.606384	193.200000
752.643799	192.300000
752.681152	197.600000
752.718567	194.200000
752.755981	187.700000
752.793335	193.500000
752.830750	185.200000
752.868164	195.500000
752.905518	188.100000
752.942932	194.400000
752.980225	189.700000
753.017639	194.500000
753.055054	195.500000
753.092407	191.800000
753.129822	195.300000
753.167175	197.300000
753.204529	190.300000
753.241943	187.900000
753.279358	187.700000
753.316650	193.400000
753.354065	192.500000
753.391479	194.800000
753.428772	196.800000
753.466187	193.000000
753.503479	187.800000
753.540894	189.700000
753.578308	186.400000
753.615601	187.900000
753.653015	191.500000
753.690369	188.900000
753.727722	188.900000
753.765076	186.800000
753.802490	186.800000
753.839783	184.800000
753.877136	188.700000
753.914551	201.200000
753.951843	191.300000
753.989258	196.100000
754.026611	191.300000
754.063904	193.000000
754.101257	188.700000
754.138611	185.600000
754.175964	191.500000
754.213318	199.500000
754.250610	186.400000
754.288025	190.800000
754.325378	188.100000
754.362671	194.100000
754.400024	191.000000
754.437378	199.700000
754.474670	197.100000
754.512085	189.100000
754.549438	194.400000
754.586731	188.900000
754.624084	191.700000
754.661438	187.500000
754.698730	198.400000
754.736084	190.000000
754.773376	189.500000
754.810730	192.600000
754.848083	190.600000
754.885315	197.000000
754.922668	186.300000
754.960022	186.700000
754.997314	194.600000
755.034668	190.100000
755.072021	192.400000
755.109253	189.200000
755.146606	195.700000
755.183960	188.800000
755.221252	199.200000
755.258545	194.700000
755.295898	196.700000
755.333191	197.200000
755.370544	193.400000
755.407776	192.400000
755.445129	192.700000
755.482422	195.600000
755.519714	189.600000
755.557068	187.500000
755.594360	185.800000
755.631653	194.900000
755.668945	198.500000
755.706299	193.900000
755.743530	201.800000
755.780884	198.100000
755.818176	196.300000
755.855408	196.400000
755.892761	193.500000
755.930054	193.200000
755.967346	193.600000
756.004639	193.700000
756.041870	192.900000
756.079224	195.400000
756.116516	190.200000
756.153748	195.000000
756.191040	200.500000
756.228394	194.500000
756.265625	190.100000
756.302917	191.800000
756.340210	191.000000
756.377441	197.200000
756.414795	199.700000
756.452087	191.900000
756.489319	187.100000
756.526611	197.400000
756.563843	192.700000
756.601135	200.900000
756.638428	201.000000
756.675659	191.900000
756.712952	195.200000
756.750244	197.200000
756.787476	195.500000
756.824768	198.200000
756.862061	192.700000
756.899292	241.500000
756.936584	196.500000
756.973816	202.400000
757.011047	203.300000
757.048340	194.900000
757.085632	196.600000
757.122864	209.200000
757.160156	192.700000
757.197327	196.100000
757.234619	198.700000
757.271912	194.800000
757.309082	198.800000
757.346375	193.500000
757.383667	198.800000
757.420837	196.800000
757.458130	195.800000
757.495422	194.100000
757.532593	197.400000
757.569885	191.900000
757.607117	192.800000
757.644348	195.600000
757.681580	206.300000
757.718811	186.900000
757.756042	196.400000
757.793335	193.300000
757.830505	198.700000
757.867798	193.700000
757.905029	192.600000
757.942200	195.800000
757.979492	194.100000
758.016724	195.500000
758.053894	196.800000
758.091187	210.800000
758.128418	196.400000
758.165588	194.200000
758.202820	204.800000
758.240112	197.200000
758.277283	205.900000
758.314514	197.700000
758.351685	195.500000
758.388916	203.500000
758.426147	202.500000
758.463379	204.200000
758.500610	199.900000
758.537842	199.300000
758.575012	202.900000
758.612244	194.800000
758.649475	208.900000
758.686646	193.600000
758.723877	204.900000
758.761108	205.200000
758.798279	199.600000
758.835510	198.700000
758.872742	205.200000
758.909851	200.900000
758.947083	201.600000
758.984253	201.300000
759.021484	204.700000
759.058716	202.100000
759.095886	204.200000
759.133057	198.900000
759.170288	203.100000
759.207458	199.000000
759.244690	209.500000
759.281860	207.100000
759.319031	202.400000
759.356262	199.900000
759.393433	200.000000
759.430603	200.200000
759.467773	200.700000
759.505005	205.000000
759.542175	204.900000
759.579346	199.300000
759.616516	202.100000
759.653687	205.500000
759.690918	200.200000
759.728027	201.700000
759.765259	204.500000
759.802429	205.400000
759.839539	204.100000
759.876770	208.200000
759.913940	210.400000
759.951111	204.100000
759.988281	204.200000
760.025452	201.000000
760.062561	200.600000
760.099792	213.000000
760.136963	207.300000
760.174072	204.800000
760.211243	201.100000
760.248413	201.200000
760.285583	201.200000
760.322754	211.900000
760.359863	209.600000
760.397034	210.300000
760.434204	204.800000
760.471375	205.900000
760.508545	203.900000
760.545715	205.500000
760.582825	202.200000
760.619995	209.100000
760.657166	202.300000
760.694275	212.000000
760.731445	206.000000
760.768555	207.800000
760.805664	208.500000
760.842834	207.500000
760.879944	208.200000
760.917114	207.100000
760.954285	206.500000
760.991394	202.800000
761.028564	210.300000
761.065674	208.000000
761.102783	205.400000
761.139954	211.600000
761.177124	209.600000
761.214172	211.700000
761.251343	206.800000
761.288452	206.900000
761.325562	212.000000
761.362732	205.000000
761.399841	208.300000
761.436951	209.700000
761.474121	204.200000
761.511169	209.000000
761.548340	212.900000
761.585449	211.000000
761.622559	212.300000
761.659668	210.600000
761.696838	214.600000
761.733887	210.400000
761.771057	210.400000
761.808167	209.400000
761.845276	214.400000
761.882385	220.400000
761.919434	212.100000
761.956604	223.800000
761.993713	209.300000
762.030762	217.100000
762.067871	210.500000
762.105042	211.000000
762.142090	219.000000
762.179199	212.400000
762.216309	216.600000
762.253418	222.600000
762.290527	220.100000
762.327637	215.500000
762.364685	208.300000
762.401794	216.100000
762.438904	216.000000
762.475952	210.900000
762.513062	210.000000
762.550110	210.100000
762.587219	222.100000
762.624329	219.200000
762.661377	216.600000
762.698486	216.500000
762.735596	216.800000
762.772644	212.800000
762.809753	209.600000
762.846863	212.900000
762.883911	218.400000
762.921021	217.800000
762.958069	216.200000
762.995117	222.500000
763.032227	221.900000
763.069336	216.100000
763.106323	213.500000
763.143433	212.900000
763.180481	219.400000
763.217590	219.700000
763.254639	217.900000
763.291687	216.800000
763.328735	224.300000
763.365845	219.100000
763.402893	216.900000
763.439941	220.000000
763.477051	222.300000
763.514038	221.600000
763.551147	218.200000
763.588196	220.500000
763.625244	219.300000
763.662292	226.900000
763.699402	227.400000
763.736389	223.600000
763.773499	230.400000
763.810486	224.400000
763.847534	223.800000
763.884644	225.100000
763.921631	221.600000
763.958679	230.000000
763.995728	223.100000
764.032776	230.100000
764.069824	220.400000
764.106873	229.800000
764.143860	232.800000
764.180969	221.600000
764.218018	230.200000
764.255005	225.900000
764.292053	226.500000
764.329102	233.800000
764.366089	234.000000
764.403137	232.800000
764.440125	227.700000
764.477173	229.100000
764.514221	232.100000
764.551208	231.800000
764.588257	226.700000
764.625305	231.700000
764.662292	237.800000
764.699341	238.700000
764.736389	234.900000
764.773376	246.800000
764.810425	236.000000
764.847473	240.900000
764.884399	238.900000
764.921448	244.000000
764.958435	242.900000
764.995483	237.000000
765.032532	246.900000
765.069458	235.900000
765.106506	237.700000
765.143555	235.400000
765.180481	238.800000
765.217529	246.700000
765.254578	236.300000
765.291504	241.800000
765.328552	241.000000
765.365540	238.200000
765.402527	249.600000
765.439575	239.800000
765.476501	236.900000
765.513550	235.800000
765.550537	242.100000
765.587463	246.300000
765.624512	239.600000
765.661499	235.400000
765.698486	247.700000
765.735474	238.800000
765.772461	242.300000
765.809448	247.700000
765.846436	246.900000
765.883423	250.900000
765.920410	246.000000
765.957397	242.100000
765.994385	247.600000
766.031311	254.300000
766.068359	248.500000
766.105286	248.100000
766.142273	255.500000
766.179260	249.900000
766.216187	247.400000
766.253174	245.100000
766.290161	249.800000
766.327148	254.100000
766.364136	254.300000
766.401123	264.200000
766.438049	249.000000
766.475037	257.800000
766.512024	255.600000
766.548950	266.000000
766.585937	262.100000
766.622864	258.500000
766.659790	257.200000
766.696777	250.200000
766.733704	259.300000
766.770691	254.000000
766.807678	264.200000
766.844604	260.600000
766.881531	259.800000
766.918518	263.600000
766.955444	263.400000
766.992432	258.700000
767.029358	262.500000
767.066284	263.000000
767.103271	262.100000
767.140198	294.300000
767.177124	273.300000
767.214050	263.600000
767.251038	267.100000
767.287964	262.400000
767.324890	262.500000
767.361816	266.000000
767.398743	269.600000
767.435730	264.300000
767.472595	267.900000
767.509583	271.600000
767.546509	262.200000
767.583374	269.300000
767.620361	263.100000
767.657288	267.000000
767.694214	267.300000
767.731140	266.700000
767.768066	267.000000
767.804993	270.400000
767.841919	263.900000
767.878845	270.200000
767.915710	276.200000
767.952698	269.100000
767.989563	271.500000
768.026489	273.000000
768.063416	268.300000
768.100281	265.700000
768.137207	277.700000
768.174133	272.700000
768.211060	275.300000
768.247986	272.500000
768.284912	271.400000
768.321777	273.900000
768.358704	271.000000
768.395630	274.400000
768.432495	271.500000
768.469421	275.100000
768.506348	277.500000
768.543152	280.800000
768.580078	279.800000
768.616943	279.700000
768.653870	282.900000
768.690796	280.500000
768.727661	280.400000
768.764587	281.200000
768.801453	277.700000
768.838318	286.100000
768.875244	284.400000
768.912109	289.000000
768.948975	282.400000
768.985901	283.300000
769.022766	282.100000
769.059631	287.600000
769.096558	282.500000
769.133362	284.600000
769.170288	285.600000
769.207214	284.900000
769.244019	290.700000
769.280945	288.700000
769.317810	296.300000
769.354675	289.700000
769.391541	297.600000
769.428406	293.100000
769.465271	301.200000
769.502136	292.900000
769.539062	297.200000
769.575867	296.800000
769.612732	297.500000
769.649597	298.700000
769.686462	299.900000
769.723328	296.500000
769.760193	298.500000
769.797058	302.200000
769.833923	307.800000
769.870728	301.200000
769.907593	305.100000
769.944519	305.400000
769.981323	306.700000
770.018188	308.500000
770.055054	307.000000
770.091858	307.800000
770.128723	315.800000
770.165588	319.700000
770.202393	309.000000
770.239258	317.300000
770.276062	313.500000
770.312927	315.100000
770.349792	320.600000
770.386597	318.100000
770.423462	326.600000
770.460327	332.400000
770.497131	321.400000
770.533997	318.700000
770.570862	326.800000
770.607605	328.600000
770.644470	328.800000
770.681335	328.600000
770.718140	328.400000
770.754944	323.300000
770.791809	325.100000
770.828613	327.700000
770.865479	330.900000
770.902222	337.200000
770.939087	334.400000
770.975952	325.600000
771.012695	330.000000
771.049561	340.300000
771.086365	332.400000
771.123169	332.700000
771.159973	335.800000
771.196838	334.600000
771.233582	336.300000
771.270447	338.300000
771.307251	341.800000
771.344055	338.200000
771.380859	341.800000
771.417664	337.600000
771.454468	342.800000
771.491272	342.600000
771.528076	340.900000
771.564880	338.500000
771.601685	347.400000
771.638428	342.300000
771.675293	347.000000
771.712097	337.500000
771.748840	353.000000
771.785645	347.800000
771.822449	352.200000
771.859253	353.100000
771.896057	350.000000
771.932861	357.800000
771.969604	354.300000
772.006409	348.000000
772.043213	358.700000
772.079956	357.400000
772.116760	350.800000
772.153503	352.400000
772.190308	361.900000
772.227112	358.900000
772.263855	352.600000
772.300659	356.700000
772.337463	364.500000
772.374207	356.600000
772.411011	354.900000
772.447754	359.000000
772.484497	367.800000
772.521301	361.600000
772.558105	360.700000
772.594849	362.600000
772.631592	369.700000
772.668396	364.800000
772.705139	367.900000
772.741882	365.100000
772.778625	374.700000
772.815430	378.300000
772.852173	374.200000
772.888916	378.400000
772.925720	380.700000
772.962463	384.500000
772.999207	380.200000
773.035950	383.000000
773.072754	382.800000
773.109436	378.100000
773.146240	380.300000
773.182922	380.100000
773.219727	383.600000
773.256470	381.000000
773.293152	375.400000
773.329956	381.500000
773.366699	383.300000
773.403381	377.200000
773.440186	385.700000
773.476929	385.400000
773.513611	381.900000
773.550354	380.200000
773.587158	382.300000
773.623840	379.000000
773.660583	386.100000
773.697327	395.200000
773.734009	388.200000
773.770813	388.700000
773.807495	386.700000
773.844238	383.700000
773.880981	395.000000
773.917664	391.500000
773.954407	399.000000
773.991150	393.900000
774.027832	399.100000
774.064575	391.900000
774.101318	399.400000
774.138000	398.900000
774.174744	395.700000
774.211487	398.900000
774.248108	391.200000
774.284851	389.200000
774.321594	398.800000
774.358276	399.800000
774.395020	407.300000
774.431702	401.500000
774.468384	397.000000
774.505127	396.100000
774.541809	403.600000
774.578491	405.500000
774.615234	408.300000
774.651917	401.100000
774.688599	407.700000
774.725342	414.800000
774.762024	411.500000
774.798706	412.700000
774.835449	414.600000
774.872070	423.300000
774.908813	420.600000
774.945496	420.400000
774.982178	419.300000
775.018860	417.700000
775.055542	422.600000
775.092224	423.800000
775.128967	429.000000
775.165588	427.800000
775.202271	424.900000
775.239014	435.500000
775.275635	435.400000
775.312317	429.900000
775.349060	436.000000
775.385681	440.200000
775.422363	432.000000
775.459045	436.600000
775.495667	436.900000
775.532410	439.900000
775.569092	438.700000
775.605713	439.500000
775.642395	440.400000
775.679016	441.200000
775.715698	439.400000
775.752380	444.900000
775.789001	443.200000
775.825684	443.600000
775.862366	446.000000
775.898987	455.100000
775.935669	450.900000
775.972351	467.700000
776.008972	464.400000
776.045654	463.800000
776.082336	462.500000
776.118958	463.200000
776.155640	460.300000
776.192322	467.800000
776.228882	470.200000
776.265564	471.400000
776.302185	472.700000
776.338867	478.100000
776.375488	469.000000
776.412109	477.300000
776.448792	478.500000
776.485413	488.100000
776.522034	481.300000
776.558716	476.800000
776.595337	476.900000
776.631958	483.300000
776.668579	485.000000
776.705261	491.500000
776.741882	487.200000
776.778503	485.800000
776.815186	490.200000
776.851746	490.500000
776.888367	488.700000
776.924988	498.600000
776.961609	493.200000
776.998291	493.900000
777.034851	488.500000
777.071472	497.700000
777.108154	495.900000
777.144714	505.900000
777.181335	505.100000
777.218018	502.300000
777.254578	506.300000
777.291199	503.900000
777.327759	508.000000
777.364380	512.000000
777.401062	523.000000
777.437622	529.800000
777.474243	521.000000
777.510864	520.000000
777.547424	512.300000
777.584045	518.700000
777.620667	524.500000
777.657227	524.600000
777.693848	528.000000
777.730469	534.200000
777.767029	528.200000
777.803650	533.200000
777.840271	528.200000
777.876831	528.500000
777.913452	534.800000
777.950012	525.300000
777.986633	526.100000
778.023193	526.000000
778.059753	522.600000
778.096375	527.800000
778.132996	540.800000
778.169556	533.600000
778.206116	530.500000
778.242737	529.300000
778.279297	539.700000
778.315857	529.100000
778.352478	533.000000
778.389038	541.000000
778.425598	544.200000
778.462219	547.600000
778.498718	543.700000
778.535339	549.500000
778.571838	548.400000
778.608459	549.800000
778.645020	540.700000
778.681580	546.400000
778.718140	550.900000
778.754761	546.200000
778.791260	544.800000
778.827881	558.000000
778.864441	559.100000
778.900940	566.600000
778.937561	561.900000
778.974121	563.400000
779.010620	556.400000
779.047241	557.400000
779.083801	565.100000
779.120300	566.300000
779.156860	565.000000
779.193359	562.500000
779.229980	568.300000
779.266541	567.600000
779.303040	568.900000
779.339600	568.100000
779.376160	563.600000
779.412659	565.400000
779.449219	563.200000
779.485779	568.100000
779.522278	564.900000
779.558838	565.700000
779.595398	570.600000
779.631897	568.700000
779.668457	565.500000
779.705017	571.800000
779.741516	567.800000
779.778076	560.100000
779.814575	566.800000
779.851074	571.300000
779.887634	569.200000
779.924133	575.900000
779.960693	563.500000
779.997253	571.900000
780.033691	582.300000
780.070251	580.100000
780.106812	587.700000
780.143250	582.200000
780.179810	577.000000
780.216370	578.600000
780.252808	583.800000
780.289368	590.700000
780.325867	593.200000
780.362366	589.100000
780.398865	594.300000
780.435364	592.500000
780.471863	600.400000
780.508423	600.800000
780.544861	605.500000
780.581421	602.200000
780.617920	599.900000
780.654419	592.300000
780.690918	594.800000
780.727417	603.300000
780.763916	607.600000
780.800415	613.500000
780.836914	602.400000
780.873352	616.000000
780.909912	600.400000
780.946411	602.300000
780.982849	611.000000
781.019348	621.400000
781.055786	617.800000
781.092346	615.700000
781.128845	618.500000
781.165283	621.500000
781.201782	634.400000
781.238281	632.000000
781.274719	637.200000
781.311218	631.800000
781.347717	646.900000
781.384155	638.600000
781.420654	643.600000
781.457092	651.300000
781.493591	647.300000
781.530090	641.200000
781.566528	640.400000
781.602966	640.000000
781.639465	639.100000
781.675903	636.500000
781.712402	641.900000
781.748901	647.200000
781.785278	642.900000
781.821777	642.800000
781.858276	641.700000
781.894714	656.300000
781.931152	646.600000
781.967651	659.800000
782.004089	653.100000
782.040527	656.700000
782.076965	656.800000
782.113403	659.400000
782.149902	664.800000
782.186340	661.300000
782.222778	668.700000
782.259277	651.700000
782.295654	633.700000
782.332092	597.800000
782.368591	548.800000
782.404968	483.700000
782.441467	420.500000
782.477905	364.400000
782.514282	325.500000
782.550781	320.200000
782.587219	313.700000
782.623596	320.400000
782.660095	322.300000
782.696472	336.000000
782.732910	365.400000
782.769348	415.500000
782.805786	498.700000
782.842224	568.600000
782.878662	624.200000
782.915039	664.000000
782.951477	693.400000
782.987915	702.700000
783.024292	715.200000
783.060730	725.200000
783.097168	717.000000
783.133545	714.700000
783.169983	711.800000
783.206421	708.300000
783.242798	704.500000
783.279236	699.800000
783.315613	700.000000
783.352051	697.900000
783.388489	697.300000
783.424866	691.400000
783.461304	696.600000
783.497681	703.600000
783.534058	704.100000
783.570496	704.500000
783.606934	703.000000
783.643250	702.500000
783.679687	710.500000
783.716125	704.400000
783.752441	716.300000
783.788879	732.000000
783.825317	741.100000
783.861633	746.900000
783.898071	751.400000
783.934448	765.000000
783.970825	771.800000
784.007263	776.500000
784.043579	774.500000
784.080017	782.200000
784.116394	780.600000
784.152710	778.500000
784.189148	785.900000
784.225525	781.200000
784.261902	772.000000
784.298279	766.100000
784.334656	766.600000
784.371033	762.600000
784.407410	760.900000
784.443787	747.200000
784.480164	737.900000
784.516541	721.900000
784.552856	727.600000
784.589233	726.800000
784.625610	726.800000
784.661987	748.600000
784.698364	745.400000
784.734741	740.500000
784.771057	742.700000
784.807434	742.900000
784.843811	755.800000
784.880127	753.200000
784.916504	770.700000
784.952881	776.000000
784.989197	770.600000
785.025574	779.600000
785.061951	775.400000
785.098267	790.700000
785.134644	799.100000
785.170959	796.900000
785.207275	795.800000
785.243652	792.800000
785.279968	782.400000
785.316345	778.600000
785.352722	777.000000
785.388977	775.100000
785.425354	758.600000
785.461731	748.100000
785.498047	739.100000
785.534363	732.300000
785.570679	733.800000
785.606995	738.900000
785.643372	746.100000
785.679687	739.300000
785.716003	729.500000
785.752380	731.600000
785.788635	736.300000
785.825012	740.100000
785.861328	751.400000
785.897644	745.400000
785.933960	750.500000
785.970337	757.200000
786.006592	776.100000
786.042908	780.700000
786.079285	795.300000
786.115540	810.700000
786.151855	806.700000
786.188171	802.600000
786.224487	804.100000
786.260803	801.300000
786.297119	808.900000
786.333435	809.400000
786.369751	810.500000
786.406006	798.600000
786.442322	789.200000
786.478638	781.000000
786.514954	786.400000
786.551270	776.600000
786.587585	779.500000
786.623840	769.400000
786.660156	761.700000
786.696472	753.000000
786.732727	752.700000
786.769043	755.400000
786.805298	749.700000
786.841614	757.300000
786.877930	766.000000
786.914124	754.800000
786.950439	771.700000
786.986755	783.300000
787.023010	797.900000
787.059326	803.000000
787.095642	806.500000
787.131836	821.000000
787.168152	818.500000
787.204468	831.300000
787.240723	835.500000
787.276978	840.300000
787.313293	848.000000
787.349548	851.200000
787.385803	846.800000
787.422058	844.000000
787.458313	845.700000
787.494629	845.500000
787.530823	833.200000
787.567139	821.900000
787.603455	823.800000
787.639648	809.800000
787.675903	809.100000
787.712219	797.900000
787.748413	799.200000
787.784729	812.100000
787.820984	796.400000
787.857178	795.200000
787.893494	798.900000
787.929749	794.000000
787.965942	796.200000
788.002258	812.700000
788.038452	827.000000
788.074707	824.600000
788.110962	826.400000
788.147217	823.700000
788.183472	836.400000
788.219727	842.000000
788.255920	862.200000
788.292175	863.000000
788.328430	872.000000
788.364624	863.600000
788.400879	862.000000
788.437134	863.300000
788.473328	860.300000
788.509583	861.200000
788.545837	861.400000
788.582031	855.600000
788.618286	859.300000
788.654480	852.000000
788.690735	860.000000
788.726990	880.500000
788.763184	871.200000
788.799377	881.500000
788.835632	871.600000
788.871826	880.700000
788.908081	875.600000
788.944336	882.700000
788.980469	897.500000
789.016724	891.600000
789.052979	892.800000
789.089111	874.100000
789.125366	876.100000
789.161621	868.500000
789.197754	886.500000
789.234009	879.200000
789.270142	875.500000
789.306396	875.800000
789.342590	867.400000
789.378784	849.600000
789.414978	845.500000
789.451233	853.400000
789.487366	858.300000
789.523621	864.700000
789.559814	860.600000
789.595947	856.800000
789.632202	862.300000
789.668335	875.200000
789.704529	893.800000
789.740784	908.700000
789.776917	906.900000
789.813110	901.400000
789.849304	909.300000
789.885498	913.100000
789.921692	926.800000
789.957886	936.300000
789.994019	947.600000
790.030212	949.900000
790.066406	947.400000
790.102539	946.000000
790.138733	947.600000
790.174927	935.600000
790.211060	959.900000
790.247253	955.600000
790.283386	939.200000
790.319580	926.000000
790.355774	918.100000
790.391907	916.300000
790.428101	927.400000
790.464294	926.700000
790.500427	930.300000
790.536621	921.700000
790.572754	906.700000
790.608887	898.500000
790.645081	903.300000
790.681274	916.800000
790.717346	918.200000
790.753540	909.400000
790.789734	890.400000
790.825867	882.300000
790.862000	887.600000
790.898132	903.100000
790.934265	896.600000
790.970459	892.300000
791.006592	886.900000
791.042725	885.000000
791.078918	884.000000
791.114990	879.300000
791.151184	882.100000
791.187317	900.400000
791.223389	904.700000
791.259583	890.800000
791.295715	888.100000
791.331848	887.400000
791.367981	898.300000
791.404114	903.800000
791.440247	913.100000
791.476379	914.100000
791.512451	888.700000
791.548584	883.900000
791.584778	881.300000
791.620850	893.400000
791.656982	900.600000
791.693115	904.800000
791.729187	906.700000
791.765381	902.800000
791.801514	899.800000
791.837585	899.500000
791.873718	900.700000
791.909851	914.300000
791.945923	932.000000
791.982056	909.200000
792.018188	900.100000
792.054260	894.200000
792.090393	896.900000
792.126465	894.800000
792.162598	910.100000
792.198669	896.300000
792.234741	894.000000
792.270874	883.700000
792.307007	872.600000
792.343079	874.000000
792.379150	885.600000
792.415283	875.800000
792.451355	873.600000
792.487488	855.800000
792.523560	854.600000
792.559631	844.800000
792.595764	816.400000
792.631836	788.500000
792.667908	764.300000
792.703979	735.400000
792.740051	747.600000
792.776184	779.200000
792.812256	793.700000
792.848328	810.200000
792.884399	828.600000
792.920471	823.600000
792.956543	821.300000
792.992615	821.800000
793.028748	816.500000
793.064758	821.300000
793.100830	841.000000
793.136963	859.300000
793.172974	856.800000
793.209045	848.700000
793.245178	857.700000
793.281189	847.500000
793.317261	842.100000
793.353271	849.900000
793.389404	867.800000
793.425476	858.000000
793.461487	841.600000
793.497559	841.500000
793.533630	839.800000
793.569641	829.500000
793.605713	840.900000
793.641785	847.200000
793.677795	852.800000
793.713867	848.100000
793.749878	856.900000
793.785950	857.500000
793.822021	867.800000
793.858032	858.800000
793.894104	868.800000
793.930176	869.700000
793.966187	875.800000
794.002258	862.700000
794.038269	873.700000
794.074280	864.500000
794.110352	890.000000
794.146423	874.900000
794.182373	866.900000
794.218445	861.900000
794.254517	866.200000
794.290466	844.300000
794.326538	843.600000
794.362549	849.500000
794.398560	862.300000
794.434631	853.700000
794.470581	836.300000
794.506653	833.100000
794.542664	837.900000
794.578674	841.200000
794.614685	848.400000
794.650757	837.200000
794.686707	841.200000
794.722778	834.700000
794.758789	843.500000
794.794739	851.100000
794.830811	873.100000
794.866821	888.900000
794.902771	888.400000
794.938843	880.700000
794.974792	882.600000
795.010803	887.400000
795.046814	890.400000
795.082825	874.500000
795.118835	883.300000
795.154846	873.200000
795.190796	877.100000
795.226807	859.300000
795.262817	867.000000
795.298767	866.100000
795.334778	874.500000
795.370850	862.700000
795.406799	865.700000
795.442810	855.500000
795.478821	855.100000
795.514709	844.700000
795.550720	874.000000
795.586670	858.600000
795.622681	861.800000
795.658691	860.200000
795.694641	856.500000
795.730652	847.800000
795.766663	857.400000
795.802551	864.500000
795.838562	881.300000
795.874573	878.300000
795.910522	880.800000
795.946472	865.800000
795.982483	861.800000
796.018433	859.500000
796.054382	873.000000
796.090393	863.200000
796.126282	854.900000
796.162292	844.100000
796.198242	837.500000
796.234192	833.300000
796.270203	829.000000
796.306091	841.100000
796.342041	852.000000
796.378052	842.200000
796.413940	848.700000
796.449951	851.900000
796.485901	847.200000
796.521790	849.300000
796.557800	864.200000
796.593689	859.600000
796.629639	863.800000
796.665649	863.800000
796.701599	859.700000
796.737488	856.200000
796.773437	864.000000
796.809387	870.400000
796.845337	877.800000
796.881287	869.400000
796.917175	843.700000
796.953125	834.800000
796.989075	841.100000
797.024963	844.600000
797.060913	846.500000
797.096863	848.000000
797.132751	842.400000
797.168701	827.000000
797.204590	827.800000
797.240540	826.000000
797.276489	839.900000
797.312439	842.500000
797.348328	844.900000
797.384277	838.500000
797.420166	833.400000
797.456055	830.000000
797.492004	817.600000
797.527893	825.500000
797.563843	839.400000
797.599731	843.400000
797.635620	827.600000
797.671570	830.200000
797.707520	833.600000
797.743347	831.800000
797.779297	838.300000
797.815125	835.100000
797.851074	832.000000
797.887024	822.200000
797.922913	810.300000
797.958801	813.300000
797.994690	809.600000
798.030579	815.900000
798.066467	823.300000
798.102356	806.300000
798.138245	798.000000
798.174133	795.700000
798.210083	804.700000
798.245911	817.800000
798.281799	816.200000
798.317749	815.400000
798.353577	810.900000
798.389465	807.500000
798.425293	800.200000
798.461243	801.400000
798.497131	807.900000
798.532959	813.600000
798.568848	816.800000
798.604736	816.300000
798.640564	800.300000
798.676453	796.700000
798.712402	794.200000
798.748230	796.800000
798.784119	796.000000
798.820007	802.900000
798.855835	805.900000
798.891724	799.500000
798.927551	791.700000
798.963379	790.200000
798.999268	790.700000
799.035095	785.400000
799.070984	784.900000
799.106873	769.000000
799.142700	774.200000
799.178528	765.000000
799.214417	772.700000
799.250244	780.100000
799.286133	776.500000
799.321960	778.900000
799.357788	771.400000
799.393677	767.900000
799.429504	774.100000
799.465332	766.200000
799.501221	771.900000
799.537048	769.800000
799.572876	767.900000
799.608704	764.700000
799.644531	774.000000
799.680359	782.100000
799.716248	790.900000
799.752014	795.000000
799.787903	787.300000
799.823730	786.700000
799.859558	773.200000
799.895386	764.400000
799.931213	776.300000
799.967041	775.100000
800.002869	774.600000
800.038696	783.500000
800.074463	769.900000
800.110352	762.600000
800.146179	751.900000
800.181946	770.700000
800.217773	767.200000
800.253540	762.800000
800.289429	762.900000
800.325256	757.900000
800.361023	749.500000
800.396851	756.700000
800.432678	756.800000
800.468445	751.300000
800.504272	759.100000
800.540100	750.000000
800.575867	748.500000
800.611694	744.400000
800.647461	739.000000
800.683289	749.200000
800.719116	754.200000
800.754883	752.400000
800.790649	747.500000
800.826477	742.100000
800.862244	754.800000
800.898071	742.500000
800.933838	738.800000
800.969604	743.700000
801.005432	746.100000
801.041199	741.200000
801.076965	736.100000
801.112793	725.000000
801.148560	721.000000
801.184326	725.400000
801.220154	731.400000
801.255859	717.400000
801.291687	716.100000
801.327454	714.300000
801.363281	717.800000
801.398987	714.200000
801.434814	711.500000
801.470520	725.900000
801.506287	715.700000
801.542114	703.700000
801.577820	702.200000
801.613647	698.200000
801.649414	699.200000
801.685120	707.600000
801.720886	705.800000
801.756714	696.300000
801.792419	694.500000
801.828186	694.000000
801.863892	696.900000
801.899719	689.500000
801.935486	691.400000
801.971252	697.400000
802.006958	692.100000
802.042725	684.100000
802.078430	683.800000
802.114197	682.300000
802.149963	698.300000
802.185669	687.100000
802.221436	681.300000
802.257202	686.700000
802.292908	679.900000
802.328674	684.600000
802.364441	691.600000
802.400146	685.900000
802.435913	689.500000
802.471558	683.400000
802.507324	674.400000
802.543091	672.700000
802.578796	686.600000
802.614502	689.300000
802.650269	692.200000
802.685974	682.100000
802.721741	682.100000
802.757446	689.600000
802.793152	679.500000
802.828918	685.400000
802.864624	690.100000
802.900330	691.300000
802.936035	692.100000
802.971802	684.200000
803.007446	668.500000
803.043213	660.300000
803.078857	672.800000
803.114624	658.600000
803.150330	672.000000
803.185974	662.700000
803.221741	659.000000
803.257446	664.900000
803.293152	664.800000
803.328857	665.400000
803.364563	660.200000
803.400208	657.400000
803.435974	666.400000
803.471680	651.300000
803.507324	649.900000
803.543030	659.800000
803.578735	657.000000
803.614441	653.400000
803.650146	663.900000
803.685791	654.200000
803.721497	652.900000
803.757202	637.300000
803.792847	651.300000
803.828552	643.700000
803.864258	646.000000
803.899902	641.400000
803.935608	632.000000
803.971313	632.800000
804.006958	628.600000
804.042664	631.300000
804.078308	641.900000
804.113953	632.900000
804.149658	640.900000
804.185364	626.900000
804.221008	641.200000
804.256714	621.500000
804.292297	621.800000
804.328003	620.600000
804.363708	616.700000
804.399292	612.000000
804.434998	610.400000
804.470703	602.700000
804.506287	619.500000
804.541992	610.800000
804.577637	614.300000
804.613281	603.500000
804.648926	601.400000
804.684570	601.000000
804.720215	595.000000
804.755920	594.400000
804.791565	601.600000
804.827209	602.800000
804.862854	597.800000
804.898437	598.300000
804.934143	593.600000
804.969788	594.300000
805.005371	595.300000
805.041077	591.500000
805.076721	590.100000
805.112305	584.500000
805.147949	584.200000
805.183655	585.900000
805.219238	586.500000
805.254883	580.200000
805.290466	585.100000
805.326111	581.600000
805.361755	577.500000
805.397400	581.300000
805.432983	575.100000
805.468628	571.200000
805.504211	577.700000
805.539856	582.400000
805.575500	583.400000
805.611084	575.400000
805.646729	566.200000
805.682373	567.300000
805.717957	575.700000
805.753601	574.500000
805.789246	561.000000
805.824768	575.400000
805.860413	578.700000
805.895996	567.000000
805.931641	566.300000
805.967224	573.500000
806.002869	568.100000
806.038452	574.400000
806.074036	578.900000
806.109619	567.600000
806.145264	562.600000
806.180847	561.800000
806.216431	561.100000
806.252014	559.700000
806.287659	562.500000
806.323181	565.400000
806.358826	560.100000
806.394409	547.800000
806.429993	549.600000
806.465576	560.300000
806.501160	548.000000
806.536743	543.600000
806.572327	555.100000
806.607910	552.000000
806.643494	547.600000
806.679077	539.200000
806.714661	539.100000
806.750244	539.800000
806.785828	533.900000
806.821350	536.700000
806.856934	538.100000
806.892517	534.600000
806.928101	533.200000
806.963684	534.400000
806.999268	539.400000
807.034790	525.100000
807.070374	527.200000
807.105896	522.200000
807.141479	523.600000
807.177063	527.500000
807.212585	522.300000
807.248169	522.800000
807.283752	530.800000
807.319275	523.200000
807.354858	521.800000
807.390381	514.900000
807.425903	513.100000
807.461487	512.000000
807.497070	510.500000
807.532593	509.700000
807.568115	504.500000
807.603699	498.900000
807.639221	503.100000
807.674744	504.700000
807.710266	507.100000
807.745850	506.500000
807.781372	498.800000
807.816895	493.700000
807.852417	495.300000
807.888000	497.200000
807.923523	492.300000
807.959045	496.200000
807.994629	491.500000
808.030090	492.000000
808.065613	494.200000
808.101135	499.700000
808.136658	494.300000
808.172241	493.100000
808.207764	493.700000
808.243225	488.200000
808.278809	485.400000
808.314270	493.300000
808.349792	480.800000
808.385315	482.000000
808.420837	486.400000
808.456360	492.600000
808.491882	491.300000
808.527344	487.100000
808.562866	489.300000
808.598389	483.000000
808.633850	478.500000
808.669434	475.300000
808.704895	480.400000
808.740417	486.900000
808.775940	482.700000
808.811462	479.800000
808.846924	476.000000
808.882385	472.400000
808.917847	472.800000
808.953369	475.000000
808.988892	469.300000
809.024353	472.900000
809.059875	474.400000
809.095398	468.000000
809.130798	459.700000
809.166321	463.200000
809.201843	461.000000
809.237305	461.700000
809.272766	472.200000
809.308228	460.600000
809.343750	462.300000
809.379211	460.900000
809.414734	462.800000
809.450134	466.900000
809.485657	453.500000
809.521118	461.800000
809.556580	454.400000
809.592102	452.400000
809.627502	451.200000
809.663025	447.000000
809.698486	447.300000
809.733887	444.100000
809.769409	449.000000
809.804871	440.900000
809.840271	442.300000
809.875793	443.100000
809.911194	445.200000
809.946655	438.800000
809.982178	438.700000
810.017639	440.500000
810.053040	439.500000
810.088501	434.300000
810.123901	433.400000
810.159424	428.900000
810.194885	428.700000
810.230286	433.800000
810.265747	423.400000
810.301208	423.000000
810.336609	421.600000
810.372070	418.900000
810.407532	421.100000
810.442932	422.500000
810.478394	425.000000
810.513794	417.800000
810.549255	416.300000
810.584717	412.300000
810.620117	406.400000
810.655518	412.500000
810.690979	410.900000
810.726379	410.400000
810.761841	402.300000
810.797302	401.200000
810.832642	398.800000
810.868103	411.600000
810.903564	402.400000
810.938904	412.000000
810.974365	395.900000
811.009827	399.700000
811.045166	395.300000
811.080627	390.400000
811.115967	392.800000
811.151428	397.200000
811.186829	392.600000
811.222229	393.600000
811.257629	383.700000
811.293091	391.500000
811.328430	395.800000
811.363892	391.000000
811.399292	392.500000
811.434631	389.200000
811.470093	390.700000
811.505493	384.700000
811.540833	382.000000
811.576294	385.400000
811.611694	382.100000
811.647034	381.900000
811.682434	381.300000
811.717773	384.100000
811.753235	392.500000
811.788635	382.500000
811.823975	381.300000
811.859375	386.600000
811.894775	376.700000
811.930115	376.900000
811.965515	374.200000
812.000916	377.400000
812.036255	374.800000
812.071655	374.800000
812.106995	370.500000
812.142395	370.000000
812.177795	377.500000
812.213196	374.000000
812.248474	373.800000
812.283875	367.100000
812.319214	370.700000
812.354614	370.000000
812.390015	366.200000
812.425293	366.700000
812.460693	367.900000
812.496094	364.700000
812.531433	359.800000
812.566772	360.100000
812.602173	360.600000
812.637451	360.300000
812.672852	358.300000
812.708191	357.300000
812.743530	354.300000
812.778931	349.700000
812.814270	348.700000
812.849609	354.600000
812.884949	353.000000
812.920227	344.900000
812.955627	356.900000
812.990967	350.500000
813.026306	345.600000
813.061646	337.000000
813.096985	336.000000
813.132324	333.600000
813.167664	336.600000
813.203003	339.900000
813.238281	330.900000
813.273682	329.300000
813.308960	327.200000
813.344299	328.500000
813.379639	335.300000
813.414978	328.800000
813.450256	327.000000
813.485596	330.500000
813.520874	323.000000
813.556213	326.400000
813.591614	330.700000
813.626831	323.000000
813.662170	325.400000
813.697510	331.900000
813.732788	319.500000
813.768127	322.600000
813.803467	322.100000
813.838745	319.000000
813.874084	320.500000
813.909363	320.500000
813.944641	321.900000
813.979980	314.500000
814.015320	317.200000
814.050598	316.100000
814.085876	316.000000
814.121155	312.200000
814.156494	312.400000
814.191772	313.100000
814.227051	307.500000
814.262390	308.200000
814.297668	311.700000
814.332947	310.700000
814.368225	305.400000
814.403564	308.100000
814.438782	302.300000
814.474121	308.000000
814.509338	304.100000
814.544617	310.000000
814.579956	301.000000
814.615173	310.600000
814.650513	305.500000
814.685791	300.500000
814.721008	303.600000
814.756348	302.400000
814.791626	299.700000
814.826843	298.500000
814.862122	299.400000
814.897400	298.500000
814.932678	298.100000
814.967957	296.500000
815.003235	295.200000
815.038452	293.400000
815.073730	291.000000
815.108948	297.100000
815.144226	295.500000
815.179504	301.100000
815.214722	288.100000
815.250000	287.700000
815.285278	293.900000
815.320496	285.900000
815.355774	290.200000
815.391052	292.800000
815.426270	288.800000
815.461487	287.100000
815.496765	283.700000
815.531982	279.900000
815.567261	285.000000
815.602539	288.000000
815.637695	282.600000
815.672974	285.400000
815.708191	285.600000
815.743408	289.500000
815.778687	278.600000
815.813904	286.700000
815.849121	274.400000
815.884399	275.000000
815.919556	275.900000
815.954834	276.600000
815.990051	279.800000
816.025269	281.000000
816.060486	272.800000
816.095703	275.200000
816.130920	275.700000
816.166199	272.500000
816.201416	272.800000
816.236572	276.200000
816.271851	269.100000
816.307007	273.100000
816.342224	263.400000
816.377441	268.900000
816.412659	261.100000
816.447876	269.700000
816.483093	266.600000
816.518250	266.400000
816.553467	265.300000
816.588745	268.500000
816.623901	261.400000
816.659119	256.500000
816.694275	262.100000
816.729492	259.400000
816.764709	286.500000
816.799927	255.100000
816.835083	257.400000
816.870300	251.500000
816.905457	258.400000
816.940674	257.100000
816.975830	253.100000
817.010986	251.500000
817.046204	251.800000
817.081421	249.700000
817.116577	251.400000
817.151733	256.800000
817.186951	252.900000
817.222107	251.400000
817.257324	253.100000
817.292419	254.400000
817.327637	246.300000
817.362854	249.700000
817.398010	244.900000
817.433167	247.000000
817.468323	245.900000
817.503479	247.400000
817.538635	254.500000
817.573853	248.400000
817.608948	244.700000
817.644165	242.200000
817.679321	241.800000
817.714478	240.600000
817.749634	243.300000
817.784790	250.900000
817.819946	247.500000
817.855103	235.100000
817.890198	240.100000
817.925415	235.800000
817.960571	242.300000
817.995667	239.900000
818.030823	241.600000
818.066040	238.800000
818.101135	240.100000
818.136292	238.300000
818.171448	234.900000
818.206543	236.500000
818.241699	239.500000
818.276855	236.900000
818.311951	236.300000
818.347107	230.800000
818.382263	236.000000
818.417358	240.000000
818.452515	240.600000
818.487610	240.300000
818.522766	231.100000
818.557922	239.800000
818.593018	235.900000
818.628113	234.200000
818.663269	230.300000
818.698364	234.000000
818.733521	228.800000
818.768677	232.500000
818.803711	227.100000
818.838867	227.600000
818.874023	229.000000
818.909058	225.500000
818.944214	225.400000
818.979370	229.700000
819.014404	227.100000
819.049561	223.200000
819.084595	228.100000
819.119751	221.300000
819.154846	227.100000
819.189941	222.800000
819.225037	220.800000
819.260193	217.300000
819.295227	217.400000
819.330322	216.300000
819.365479	215.600000
819.400513	250.100000
819.435608	214.800000
819.470764	212.000000
819.505798	214.500000
819.540894	216.800000
819.575989	214.200000
819.611084	220.000000
819.646179	222.000000
819.681213	219.600000
819.716309	215.100000
819.751404	215.700000
819.786438	220.600000
819.821533	211.100000
819.856628	215.400000
819.891663	217.800000
819.926758	223.000000
819.961853	220.900000
819.996887	212.100000
820.031982	216.300000
820.067017	212.800000
820.102112	246.600000
820.137207	211.400000
820.172302	223.900000
820.207275	210.400000
820.242371	210.300000
820.277405	209.500000
820.312500	212.200000
820.347534	212.300000
820.382568	215.700000
820.417664	208.700000
820.452759	209.200000
820.487732	207.400000
820.522827	207.300000
820.557861	205.700000
820.592896	206.400000
820.627930	209.000000
820.662964	204.700000
820.698059	210.600000
820.733093	205.600000
820.768127	211.800000
820.803162	207.200000
820.838196	205.400000
820.873230	206.300000
820.908264	207.300000
820.943298	204.500000
820.978333	209.400000
821.013367	206.200000
821.048401	209.500000
821.083435	209.400000
821.118469	201.700000
821.153503	209.800000
821.188477	207.300000
821.223511	200.700000
821.258484	205.900000
821.293579	206.100000
821.328613	201.000000
821.363647	205.400000
821.398621	201.700000
821.433655	202.500000
821.468628	214.600000
821.503662	203.900000
821.538696	207.400000
821.573669	200.200000
821.608704	208.500000
821.643677	201.600000
821.678650	208.000000
821.713684	209.200000
821.748718	204.000000
821.783691	204.600000
821.818726	203.800000
821.853638	206.200000
821.888672	202.900000
821.923706	201.900000
821.958618	201.700000
821.993652	201.200000
822.028687	207.300000
822.063599	209.000000
822.098633	204.400000
822.133667	198.900000
822.168579	201.600000
822.203613	204.100000
822.238586	200.200000
822.273560	204.100000
822.308533	199.600000
822.343567	201.700000
822.378479	200.900000
822.413452	200.600000
822.448425	197.500000
822.483398	205.300000
822.518372	204.800000
822.553345	200.400000
822.588318	208.900000
822.623291	199.500000
822.658203	199.700000
822.693237	200.800000
822.728210	198.200000
822.763123	202.500000
822.798096	198.800000
822.833069	200.800000
822.867981	201.200000
822.902954	202.000000
822.937927	202.700000
822.972900	209.000000
823.007874	195.600000
823.042725	204.200000
823.077698	208.300000
823.112671	196.900000
823.147583	199.200000
823.182556	202.200000
823.217529	203.800000
823.252441	198.900000
823.287415	209.300000
823.322388	202.900000
823.357239	199.500000
823.392212	206.800000
823.427185	205.900000
823.462097	197.200000
823.497009	201.900000
823.531982	199.100000
823.566895	201.300000
823.601807	196.800000
823.636719	199.500000
823.671631	202.500000
823.706604	198.700000
823.741455	202.000000
823.776428	194.600000
823.811340	202.700000
823.846252	206.300000
823.881165	204.200000
823.916138	201.400000
823.950989	206.500000
823.985901	197.800000
824.020813	199.600000
824.055725	198.700000
824.090637	196.000000
824.125610	202.300000
824.160461	202.700000
824.195374	201.100000
824.230225	201.600000
824.265198	195.900000
824.300110	198.100000
824.334961	207.900000
824.369873	193.100000
824.404785	202.500000
824.439636	203.300000
824.474548	194.200000
824.509460	192.600000
824.544312	203.600000
824.579224	200.600000
824.614075	202.100000
824.648987	199.100000
824.683899	199.400000
824.718811	197.500000
824.753662	203.500000
824.788574	202.500000
824.823364	199.400000
824.858276	196.400000
824.893188	201.500000
824.928040	202.200000
824.962952	200.400000
824.997803	201.100000
825.032654	198.000000
825.067566	199.500000
825.102417	196.700000
825.137268	197.300000
825.172119	196.600000
825.206970	195.200000
825.241882	196.600000
825.276733	193.400000
825.311646	195.200000
825.346436	193.200000
825.381348	191.500000
825.416138	196.600000
825.450989	193.700000
825.485901	189.900000
825.520691	189.900000
825.555542	191.100000
825.590454	195.700000
825.625244	190.200000
825.660095	200.500000
825.695007	198.800000
825.729797	193.900000
825.764648	191.300000
825.799438	194.600000
825.834290	196.300000
825.869202	188.800000
825.903992	195.900000
825.938843	193.000000
825.973694	190.200000
826.008484	202.800000
826.043335	191.600000
826.078186	188.000000
826.112976	196.900000
826.147827	196.400000
826.182678	201.600000
826.217468	187.000000
826.252319	198.600000
826.287109	190.900000
826.321899	195.800000
826.356750	191.700000
826.391541	188.800000
826.426392	196.800000
826.461182	192.700000
826.495972	188.700000
826.530823	185.800000
826.565613	193.600000
826.600403	187.500000
826.635254	195.200000
826.670044	186.200000
826.704834	186.200000
826.739685	188.200000
826.774475	194.100000
826.809265	192.000000
826.844055	190.700000
826.878906	195.900000
826.913635	191.400000
826.948425	193.500000
826.983215	193.700000
827.018005	195.600000
827.052856	189.600000
827.087585	195.300000
827.122375	187.100000
827.157227	189.800000
827.191956	202.400000
827.226746	187.500000
827.261536	193.700000
827.296265	187.200000
827.331116	191.000000
827.365906	193.300000
827.400635	189.800000
827.435425	186.300000
827.470215	196.100000
827.504944	190.100000
827.539734	195.500000
827.574463	191.200000
827.609253	198.400000
827.644043	192.700000
827.678772	195.000000
827.713562	190.200000
827.748352	190.900000
827.783081	189.000000
827.817871	192.600000
827.852600	187.800000
827.887329	191.400000
827.922119	184.600000
827.956848	192.900000
827.991638	202.300000
828.026367	193.900000
828.061157	190.900000
828.095886	191.600000
828.130615	205.500000
828.165344	185.100000
828.200073	191.100000
828.234863	189.500000
828.269592	190.400000
828.304321	193.600000
828.339111	191.100000
828.373779	189.100000
828.408569	194.900000
828.443298	194.800000
828.477966	190.900000
828.512756	192.300000
828.547424	188.100000
828.582214	189.800000
828.616943	190.300000
828.651672	190.400000
828.686340	195.500000
828.721130	188.500000
828.755798	191.000000
828.790527	191.300000
828.825256	193.100000
828.859924	194.100000
828.894714	196.600000
828.929443	198.200000
828.964111	189.200000
828.998840	193.800000
829.033569	189.000000
829.068237	191.000000
829.102966	188.700000
829.137634	191.800000
829.172363	194.000000
829.207092	191.600000
829.241821	187.600000
829.276489	186.200000
829.311157	191.100000
829.345825	190.300000
829.380554	196.100000
829.415283	188.300000
829.449951	186.900000
829.484619	197.900000
829.519348	195.800000
829.554016	191.800000
829.588745	191.300000
829.623413	186.100000
829.658081	198.300000
829.692749	188.000000
829.727417	195.000000
829.762146	192.600000
829.796814	188.400000
829.831482	189.500000
829.866150	190.700000
829.900879	188.900000
829.935486	192.400000
829.970154	190.400000
830.004883	200.300000
830.039490	192.900000
830.074219	188.500000
830.108887	191.700000
830.143494	189.800000
830.178223	187.500000
830.212891	189.700000
830.247498	190.600000
830.282166	197.100000
830.316772	196.600000
830.351501	190.100000
830.386169	190.500000
830.420776	190.800000
830.455444	192.700000
830.490112	189.100000
830.524719	185.400000
830.559387	192.200000
830.594055	192.700000
830.628662	191.200000
830.663330	191.800000
830.697998	197.700000
830.732605	191.200000
830.767273	192.700000
830.801941	191.000000
830.836487	198.100000
830.871155	192.900000
830.905762	192.800000
830.940430	186.100000
830.975098	188.400000
831.009644	191.200000
831.044312	198.300000
831.078979	193.000000
831.113525	183.600000
831.148193	191.900000
831.182861	190.100000
831.217407	193.900000
831.252075	200.900000
831.286621	189.500000
831.321289	187.900000
831.355896	192.300000
831.390564	196.000000
831.425110	191.200000
831.459778	196.800000
831.494324	200.700000
831.528931	192.900000
831.563599	196.200000
831.598145	186.400000
831.632751	191.500000
831.667419	190.900000
831.701965	193.700000
831.736572	194.100000
831.771179	187.600000
831.805786	188.600000
831.840393	196.100000
831.874939	185.200000
831.909546	194.600000
831.944153	185.400000
831.978760	191.100000
832.013306	187.800000
832.047913	196.300000
832.082458	200.000000
832.117065	188.300000
832.151672	198.900000
832.186218	194.100000
832.220825	192.700000
832.255432	185.800000
832.289978	189.200000
832.324585	192.400000
832.359192	192.500000
832.393677	190.800000
832.428284	190.800000
832.462830	190.000000
832.497437	190.400000
832.531982	194.200000
832.566589	189.200000
832.601135	192.300000
832.635681	184.300000
832.670227	192.500000
832.704773	196.100000
832.739380	192.900000
832.773926	191.300000
832.808472	188.600000
832.843079	190.500000
832.877563	194.400000
832.912170	189.300000
832.946716	185.800000
832.981201	195.000000
833.015808	194.300000
833.050293	191.000000
833.084839	188.400000
833.119446	189.500000
833.153992	194.300000
833.188477	190.500000
833.223022	188.900000
833.257568	193.600000
833.292114	195.300000
833.326660	200.900000
833.361145	190.200000
833.395691	187.200000
833.430237	191.200000
833.464783	192.900000
833.499329	189.400000
833.533875	187.900000
833.568359	193.400000
833.602905	195.700000
833.637390	194.400000
833.671875	187.800000
833.706421	189.600000
833.740906	187.600000
833.775452	183.200000
833.809998	189.400000
833.844482	196.900000
833.879028	189.900000
833.913513	188.300000
833.947998	193.400000
833.982544	187.400000
834.017090	189.100000
834.051514	183.100000
834.086060	193.200000
834.120544	189.300000
834.155029	192.400000
834.189575	189.000000
834.223999	193.700000
834.258545	192.000000
834.293030	192.500000
834.327515	189.700000
834.362000	188.100000
834.396545	194.000000
834.430969	190.100000
834.465454	196.000000
834.500000	186.100000
834.534424	193.500000
834.568970	183.900000
834.603455	184.000000
834.637878	188.500000
834.672363	192.200000
834.706909	190.900000
834.741333	191.500000
834.775818	185.600000
834.810242	188.200000
834.844727	189.900000
834.879211	189.400000
834.913635	189.900000
834.948181	192.100000
834.982666	191.600000
835.017090	189.100000
835.051575	193.000000
835.086060	188.000000
835.120483	192.900000
835.154907	193.300000
835.189331	190.800000
835.223816	192.900000
835.258301	186.200000
835.292786	187.600000
835.327209	193.200000
835.361694	188.500000
835.396057	188.000000
835.430542	192.700000
835.465027	190.800000
835.499390	188.600000
835.533875	216.300000
835.568359	189.400000
835.602722	185.500000
835.637207	191.300000
835.671692	186.300000
835.706055	205.600000
835.740540	192.000000
835.774902	191.800000
835.809387	191.900000
835.843811	186.300000
835.878235	195.600000
835.912659	186.800000
835.947083	190.000000
835.981506	191.500000
836.015930	186.000000
836.050354	195.700000
836.084778	197.400000
836.119202	194.000000
836.153625	204.400000
836.187988	188.700000
836.222473	187.100000
836.256897	191.500000
836.291260	190.200000
836.325684	191.800000
836.360046	188.500000
836.394470	190.000000
836.428894	195.300000
836.463318	188.000000
836.497681	193.400000
836.532104	195.700000
836.566467	191.700000
836.600891	189.100000
836.635315	194.500000
836.669678	191.600000
836.704102	193.100000
836.738525	191.300000
836.772888	182.900000
836.807251	188.400000
836.841675	193.600000
836.876038	186.600000
836.910461	187.900000
836.944763	194.700000
836.979187	188.900000
837.013611	196.100000
837.047974	186.200000
837.082336	200.200000
837.116699	193.300000
837.151062	191.400000
837.185486	185.200000
837.219849	190.400000
837.254211	194.900000
837.288574	189.300000
837.322937	185.900000
837.357300	182.900000
837.391663	201.000000
837.426086	195.200000
837.460388	191.300000
837.494751	194.100000
837.529114	188.700000
837.563477	196.300000
837.597839	192.700000
837.632141	190.600000
837.666565	188.400000
837.700928	194.600000
837.735229	192.300000
837.769592	193.700000
837.803955	193.500000
837.838257	190.200000
837.872620	188.400000
837.906982	195.700000
837.941284	191.500000
837.975647	191.900000
838.010010	194.900000
838.044312	190.300000
838.078674	190.300000
838.112976	191.300000
838.147339	193.000000
838.181702	190.800000
838.216003	196.800000
838.250366	191.800000
838.284668	193.000000
838.318970	185.800000
838.353333	190.700000
838.387634	190.500000
838.421936	191.700000
838.456299	192.100000
838.490601	197.300000
838.524902	194.600000
838.559265	195.000000
838.593567	193.400000
838.627869	186.600000
838.662170	192.700000
838.696472	185.300000
838.730774	189.700000
838.765137	193.200000
838.799377	181.900000
838.833740	192.400000
838.868042	195.100000
838.902283	185.800000
838.936646	196.400000
838.970947	192.900000
839.005188	197.700000
839.039551	186.800000
839.073792	195.300000
839.108093	189.400000
839.142395	197.900000
839.176697	186.000000
839.210937	192.500000
839.245300	199.100000
839.279541	186.000000
839.313843	189.300000
839.348145	192.600000
839.382385	194.900000
839.416687	194.200000
839.450989	193.000000
839.485229	189.100000
839.519531	187.300000
839.553833	194.300000
839.588013	191.100000
839.622314	193.000000
839.656555	193.900000
839.690857	189.200000
839.725159	186.400000
839.759460	190.100000
839.793640	190.000000
839.827942	190.500000
839.862183	186.800000
839.896423	192.900000
839.930725	201.800000
839.964966	198.400000
839.999207	197.900000
840.033508	196.300000
840.067688	190.000000
840.101990	196.900000
840.136230	191.400000
840.170471	198.600000
840.204712	187.900000
840.238953	189.500000
840.273193	191.900000
840.307434	193.200000
840.341736	188.400000
840.375916	185.400000
840.410217	188.700000
840.444397	196.200000
840.478638	193.500000
840.512878	195.900000
840.547119	190.200000
840.581360	194.400000
840.615601	197.300000
840.649780	200.200000
840.684021	190.800000
840.718262	196.900000
840.752441	197.500000
840.786682	192.300000
840.820862	191.300000
840.855103	197.800000
840.889343	191.900000
840.923584	195.200000
840.957764	192.200000
840.992004	191.800000
841.026184	203.000000
841.060425	190.600000
841.094666	188.400000
841.128845	194.200000
841.163025	191.900000
841.197266	191.900000
841.231445	192.200000
841.265686	193.100000
841.299866	188.400000
841.334045	197.400000
841.368286	189.500000
841.402405	198.200000
841.436646	193.100000
841.470825	189.900000
841.505005	191.200000
841.539185	187.500000
841.573425	188.800000
841.607544	191.100000
841.641785	191.100000
841.675964	187.700000
841.710144	191.500000
841.744324	189.800000
841.778503	191.000000
841.812683	189.300000
841.846863	197.500000
841.881042	197.400000
841.915222	189.000000
841.949402	203.100000
841.983521	185.800000
842.017700	190.300000
842.051880	191.500000
842.086060	194.700000
842.120239	192.200000
842.154419	190.500000
842.188538	191.900000
842.222717	188.800000
842.256897	197.600000
842.291016	191.000000
842.325195	191.100000
842.359375	199.900000
842.393494	195.900000
842.427673	191.600000
842.461853	192.800000
842.495911	197.700000
842.530090	192.700000
842.564209	190.900000
842.598389	191.900000
842.632568	191.600000
842.666626	194.100000
842.700806	189.700000
842.734985	189.000000
842.769043	192.700000
842.803223	191.600000
842.837402	189.900000
842.871460	189.100000
842.905640	200.500000
842.939697	188.100000
842.973877	192.000000
843.007996	197.200000
843.042175	199.300000
843.076233	190.400000
843.110413	193.100000
843.144470	198.300000
843.178589	196.900000
843.212769	188.700000
843.246826	196.200000
843.280945	189.500000
843.315125	190.500000
843.349182	189.100000
843.383301	195.500000
843.417419	200.900000
843.451538	191.400000
843.485657	190.600000
843.519714	191.200000
843.553833	192.600000
843.587952	189.100000
843.622070	188.700000
843.656128	194.300000
843.690247	190.500000
843.724304	191.900000
843.758423	191.800000
843.792542	190.300000
843.826599	191.200000
843.860718	189.700000
843.894836	185.900000
843.928894	191.700000
843.963013	192.200000
843.997070	187.800000
844.031128	188.100000
844.065247	195.300000
844.099304	195.100000
844.133362	193.200000
844.167480	194.200000
844.201599	197.700000
844.235596	194.400000
844.269714	194.200000
844.303711	192.900000
844.337830	186.800000
844.371948	194.200000
844.405945	192.400000
844.440063	188.200000
844.474121	203.300000
844.508118	190.400000
844.542236	191.700000
844.576294	190.400000
844.610352	188.000000
844.644409	191.000000
844.678406	186.300000
844.712524	195.800000
844.746582	196.100000
844.780640	190.900000
844.814636	192.300000
844.848755	202.000000
844.882751	190.600000
844.916809	194.800000
844.950867	194.000000
844.984863	198.300000
845.018921	191.200000
845.052979	188.600000
845.086975	191.700000
845.121033	187.900000
845.155090	189.500000
845.189087	196.800000
845.223145	189.900000
845.257141	193.900000
845.291199	194.400000
845.325256	196.400000
845.359253	193.000000
845.393250	203.000000
845.427307	190.200000
845.461304	194.600000
845.495361	192.200000
845.529358	200.300000
845.563354	190.200000
845.597412	189.900000
845.631409	200.200000
845.665405	198.300000
845.699463	196.100000
845.733459	190.100000
845.767456	201.500000
845.801453	191.400000
845.835449	196.000000
845.869446	194.800000
845.903503	195.400000
845.937439	190.600000
845.971497	197.700000
846.005493	188.500000
846.039429	195.600000
846.073486	200.000000
846.107483	191.200000
846.141418	190.400000
846.175476	192.700000
846.209473	198.000000
846.243408	189.100000
846.277405	191.400000
846.311401	189.400000
846.345337	191.800000
846.379395	196.100000
846.413330	189.700000
846.447327	200.700000
846.481323	188.600000
846.515259	188.300000
846.549255	191.900000
846.583252	194.300000
846.617187	188.900000
846.651184	193.200000
846.685120	190.600000
846.719055	199.800000
846.753052	195.800000
846.786987	194.600000
846.820984	187.500000
846.854980	198.200000
846.888916	189.300000
846.922852	194.200000
846.956848	197.000000
846.990723	189.800000
847.024719	193.900000
847.058716	192.000000
847.092590	196.500000
847.126587	194.700000
847.160522	189.600000
847.194458	196.000000
847.228455	189.300000
847.262390	187.900000
847.296265	191.000000
847.330261	195.600000
847.364136	190.100000
847.398132	190.700000
847.432068	192.500000
847.466003	190.300000
847.499939	191.700000
847.533875	194.500000
847.567749	191.600000
847.601746	191.000000
847.635681	194.900000
847.669556	186.000000
847.703491	196.900000
847.737427	202.200000
847.771301	187.600000
847.805237	193.600000
847.839233	193.700000
847.873108	190.900000
847.907043	190.100000
847.940918	197.600000
847.974854	192.100000
848.008789	195.500000
848.042664	190.300000
848.076538	192.400000
848.110474	192.200000
848.144348	192.400000
848.178284	186.400000
848.212219	194.100000
848.246094	189.200000
848.279968	191.800000
848.313904	193.800000
848.347778	192.100000
848.381653	190.500000
848.415588	189.100000
848.449463	188.100000
848.483337	193.900000
848.517212	198.000000
848.551086	192.300000
848.585022	189.500000
848.618835	201.500000
848.652771	190.200000
848.686646	190.000000
848.720520	197.600000
848.754395	192.100000
848.788330	195.100000
848.822144	195.900000
848.856018	191.300000
848.889954	200.300000
848.923767	190.100000
848.957642	190.700000
848.991577	193.500000
849.025391	191.700000
849.059265	192.200000
849.093079	190.000000
849.126953	188.100000
849.160828	197.200000
849.194641	193.900000
849.228577	190.200000
849.262451	189.700000
849.296265	190.600000
849.330139	189.600000
849.364014	191.400000
849.397827	194.700000
849.431702	194.400000
849.465515	196.100000
849.499329	185.600000
849.533203	188.300000
849.567078	184.300000
849.600891	193.300000
849.634766	191.200000
849.668518	194.000000
849.702393	193.000000
849.736267	187.900000
849.770020	199.900000
849.803894	194.800000
849.837769	194.300000
849.871521	192.500000
849.905396	195.000000
849.939270	188.200000
849.973022	190.300000
850.006897	195.300000
850.040710	194.300000
850.074524	195.800000
850.108337	192.300000
850.142151	196.700000
850.175964	196.500000
850.209778	191.500000
850.243530	184.000000
850.277405	196.300000
850.311218	193.200000
850.344971	189.900000
850.378845	198.300000
850.412659	189.200000
850.446411	194.100000
850.480225	191.900000
850.514038	195.800000
850.547791	195.100000
850.581665	191.200000
850.615417	189.200000
850.649231	193.800000
850.683044	190.800000
850.716858	191.600000
850.750610	193.300000
850.784424	195.300000
850.818176	188.700000
850.851929	190.000000
850.885742	189.300000
850.919495	192.200000
850.953308	198.100000
850.987122	198.700000
851.020874	187.500000
851.054626	187.200000
851.088440	194.500000
851.122192	195.400000
851.156006	193.000000
851.189697	191.800000
851.223511	188.000000
851.257263	196.300000
851.291077	193.800000
851.324829	191.500000
851.358582	191.000000
851.392334	192.100000
851.426086	191.500000
851.459900	199.100000
851.493591	192.800000
851.527344	192.400000
851.561157	193.000000
851.594849	195.100000
851.628662	192.100000
851.662415	200.700000
851.696106	194.300000
851.729858	196.400000
851.763611	189.500000
851.797363	194.100000
851.831116	188.500000
851.864868	194.200000
851.898560	196.700000
851.932312	191.600000
851.966064	195.200000
851.999817	193.600000
852.033569	191.000000
852.067261	196.500000
852.101013	189.300000
852.134766	190.500000
852.168457	184.100000
852.202209	196.200000
852.235901	188.800000
852.269592	193.500000
852.303345	199.300000
852.337036	194.700000
852.370789	192.700000
852.404541	195.200000
852.438171	187.500000
852.471924	193.100000
852.505676	187.600000
852.539307	194.900000
852.573059	190.400000
852.606812	191.300000
852.640442	189.700000
852.674194	196.200000
852.707886	201.100000
852.741577	198.600000
852.775269	189.400000
852.809021	192.400000
852.842651	194.200000
852.876404	197.600000
852.910034	194.400000
852.943787	196.800000
852.977478	194.800000
853.011108	189.200000
853.044861	189.000000
853.078552	197.800000
853.112183	192.500000
853.145874	193.100000
853.179626	185.600000
853.213257	193.700000
853.246948	190.300000
853.280640	198.000000
853.314270	191.300000
853.347961	198.600000
853.381653	195.300000
853.415283	196.900000
853.448975	189.600000
853.482605	194.900000
853.516296	193.100000
853.549988	187.500000
853.583618	193.800000
853.617310	194.200000
853.651001	194.700000
853.684631	188.800000
853.718323	189.800000
853.751953	196.600000
853.785583	186.800000
853.819275	194.600000
853.852966	194.900000
853.886536	186.000000
853.920227	188.500000
853.953918	195.800000
853.987488	192.800000
854.021179	195.400000
854.054749	199.100000
854.088440	194.900000
854.122131	189.600000
854.155701	193.300000
854.189331	189.400000
854.223022	194.900000
854.256592	193.600000
854.290283	190.900000
854.323914	193.800000
854.357483	192.900000
854.391174	195.600000
854.424744	197.800000
854.458374	193.400000
854.492065	202.100000
854.525696	195.900000
854.559265	197.400000
854.592896	201.500000
854.626465	192.600000
854.660095	192.400000
854.693787	194.400000
854.727356	191.500000
854.760986	194.400000
854.794617	194.900000
854.828186	191.500000
854.861816	194.700000
854.895447	193.800000
854.929016	192.800000
854.962585	193.300000
854.996155	200.300000
855.029785	192.300000
855.063416	193.300000
855.097046	195.900000
855.130615	188.500000
855.164185	197.500000
855.197754	192.800000
855.231384	194.900000
855.264954	189.500000
855.298523	195.600000
855.332153	193.900000
855.365723	198.500000
855.399292	190.500000
855.432922	191.100000
855.466492	194.200000
855.500061	188.600000
855.533630	190.200000
855.567200	196.100000
855.600769	195.400000
855.634338	198.800000
855.667969	192.300000
855.701477	189.400000
855.735046	188.700000
855.768616	185.800000
855.802185	193.300000
855.835754	204.300000
855.869324	185.200000
855.902893	192.500000
855.936401	196.600000
855.969971	193.300000
856.003540	188.400000
856.037109	195.500000
856.070618	192.700000
856.104187	188.800000
856.137695	189.700000
856.171265	185.300000
856.204834	192.600000
856.238403	195.300000
856.271912	190.700000
856.305481	193.900000
856.338989	187.600000
856.372559	195.000000
856.406128	194.600000
856.439636	196.000000
856.473145	190.800000
856.506653	197.800000
856.540222	193.700000
856.573792	197.300000
856.607300	196.900000
856.640808	188.900000
856.674377	193.600000
856.707825	225.600000
856.741394	197.200000
856.774902	188.200000
856.808472	185.500000
856.841980	195.800000
856.875488	199.600000
856.908936	187.100000
856.942505	191.400000
856.976013	191.800000
857.009521	189.100000
857.043030	193.300000
857.076477	192.400000
857.110046	198.400000
857.143555	193.000000
857.177063	196.100000
857.210571	191.400000
857.244080	187.200000
857.277527	194.300000
857.311035	193.400000
857.344543	196.300000
857.378052	191.200000
857.411499	196.400000
857.445068	198.000000
857.478516	192.100000
857.512024	188.300000
857.545532	190.600000
857.578979	193.900000
857.612427	193.600000
857.645874	189.600000
857.679382	193.600000
857.712891	197.200000
857.746399	192.700000
857.779846	195.700000
857.813354	196.000000
857.846741	191.700000
857.880249	188.900000
857.913757	193.800000
857.947266	193.300000
857.980652	195.400000
858.014160	192.300000
858.047546	191.000000
858.081055	191.600000
858.114563	202.800000
858.147949	188.600000
858.181458	195.800000
858.214844	191.500000
858.248352	185.700000
858.281799	195.700000
858.315308	202.000000
858.348694	195.300000
858.382141	199.500000
858.415588	195.800000
858.449036	197.400000
858.482483	194.200000
858.515930	191.200000
858.549377	192.900000
858.582825	196.700000
858.616211	194.100000
858.649658	194.300000
858.683105	189.000000
858.716553	190.500000
858.750000	188.800000
858.783386	189.700000
858.816833	186.900000
858.850281	193.400000
858.883728	195.000000
858.917114	193.200000
858.950562	198.700000
858.983948	198.400000
859.017395	194.800000
859.050781	190.700000
859.084167	189.200000
859.117615	188.500000
859.151062	195.600000
859.184448	189.300000
859.217834	190.600000
859.251282	190.000000
859.284668	187.500000
859.318054	187.000000
859.351440	191.500000
859.384888	197.600000
859.418274	184.300000
859.451721	185.800000
859.485046	193.700000
859.518494	194.300000
859.551819	189.200000
859.585266	195.200000
859.618652	197.300000
859.652039	189.600000
859.685425	188.900000
859.718811	188.200000
859.752197	184.800000
859.785583	196.500000
859.819031	198.000000
859.852356	194.200000
859.885742	190.400000
859.919067	192.700000
859.952454	190.200000
859.985901	195.600000
860.019287	192.200000
860.052612	0.000000
860.085999	0.000000
860.119324	0.000000
860.152710	0.000000
860.186096	0.000000
860.219421	0.000000
860.252808	0.000000
860.286133	0.000000
860.319519	0.000000
860.352905	0.000000
860.386292	0.000000
860.419617	0.000000
860.452942	0.000000
860.486267	0.000000
860.519653	0.000000
860.553040	0.000000
860.586365	0.000000
860.619690	0.000000
860.653076	0.000000
860.686340	0.000000
860.719727	0.000000
860.753113	0.000000
860.786377	0.000000
860.819763	0.000000
860.853027	0.000000
860.886414	0.000000
860.919739	0.000000
860.953125	0.000000
860.986389	0.000000
861.019714	0.000000
861.053040	0.000000
861.086365	0.000000
861.119690	0.000000
861.153076	0.000000
861.186340	0.000000
861.219666	0.000000
861.252930	0.000000
861.286316	0.000000
861.319641	0.000000
861.352905	0.000000
861.386230	0.000000
861.419495	0.000000
861.452820	0.000000
861.486145	0.000000
861.519470	0.000000
861.552734	0.000000
861.586060	0.000000
861.619324	0.000000
861.652649	0.000000
861.685974	0.000000
861.719238	0.000000
861.752563	0.000000
861.785828	0.000000
861.819092	0.000000
861.852417	0.000000
861.885742	0.000000
861.918945	0.000000
861.952271	0.000000
861.985535	0.000000
862.018799	0.000000
862.052124	0.000000
862.085449	0.000000
862.118652	0.000000
862.151978	0.000000
862.185181	0.000000
862.218506	0.000000
862.251770	0.000000
862.285034	0.000000
862.318298	0.000000
862.351562	0.000000
862.384827	0.000000
862.418091	0.000000
862.451355	0.000000
862.484619	0.000000
862.517883	0.000000
862.551086	0.000000
862.584351	0.000000
862.617676	0.000000
862.650940	0.000000
862.684143	0.000000
862.717407	0.000000
862.750610	0.000000
862.783875	0.000000
862.817139	0.000000
862.850342	0.000000
862.883606	0.000000
862.916870	0.000000
862.950073	0.000000
862.983337	0.000000
863.016602	0.000000
863.049805	0.000000
863.083069	0.000000
863.116211	0.000000
863.149475	0.000000
863.182739	0.000000
863.216003	0.000000
863.249146	0.000000
863.282410	0.000000
863.315613	0.000000
863.348816	0.000000
863.382080	0.000000
863.415222	0.000000
863.448486	0.000000
863.481689	0.000000
863.514893	0.000000
863.548157	0.000000
863.581360	0.000000
863.614502	0.000000
863.647766	0.000000
863.680908	0.000000
863.714172	0.000000
863.747375	0.000000
863.780579	0.000000
863.813721	0.000000
863.846985	0.000000
863.880127	0.000000
863.913330	0.000000
863.946533	0.000000
863.979675	0.000000
864.012939	0.000000
