Model Number: SPM-002-B   
Serial Number: 70087108
Firmware Version: 004.15.4
Exposure Time: 100000.000000us
Data Taken on: 11-12-2020 18:42:23.557
Wavelength	Amplitude
221.570786	0.000000
221.663406	0.000000
221.756027	0.000000
221.848648	0.000000
221.941269	0.000000
222.033905	0.000000
222.126526	0.000000
222.219162	0.000000
222.311798	0.000000
222.404419	0.000000
222.497055	0.000000
222.589676	0.000000
222.682312	0.000000
222.774933	0.000000
222.867569	0.000000
222.960205	0.000000
223.052841	0.000000
223.145462	0.000000
223.238098	0.000000
223.330734	0.000000
223.423386	0.000000
223.516022	0.000000
223.608658	0.000000
223.701309	0.000000
223.793945	0.000000
223.886581	0.000000
223.979218	0.000000
224.071869	0.000000
224.164505	0.000000
224.257156	0.000000
224.349792	0.000000
224.442444	0.000000
224.535095	0.000000
224.627747	0.000000
224.720398	0.000000
224.813034	0.000000
224.905685	0.000000
224.998337	145.780000
225.090988	145.160000
225.183640	145.220000
225.276291	145.220000
225.368942	145.440000
225.461594	146.100000
225.554245	146.520000
225.646912	146.260000
225.739578	146.840000
225.832230	147.240000
225.924896	146.220000
226.017548	146.680000
226.110199	147.260000
226.202866	146.600000
226.295532	146.400000
226.388184	146.540000
226.480850	145.820000
226.573517	145.340000
226.666168	145.400000
226.758835	145.600000
226.851501	146.020000
226.944183	146.320000
227.036850	145.640000
227.129517	146.000000
227.222183	146.040000
227.314850	146.400000
227.407516	146.860000
227.500198	147.880000
227.592865	147.260000
227.685532	146.880000
227.778214	146.280000
227.870880	146.080000
227.963562	146.440000
228.056229	147.180000
228.148926	147.300000
228.241592	148.140000
228.334274	147.940000
228.426956	147.420000
228.519638	147.100000
228.612305	146.520000
228.704987	146.320000
228.797668	146.400000
228.890350	146.160000
228.983032	145.800000
229.075714	146.860000
229.168396	146.480000
229.261108	146.000000
229.353790	146.380000
229.446472	146.400000
229.539169	145.600000
229.631851	145.460000
229.724533	145.820000
229.817230	145.920000
229.909912	146.780000
230.002609	147.100000
230.095306	147.020000
230.187988	147.100000
230.280685	146.560000
230.373383	145.500000
230.466095	145.500000
230.558792	145.720000
230.651474	145.600000
230.744171	145.600000
230.836868	145.880000
230.929581	146.080000
231.022278	146.140000
231.114975	146.080000
231.207672	146.140000
231.300369	146.540000
231.393082	146.080000
231.485779	146.160000
231.578506	146.280000
231.671204	146.680000
231.763916	146.660000
231.856613	147.000000
231.949326	146.920000
232.042023	146.720000
232.134735	146.440000
232.227448	146.160000
232.320160	146.400000
232.412872	146.300000
232.505585	147.060000
232.598297	147.360000
232.691010	147.320000
232.783722	146.560000
232.876450	147.200000
232.969162	146.560000
233.061874	146.120000
233.154587	145.820000
233.247314	146.460000
233.340027	145.720000
233.432739	146.300000
233.525467	146.020000
233.618179	146.540000
233.710907	146.160000
233.803635	146.740000
233.896347	146.220000
233.989090	147.000000
234.081818	146.880000
234.174545	147.200000
234.267258	146.560000
234.359985	146.840000
234.452713	146.660000
234.545441	146.520000
234.638168	146.260000
234.730896	146.440000
234.823639	146.120000
234.916367	146.200000
235.009094	146.320000
235.101822	146.560000
235.194580	146.640000
235.287308	146.540000
235.380051	146.140000
235.472778	145.920000
235.565521	145.960000
235.658249	145.720000
235.750992	146.100000
235.843719	145.960000
235.936462	146.260000
236.029205	145.820000
236.121948	145.640000
236.214691	145.740000
236.307449	146.460000
236.400192	145.960000
236.492935	146.060000
236.585678	146.080000
236.678421	145.980000
236.771164	145.720000
236.863907	146.620000
236.956665	146.800000
237.049408	148.720000
237.142151	148.320000
237.234909	148.660000
237.327652	148.400000
237.420410	148.140000
237.513153	146.720000
237.605927	147.060000
237.698669	146.840000
237.791428	146.240000
237.884186	147.020000
237.976944	146.680000
238.069702	146.580000
238.162445	146.000000
238.255203	146.320000
238.347961	146.120000
238.440720	146.220000
238.533478	146.300000
238.626266	146.080000
238.719025	146.040000
238.811783	145.580000
238.904541	145.160000
238.997314	145.040000
239.090073	145.220000
239.182831	145.620000
239.275604	146.360000
239.368362	146.480000
239.461136	146.420000
239.553909	146.420000
239.646667	146.240000
239.739441	145.720000
239.832214	146.300000
239.925003	146.240000
240.017761	146.640000
240.110535	147.120000
240.203308	146.780000
240.296082	146.560000
240.388855	146.700000
240.481628	146.980000
240.574417	146.780000
240.667191	146.880000
240.759964	146.600000
240.852737	146.460000
240.945526	145.960000
241.038315	145.620000
241.131088	146.060000
241.223877	146.540000
241.316650	146.500000
241.409439	146.720000
241.502228	146.260000
241.595001	146.340000
241.687790	146.060000
241.780579	145.860000
241.873367	146.280000
241.966141	146.400000
242.058929	145.820000
242.151718	145.920000
242.244507	146.440000
242.337311	145.460000
242.430099	146.440000
242.522903	146.680000
242.615692	146.260000
242.708481	146.380000
242.801270	146.840000
242.894073	146.320000
242.986862	146.660000
243.079651	147.400000
243.172455	146.760000
243.265244	146.760000
243.358063	146.000000
243.450867	146.180000
243.543655	145.840000
243.636459	146.040000
243.729263	146.300000
243.822067	146.940000
243.914856	146.980000
244.007660	146.860000
244.100464	147.000000
244.193268	146.360000
244.286072	146.200000
244.378876	145.400000
244.471680	145.380000
244.564499	145.640000
244.657318	146.740000
244.750122	146.860000
244.842926	146.680000
244.935745	146.980000
245.028549	146.540000
245.121368	145.600000
245.214172	145.660000
245.306992	146.140000
245.399796	145.800000
245.492615	146.080000
245.585434	146.280000
245.678253	146.060000
245.771072	145.980000
245.863892	146.520000
245.956711	146.580000
246.049530	146.580000
246.142349	146.620000
246.235168	146.620000
246.327988	147.060000
246.420807	146.900000
246.513626	147.120000
246.606445	146.980000
246.699280	147.080000
246.792099	146.420000
246.884918	146.420000
246.977753	145.840000
247.070587	145.900000
247.163422	146.120000
247.256241	146.040000
247.349075	146.120000
247.441895	146.540000
247.534729	146.640000
247.627563	146.040000
247.720383	146.500000
247.813217	146.320000
247.906052	146.000000
247.998886	145.900000
248.091736	146.120000
248.184570	145.780000
248.277405	145.900000
248.370239	147.320000
248.463074	148.200000
248.555908	148.520000
248.648743	148.480000
248.741592	148.460000
248.834427	147.100000
248.927261	145.940000
249.020111	146.100000
249.112946	146.760000
249.205795	146.540000
249.298630	146.780000
249.391495	147.140000
249.484344	146.940000
249.577179	146.780000
249.670029	147.280000
249.762878	147.700000
249.855728	147.780000
249.948563	147.720000
250.041412	146.840000
250.134262	146.720000
250.227112	146.900000
250.319962	147.120000
250.412827	147.080000
250.505692	147.240000
250.598541	147.080000
250.691391	146.300000
250.784241	146.280000
250.877106	146.260000
250.969955	145.920000
251.062805	146.540000
251.155670	147.400000
251.248520	147.120000
251.341385	147.460000
251.434235	147.680000
251.527100	147.080000
251.619965	146.460000
251.712814	147.200000
251.805695	146.680000
251.898560	146.780000
251.991425	146.920000
252.084290	147.180000
252.177155	146.240000
252.270020	146.300000
252.362885	146.220000
252.455750	146.320000
252.548615	146.040000
252.641479	145.980000
252.734360	145.880000
252.827240	145.660000
252.920105	145.740000
253.012970	145.600000
253.105850	145.540000
253.198715	145.460000
253.291595	145.640000
253.384460	144.960000
253.477341	145.020000
253.570221	145.540000
253.663086	145.360000
253.755966	146.060000
253.848846	146.520000
253.941727	146.780000
254.034592	146.480000
254.127472	146.240000
254.220367	146.120000
254.313248	145.860000
254.406128	145.340000
254.499008	145.900000
254.591904	146.760000
254.684784	146.860000
254.777664	147.000000
254.870544	146.620000
254.963440	146.120000
255.056335	146.040000
255.149216	145.580000
255.242111	145.960000
255.334991	146.500000
255.427887	147.080000
255.520767	147.300000
255.613663	147.480000
255.706558	147.140000
255.799438	147.080000
255.892334	146.220000
255.985229	145.740000
256.078125	145.620000
256.171021	145.760000
256.263916	146.220000
256.356812	146.640000
256.449707	146.940000
256.542603	146.920000
256.635498	147.120000
256.728394	146.740000
256.821289	146.640000
256.914215	146.940000
257.007080	147.220000
257.100006	147.260000
257.192932	147.800000
257.285828	147.880000
257.378723	147.460000
257.471619	147.140000
257.564545	146.660000
257.657440	146.540000
257.750336	147.020000
257.843262	146.500000
257.936157	147.520000
258.029053	147.720000
258.121979	147.620000
258.214874	146.940000
258.307800	147.220000
258.400696	145.980000
258.493622	146.020000
258.586517	145.260000
258.679443	145.740000
258.772339	145.260000
258.865265	145.360000
258.958160	144.620000
259.051086	145.620000
259.144012	145.280000
259.236938	146.500000
259.329834	146.560000
259.422791	146.880000
259.515717	146.180000
259.608612	145.960000
259.701538	145.800000
259.794464	145.720000
259.887390	145.660000
259.980316	145.660000
260.073212	145.440000
260.166138	144.420000
260.259064	144.800000
260.351990	145.520000
260.444916	145.680000
260.537842	146.260000
260.630768	146.880000
260.723694	146.660000
260.816620	146.320000
260.909546	146.440000
261.002472	146.020000
261.095398	145.820000
261.188354	145.740000
261.281281	145.260000
261.374207	145.200000
261.467133	146.080000
261.560089	146.100000
261.653015	146.180000
261.745972	147.320000
261.838867	147.460000
261.931824	147.620000
262.024780	147.380000
262.117706	147.520000
262.210663	147.180000
262.303589	147.060000
262.396515	146.700000
262.489471	147.460000
262.582397	147.140000
262.675354	146.520000
262.768280	146.660000
262.861237	146.680000
262.954163	146.320000
263.047119	146.680000
263.140045	146.660000
263.233002	146.740000
263.325958	146.420000
263.418884	145.880000
263.511841	145.820000
263.604797	145.960000
263.697723	145.620000
263.790680	145.560000
263.883636	146.600000
263.976593	146.040000
264.069550	146.180000
264.162476	146.320000
264.255463	146.240000
264.348419	145.580000
264.441376	146.420000
264.534332	146.140000
264.627289	146.240000
264.720245	146.940000
264.813202	146.540000
264.906158	146.540000
264.999115	147.000000
265.092072	146.960000
265.185028	147.020000
265.277985	147.620000
265.370941	147.140000
265.463898	146.900000
265.556854	146.640000
265.649811	145.560000
265.742798	145.340000
265.835754	145.600000
265.928711	145.980000
266.021667	146.060000
266.114655	146.780000
266.207611	147.160000
266.300568	146.580000
266.393585	145.860000
266.486511	146.500000
266.579498	145.620000
266.672485	145.260000
266.765442	145.520000
266.858429	146.360000
266.951385	145.340000
267.044342	145.720000
267.137329	145.740000
267.230316	146.020000
267.323273	145.100000
267.416260	146.000000
267.509216	146.140000
267.602203	146.180000
267.695160	146.420000
267.788147	146.820000
267.881134	146.040000
267.974091	146.200000
268.067078	146.000000
268.160065	145.500000
268.253052	145.280000
268.346008	145.720000
268.438995	145.480000
268.531982	145.720000
268.624969	145.820000
268.717987	146.140000
268.810944	146.040000
268.903961	146.480000
268.996948	146.040000
269.089905	146.420000
269.182892	146.660000
269.275879	146.880000
269.368866	146.200000
269.461853	146.520000
269.554871	146.200000
269.647858	145.640000
269.740845	145.960000
269.833832	146.400000
269.926819	146.100000
270.019806	146.060000
270.112793	146.020000
270.205811	145.540000
270.298798	145.200000
270.391785	146.040000
270.484772	145.880000
270.577789	146.180000
270.670776	145.800000
270.763763	146.020000
270.856750	145.700000
270.949768	145.640000
271.042786	145.700000
271.135773	145.920000
271.228790	146.060000
271.321808	145.840000
271.414795	145.700000
271.507782	145.360000
271.600800	145.120000
271.693817	145.540000
271.786804	145.940000
271.879822	146.140000
271.972809	146.480000
272.065826	147.120000
272.158844	146.540000
272.251831	147.040000
272.344849	147.080000
272.437866	146.560000
272.530853	146.440000
272.623871	146.500000
272.716888	145.440000
272.809906	145.560000
272.902893	145.700000
272.995911	145.180000
273.088928	145.100000
273.181946	145.260000
273.274963	144.780000
273.367981	145.000000
273.460999	145.360000
273.554047	145.900000
273.647003	146.780000
273.740051	147.260000
273.833069	147.340000
273.926086	147.680000
274.019135	147.360000
274.112152	146.660000
274.205170	146.760000
274.298187	146.960000
274.391205	146.220000
274.484222	145.960000
274.577240	145.840000
274.670258	145.520000
274.763306	145.400000
274.856323	145.960000
274.949341	146.220000
275.042358	146.740000
275.135406	146.680000
275.228424	146.600000
275.321442	146.600000
275.414490	146.200000
275.507507	146.200000
275.600525	146.640000
275.693573	146.260000
275.786591	145.760000
275.879669	145.920000
275.972656	145.160000
276.065735	144.960000
276.158752	145.720000
276.251801	146.520000
276.344818	146.620000
276.437866	147.200000
276.530884	147.040000
276.623932	146.140000
276.716980	146.180000
276.809998	146.240000
276.903046	146.200000
276.996094	147.040000
277.089111	147.580000
277.182159	147.540000
277.275208	147.340000
277.368256	147.500000
277.461304	147.020000
277.554321	146.640000
277.647369	146.700000
277.740417	146.820000
277.833466	146.660000
277.926514	146.360000
278.019562	147.000000
278.112610	146.580000
278.205688	147.000000
278.298706	147.140000
278.391785	147.120000
278.484833	146.420000
278.577881	146.060000
278.670929	145.900000
278.763977	145.720000
278.857025	146.100000
278.950073	146.520000
279.043121	146.660000
279.136169	146.560000
279.229248	146.420000
279.322296	146.420000
279.415344	146.140000
279.508392	146.000000
279.601440	146.020000
279.694519	145.880000
279.787567	145.700000
279.880615	145.500000
279.973694	145.520000
280.066742	145.560000
280.159790	145.840000
280.252869	145.580000
280.345917	146.020000
280.438995	145.940000
280.532074	145.500000
280.625122	145.860000
280.718201	146.860000
280.811279	146.960000
280.904327	147.220000
280.997406	147.780000
281.090454	147.340000
281.183533	146.580000
281.276581	146.320000
281.369659	146.120000
281.462738	145.800000
281.555786	146.120000
281.648865	146.060000
281.741943	146.300000
281.835022	146.940000
281.928070	146.660000
282.021149	146.280000
282.114227	146.040000
282.207306	145.800000
282.300385	146.040000
282.393433	146.500000
282.486511	146.620000
282.579590	147.200000
282.672668	147.740000
282.765747	146.720000
282.858856	146.260000
282.951904	146.220000
283.045013	146.200000
283.138062	146.000000
283.231171	146.440000
283.324249	146.880000
283.417328	147.040000
283.510406	146.720000
283.603485	146.280000
283.696564	146.180000
283.789642	146.020000
283.882751	145.540000
283.975830	146.140000
284.068909	145.920000
284.161987	146.860000
284.255066	146.660000
284.348175	147.020000
284.441254	146.480000
284.534332	147.320000
284.627441	146.200000
284.720520	146.120000
284.813599	146.140000
284.906708	145.980000
284.999786	145.080000
285.092896	145.140000
285.185974	146.200000
285.279053	145.700000
285.372192	146.200000
285.465240	146.860000
285.558380	146.680000
285.651459	146.060000
285.744568	147.000000
285.837677	146.720000
285.930756	146.720000
286.023865	146.960000
286.116943	146.500000
286.210052	146.560000
286.303162	146.180000
286.396240	146.400000
286.489349	146.420000
286.582458	146.880000
286.675568	146.280000
286.768646	146.520000
286.861755	146.600000
286.954865	146.960000
287.047974	146.260000
287.141083	146.160000
287.234161	145.840000
287.327271	145.440000
287.420380	145.780000
287.513519	145.740000
287.606598	146.020000
287.699738	146.560000
287.792816	146.380000
287.885956	145.960000
287.979034	146.280000
288.072174	146.340000
288.165283	146.180000
288.258392	146.660000
288.351501	146.080000
288.444611	146.300000
288.537720	146.240000
288.630859	146.220000
288.723969	146.320000
288.817078	147.020000
288.910187	146.820000
289.003296	146.400000
289.096436	145.940000
289.189545	145.200000
289.282654	144.620000
289.375763	145.200000
289.468903	145.840000
289.562012	146.480000
289.655121	147.240000
289.748260	147.580000
289.841400	147.840000
289.934509	147.340000
290.027649	147.380000
290.120728	146.820000
290.213898	146.920000
290.306976	146.420000
290.400146	146.600000
290.493256	146.060000
290.586395	146.440000
290.679535	146.740000
290.772644	146.220000
290.865784	145.760000
290.958893	145.860000
291.052032	145.420000
291.145172	145.100000
291.238281	145.160000
291.331421	145.360000
291.424561	145.940000
291.517670	145.940000
291.610809	146.000000
291.703949	145.900000
291.797089	146.380000
291.890228	145.960000
291.983337	146.160000
292.076477	146.000000
292.169617	146.580000
292.262756	146.420000
292.355927	146.340000
292.449036	146.060000
292.542206	146.320000
292.635315	146.180000
292.728485	146.260000
292.821625	145.960000
292.914764	147.280000
293.007904	147.020000
293.101044	147.220000
293.194183	147.320000
293.287323	147.480000
293.380463	146.600000
293.473602	146.580000
293.566742	146.980000
293.659882	147.140000
293.753021	147.640000
293.846191	147.440000
293.939331	147.260000
294.032471	146.740000
294.125610	146.380000
294.218781	146.640000
294.311920	147.100000
294.405060	147.240000
294.498230	147.040000
294.591370	147.260000
294.684540	146.580000
294.777679	145.840000
294.870850	146.260000
294.963959	146.200000
295.057159	145.880000
295.150299	146.140000
295.243469	146.340000
295.336609	145.540000
295.429779	145.800000
295.522919	146.240000
295.616089	146.340000
295.709229	147.160000
295.802399	147.500000
295.895569	147.360000
295.988708	146.860000
296.081879	146.860000
296.175018	146.120000
296.268188	146.360000
296.361359	146.580000
296.454529	146.760000
296.547668	146.480000
296.640839	146.520000
296.734009	145.980000
296.827179	146.140000
296.920319	146.460000
297.013519	146.560000
297.106659	146.820000
297.199860	147.020000
297.292999	146.620000
297.386200	146.200000
297.479309	145.960000
297.572510	145.920000
297.665680	145.800000
297.758850	146.200000
297.852020	146.320000
297.945190	146.480000
298.038361	145.880000
298.131531	146.920000
298.224701	146.740000
298.317871	146.360000
298.411072	145.960000
298.504242	146.060000
298.597412	145.500000
298.690582	145.680000
298.783752	145.740000
298.876923	146.360000
298.970093	146.740000
299.063293	146.960000
299.156464	147.320000
299.249634	147.680000
299.342834	147.640000
299.436005	147.660000
299.529205	147.260000
299.622345	146.960000
299.715576	146.280000
299.808716	146.180000
299.901917	146.300000
299.995117	146.660000
300.088287	146.800000
300.181488	147.100000
300.274658	146.720000
300.367828	146.300000
300.461029	146.160000
300.554199	146.260000
300.647400	146.300000
300.740601	147.060000
300.833771	147.240000
300.926971	147.340000
301.020142	146.580000
301.113342	146.480000
301.206512	146.140000
301.299713	146.280000
301.392914	146.240000
301.486084	146.820000
301.579285	147.360000
301.672516	147.840000
301.765686	147.740000
301.858887	147.560000
301.952057	147.200000
302.045288	146.740000
302.138458	146.200000
302.231659	145.800000
302.324860	145.580000
302.418060	145.380000
302.511261	145.320000
302.604462	145.620000
302.697662	145.780000
302.790863	145.660000
302.884064	145.540000
302.977264	145.780000
303.070465	145.900000
303.163666	146.620000
303.256866	147.340000
303.350067	147.620000
303.443268	147.440000
303.536469	147.580000
303.629669	146.780000
303.722870	146.480000
303.816071	146.060000
303.909271	146.060000
304.002472	145.060000
304.095673	145.160000
304.188934	144.360000
304.282104	145.340000
304.375336	145.620000
304.468506	146.260000
304.561768	146.120000
304.654968	146.900000
304.748169	146.380000
304.841370	145.740000
304.934601	145.780000
305.027802	145.520000
305.121002	144.920000
305.214233	144.860000
305.307434	145.280000
305.400665	145.800000
305.493866	146.040000
305.587097	146.580000
305.680298	146.440000
305.773499	147.060000
305.866730	146.400000
305.959930	146.920000
306.053162	147.120000
306.146393	147.280000
306.239594	146.060000
306.332825	146.160000
306.426025	146.360000
306.519287	145.860000
306.612488	146.140000
306.705719	146.620000
306.798920	146.620000
306.892181	145.920000
306.985352	145.640000
307.078613	144.860000
307.171844	145.260000
307.265045	144.820000
307.358276	144.600000
307.451508	145.000000
307.544739	145.560000
307.637970	144.960000
307.731201	144.920000
307.824402	145.500000
307.917633	145.740000
308.010864	146.320000
308.104095	146.740000
308.197327	147.000000
308.290558	146.940000
308.383789	146.660000
308.477020	145.560000
308.570251	144.940000
308.663483	144.680000
308.756714	144.400000
308.849976	144.360000
308.943176	145.360000
309.036438	145.300000
309.129639	145.360000
309.222900	145.560000
309.316101	145.460000
309.409393	144.660000
309.502625	144.700000
309.595856	144.860000
309.689087	145.100000
309.782318	145.280000
309.875580	145.560000
309.968811	145.820000
310.062042	145.380000
310.155273	145.060000
310.248535	145.640000
310.341766	145.600000
310.434998	145.480000
310.528259	145.840000
310.621490	146.080000
310.714722	145.020000
310.807983	144.880000
310.901215	144.840000
310.994476	145.000000
311.087708	145.000000
311.181000	145.880000
311.274200	145.560000
311.367462	146.040000
311.460693	145.400000
311.553986	145.780000
311.647186	145.680000
311.740479	146.500000
311.833710	145.880000
311.926971	146.360000
312.020203	145.480000
312.113464	144.980000
312.206726	144.460000
312.299957	144.860000
312.393219	145.380000
312.486481	145.840000
312.579712	145.900000
312.672974	146.180000
312.766235	146.100000
312.859497	145.320000
312.952759	145.220000
313.045990	146.320000
313.139252	145.500000
313.232513	145.960000
313.325775	146.000000
313.419037	145.660000
313.512299	144.620000
313.605530	145.400000
313.698822	145.160000
313.792053	145.700000
313.885345	145.680000
313.978577	146.040000
314.071869	145.600000
314.165131	145.680000
314.258392	145.880000
314.351654	146.140000
314.444916	145.360000
314.538177	145.920000
314.631439	146.080000
314.724701	145.340000
314.817993	145.380000
314.911255	145.960000
315.004517	145.700000
315.097778	145.460000
315.191040	146.180000
315.284302	146.320000
315.377594	146.240000
315.470856	146.040000
315.564117	145.760000
315.657379	145.280000
315.750671	144.880000
315.843933	145.260000
315.937195	145.120000
316.030518	144.840000
316.123749	145.020000
316.217041	145.780000
316.310303	145.540000
316.403595	146.160000
316.496857	146.760000
316.590149	147.000000
316.683411	146.520000
316.776703	146.040000
316.869965	145.700000
316.963257	145.460000
317.056519	144.480000
317.149811	144.340000
317.243073	144.660000
317.336365	144.760000
317.429626	144.820000
317.522919	145.880000
317.616180	145.800000
317.709473	145.620000
317.802765	145.580000
317.896027	145.840000
317.989319	145.620000
318.082611	145.580000
318.175873	145.480000
318.269165	145.460000
318.362488	145.140000
318.455750	144.840000
318.549042	145.340000
318.642303	146.260000
318.735626	146.040000
318.828888	146.300000
318.922211	146.340000
319.015472	146.680000
319.108765	145.620000
319.202057	145.660000
319.295349	145.560000
319.388641	145.540000
319.481934	145.080000
319.575226	145.320000
319.668518	145.740000
319.761810	145.720000
319.855103	145.760000
319.948395	145.880000
320.041687	146.040000
320.134979	145.740000
320.228271	145.560000
320.321564	145.560000
320.414856	145.060000
320.508148	144.800000
320.601440	144.760000
320.694763	144.900000
320.788025	145.840000
320.881348	145.880000
320.974640	145.880000
321.067963	145.300000
321.161224	145.280000
321.254547	144.020000
321.347839	144.880000
321.441162	144.580000
321.534454	145.080000
321.627747	144.920000
321.721069	145.920000
321.814362	145.600000
321.907654	145.960000
322.000946	146.100000
322.094269	146.820000
322.187561	146.140000
322.280884	146.480000
322.374176	146.500000
322.467468	146.680000
322.560791	146.420000
322.654083	146.800000
322.747406	146.900000
322.840698	147.020000
322.934021	147.440000
323.027344	147.560000
323.120636	147.240000
323.213959	146.600000
323.307251	146.060000
323.400574	145.700000
323.493866	145.260000
323.587219	145.380000
323.680511	146.080000
323.773834	146.500000
323.867157	146.300000
323.960449	146.560000
324.053772	146.440000
324.147095	145.860000
324.240387	146.560000
324.333710	146.660000
324.427032	146.600000
324.520355	146.520000
324.613647	146.360000
324.706970	145.680000
324.800293	145.360000
324.893616	145.640000
324.986938	146.100000
325.080231	145.820000
325.173553	146.420000
325.266876	147.180000
325.360199	146.900000
325.453522	146.460000
325.546875	146.380000
325.640167	146.420000
325.733521	146.360000
325.826813	146.720000
325.920166	146.580000
326.013489	146.840000
326.106812	145.640000
326.200134	145.340000
326.293457	144.700000
326.386780	144.840000
326.480103	144.700000
326.573425	145.140000
326.666748	144.980000
326.760071	145.560000
326.853424	145.920000
326.946747	145.900000
327.040070	146.900000
327.133392	146.480000
327.226715	145.740000
327.320068	145.020000
327.413391	145.660000
327.506714	144.720000
327.600037	145.100000
327.693390	145.580000
327.786713	145.920000
327.880066	145.780000
327.973358	146.200000
328.066742	146.640000
328.160034	146.640000
328.253418	146.960000
328.346710	146.400000
328.440063	145.940000
328.533417	145.200000
328.626740	145.300000
328.720093	144.960000
328.813416	145.040000
328.906769	145.100000
329.000092	145.780000
329.093445	145.500000
329.186768	145.440000
329.280121	146.120000
329.373444	146.580000
329.466797	146.480000
329.560120	146.880000
329.653473	147.020000
329.746796	146.560000
329.840149	146.420000
329.933502	146.400000
330.026825	145.960000
330.120178	145.780000
330.213562	145.700000
330.306854	145.480000
330.400238	145.500000
330.493561	145.600000
330.586945	146.500000
330.680237	146.880000
330.773621	146.680000
330.866974	146.580000
330.960327	147.260000
331.053680	146.540000
331.147003	146.500000
331.240356	146.840000
331.333710	146.880000
331.427063	146.120000
331.520416	146.240000
331.613770	146.020000
331.707123	146.220000
331.800476	146.320000
331.893829	147.100000
331.987152	147.080000
332.080505	147.200000
332.173859	147.180000
332.267212	146.600000
332.360565	146.000000
332.453918	145.820000
332.547333	145.820000
332.640656	145.660000
332.734039	146.000000
332.827362	145.820000
332.920746	146.340000
333.014069	146.240000
333.107452	146.440000
333.200806	146.660000
333.294159	146.840000
333.387543	146.180000
333.480896	146.000000
333.574249	145.840000
333.667603	145.560000
333.760956	145.840000
333.854340	146.020000
333.947693	146.220000
334.041046	146.260000
334.134430	146.360000
334.227783	145.800000
334.321136	145.620000
334.414520	145.260000
334.507874	145.600000
334.601227	145.840000
334.694611	146.200000
334.787964	146.340000
334.881348	146.980000
334.974701	146.660000
335.068085	146.120000
335.161438	146.360000
335.254822	146.400000
335.348175	146.120000
335.441559	145.760000
335.534943	146.680000
335.628296	146.160000
335.721680	146.040000
335.815033	145.980000
335.908417	146.620000
336.001770	146.200000
336.095154	146.280000
336.188538	146.200000
336.281891	146.220000
336.375275	145.340000
336.468658	144.780000
336.562012	144.980000
336.655396	145.320000
336.748779	145.500000
336.842133	146.100000
336.935516	146.660000
337.028900	146.300000
337.122284	146.360000
337.215637	146.280000
337.309021	146.180000
337.402435	145.740000
337.495789	145.980000
337.589203	145.700000
337.682526	145.800000
337.775940	146.000000
337.869324	146.580000
337.962708	146.100000
338.056091	146.840000
338.149475	146.320000
338.242859	146.320000
338.336243	146.000000
338.429626	146.400000
338.523010	145.920000
338.616394	145.660000
338.709778	145.460000
338.803162	145.620000
338.896545	145.620000
338.989929	145.260000
339.083313	145.940000
339.176697	146.040000
339.270081	145.840000
339.363464	146.180000
339.456848	146.540000
339.550232	146.120000
339.643616	146.020000
339.737030	145.960000
339.830383	145.620000
339.923828	145.680000
340.017181	145.840000
340.110596	145.820000
340.203949	145.740000
340.297363	145.480000
340.390778	145.300000
340.484161	145.140000
340.577545	145.160000
340.670959	145.400000
340.764343	145.560000
340.857727	145.820000
340.951111	145.640000
341.044525	145.780000
341.137909	145.340000
341.231293	145.100000
341.324707	144.540000
341.418091	145.320000
341.511505	145.140000
341.604889	145.700000
341.698303	145.960000
341.791687	146.160000
341.885071	145.660000
341.978485	145.660000
342.071899	145.600000
342.165283	146.060000
342.258698	146.360000
342.352081	146.960000
342.445496	147.540000
342.538879	147.060000
342.632324	146.340000
342.725708	146.160000
342.819122	145.720000
342.912506	145.220000
343.005920	145.780000
343.099335	146.740000
343.192719	146.700000
343.286133	146.900000
343.379547	147.280000
343.472931	147.020000
343.566345	146.260000
343.659760	146.560000
343.753143	145.940000
343.846558	145.600000
343.939972	145.500000
344.033386	146.300000
344.126770	145.920000
344.220184	146.280000
344.313599	146.540000
344.407043	146.720000
344.500427	146.180000
344.593872	146.700000
344.687225	146.500000
344.780670	145.860000
344.874054	145.800000
344.967499	146.200000
345.060913	145.960000
345.154327	146.000000
345.247742	146.060000
345.341156	145.600000
345.434570	145.220000
345.527985	145.160000
345.621399	145.080000
345.714813	145.220000
345.808228	145.600000
345.901642	145.140000
345.995056	144.840000
346.088470	145.340000
346.181885	145.580000
346.275299	145.320000
346.368713	145.480000
346.462128	145.440000
346.555573	145.100000
346.648987	145.160000
346.742401	145.220000
346.835815	145.980000
346.929260	145.820000
347.022644	146.000000
347.116119	146.060000
347.209503	146.700000
347.302948	146.960000
347.396362	147.900000
347.489807	148.140000
347.583221	148.580000
347.676636	148.120000
347.770050	147.220000
347.863495	146.540000
347.956909	146.400000
348.050323	145.700000
348.143768	145.840000
348.237183	145.740000
348.330597	146.300000
348.424042	146.680000
348.517456	147.020000
348.610901	147.120000
348.704315	147.120000
348.797760	146.200000
348.891174	145.280000
348.984619	144.700000
349.078033	144.840000
349.171448	145.300000
349.264923	145.360000
349.358337	145.660000
349.451782	145.920000
349.545197	145.100000
349.638641	144.500000
349.732086	144.180000
349.825500	144.520000
349.918945	144.080000
350.012390	144.980000
350.105804	145.680000
350.199249	146.320000
350.292664	146.580000
350.386108	146.880000
350.479553	147.140000
350.572968	146.660000
350.666412	146.880000
350.759857	146.300000
350.853302	146.680000
350.946716	145.940000
351.040161	145.920000
351.133606	145.520000
351.227081	145.400000
351.320465	145.960000
351.413940	146.100000
351.507355	146.500000
351.600830	146.980000
351.694244	146.900000
351.787720	146.380000
351.881104	146.440000
351.974579	146.340000
352.067993	146.680000
352.161469	146.820000
352.254883	146.040000
352.348358	145.980000
352.441803	145.660000
352.535248	144.980000
352.628693	145.380000
352.722137	145.400000
352.815582	145.420000
352.909027	145.900000
353.002472	145.740000
353.095917	145.700000
353.189362	146.380000
353.282806	146.280000
353.376251	145.820000
353.469696	145.620000
353.563141	145.580000
353.656586	145.220000
353.750061	144.800000
353.843475	144.920000
353.936981	145.820000
354.030396	145.380000
354.123871	145.420000
354.217285	146.380000
354.310760	146.580000
354.404175	146.080000
354.497681	145.940000
354.591095	145.940000
354.684570	145.000000
354.777985	144.980000
354.871490	144.840000
354.964935	145.540000
355.058380	145.840000
355.151855	145.840000
355.245300	146.100000
355.338745	146.420000
355.432220	146.280000
355.525665	145.760000
355.619110	146.560000
355.712585	146.080000
355.806030	145.860000
355.899475	145.500000
355.992950	146.000000
356.086426	146.100000
356.179871	146.080000
356.273346	146.000000
356.366791	146.360000
356.460266	146.600000
356.553711	146.000000
356.647186	145.940000
356.740631	146.100000
356.834106	145.520000
356.927551	145.100000
357.021027	145.300000
357.114471	145.460000
357.207947	145.560000
357.301422	145.960000
357.394867	145.960000
357.488342	146.140000
357.581818	146.260000
357.675262	146.420000
357.768738	145.940000
357.862213	145.580000
357.955658	145.540000
358.049133	145.200000
358.142609	145.260000
358.236053	145.620000
358.329529	145.980000
358.423035	146.220000
358.516449	146.340000
358.609955	146.660000
358.703400	147.160000
358.796906	147.040000
358.890350	146.460000
358.983826	146.920000
359.077271	146.120000
359.170776	145.820000
359.264221	145.780000
359.357727	146.200000
359.451172	146.160000
359.544647	146.420000
359.638123	146.200000
359.731598	146.660000
359.825073	146.740000
359.918549	146.320000
360.012024	146.340000
360.105499	146.120000
360.198975	145.880000
360.292450	145.680000
360.385925	145.880000
360.479401	145.560000
360.572876	145.660000
360.666351	145.900000
360.759857	145.780000
360.853302	145.700000
360.946808	145.560000
361.040253	145.960000
361.133759	145.540000
361.227203	145.560000
361.320709	145.220000
361.414154	145.780000
361.507660	145.960000
361.601105	146.180000
361.694641	146.720000
361.788086	146.920000
361.881592	147.260000
361.975067	146.720000
362.068542	147.080000
362.162018	146.820000
362.255524	146.620000
362.348999	146.400000
362.442474	146.680000
362.535950	145.920000
362.629456	145.600000
362.722931	145.440000
362.816406	145.620000
362.909882	145.960000
363.003387	145.760000
363.096863	145.920000
363.190338	146.040000
363.283875	145.640000
363.377319	145.280000
363.470825	146.280000
363.564301	146.140000
363.657806	146.440000
363.751282	146.180000
363.844788	147.140000
363.938232	146.400000
364.031769	146.720000
364.125214	146.980000
364.218750	147.540000
364.312225	146.080000
364.405731	146.380000
364.499207	145.880000
364.592712	145.580000
364.686188	145.320000
364.779694	145.940000
364.873169	145.840000
364.966675	145.780000
365.060150	145.780000
365.153656	146.360000
365.247131	146.120000
365.340637	146.480000
365.434143	147.300000
365.527618	147.320000
365.621155	146.360000
365.714600	146.600000
365.808136	146.520000
365.901611	145.260000
365.995117	145.120000
366.088593	144.940000
366.182129	144.840000
366.275604	144.680000
366.369110	145.160000
366.462585	145.300000
366.556122	146.500000
366.649567	146.400000
366.743103	146.680000
366.836609	146.740000
366.930115	147.060000
367.023590	146.800000
367.117096	146.760000
367.210602	146.520000
367.304108	147.200000
367.397614	147.300000
367.491119	147.400000
367.584595	147.620000
367.678101	147.960000
367.771606	147.420000
367.865112	147.120000
367.958649	146.440000
368.052124	145.920000
368.145660	145.600000
368.239136	145.960000
368.332672	145.820000
368.426147	146.000000
368.519684	146.080000
368.613159	146.300000
368.706696	145.840000
368.800171	146.080000
368.893707	145.940000
368.987183	146.140000
369.080719	146.120000
369.174225	145.680000
369.267731	145.580000
369.361237	145.960000
369.454742	145.940000
369.548248	146.100000
369.641754	146.480000
369.735260	146.480000
369.828766	145.480000
369.922272	146.020000
370.015808	145.380000
370.109314	145.120000
370.202820	145.080000
370.296356	146.320000
370.389832	145.880000
370.483368	145.840000
370.576874	146.080000
370.670410	146.240000
370.763885	145.220000
370.857422	145.280000
370.950928	145.120000
371.044464	145.640000
371.137939	145.620000
371.231476	146.500000
371.324982	147.040000
371.418518	147.480000
371.512024	147.160000
371.605560	146.860000
371.699066	146.660000
371.792572	146.080000
371.886108	146.480000
371.979614	146.060000
372.073120	146.520000
372.166656	146.640000
372.260162	146.820000
372.353668	146.260000
372.447205	146.580000
372.540710	146.100000
372.634277	145.800000
372.727753	145.700000
372.821320	145.920000
372.914795	145.860000
373.008362	146.120000
373.101837	146.040000
373.195404	145.900000
373.288879	145.740000
373.382446	146.280000
373.475922	146.220000
373.569489	146.720000
373.662964	147.020000
373.756531	147.300000
373.850037	147.280000
373.943573	147.140000
374.037109	146.400000
374.130615	146.640000
374.224152	146.680000
374.317657	146.360000
374.411194	147.260000
374.504730	147.300000
374.598236	146.800000
374.691772	146.540000
374.785309	146.420000
374.878815	145.000000
374.972351	145.460000
375.065887	145.480000
375.159454	145.980000
375.252930	145.880000
375.346497	146.600000
375.440002	146.900000
375.533569	147.060000
375.627045	146.180000
375.720612	146.140000
375.814117	146.380000
375.907684	145.740000
376.001160	145.080000
376.094727	145.340000
376.188232	145.980000
376.281799	145.660000
376.375336	145.880000
376.468872	146.840000
376.562408	146.800000
376.655914	146.240000
376.749451	146.240000
376.842987	146.460000
376.936523	145.980000
377.030060	145.820000
377.123596	146.200000
377.217133	146.060000
377.310669	145.760000
377.404205	146.180000
377.497772	146.740000
377.591278	146.400000
377.684845	147.120000
377.778351	147.240000
377.871918	146.900000
377.965424	146.120000
378.058990	145.960000
378.152496	145.460000
378.246063	145.680000
378.339569	145.700000
378.433136	146.060000
378.526642	146.100000
378.620209	145.980000
378.713745	145.580000
378.807312	145.900000
378.900848	146.120000
378.994385	146.560000
379.087921	146.140000
379.181458	146.360000
379.274994	145.800000
379.368530	145.600000
379.462097	145.720000
379.555634	146.480000
379.649170	145.840000
379.742706	146.040000
379.836273	146.300000
379.929810	145.760000
380.023376	145.120000
380.116882	145.280000
380.210449	145.000000
380.303986	144.500000
380.397552	144.180000
380.491058	144.560000
380.584656	144.560000
380.678162	145.020000
380.771729	145.200000
380.865265	146.140000
380.958832	145.980000
381.052368	146.300000
381.145935	146.540000
381.239471	147.160000
381.333008	146.960000
381.426575	147.200000
381.520111	147.420000
381.613647	147.580000
381.707214	147.000000
381.800751	146.180000
381.894318	146.060000
381.987854	145.540000
382.081421	145.060000
382.174988	145.320000
382.268524	145.600000
382.362091	145.680000
382.455627	146.340000
382.549194	146.160000
382.642731	145.520000
382.736298	145.420000
382.829834	145.240000
382.923401	145.580000
383.016937	146.160000
383.110504	146.780000
383.204041	147.040000
383.297607	147.360000
383.391174	146.540000
383.484741	146.620000
383.578278	146.220000
383.671844	145.840000
383.765411	145.120000
383.858948	145.740000
383.952515	145.300000
384.046051	145.740000
384.139618	146.500000
384.233185	147.060000
384.326721	146.480000
384.420288	146.900000
384.513855	146.620000
384.607422	146.600000
384.700989	146.460000
384.794525	146.460000
384.888123	146.280000
384.981659	146.420000
385.075226	145.940000
385.168762	145.760000
385.262360	145.660000
385.355896	145.100000
385.449463	145.260000
385.542999	145.360000
385.636597	145.960000
385.730164	146.200000
385.823730	146.080000
385.917267	145.520000
386.010834	145.660000
386.104401	145.780000
386.197968	146.140000
386.291534	146.480000
386.385101	146.940000
386.478668	147.360000
386.572235	146.700000
386.665802	146.060000
386.759338	145.820000
386.852905	145.480000
386.946472	144.860000
387.040070	145.540000
387.133606	145.700000
387.227203	145.880000
387.320740	146.320000
387.414337	146.260000
387.507874	145.560000
387.601471	145.760000
387.695007	145.540000
387.788605	145.100000
387.882141	145.440000
387.975739	145.780000
388.069275	145.580000
388.162872	146.140000
388.256439	146.320000
388.350037	145.820000
388.443604	145.620000
388.537170	145.580000
388.630737	145.740000
388.724304	146.060000
388.817871	146.160000
388.911438	146.320000
389.005005	146.680000
389.098602	146.740000
389.192169	146.180000
389.285736	146.780000
389.379333	146.940000
389.472870	146.060000
389.566467	145.640000
389.660034	145.760000
389.753632	145.220000
389.847168	145.440000
389.940765	145.940000
390.034332	146.060000
390.127930	146.040000
390.221466	145.940000
390.315063	145.320000
390.408630	144.640000
390.502228	144.000000
390.595795	144.040000
390.689362	144.500000
390.782959	144.940000
390.876526	145.720000
390.970093	145.900000
391.063690	146.500000
391.157257	146.220000
391.250824	146.300000
391.344421	146.120000
391.437988	146.440000
391.531555	146.200000
391.625153	146.560000
391.718750	146.420000
391.812317	146.480000
391.905914	146.240000
391.999481	146.120000
392.093079	146.020000
392.186615	146.220000
392.280243	146.320000
392.373779	146.380000
392.467407	146.640000
392.560944	146.220000
392.654572	145.600000
392.748108	145.300000
392.841736	145.340000
392.935303	145.040000
393.028900	145.180000
393.122467	145.740000
393.216064	145.480000
393.309631	145.080000
393.403229	144.660000
393.496796	144.700000
393.590393	143.860000
393.683990	144.440000
393.777557	145.260000
393.871155	145.560000
393.964722	145.860000
394.058350	146.460000
394.151917	146.320000
394.245514	145.560000
394.339081	146.340000
394.432678	146.520000
394.526245	146.120000
394.619873	145.860000
394.713409	146.180000
394.807037	145.400000
394.900604	145.200000
394.994202	145.660000
395.087769	145.960000
395.181396	145.560000
395.274994	146.040000
395.368561	145.500000
395.462158	145.740000
395.555756	145.580000
395.649353	146.120000
395.742920	145.820000
395.836517	146.720000
395.930115	145.780000
396.023712	146.100000
396.117279	146.520000
396.210876	146.040000
396.304474	145.720000
396.398071	146.320000
396.491669	146.180000
396.585266	145.520000
396.678833	145.920000
396.772461	145.780000
396.866028	145.620000
396.959656	146.100000
397.053223	146.540000
397.146851	146.440000
397.240417	146.800000
397.334015	147.740000
397.427582	147.840000
397.521210	148.340000
397.614807	149.360000
397.708405	150.480000
397.802002	151.260000
397.895599	153.220000
397.989197	155.040000
398.082794	157.200000
398.176392	159.680000
398.269989	162.640000
398.363586	165.240000
398.457184	169.140000
398.550781	173.040000
398.644379	176.160000
398.737976	179.700000
398.831573	183.780000
398.925201	186.080000
399.018768	187.840000
399.112396	190.220000
399.205963	191.380000
399.299591	191.180000
399.393158	190.600000
399.486786	189.580000
399.580353	187.680000
399.673981	185.840000
399.767578	184.860000
399.861206	184.640000
399.954773	185.860000
400.048401	186.440000
400.141998	186.560000
400.235596	186.740000
400.329193	186.160000
400.422791	185.160000
400.516418	184.240000
400.610016	184.500000
400.703613	184.160000
400.797211	183.020000
400.890808	181.320000
400.984436	179.820000
401.078033	177.160000
401.171631	174.040000
401.265259	171.880000
401.358826	169.420000
401.452484	166.980000
401.546051	165.060000
401.639679	162.820000
401.733246	160.960000
401.826904	159.180000
401.920471	156.940000
402.014099	155.280000
402.107697	153.840000
402.201324	152.520000
402.294891	151.460000
402.388550	151.040000
402.482147	150.280000
402.575745	149.360000
402.669373	148.600000
402.762970	147.720000
402.856567	147.160000
402.950195	146.760000
403.043793	146.740000
403.137390	147.040000
403.231018	146.440000
403.324615	146.720000
403.418243	146.060000
403.511841	146.320000
403.605469	145.840000
403.699066	146.540000
403.792694	146.500000
403.886292	146.780000
403.979919	146.480000
404.073517	146.200000
404.167145	146.320000
404.260712	146.060000
404.354370	145.980000
404.447937	146.220000
404.541595	146.340000
404.635162	146.280000
404.728821	146.720000
404.822418	146.580000
404.916046	146.140000
405.009644	146.540000
405.103271	146.760000
405.196899	146.380000
405.290497	146.500000
405.384125	146.820000
405.477722	146.300000
405.571350	145.800000
405.664948	145.940000
405.758575	145.700000
405.852203	145.460000
405.945801	145.660000
406.039429	145.780000
406.133057	145.460000
406.226654	145.360000
406.320312	145.280000
406.413879	145.380000
406.507538	145.460000
406.601135	145.240000
406.694763	145.700000
406.788361	145.800000
406.882019	145.280000
406.975586	145.480000
407.069244	146.420000
407.162872	146.180000
407.256470	145.980000
407.350098	146.400000
407.443726	146.180000
407.537323	145.480000
407.630951	145.900000
407.724579	145.740000
407.818207	146.180000
407.911804	146.060000
408.005432	145.900000
408.099060	146.060000
408.192688	146.300000
408.286285	145.820000
408.379913	145.740000
408.473572	146.000000
408.567169	145.120000
408.660828	145.200000
408.754395	145.240000
408.848053	145.300000
408.941650	145.520000
409.035309	145.560000
409.128906	145.680000
409.222565	145.880000
409.316132	146.020000
409.409790	145.340000
409.503387	145.520000
409.597046	145.640000
409.690674	145.760000
409.784302	146.040000
409.877930	146.320000
409.971558	146.620000
410.065186	146.380000
410.158783	145.960000
410.252411	145.480000
410.346039	145.800000
410.439667	145.660000
410.533295	145.720000
410.626923	146.260000
410.720551	145.980000
410.814209	146.040000
410.907806	146.140000
411.001465	145.720000
411.095062	145.320000
411.188721	145.780000
411.282318	145.520000
411.375977	145.000000
411.469574	145.540000
411.563232	145.380000
411.656830	145.280000
411.750488	145.560000
411.844086	145.660000
411.937744	145.580000
412.031372	145.740000
412.125000	145.760000
412.218628	145.320000
412.312256	146.220000
412.405884	146.580000
412.499512	146.340000
412.593170	146.480000
412.686798	146.620000
412.780426	146.040000
412.874054	146.060000
412.967682	146.540000
413.061310	146.980000
413.154968	147.200000
413.248566	147.200000
413.342224	146.880000
413.435852	146.880000
413.529510	146.460000
413.623108	146.000000
413.716766	146.300000
413.810364	146.500000
413.904022	146.020000
413.997650	145.760000
414.091309	146.380000
414.184906	145.980000
414.278564	145.620000
414.372192	146.100000
414.465851	146.440000
414.559479	145.880000
414.653107	146.760000
414.746735	146.740000
414.840393	146.580000
414.934021	146.560000
415.027649	146.380000
415.121277	145.740000
415.214935	146.200000
415.308563	146.300000
415.402191	145.800000
415.495850	145.880000
415.589478	145.700000
415.683136	145.200000
415.776733	145.460000
415.870422	146.080000
415.964020	145.760000
416.057678	146.100000
416.151306	146.280000
416.244965	145.940000
416.338562	145.700000
416.432251	146.700000
416.525848	147.060000
416.619507	147.000000
416.713165	147.180000
416.806793	146.980000
416.900421	146.960000
416.994080	146.400000
417.087708	146.720000
417.181366	146.260000
417.274994	146.200000
417.368622	146.360000
417.462280	146.660000
417.555908	146.220000
417.649567	146.220000
417.743195	146.560000
417.836853	146.100000
417.930481	146.100000
418.024170	146.280000
418.117767	146.920000
418.211426	147.040000
418.305054	147.480000
418.398712	146.720000
418.492340	146.980000
418.585999	146.820000
418.679626	146.580000
418.773285	146.200000
418.866913	146.860000
418.960571	146.800000
419.054230	146.940000
419.147858	146.960000
419.241516	147.260000
419.335144	146.920000
419.428802	146.760000
419.522461	146.220000
419.616089	146.220000
419.709747	146.120000
419.803375	146.340000
419.897034	146.340000
419.990662	146.620000
420.084320	147.000000
420.177979	147.320000
420.271606	147.400000
420.365295	147.700000
420.458893	147.980000
420.552582	147.980000
420.646210	147.700000
420.739868	147.620000
420.833496	147.340000
420.927155	146.740000
421.020782	146.560000
421.114471	145.800000
421.208069	145.820000
421.301758	146.220000
421.395386	146.340000
421.489044	145.980000
421.582703	146.480000
421.676361	146.920000
421.769989	146.280000
421.863647	146.920000
421.957306	147.100000
422.050934	147.080000
422.144592	146.720000
422.238251	146.620000
422.331909	145.760000
422.425537	145.600000
422.519196	145.700000
422.612854	145.300000
422.706543	145.300000
422.800140	145.940000
422.893829	145.760000
422.987457	145.420000
423.081146	145.580000
423.174744	146.060000
423.268433	145.680000
423.362061	145.720000
423.455750	145.820000
423.549347	145.960000
423.643036	145.200000
423.736664	145.560000
423.830353	145.400000
423.924011	145.780000
424.017639	145.260000
424.111298	145.560000
424.204956	145.240000
424.298615	145.380000
424.392273	145.120000
424.485931	145.580000
424.579559	145.780000
424.673218	145.780000
424.766876	146.060000
424.860535	145.760000
424.954193	145.680000
425.047882	145.980000
425.141510	145.940000
425.235199	146.160000
425.328796	145.920000
425.422485	145.560000
425.516113	144.980000
425.609802	145.160000
425.703430	144.880000
425.797119	144.880000
425.890747	145.100000
425.984436	145.120000
426.078064	145.020000
426.171753	144.920000
426.265411	145.080000
426.359070	145.160000
426.452728	145.140000
426.546356	145.000000
426.640015	145.100000
426.733673	145.300000
426.827332	145.000000
426.920990	145.960000
427.014648	145.640000
427.108307	145.600000
427.201965	146.140000
427.295624	146.700000
427.389282	145.720000
427.482941	146.320000
427.576630	146.660000
427.670258	145.720000
427.763947	145.580000
427.857574	145.800000
427.951263	145.540000
428.044922	145.060000
428.138611	145.440000
428.232239	145.740000
428.325928	146.320000
428.419556	146.820000
428.513245	146.700000
428.606903	147.100000
428.700562	146.220000
428.794220	145.360000
428.887878	144.800000
428.981537	145.180000
429.075195	144.800000
429.168854	145.700000
429.262512	145.920000
429.356201	146.260000
429.449860	146.080000
429.543518	146.300000
429.637177	146.320000
429.730835	146.460000
429.824493	145.900000
429.918182	145.960000
430.011810	145.700000
430.105530	144.860000
430.199158	145.060000
430.292847	145.340000
430.386475	145.300000
430.480164	145.000000
430.573792	145.180000
430.667511	144.780000
430.761139	144.840000
430.854828	145.720000
430.948456	146.020000
431.042145	146.460000
431.135834	146.560000
431.229492	146.740000
431.323151	146.080000
431.416809	146.160000
431.510468	145.880000
431.604156	145.820000
431.697815	145.540000
431.791473	145.180000
431.885132	144.620000
431.978821	144.760000
432.072479	145.040000
432.166138	145.600000
432.259827	145.720000
432.353485	146.420000
432.447174	146.540000
432.540802	146.340000
432.634491	146.120000
432.728149	146.340000
432.821838	146.620000
432.915466	146.280000
433.009186	146.220000
433.102814	145.540000
433.196503	145.460000
433.290131	145.120000
433.383850	145.360000
433.477509	145.580000
433.571167	146.660000
433.664856	146.780000
433.758514	147.320000
433.852173	147.160000
433.945862	147.080000
434.039520	146.760000
434.133179	146.240000
434.226868	145.660000
434.320526	145.300000
434.414185	145.840000
434.507874	145.400000
434.601562	145.800000
434.695221	146.000000
434.788910	146.540000
434.882538	146.140000
434.976257	145.780000
435.069885	145.740000
435.163574	145.380000
435.257233	144.740000
435.350922	144.800000
435.444580	144.820000
435.538269	144.740000
435.631897	145.160000
435.725616	146.140000
435.819275	146.380000
435.912964	147.160000
436.006622	147.560000
436.100311	147.460000
436.193970	146.560000
436.287628	146.220000
436.381317	145.660000
436.474976	145.080000
436.568665	144.560000
436.662323	145.300000
436.756012	145.360000
436.849670	145.460000
436.943390	145.840000
437.037018	146.300000
437.130737	146.240000
437.224365	145.820000
437.318085	145.880000
437.411713	145.940000
437.505432	146.140000
437.599060	146.180000
437.692780	146.880000
437.786407	147.020000
437.880127	147.040000
437.973755	146.540000
438.067474	145.920000
438.161133	145.960000
438.254822	146.340000
438.348480	146.040000
438.442169	147.020000
438.535828	147.660000
438.629517	147.120000
438.723175	146.800000
438.816864	147.360000
438.910553	146.320000
439.004211	146.280000
439.097900	146.220000
439.191559	146.060000
439.285248	145.220000
439.378906	145.640000
439.472626	145.000000
439.566284	145.200000
439.659973	145.620000
439.753632	145.620000
439.847321	145.920000
439.940979	146.480000
440.034698	146.300000
440.128326	145.380000
440.222046	145.740000
440.315674	145.040000
440.409393	144.960000
440.503082	144.900000
440.596741	145.440000
440.690430	145.560000
440.784088	145.680000
440.877777	145.140000
440.971466	145.260000
441.065125	145.180000
441.158813	144.760000
441.252502	144.860000
441.346161	145.340000
441.439850	145.400000
441.533539	145.380000
441.627197	145.820000
441.720886	145.600000
441.814606	145.920000
441.908234	146.300000
442.001953	146.280000
442.095612	146.020000
442.189301	146.260000
442.282959	146.020000
442.376678	145.300000
442.470306	145.940000
442.564026	145.780000
442.657684	146.100000
442.751404	146.360000
442.845032	147.660000
442.938751	146.740000
443.032440	146.960000
443.126099	146.280000
443.219788	146.540000
443.313477	145.760000
443.407166	146.260000
443.500824	146.220000
443.594513	146.680000
443.688202	146.300000
443.781891	145.920000
443.875549	145.620000
443.969238	145.860000
444.062927	145.900000
444.156647	145.700000
444.250275	146.060000
444.343994	146.340000
444.437653	146.260000
444.531372	146.200000
444.625031	146.300000
444.718719	145.780000
444.812378	145.680000
444.906097	145.540000
444.999756	145.040000
445.093445	145.080000
445.187103	145.300000
445.280823	146.080000
445.374512	145.680000
445.468201	146.140000
445.561859	145.960000
445.655548	146.220000
445.749237	145.340000
445.842926	145.560000
445.936615	146.020000
446.030304	146.000000
446.123962	146.360000
446.217651	146.300000
446.311340	146.680000
446.405029	146.000000
446.498749	145.700000
446.592407	145.020000
446.686096	145.020000
446.779755	144.900000
446.873474	145.380000
446.967133	145.820000
447.060852	145.760000
447.154510	145.860000
447.248230	145.720000
447.341858	145.320000
447.435577	144.820000
447.529236	144.680000
447.622955	144.620000
447.716644	144.920000
447.810333	145.200000
447.904022	146.060000
447.997711	146.120000
448.091400	146.420000
448.185059	146.160000
448.278748	146.300000
448.372437	145.540000
448.466125	145.880000
448.559814	145.580000
448.653503	146.240000
448.747192	146.300000
448.840912	146.840000
448.934570	146.940000
449.028290	147.580000
449.121948	147.020000
449.215637	146.440000
449.309296	145.980000
449.403015	145.780000
449.496674	145.320000
449.590393	145.000000
449.684052	145.080000
449.777771	145.740000
449.871429	145.180000
449.965149	145.100000
450.058838	145.540000
450.152527	146.060000
450.246216	145.900000
450.339905	146.480000
450.433594	146.180000
450.527283	146.660000
450.620972	146.260000
450.714661	146.320000
450.808350	146.480000
450.902039	146.980000
450.995728	146.340000
451.089417	146.260000
451.183105	146.180000
451.276794	146.440000
451.370514	146.000000
451.464172	145.540000
451.557892	145.580000
451.651550	145.960000
451.745270	145.400000
451.838928	145.020000
451.932648	145.480000
452.026306	145.920000
452.120026	145.160000
452.213684	145.620000
452.307404	146.240000
452.401062	146.560000
452.494781	146.720000
452.588470	146.880000
452.682159	146.560000
452.775848	146.740000
452.869537	146.020000
452.963226	145.380000
453.056915	145.280000
453.150604	145.360000
453.244293	145.380000
453.337982	146.380000
453.431671	146.840000
453.525360	147.680000
453.619049	147.560000
453.712769	147.400000
453.806427	146.800000
453.900146	146.300000
453.993805	145.740000
454.087555	146.320000
454.181213	146.620000
454.274933	146.380000
454.368591	146.600000
454.462311	146.480000
454.555969	145.660000
454.649689	146.040000
454.743347	146.140000
454.837067	146.760000
454.930756	147.060000
455.024445	147.460000
455.118134	146.900000
455.211853	147.080000
455.305542	146.500000
455.399231	146.280000
455.492920	146.220000
455.586609	146.200000
455.680298	146.420000
455.773987	146.080000
455.867676	146.180000
455.961365	146.300000
456.055084	146.080000
456.148773	145.880000
456.242493	146.200000
456.336151	146.060000
456.429871	146.320000
456.523529	146.660000
456.617249	146.200000
456.710907	146.600000
456.804626	146.540000
456.898315	145.920000
456.992035	146.000000
457.085693	145.880000
457.179413	145.180000
457.273102	145.900000
457.366791	146.320000
457.460480	146.280000
457.554199	147.340000
457.647888	147.460000
457.741577	146.660000
457.835266	146.460000
457.928955	146.400000
458.022644	145.800000
458.116364	146.160000
458.210052	146.300000
458.303741	146.540000
458.397461	146.160000
458.491119	146.000000
458.584839	145.960000
458.678528	145.680000
458.772247	145.240000
458.865906	145.640000
458.959625	146.700000
459.053284	146.440000
459.147003	146.360000
459.240692	146.940000
459.334412	146.780000
459.428070	145.840000
459.521790	146.020000
459.615479	146.120000
459.709198	146.460000
459.802887	145.980000
459.896576	145.880000
459.990265	145.720000
460.083954	146.080000
460.177673	145.180000
460.271362	145.280000
460.365051	145.540000
460.458740	145.380000
460.552429	144.840000
460.646149	144.900000
460.739838	144.780000
460.833527	144.680000
460.927246	144.860000
461.020905	145.060000
461.114655	145.280000
461.208313	145.720000
461.302032	145.260000
461.395691	145.320000
461.489441	145.460000
461.583099	145.020000
461.676819	144.820000
461.770477	145.620000
461.864197	145.400000
461.957916	145.120000
462.051605	145.040000
462.145294	145.860000
462.238983	145.120000
462.332703	145.680000
462.426392	146.400000
462.520081	146.720000
462.613770	146.240000
462.707489	146.620000
462.801178	146.160000
462.894867	146.000000
462.988556	145.780000
463.082275	145.840000
463.175964	145.780000
463.269684	145.980000
463.363342	145.740000
463.457092	145.640000
463.550751	145.780000
463.644470	145.920000
463.738129	145.920000
463.831879	146.080000
463.925537	146.960000
464.019257	146.960000
464.112946	147.020000
464.206665	146.720000
464.300323	146.340000
464.394043	145.780000
464.487762	145.240000
464.581451	145.600000
464.675140	145.640000
464.768829	146.000000
464.862549	146.360000
464.956238	146.680000
465.049927	146.260000
465.143646	146.320000
465.237335	145.780000
465.331024	145.700000
465.424713	146.020000
465.518433	146.160000
465.612152	145.920000
465.705811	146.260000
465.799561	146.020000
465.893219	145.660000
465.986938	145.380000
466.080597	145.280000
466.174347	145.480000
466.268005	145.600000
466.361725	145.240000
466.455414	145.280000
466.549133	145.300000
466.642792	145.380000
466.736542	145.180000
466.830231	145.640000
466.923920	145.880000
467.017609	146.120000
467.111328	145.580000
467.205017	145.720000
467.298706	145.680000
467.392426	145.880000
467.486115	146.020000
467.579803	146.140000
467.673523	146.600000
467.767212	146.640000
467.860901	146.300000
467.954651	146.540000
468.048309	146.800000
468.142029	146.360000
468.235718	146.480000
468.329437	146.320000
468.423096	146.040000
468.516846	145.800000
468.610504	145.640000
468.704224	145.040000
468.797913	144.900000
468.891632	144.740000
468.985291	144.920000
469.079010	145.120000
469.172729	144.980000
469.266418	145.500000
469.360107	145.760000
469.453827	145.380000
469.547516	145.280000
469.641205	146.000000
469.734924	146.080000
469.828613	146.460000
469.922302	146.900000
470.016022	146.900000
470.109711	146.620000
470.203430	146.160000
470.297150	145.400000
470.390808	145.540000
470.484558	145.300000
470.578217	145.500000
470.671936	145.960000
470.765625	146.580000
470.859344	146.160000
470.953003	146.260000
471.046753	146.000000
471.140411	145.240000
471.234131	145.040000
471.327820	145.660000
471.421539	146.060000
471.515228	145.760000
471.608948	146.120000
471.702637	145.920000
471.796326	145.440000
471.890045	145.500000
471.983734	145.600000
472.077423	145.340000
472.171143	145.240000
472.264832	145.200000
472.358521	144.800000
472.452240	144.680000
472.545929	145.420000
472.639648	145.820000
472.733337	146.320000
472.827057	146.800000
472.920746	147.020000
473.014465	147.120000
473.108124	147.120000
473.201874	146.920000
473.295532	146.320000
473.389252	146.880000
473.482941	146.680000
473.576660	146.420000
473.670319	145.960000
473.764069	146.460000
473.857727	146.160000
473.951477	146.220000
474.045166	146.580000
474.138855	146.660000
474.232574	146.420000
474.326263	146.360000
474.419952	146.320000
474.513672	146.360000
474.607361	146.460000
474.701050	146.460000
474.794769	146.860000
474.888458	146.940000
474.982178	146.900000
475.075867	146.880000
475.169586	147.040000
475.263275	146.860000
475.356995	146.620000
475.450653	146.260000
475.544403	146.060000
475.638062	146.560000
475.731812	146.120000
475.825470	146.240000
475.919189	146.620000
476.012878	146.960000
476.106598	146.280000
476.200256	146.500000
476.294006	146.260000
476.387695	146.120000
476.481384	145.660000
476.575104	145.940000
476.668793	145.740000
476.762512	145.560000
476.856201	145.840000
476.949890	146.100000
477.043610	145.540000
477.137299	145.720000
477.230988	145.940000
477.324707	145.540000
477.418396	145.880000
477.512146	145.900000
477.605804	145.700000
477.699524	145.680000
477.793213	145.600000
477.886932	145.540000
477.980591	145.460000
478.074341	145.360000
478.167999	145.080000
478.261749	145.220000
478.355408	144.960000
478.449127	145.360000
478.542816	146.280000
478.636536	147.080000
478.730225	147.200000
478.823944	147.440000
478.917633	147.420000
479.011322	147.140000
479.105042	147.000000
479.198730	147.280000
479.292450	147.120000
479.386139	147.180000
479.479828	147.460000
479.573547	147.280000
479.667267	146.800000
479.760925	146.940000
479.854675	147.200000
479.948334	146.840000
480.042084	146.520000
480.135742	146.640000
480.229462	145.920000
480.323151	145.700000
480.416870	145.140000
480.510529	145.040000
480.604279	144.920000
480.697937	145.880000
480.791656	145.480000
480.885345	145.500000
480.979065	145.660000
481.072754	146.260000
481.166473	146.380000
481.260132	146.440000
481.353882	146.380000
481.447540	146.320000
481.541260	145.940000
481.635010	145.260000
481.728668	145.460000
481.822388	145.640000
481.916077	145.700000
482.009796	145.340000
482.103485	145.720000
482.197205	145.640000
482.290863	146.020000
482.384613	145.840000
482.478271	145.820000
482.571991	145.860000
482.665680	145.860000
482.759399	146.180000
482.853058	146.800000
482.946808	146.860000
483.040466	146.660000
483.134216	146.740000
483.227875	146.080000
483.321594	146.180000
483.415283	146.360000
483.509003	146.200000
483.602661	146.140000
483.696411	146.680000
483.790070	146.400000
483.883789	146.200000
483.977478	146.460000
484.071198	146.380000
484.164917	145.680000
484.258606	145.160000
484.352325	145.660000
484.445984	145.580000
484.539734	145.760000
484.633392	145.540000
484.727142	146.200000
484.820801	145.720000
484.914520	145.780000
485.008209	146.240000
485.101929	146.800000
485.195587	146.440000
485.289337	146.560000
485.382996	146.540000
485.476715	146.300000
485.570404	146.980000
485.664124	146.940000
485.757782	147.460000
485.851532	147.080000
485.945190	146.800000
486.038910	146.260000
486.132599	146.640000
486.226318	145.980000
486.319977	146.000000
486.413727	146.380000
486.507446	145.980000
486.601105	145.060000
486.694855	144.640000
486.788513	144.720000
486.882233	144.400000
486.975922	144.560000
487.069641	145.020000
487.163300	144.980000
487.257050	146.080000
487.350708	145.960000
487.444427	145.720000
487.538116	145.700000
487.631836	145.860000
487.725494	145.160000
487.819214	145.060000
487.912903	145.260000
488.006622	145.940000
488.100281	146.180000
488.194031	146.140000
488.287689	146.700000
488.381409	147.100000
488.475098	146.420000
488.568817	146.480000
488.662476	146.180000
488.756226	145.500000
488.849945	144.720000
488.943604	144.940000
489.037354	145.220000
489.131012	145.240000
489.224731	145.340000
489.318390	145.600000
489.412140	145.480000
489.505798	145.380000
489.599518	145.260000
489.693207	145.480000
489.786926	145.340000
489.880585	145.440000
489.974335	145.300000
490.067993	146.500000
490.161713	146.820000
490.255371	147.680000
490.349121	147.820000
490.442780	148.020000
490.536499	147.020000
490.630188	146.940000
490.723907	146.280000
490.817566	146.240000
490.911285	145.920000
491.004974	145.760000
491.098694	145.340000
491.192413	145.760000
491.286102	145.740000
491.379822	145.940000
491.473480	146.360000
491.567200	146.640000
491.660889	146.120000
491.754608	145.880000
491.848267	145.800000
491.941986	145.420000
492.035675	145.220000
492.129395	145.640000
492.223053	145.660000
492.316772	145.860000
492.410461	145.960000
492.504181	146.040000
492.597839	145.560000
492.691559	145.860000
492.785248	145.780000
492.878967	146.260000
492.972626	146.260000
493.066345	146.340000
493.160034	145.740000
493.253754	145.740000
493.347412	144.800000
493.441132	144.620000
493.534882	145.240000
493.628540	145.920000
493.722260	146.380000
493.815918	147.100000
493.909668	147.900000
494.003326	148.080000
494.097046	147.660000
494.190704	146.880000
494.284454	146.760000
494.378113	146.400000
494.471832	145.860000
494.565491	145.820000
494.659210	146.480000
494.752899	146.420000
494.846619	146.220000
494.940277	146.540000
495.033997	146.600000
495.127686	145.840000
495.221405	145.800000
495.315063	145.740000
495.408783	145.400000
495.502441	145.700000
495.596191	146.200000
495.689850	145.900000
495.783569	146.280000
495.877228	146.480000
495.970947	146.180000
496.064697	146.100000
496.158356	147.080000
496.252075	146.740000
496.345734	146.580000
496.439453	147.200000
496.533142	147.160000
496.626862	147.320000
496.720520	147.560000
496.814240	147.860000
496.907898	147.520000
497.001617	147.680000
497.095306	146.460000
497.189026	146.280000
497.282684	146.280000
497.376404	146.340000
497.470062	145.800000
497.563782	146.360000
497.657471	146.620000
497.751190	146.000000
497.844849	145.980000
497.938568	146.600000
498.032227	146.540000
498.125946	145.980000
498.219635	145.940000
498.313354	146.080000
498.407074	145.960000
498.500732	146.100000
498.594452	146.580000
498.688110	146.760000
498.781830	146.140000
498.875519	145.960000
498.969238	145.460000
499.062897	145.020000
499.156616	145.180000
499.250275	145.520000
499.343994	145.200000
499.437653	145.560000
499.531372	146.160000
499.625061	146.800000
499.718781	146.740000
499.812439	147.140000
499.906158	146.800000
499.999817	146.100000
500.093536	145.200000
500.187195	145.480000
500.280914	145.600000
500.374573	145.960000
500.468323	145.900000
500.561981	146.400000
500.655701	145.640000
500.749420	145.720000
500.843079	145.740000
500.936798	146.180000
501.030457	146.540000
501.124176	147.060000
501.217834	146.940000
501.311554	146.660000
501.405212	146.540000
501.498962	145.740000
501.592621	145.740000
501.686340	145.900000
501.779999	146.020000
501.873718	146.180000
501.967377	146.680000
502.061096	146.860000
502.154755	145.820000
502.248474	146.080000
502.342133	145.900000
502.435852	145.400000
502.529510	145.820000
502.623230	147.180000
502.716888	146.540000
502.810608	146.700000
502.904266	147.140000
502.997986	146.640000
503.091705	145.660000
503.185364	145.860000
503.279083	145.460000
503.372772	145.280000
503.466492	144.760000
503.560150	144.940000
503.653870	145.240000
503.747528	145.480000
503.841248	145.480000
503.934906	145.940000
504.028625	145.780000
504.122284	145.960000
504.216003	146.900000
504.309662	146.760000
504.403381	146.840000
504.497040	147.060000
504.590759	146.320000
504.684418	145.760000
504.778137	146.160000
504.871796	146.460000
504.965515	146.160000
505.059174	146.700000
505.152893	146.180000
505.246521	145.520000
505.340240	145.080000
505.433899	145.320000
505.527618	145.400000
505.621338	145.760000
505.714996	145.860000
505.808716	145.900000
505.902374	146.580000
505.996094	146.640000
506.089752	146.620000
506.183472	146.860000
506.277130	147.060000
506.370850	146.400000
506.464508	145.920000
506.558228	145.680000
506.651886	145.120000
506.745605	145.220000
506.839264	145.340000
506.932983	145.620000
507.026611	145.840000
507.120331	146.520000
507.213989	145.800000
507.307709	145.860000
507.401367	146.300000
507.495087	147.180000
507.588745	146.900000
507.682465	147.820000
507.776123	147.840000
507.869843	147.500000
507.963531	146.620000
508.057190	147.160000
508.150909	146.380000
508.244568	146.540000
508.338287	146.320000
508.431946	146.180000
508.525665	145.460000
508.619324	145.420000
508.713013	145.500000
508.806671	145.740000
508.900391	146.540000
508.994049	146.840000
509.087769	146.700000
509.181427	146.440000
509.275146	146.180000
509.368774	145.040000
509.462494	144.900000
509.556152	145.280000
509.649872	145.820000
509.743530	145.900000
509.837250	146.300000
509.930878	146.380000
510.024597	145.960000
510.118256	145.300000
510.211975	145.080000
510.305695	144.980000
510.399353	145.180000
510.493042	146.040000
510.586700	146.380000
510.680420	146.960000
510.774078	146.640000
510.867798	146.780000
510.961426	145.880000
511.055145	145.600000
511.148804	145.400000
511.242523	145.920000
511.336151	145.740000
511.429871	146.480000
511.523529	146.380000
511.617249	146.100000
511.710876	145.760000
511.804596	145.440000
511.898254	145.040000
511.991974	145.320000
512.085632	145.120000
512.179321	145.460000
512.272949	145.960000
512.366699	146.440000
512.460327	146.080000
512.554077	147.160000
512.647766	146.900000
512.741394	146.600000
512.835144	146.760000
512.928772	146.880000
513.022461	146.340000
513.116150	146.180000
513.209839	146.740000
513.303467	146.020000
513.397217	145.680000
513.490845	145.640000
513.584595	145.880000
513.678223	145.180000
513.771912	144.880000
513.865601	145.020000
513.959290	144.680000
514.052917	144.620000
514.146667	145.240000
514.240295	145.720000
514.333984	146.320000
514.427673	145.940000
514.521362	146.260000
514.614990	145.640000
514.708740	145.720000
514.802368	145.520000
514.896057	145.940000
514.989746	146.540000
515.083435	146.620000
515.177124	146.820000
515.270752	146.680000
515.364502	147.000000
515.458130	146.780000
515.551819	146.580000
515.645508	146.320000
515.739197	146.400000
515.832825	146.080000
515.926575	145.380000
516.020203	146.040000
516.113892	146.380000
516.207520	146.240000
516.301270	146.340000
516.394897	146.580000
516.488586	146.920000
516.582275	146.740000
516.675964	146.500000
516.769592	146.340000
516.863281	146.900000
516.956970	146.600000
517.050659	146.600000
517.144287	146.680000
517.238037	146.900000
517.331665	145.780000
517.425354	145.380000
517.519043	144.940000
517.612732	145.320000
517.706421	145.060000
517.800049	145.240000
517.893738	145.200000
517.987427	145.480000
518.081116	145.100000
518.174744	144.820000
518.268433	145.360000
518.362122	146.040000
518.455811	145.820000
518.549438	146.620000
518.643127	147.800000
518.736816	147.460000
518.830505	146.560000
518.924133	146.500000
519.017822	146.340000
519.111511	145.900000
519.205200	146.480000
519.298828	146.760000
519.392517	146.800000
519.486206	146.860000
519.579895	146.960000
519.673523	146.580000
519.767212	146.280000
519.860901	146.640000
519.954590	146.360000
520.048279	145.740000
520.141907	145.420000
520.235596	146.420000
520.329224	146.620000
520.422974	146.320000
520.516602	146.560000
520.610291	146.260000
520.703918	146.180000
520.797607	145.860000
520.891296	145.780000
520.984985	145.660000
521.078613	146.520000
521.172302	145.820000
521.265930	146.360000
521.359680	147.160000
521.453308	147.380000
521.546997	146.940000
521.640625	147.320000
521.734314	146.660000
521.827942	146.340000
521.921692	146.780000
522.015320	147.040000
522.109009	146.420000
522.202698	146.560000
522.296326	146.360000
522.390015	146.140000
522.483704	146.100000
522.577393	146.100000
522.671021	146.000000
522.764709	145.600000
522.858337	145.840000
522.952026	145.780000
523.045654	146.380000
523.139404	147.000000
523.233032	147.200000
523.326721	146.840000
523.420349	146.900000
523.514038	146.400000
523.607666	146.340000
523.701355	146.080000
523.795044	145.740000
523.888733	145.840000
523.982361	146.380000
524.076050	145.740000
524.169678	146.700000
524.263367	146.540000
524.356995	146.080000
524.450684	145.620000
524.544373	145.540000
524.638062	145.220000
524.731750	145.760000
524.825378	145.960000
524.919067	145.500000
525.012695	145.760000
525.106384	145.140000
525.200012	145.300000
525.293701	145.060000
525.387329	145.660000
525.481018	146.000000
525.574646	146.680000
525.668396	146.540000
525.762024	146.860000
525.855713	147.180000
525.949341	146.480000
526.043030	146.060000
526.136658	145.560000
526.230347	145.460000
526.323975	144.820000
526.417664	144.800000
526.511292	144.920000
526.604980	145.080000
526.698608	145.020000
526.792297	145.220000
526.885925	145.460000
526.979614	145.900000
527.073303	145.840000
527.166931	145.840000
527.260620	146.280000
527.354309	146.500000
527.447998	146.220000
527.541626	146.380000
527.635315	146.420000
527.728943	146.740000
527.822632	146.760000
527.916260	146.660000
528.009949	147.120000
528.103577	147.000000
528.197266	146.280000
528.290894	146.340000
528.384583	146.260000
528.478210	145.720000
528.571899	146.200000
528.665527	146.560000
528.759216	146.360000
528.852844	146.800000
528.946533	146.700000
529.040161	146.340000
529.133850	145.780000
529.227478	146.280000
529.321167	146.100000
529.414856	146.640000
529.508484	147.180000
529.602173	147.080000
529.695801	146.620000
529.789490	146.520000
529.883057	145.860000
529.976746	145.760000
530.070374	146.240000
530.164062	146.200000
530.257690	146.340000
530.351379	147.060000
530.445007	146.780000
530.538696	146.300000
530.632324	146.640000
530.726013	146.260000
530.819641	145.960000
530.913330	146.300000
531.006958	146.540000
531.100647	146.560000
531.194275	146.760000
531.287964	146.480000
531.381592	145.920000
531.475220	146.180000
531.568848	145.580000
531.662537	145.520000
531.756226	145.940000
531.849854	146.100000
531.943542	145.780000
532.037170	145.420000
532.130859	145.500000
532.224487	145.200000
532.318176	144.760000
532.411804	145.220000
532.505432	145.920000
532.599060	145.680000
532.692749	145.420000
532.786377	145.900000
532.880066	145.340000
532.973694	144.920000
533.067383	144.900000
533.161011	145.220000
533.254639	144.980000
533.348267	144.940000
533.441956	145.540000
533.535583	145.840000
533.629272	145.880000
533.722900	145.640000
533.816589	145.780000
533.910156	145.820000
534.003845	145.440000
534.097534	145.860000
534.191162	146.760000
534.284851	146.920000
534.378479	146.640000
534.472107	146.820000
534.565735	146.480000
534.659424	146.260000
534.753052	146.280000
534.846741	146.060000
534.940369	146.520000
535.033997	146.340000
535.127625	146.320000
535.221313	146.900000
535.314941	146.900000
535.408630	146.360000
535.502197	146.580000
535.595886	146.160000
535.689514	145.620000
535.783203	146.160000
535.876831	146.540000
535.970459	146.660000
536.064087	146.440000
536.157776	146.500000
536.251404	146.320000
536.345093	146.000000
536.438721	145.780000
536.532349	146.220000
536.626038	146.140000
536.719666	146.520000
536.813293	146.520000
536.906921	146.360000
537.000610	146.440000
537.094238	146.340000
537.187866	145.880000
537.281494	145.780000
537.375183	145.980000
537.468811	145.600000
537.562439	145.600000
537.656067	145.720000
537.749756	145.800000
537.843384	146.400000
537.937012	147.020000
538.030640	146.980000
538.124329	147.000000
538.217896	147.480000
538.311584	146.740000
538.405212	146.460000
538.498901	146.760000
538.592468	147.000000
538.686157	146.300000
538.779785	146.220000
538.873413	145.940000
538.967102	145.360000
539.060730	144.940000
539.154358	145.260000
539.247986	145.680000
539.341675	145.820000
539.435242	146.560000
539.528931	146.580000
539.622559	146.300000
539.716187	146.920000
539.809814	146.820000
539.903503	146.480000
539.997070	146.360000
540.090759	146.600000
540.184387	145.720000
540.278015	146.220000
540.371643	146.360000
540.465332	146.440000
540.558899	146.260000
540.652588	146.440000
540.746216	145.920000
540.839844	146.140000
540.933472	145.980000
541.027100	146.260000
541.120728	146.700000
541.214417	147.100000
541.308044	147.080000
541.401672	146.880000
541.495300	146.540000
541.588928	146.160000
541.682617	145.760000
541.776184	145.160000
541.869873	145.740000
541.963440	146.100000
542.057129	145.800000
542.150757	146.140000
542.244385	146.000000
542.338013	145.420000
542.431641	145.360000
542.525269	145.460000
542.618958	145.860000
542.712524	146.460000
542.806213	146.420000
542.899780	146.280000
542.993469	146.160000
543.087036	145.640000
543.180725	144.900000
543.274292	145.600000
543.367981	145.940000
543.461548	146.180000
543.555237	146.000000
543.648926	146.600000
543.742493	146.920000
543.836182	146.600000
543.929749	146.520000
544.023437	146.760000
544.117004	146.940000
544.210693	146.760000
544.304260	146.720000
544.397949	146.340000
544.491516	146.620000
544.585205	146.400000
544.678772	145.780000
544.772461	146.400000
544.866028	146.560000
544.959717	146.220000
545.053284	145.760000
545.146973	146.120000
545.240540	145.760000
545.334229	146.460000
545.427795	146.820000
545.521423	147.340000
545.615051	147.220000
545.708679	147.640000
545.802307	147.060000
545.895935	146.840000
545.989624	147.460000
546.083191	147.260000
546.176880	146.940000
546.270447	146.860000
546.364136	147.440000
546.457703	146.820000
546.551331	146.940000
546.644958	147.040000
546.738586	147.240000
546.832214	146.620000
546.925842	146.580000
547.019409	146.720000
547.113098	146.280000
547.206665	146.040000
547.300354	146.020000
547.393921	146.040000
547.487549	146.480000
547.581177	146.460000
547.674805	146.720000
547.768433	146.140000
547.862061	146.300000
547.955627	145.420000
548.049316	145.900000
548.142883	145.920000
548.236572	146.720000
548.330139	146.820000
548.423767	146.660000
548.517456	146.420000
548.611023	146.460000
548.704651	145.680000
548.798279	145.580000
548.891907	146.500000
548.985474	146.400000
549.079163	146.720000
549.172729	146.880000
549.266357	146.240000
549.359985	145.880000
549.453613	145.320000
549.547180	144.820000
549.640869	145.420000
549.734436	145.840000
549.828064	146.200000
549.921631	146.620000
550.015320	146.280000
550.108887	146.240000
550.202515	146.140000
550.296143	145.640000
550.389771	145.480000
550.483337	145.620000
550.576965	145.480000
550.670593	145.940000
550.764221	146.220000
550.857849	146.400000
550.951477	146.240000
551.045105	145.920000
551.138672	145.880000
551.232300	145.540000
551.325928	145.720000
551.419556	146.140000
551.513123	146.040000
551.606750	145.500000
551.700378	145.640000
551.794006	145.640000
551.887573	145.500000
551.981201	146.220000
552.074768	146.320000
552.168457	146.140000
552.262024	146.860000
552.355652	146.840000
552.449219	147.060000
552.542847	147.160000
552.636475	147.020000
552.730103	145.800000
552.823669	145.480000
552.917297	144.680000
553.010864	144.600000
553.104553	145.160000
553.198181	145.120000
553.291748	145.800000
553.385376	146.000000
553.478943	145.860000
553.572571	145.440000
553.666199	146.020000
553.759827	145.800000
553.853394	145.400000
553.947021	145.720000
554.040588	146.040000
554.134216	145.800000
554.227783	146.400000
554.321411	147.180000
554.415039	146.520000
554.508667	146.320000
554.602234	146.500000
554.695862	145.520000
554.789429	145.440000
554.883057	146.000000
554.976624	146.000000
555.070251	145.840000
555.163818	146.080000
555.257507	145.840000
555.351074	145.760000
555.444702	146.800000
555.538330	146.660000
555.631897	147.000000
555.725525	146.880000
555.819092	146.600000
555.912720	145.480000
556.006287	146.040000
556.099915	145.960000
556.193481	145.960000
556.287109	146.240000
556.380676	146.260000
556.474304	146.300000
556.567871	146.340000
556.661499	146.020000
556.755066	146.140000
556.848694	146.420000
556.942261	145.900000
557.035889	145.840000
557.129517	146.200000
557.223145	146.720000
557.316711	146.520000
557.410339	146.740000
557.503906	146.600000
557.597473	146.880000
557.691040	146.120000
557.784668	146.180000
557.878296	146.240000
557.971863	146.380000
558.065491	146.300000
558.159058	146.340000
558.252686	147.020000
558.346252	147.740000
558.439880	147.180000
558.533447	146.900000
558.627075	146.680000
558.720642	145.940000
558.814270	145.140000
558.907837	145.200000
559.001465	145.060000
559.095032	145.880000
559.188660	146.120000
559.282227	145.860000
559.375854	146.680000
559.469360	146.500000
559.562988	146.440000
559.656555	146.400000
559.750183	146.940000
559.843750	146.920000
559.937378	147.340000
560.030945	147.140000
560.124573	0.000000
560.218140	0.000000
560.311707	0.000000
560.405334	0.000000
560.498901	0.000000
560.592529	0.000000
560.686096	0.000000
560.779724	0.000000
560.873291	0.000000
560.966858	0.000000
561.060425	0.000000
561.154053	0.000000
561.247620	0.000000
561.341248	0.000000
561.434814	0.000000
561.528381	0.000000
561.621948	0.000000
561.715576	0.000000
561.809143	0.000000
561.902771	0.000000
561.996277	0.000000
562.089905	0.000000
562.183472	0.000000
562.277100	0.000000
