Model Number: SPM-002-B   
Serial Number: 70087108
Firmware Version: 004.15.4
Exposure Time: 100000.000000us
Data Taken on: 11-12-2020 18:42:49.964
Wavelength	Amplitude
221.570786	0.000000
221.663406	0.000000
221.756027	0.000000
221.848648	0.000000
221.941269	0.000000
222.033905	0.000000
222.126526	0.000000
222.219162	0.000000
222.311798	0.000000
222.404419	0.000000
222.497055	0.000000
222.589676	0.000000
222.682312	0.000000
222.774933	0.000000
222.867569	0.000000
222.960205	0.000000
223.052841	0.000000
223.145462	0.000000
223.238098	0.000000
223.330734	0.000000
223.423386	0.000000
223.516022	0.000000
223.608658	0.000000
223.701309	0.000000
223.793945	0.000000
223.886581	0.000000
223.979218	0.000000
224.071869	0.000000
224.164505	0.000000
224.257156	0.000000
224.349792	0.000000
224.442444	0.000000
224.535095	0.000000
224.627747	0.000000
224.720398	0.000000
224.813034	0.000000
224.905685	0.000000
224.998337	144.860000
225.090988	144.680000
225.183640	144.640000
225.276291	144.100000
225.368942	144.600000
225.461594	145.140000
225.554245	145.260000
225.646912	145.540000
225.739578	146.180000
225.832230	146.660000
225.924896	146.320000
226.017548	146.660000
226.110199	147.080000
226.202866	146.600000
226.295532	146.240000
226.388184	146.040000
226.480850	145.500000
226.573517	145.300000
226.666168	145.620000
226.758835	145.740000
226.851501	146.320000
226.944183	146.280000
227.036850	145.940000
227.129517	145.960000
227.222183	146.380000
227.314850	146.260000
227.407516	146.920000
227.500198	147.580000
227.592865	147.040000
227.685532	146.280000
227.778214	145.720000
227.870880	145.600000
227.963562	145.620000
228.056229	146.160000
228.148926	146.120000
228.241592	147.240000
228.334274	146.920000
228.426956	146.640000
228.519638	146.340000
228.612305	146.080000
228.704987	145.820000
228.797668	145.760000
228.890350	145.440000
228.983032	145.100000
229.075714	145.980000
229.168396	145.460000
229.261108	145.260000
229.353790	145.320000
229.446472	145.740000
229.539169	145.480000
229.631851	145.300000
229.724533	145.560000
229.817230	145.940000
229.909912	146.720000
230.002609	146.480000
230.095306	146.620000
230.187988	146.480000
230.280685	145.820000
230.373383	144.600000
230.466095	144.560000
230.558792	144.860000
230.651474	144.960000
230.744171	145.040000
230.836868	145.100000
230.929581	145.620000
231.022278	145.600000
231.114975	145.940000
231.207672	146.080000
231.300369	146.660000
231.393082	146.480000
231.485779	146.200000
231.578506	145.680000
231.671204	146.140000
231.763916	146.180000
231.856613	145.780000
231.949326	145.980000
232.042023	146.260000
232.134735	145.860000
232.227448	145.420000
232.320160	145.880000
232.412872	145.700000
232.505585	146.240000
232.598297	146.560000
232.691010	146.520000
232.783722	146.100000
232.876450	146.960000
232.969162	146.600000
233.061874	146.340000
233.154587	146.340000
233.247314	146.560000
233.340027	145.580000
233.432739	145.840000
233.525467	145.800000
233.618179	145.900000
233.710907	145.720000
233.803635	146.180000
233.896347	145.740000
233.989090	146.620000
234.081818	146.800000
234.174545	147.020000
234.267258	146.600000
234.359985	147.060000
234.452713	146.660000
234.545441	146.800000
234.638168	146.540000
234.730896	146.900000
234.823639	146.540000
234.916367	146.540000
235.009094	146.120000
235.101822	146.280000
235.194580	146.280000
235.287308	146.500000
235.380051	145.960000
235.472778	146.640000
235.565521	146.800000
235.658249	146.480000
235.750992	146.200000
235.843719	146.260000
235.936462	146.220000
236.029205	145.700000
236.121948	145.400000
236.214691	145.760000
236.307449	146.480000
236.400192	145.800000
236.492935	145.940000
236.585678	146.560000
236.678421	146.480000
236.771164	146.200000
236.863907	147.200000
236.956665	147.580000
237.049408	148.760000
237.142151	148.200000
237.234909	148.980000
237.327652	148.680000
237.420410	148.200000
237.513153	147.080000
237.605927	147.260000
237.698669	146.220000
237.791428	145.440000
237.884186	146.000000
237.976944	145.600000
238.069702	145.800000
238.162445	145.100000
238.255203	145.100000
238.347961	145.080000
238.440720	145.280000
238.533478	145.100000
238.626266	145.460000
238.719025	146.000000
238.811783	145.860000
238.904541	145.680000
238.997314	145.660000
239.090073	145.580000
239.182831	145.780000
239.275604	146.500000
239.368362	146.380000
239.461136	146.620000
239.553909	146.720000
239.646667	146.200000
239.739441	145.480000
239.832214	146.280000
239.925003	146.120000
240.017761	146.780000
240.110535	147.400000
240.203308	147.320000
240.296082	146.820000
240.388855	146.940000
240.481628	146.940000
240.574417	147.000000
240.667191	146.840000
240.759964	146.540000
240.852737	146.160000
240.945526	145.580000
241.038315	145.340000
241.131088	145.460000
241.223877	145.880000
241.316650	145.760000
241.409439	146.440000
241.502228	145.960000
241.595001	146.380000
241.687790	146.100000
241.780579	146.360000
241.873367	146.020000
241.966141	146.380000
242.058929	145.800000
242.151718	146.080000
242.244507	146.600000
242.337311	145.780000
242.430099	146.300000
242.522903	146.660000
242.615692	146.080000
242.708481	145.960000
242.801270	146.900000
242.894073	146.360000
242.986862	146.320000
243.079651	146.860000
243.172455	146.380000
243.265244	146.180000
243.358063	145.820000
243.450867	146.020000
243.543655	145.940000
243.636459	146.380000
243.729263	146.760000
243.822067	147.400000
243.914856	147.420000
244.007660	147.840000
244.100464	147.660000
244.193268	147.120000
244.286072	146.420000
244.378876	146.180000
244.471680	145.780000
244.564499	145.820000
244.657318	146.540000
244.750122	147.300000
244.842926	146.660000
244.935745	147.180000
245.028549	146.820000
245.121368	146.300000
245.214172	146.140000
245.306992	146.860000
245.399796	146.380000
245.492615	146.460000
245.585434	146.500000
245.678253	146.460000
245.771072	146.400000
245.863892	146.740000
245.956711	147.240000
246.049530	147.060000
246.142349	146.580000
246.235168	146.580000
246.327988	146.860000
246.420807	146.460000
246.513626	146.720000
246.606445	146.760000
246.699280	146.620000
246.792099	146.120000
246.884918	145.840000
246.977753	145.280000
247.070587	145.480000
247.163422	145.720000
247.256241	145.680000
247.349075	146.120000
247.441895	146.360000
247.534729	146.180000
247.627563	145.940000
247.720383	146.500000
247.813217	146.700000
247.906052	146.520000
247.998886	146.620000
248.091736	146.400000
248.184570	145.960000
248.277405	145.820000
248.370239	146.860000
248.463074	147.760000
248.555908	148.360000
248.648743	148.020000
248.741592	147.840000
248.834427	147.000000
248.927261	145.920000
249.020111	146.240000
249.112946	146.920000
249.205795	146.880000
249.298630	147.140000
249.391495	147.000000
249.484344	146.440000
249.577179	146.060000
249.670029	146.340000
249.762878	146.640000
249.855728	147.440000
249.948563	147.540000
250.041412	147.200000
250.134262	147.080000
250.227112	146.820000
250.319962	146.600000
250.412827	146.560000
250.505692	146.100000
250.598541	146.020000
250.691391	145.600000
250.784241	145.380000
250.877106	145.520000
250.969955	145.940000
251.062805	146.520000
251.155670	147.480000
251.248520	147.580000
251.341385	147.680000
251.434235	147.520000
251.527100	146.960000
251.619965	145.960000
251.712814	146.540000
251.805695	146.240000
251.898560	146.560000
251.991425	146.560000
252.084290	146.940000
252.177155	146.060000
252.270020	145.720000
252.362885	145.660000
252.455750	145.980000
252.548615	145.880000
252.641479	145.980000
252.734360	145.980000
252.827240	145.980000
252.920105	145.880000
253.012970	145.860000
253.105850	146.000000
253.198715	146.120000
253.291595	146.580000
253.384460	146.540000
253.477341	146.920000
253.570221	146.940000
253.663086	146.900000
253.755966	147.180000
253.848846	147.300000
253.941727	147.180000
254.034592	147.100000
254.127472	146.940000
254.220367	146.740000
254.313248	146.840000
254.406128	146.340000
254.499008	146.680000
254.591904	147.500000
254.684784	147.780000
254.777664	147.360000
254.870544	147.320000
254.963440	147.300000
255.056335	147.060000
255.149216	146.560000
255.242111	147.200000
255.334991	147.580000
255.427887	147.260000
255.520767	147.160000
255.613663	147.140000
255.706558	146.200000
255.799438	145.720000
255.892334	145.760000
255.985229	145.600000
256.078125	145.400000
256.171021	145.760000
256.263916	146.220000
256.356812	146.380000
256.449707	146.700000
256.542603	146.400000
256.635498	146.880000
256.728394	146.840000
256.821289	146.640000
256.914215	146.620000
257.007080	147.060000
257.100006	146.880000
257.192932	147.460000
257.285828	147.580000
257.378723	147.400000
257.471619	147.280000
257.564545	147.040000
257.657440	146.500000
257.750336	147.120000
257.843262	146.900000
257.936157	148.160000
258.029053	148.260000
258.121979	148.860000
258.214874	148.000000
258.307800	147.980000
258.400696	146.560000
258.493622	146.620000
258.586517	145.300000
258.679443	145.800000
258.772339	145.740000
258.865265	145.900000
258.958160	145.480000
259.051086	146.920000
259.144012	147.040000
259.236938	147.840000
259.329834	148.080000
259.422791	148.060000
259.515717	147.280000
259.608612	146.500000
259.701538	146.140000
259.794464	145.740000
259.887390	145.920000
259.980316	145.760000
260.073212	145.740000
260.166138	144.900000
260.259064	145.320000
260.351990	145.480000
260.444916	145.480000
260.537842	146.200000
260.630768	146.860000
260.723694	146.700000
260.816620	146.680000
260.909546	146.740000
261.002472	146.180000
261.095398	145.740000
261.188354	145.760000
261.281281	145.160000
261.374207	145.260000
261.467133	145.640000
261.560089	146.000000
261.653015	145.880000
261.745972	146.640000
261.838867	146.940000
261.931824	147.600000
262.024780	146.980000
262.117706	146.960000
262.210663	147.140000
262.303589	147.000000
262.396515	146.620000
262.489471	147.940000
262.582397	147.780000
262.675354	147.000000
262.768280	147.040000
262.861237	147.120000
262.954163	146.580000
263.047119	146.800000
263.140045	146.760000
263.233002	146.280000
263.325958	145.860000
263.418884	145.460000
263.511841	145.760000
263.604797	146.160000
263.697723	146.320000
263.790680	146.300000
263.883636	146.780000
263.976593	146.460000
264.069550	146.720000
264.162476	146.880000
264.255463	146.660000
264.348419	146.260000
264.441376	146.460000
264.534332	145.740000
264.627289	145.740000
264.720245	146.380000
264.813202	146.120000
264.906158	146.320000
264.999115	146.900000
265.092072	146.620000
265.185028	146.760000
265.277985	147.100000
265.370941	146.820000
265.463898	146.660000
265.556854	146.620000
265.649811	145.840000
265.742798	145.960000
265.835754	146.020000
265.928711	146.560000
266.021667	146.640000
266.114655	147.160000
266.207611	147.320000
266.300568	146.540000
266.393585	146.060000
266.486511	146.360000
266.579498	145.600000
266.672485	145.320000
266.765442	145.580000
266.858429	145.980000
266.951385	145.400000
267.044342	145.660000
267.137329	145.700000
267.230316	146.120000
267.323273	145.580000
267.416260	146.460000
267.509216	146.420000
267.602203	146.180000
267.695160	146.340000
267.788147	146.380000
267.881134	145.720000
267.974091	146.080000
268.067078	146.200000
268.160065	145.980000
268.253052	145.900000
268.346008	146.120000
268.438995	145.900000
268.531982	146.140000
268.624969	145.820000
268.717987	145.860000
268.810944	145.520000
268.903961	145.560000
268.996948	145.040000
269.089905	145.700000
269.182892	145.500000
269.275879	146.040000
269.368866	145.660000
269.461853	145.860000
269.554871	145.500000
269.647858	145.940000
269.740845	146.360000
269.833832	146.860000
269.926819	146.800000
270.019806	146.740000
270.112793	146.160000
270.205811	145.880000
270.298798	145.680000
270.391785	146.380000
270.484772	146.240000
270.577789	146.580000
270.670776	146.160000
270.763763	146.200000
270.856750	145.960000
270.949768	145.960000
271.042786	146.060000
271.135773	146.080000
271.228790	146.560000
271.321808	146.100000
271.414795	145.840000
271.507782	145.620000
271.600800	145.540000
271.693817	145.140000
271.786804	145.700000
271.879822	146.120000
271.972809	146.140000
272.065826	146.720000
272.158844	146.320000
272.251831	146.500000
272.344849	146.500000
272.437866	146.220000
272.530853	145.920000
272.623871	146.500000
272.716888	145.740000
272.809906	146.040000
272.902893	146.040000
272.995911	145.420000
273.088928	145.160000
273.181946	145.340000
273.274963	145.020000
273.367981	145.080000
273.460999	145.340000
273.554047	145.720000
273.647003	146.380000
273.740051	146.320000
273.833069	146.940000
273.926086	147.320000
274.019135	146.900000
274.112152	146.540000
274.205170	146.700000
274.298187	146.780000
274.391205	146.460000
274.484222	146.440000
274.577240	146.320000
274.670258	146.120000
274.763306	145.420000
274.856323	145.640000
274.949341	146.000000
275.042358	146.420000
275.135406	146.160000
275.228424	146.340000
275.321442	146.340000
275.414490	145.980000
275.507507	146.380000
275.600525	147.020000
275.693573	146.640000
275.786591	146.500000
275.879669	146.700000
275.972656	146.000000
276.065735	145.840000
276.158752	146.760000
276.251801	147.540000
276.344818	147.520000
276.437866	147.420000
276.530884	147.140000
276.623932	146.260000
276.716980	145.960000
276.809998	145.960000
276.903046	146.040000
276.996094	147.020000
277.089111	148.000000
277.182159	148.180000
277.275208	147.900000
277.368256	148.020000
277.461304	147.300000
277.554321	146.380000
277.647369	146.080000
277.740417	146.380000
277.833466	146.100000
277.926514	146.040000
278.019562	146.840000
278.112610	146.400000
278.205688	146.440000
278.298706	146.540000
278.391785	146.320000
278.484833	145.780000
278.577881	145.880000
278.670929	145.960000
278.763977	146.040000
278.857025	146.580000
278.950073	146.740000
279.043121	146.640000
279.136169	146.340000
279.229248	146.020000
279.322296	145.580000
279.415344	145.280000
279.508392	145.320000
279.601440	145.400000
279.694519	145.460000
279.787567	145.500000
279.880615	145.480000
279.973694	145.420000
280.066742	145.320000
280.159790	145.640000
280.252869	145.660000
280.345917	146.000000
280.438995	146.020000
280.532074	146.140000
280.625122	146.520000
280.718201	147.400000
280.811279	147.220000
280.904327	147.240000
280.997406	147.080000
281.090454	146.720000
281.183533	145.960000
281.276581	145.820000
281.369659	145.680000
281.462738	145.940000
281.555786	146.060000
281.648865	146.120000
281.741943	146.240000
281.835022	146.760000
281.928070	146.600000
282.021149	146.380000
282.114227	145.900000
282.207306	145.900000
282.300385	146.280000
282.393433	146.440000
282.486511	146.520000
282.579590	147.160000
282.672668	147.360000
282.765747	146.360000
282.858856	145.800000
282.951904	145.720000
283.045013	145.940000
283.138062	146.220000
283.231171	146.600000
283.324249	147.080000
283.417328	147.260000
283.510406	146.640000
283.603485	146.540000
283.696564	146.320000
283.789642	146.560000
283.882751	146.320000
283.975830	147.060000
284.068909	146.680000
284.161987	147.720000
284.255066	147.020000
284.348175	147.140000
284.441254	146.780000
284.534332	147.280000
284.627441	146.100000
284.720520	146.100000
284.813599	146.020000
284.906708	145.900000
284.999786	145.220000
285.092896	145.460000
285.185974	146.500000
285.279053	145.980000
285.372192	146.180000
285.465240	147.020000
285.558380	146.980000
285.651459	146.280000
285.744568	147.260000
285.837677	146.840000
285.930756	146.460000
286.023865	146.780000
286.116943	146.880000
286.210052	146.660000
286.303162	146.540000
286.396240	146.440000
286.489349	146.120000
286.582458	146.420000
286.675568	146.140000
286.768646	146.380000
286.861755	146.760000
286.954865	147.600000
287.047974	147.060000
287.141083	146.960000
287.234161	146.800000
287.327271	146.720000
287.420380	146.640000
287.513519	146.600000
287.606598	146.700000
287.699738	146.960000
287.792816	146.500000
287.885956	146.040000
287.979034	146.200000
288.072174	146.300000
288.165283	146.140000
288.258392	146.500000
288.351501	145.900000
288.444611	146.120000
288.537720	146.260000
288.630859	146.180000
288.723969	146.340000
288.817078	146.980000
288.910187	146.580000
289.003296	146.140000
289.096436	146.200000
289.189545	145.920000
289.282654	145.420000
289.375763	146.260000
289.468903	146.920000
289.562012	147.160000
289.655121	146.980000
289.748260	147.500000
289.841400	147.340000
289.934509	146.980000
290.027649	147.080000
290.120728	147.100000
290.213898	147.000000
290.306976	146.620000
290.400146	146.800000
290.493256	146.220000
290.586395	146.420000
290.679535	146.700000
290.772644	146.460000
290.865784	145.520000
290.958893	145.580000
291.052032	145.300000
291.145172	145.120000
291.238281	144.980000
291.331421	145.480000
291.424561	146.260000
291.517670	146.180000
291.610809	146.080000
291.703949	146.060000
291.797089	146.420000
291.890228	145.640000
291.983337	145.720000
292.076477	145.640000
292.169617	146.080000
292.262756	145.760000
292.355927	145.860000
292.449036	145.640000
292.542206	145.940000
292.635315	145.980000
292.728485	146.220000
292.821625	146.040000
292.914764	147.200000
293.007904	147.080000
293.101044	147.120000
293.194183	146.860000
293.287323	147.140000
293.380463	146.420000
293.473602	146.140000
293.566742	146.120000
293.659882	146.780000
293.753021	146.980000
293.846191	147.020000
293.939331	146.920000
294.032471	146.580000
294.125610	146.320000
294.218781	146.620000
294.311920	146.840000
294.405060	146.900000
294.498230	147.380000
294.591370	147.240000
294.684540	146.460000
294.777679	146.160000
294.870850	146.600000
294.963959	146.200000
295.057159	146.100000
295.150299	146.480000
295.243469	146.120000
295.336609	145.360000
295.429779	145.500000
295.522919	145.860000
295.616089	145.920000
295.709229	146.700000
295.802399	146.960000
295.895569	146.780000
295.988708	146.500000
296.081879	146.720000
296.175018	145.920000
296.268188	146.300000
296.361359	146.740000
296.454529	146.900000
296.547668	146.620000
296.640839	147.240000
296.734009	146.880000
296.827179	147.060000
296.920319	147.340000
297.013519	147.280000
297.106659	147.160000
297.199860	147.080000
297.292999	146.840000
297.386200	146.280000
297.479309	145.840000
297.572510	145.940000
297.665680	145.920000
297.758850	145.880000
297.852020	145.600000
297.945190	145.640000
298.038361	145.240000
298.131531	146.140000
298.224701	145.520000
298.317871	145.380000
298.411072	145.200000
298.504242	144.940000
298.597412	144.360000
298.690582	144.980000
298.783752	145.260000
298.876923	146.000000
298.970093	146.560000
299.063293	146.900000
299.156464	147.000000
299.249634	147.300000
299.342834	147.580000
299.436005	147.880000
299.529205	147.680000
299.622345	147.700000
299.715576	147.240000
299.808716	146.300000
299.901917	145.860000
299.995117	145.980000
300.088287	146.080000
300.181488	146.120000
300.274658	146.480000
300.367828	146.700000
300.461029	146.440000
300.554199	146.560000
300.647400	146.720000
300.740601	147.300000
300.833771	147.060000
300.926971	147.120000
301.020142	146.460000
301.113342	146.380000
301.206512	146.060000
301.299713	146.340000
301.392914	146.440000
301.486084	146.980000
301.579285	146.900000
301.672516	147.200000
301.765686	147.040000
301.858887	147.100000
301.952057	146.960000
302.045288	147.420000
302.138458	147.220000
302.231659	147.180000
302.324860	147.240000
302.418060	147.040000
302.511261	146.620000
302.604462	146.480000
302.697662	146.240000
302.790863	145.900000
302.884064	145.340000
302.977264	145.440000
303.070465	145.900000
303.163666	146.680000
303.256866	146.940000
303.350067	147.240000
303.443268	147.180000
303.536469	147.240000
303.629669	146.680000
303.722870	146.740000
303.816071	146.800000
303.909271	146.800000
304.002472	145.620000
304.095673	145.420000
304.188934	144.620000
304.282104	145.360000
304.375336	145.340000
304.468506	145.820000
304.561768	145.720000
304.654968	146.660000
304.748169	145.920000
304.841370	145.860000
304.934601	146.080000
305.027802	145.780000
305.121002	145.420000
305.214233	145.780000
305.307434	145.840000
305.400665	146.440000
305.493866	146.500000
305.587097	146.300000
305.680298	145.720000
305.773499	146.260000
305.866730	145.640000
305.959930	146.360000
306.053162	146.820000
306.146393	146.960000
306.239594	146.160000
306.332825	146.280000
306.426025	146.260000
306.519287	146.040000
306.612488	146.060000
306.705719	146.340000
306.798920	146.260000
306.892181	145.600000
306.985352	145.260000
307.078613	145.100000
307.171844	145.600000
307.265045	145.000000
307.358276	145.160000
307.451508	145.540000
307.544739	146.300000
307.637970	145.820000
307.731201	145.900000
307.824402	146.440000
307.917633	146.740000
308.010864	146.840000
308.104095	147.400000
308.197327	147.740000
308.290558	147.660000
308.383789	147.020000
308.477020	146.600000
308.570251	145.700000
308.663483	145.260000
308.756714	145.040000
308.849976	144.900000
308.943176	145.220000
309.036438	145.140000
309.129639	145.200000
309.222900	145.120000
309.316101	145.160000
309.409393	144.740000
309.502625	144.660000
309.595856	144.920000
309.689087	144.880000
309.782318	145.100000
309.875580	145.160000
309.968811	145.720000
310.062042	145.340000
310.155273	145.440000
310.248535	145.780000
310.341766	145.880000
310.434998	145.560000
310.528259	145.660000
310.621490	145.800000
310.714722	145.380000
310.807983	145.200000
310.901215	145.320000
310.994476	145.680000
311.087708	145.340000
311.181000	145.600000
311.274200	145.120000
311.367462	145.460000
311.460693	145.160000
311.553986	146.080000
311.647186	146.180000
311.740479	147.140000
311.833710	146.640000
311.926971	146.460000
312.020203	145.500000
312.113464	145.240000
312.206726	144.800000
312.299957	145.040000
312.393219	146.060000
312.486481	146.460000
312.579712	146.460000
312.672974	146.440000
312.766235	146.500000
312.859497	146.340000
312.952759	146.320000
313.045990	146.960000
313.139252	146.300000
313.232513	146.400000
313.325775	145.980000
313.419037	145.580000
313.512299	144.560000
313.605530	145.480000
313.698822	145.660000
313.792053	145.760000
313.885345	145.580000
313.978577	145.920000
314.071869	145.720000
314.165131	145.960000
314.258392	146.100000
314.351654	146.660000
314.444916	146.360000
314.538177	146.640000
314.631439	146.520000
314.724701	146.340000
314.817993	145.860000
314.911255	146.200000
315.004517	145.560000
315.097778	145.440000
315.191040	145.780000
315.284302	146.320000
315.377594	146.020000
315.470856	146.260000
315.564117	145.480000
315.657379	144.700000
315.750671	144.260000
315.843933	144.600000
315.937195	144.060000
316.030518	144.240000
316.123749	144.460000
316.217041	145.440000
316.310303	145.480000
316.403595	146.000000
316.496857	146.480000
316.590149	146.860000
316.683411	146.200000
316.776703	146.120000
316.869965	146.140000
316.963257	145.820000
317.056519	145.180000
317.149811	145.140000
317.243073	145.200000
317.336365	145.100000
317.429626	145.460000
317.522919	146.400000
317.616180	146.160000
317.709473	145.940000
317.802765	146.200000
317.896027	146.020000
317.989319	146.060000
318.082611	146.060000
318.175873	145.940000
318.269165	145.860000
318.362488	145.680000
318.455750	145.200000
318.549042	145.680000
318.642303	146.140000
318.735626	145.900000
318.828888	146.100000
318.922211	145.880000
319.015472	146.260000
319.108765	145.640000
319.202057	145.320000
319.295349	145.380000
319.388641	145.560000
319.481934	144.860000
319.575226	145.140000
319.668518	145.640000
319.761810	145.920000
319.855103	145.860000
319.948395	146.060000
320.041687	146.140000
320.134979	146.080000
320.228271	145.660000
320.321564	145.760000
320.414856	145.780000
320.508148	145.460000
320.601440	145.400000
320.694763	145.420000
320.788025	146.080000
320.881348	146.080000
320.974640	146.200000
321.067963	145.840000
321.161224	146.140000
321.254547	145.100000
321.347839	145.600000
321.441162	145.440000
321.534454	145.940000
321.627747	145.540000
321.721069	146.260000
321.814362	146.120000
321.907654	146.480000
322.000946	146.300000
322.094269	146.740000
322.187561	146.400000
322.280884	146.440000
322.374176	146.380000
322.467468	147.080000
322.560791	147.140000
322.654083	147.380000
322.747406	147.600000
322.840698	147.680000
322.934021	147.620000
323.027344	147.680000
323.120636	147.340000
323.213959	146.820000
323.307251	147.040000
323.400574	146.600000
323.493866	146.020000
323.587219	146.120000
323.680511	146.360000
323.773834	146.060000
323.867157	146.320000
323.960449	146.640000
324.053772	146.560000
324.147095	146.280000
324.240387	146.740000
324.333710	146.480000
324.427032	146.620000
324.520355	146.400000
324.613647	146.100000
324.706970	145.720000
324.800293	145.600000
324.893616	145.600000
324.986938	146.120000
325.080231	146.100000
325.173553	146.360000
325.266876	147.040000
325.360199	147.140000
325.453522	146.600000
325.546875	146.620000
325.640167	146.740000
325.733521	146.680000
325.826813	146.800000
325.920166	147.080000
326.013489	147.160000
326.106812	146.180000
326.200134	145.900000
326.293457	145.100000
326.386780	145.260000
326.480103	145.000000
326.573425	145.220000
326.666748	145.220000
326.760071	146.000000
326.853424	145.760000
326.946747	145.900000
327.040070	146.840000
327.133392	146.360000
327.226715	145.500000
327.320068	145.040000
327.413391	145.700000
327.506714	145.000000
327.600037	145.060000
327.693390	145.420000
327.786713	145.860000
327.880066	145.540000
327.973358	146.120000
328.066742	146.420000
328.160034	146.560000
328.253418	146.840000
328.346710	146.560000
328.440063	145.880000
328.533417	145.720000
328.626740	145.780000
328.720093	145.640000
328.813416	145.620000
328.906769	145.960000
329.000092	145.840000
329.093445	145.500000
329.186768	145.260000
329.280121	145.620000
329.373444	145.660000
329.466797	146.160000
329.560120	146.360000
329.653473	146.640000
329.746796	146.360000
329.840149	146.360000
329.933502	146.000000
330.026825	146.240000
330.120178	146.220000
330.213562	146.320000
330.306854	146.260000
330.400238	146.240000
330.493561	145.960000
330.586945	146.460000
330.680237	146.680000
330.773621	146.700000
330.866974	146.900000
330.960327	147.040000
331.053680	146.480000
331.147003	146.400000
331.240356	146.760000
331.333710	146.820000
331.427063	146.620000
331.520416	146.500000
331.613770	146.340000
331.707123	146.280000
331.800476	146.380000
331.893829	147.360000
331.987152	147.580000
332.080505	147.720000
332.173859	147.340000
332.267212	146.760000
332.360565	145.980000
332.453918	145.620000
332.547333	145.820000
332.640656	145.680000
332.734039	146.000000
332.827362	145.920000
332.920746	146.420000
333.014069	146.360000
333.107452	147.040000
333.200806	147.060000
333.294159	147.120000
333.387543	146.620000
333.480896	145.980000
333.574249	145.540000
333.667603	145.400000
333.760956	145.560000
333.854340	145.640000
333.947693	146.120000
334.041046	146.160000
334.134430	146.460000
334.227783	146.320000
334.321136	146.480000
334.414520	146.020000
334.507874	146.140000
334.601227	146.000000
334.694611	145.800000
334.787964	146.000000
334.881348	146.540000
334.974701	146.360000
335.068085	146.040000
335.161438	146.300000
335.254822	146.080000
335.348175	145.920000
335.441559	145.740000
335.534943	146.600000
335.628296	146.480000
335.721680	146.540000
335.815033	146.460000
335.908417	146.720000
336.001770	146.460000
336.095154	146.400000
336.188538	146.020000
336.281891	145.700000
336.375275	145.320000
336.468658	144.900000
336.562012	144.880000
336.655396	145.240000
336.748779	145.880000
336.842133	145.980000
336.935516	146.360000
337.028900	146.280000
337.122284	145.860000
337.215637	145.800000
337.309021	145.940000
337.402435	145.400000
337.495789	145.320000
337.589203	145.760000
337.682526	145.260000
337.775940	145.480000
337.869324	145.720000
337.962708	145.560000
338.056091	145.800000
338.149475	145.860000
338.242859	145.540000
338.336243	145.380000
338.429626	145.920000
338.523010	145.500000
338.616394	145.700000
338.709778	145.720000
338.803162	145.960000
338.896545	146.020000
338.989929	145.980000
339.083313	146.120000
339.176697	146.200000
339.270081	146.040000
339.363464	145.820000
339.456848	146.360000
339.550232	145.820000
339.643616	145.520000
339.737030	145.480000
339.830383	145.420000
339.923828	145.380000
340.017181	145.800000
340.110596	146.220000
340.203949	146.200000
340.297363	145.760000
340.390778	145.580000
340.484161	145.700000
340.577545	145.540000
340.670959	145.780000
340.764343	145.980000
340.857727	146.060000
340.951111	145.360000
341.044525	145.620000
341.137909	145.120000
341.231293	145.600000
341.324707	145.120000
341.418091	145.960000
341.511505	145.840000
341.604889	146.380000
341.698303	146.200000
341.791687	146.600000
341.885071	146.040000
341.978485	145.820000
342.071899	146.180000
342.165283	146.420000
342.258698	146.580000
342.352081	147.100000
342.445496	147.700000
342.538879	147.100000
342.632324	146.780000
342.725708	146.540000
342.819122	146.100000
342.912506	145.520000
343.005920	145.680000
343.099335	146.260000
343.192719	146.100000
343.286133	146.280000
343.379547	146.660000
343.472931	146.560000
343.566345	146.040000
343.659760	146.340000
343.753143	146.000000
343.846558	145.800000
343.939972	145.960000
344.033386	146.420000
344.126770	146.160000
344.220184	146.140000
344.313599	146.320000
344.407043	146.140000
344.500427	145.400000
344.593872	146.040000
344.687225	146.240000
344.780670	145.740000
344.874054	145.820000
344.967499	146.240000
345.060913	145.940000
345.154327	145.780000
345.247742	145.700000
345.341156	145.200000
345.434570	145.120000
345.527985	144.960000
345.621399	145.080000
345.714813	145.060000
345.808228	145.520000
345.901642	145.540000
345.995056	145.440000
346.088470	145.520000
346.181885	145.700000
346.275299	145.620000
346.368713	145.520000
346.462128	145.240000
346.555573	145.560000
346.648987	146.080000
346.742401	146.200000
346.835815	146.620000
346.929260	146.480000
347.022644	146.340000
347.116119	146.180000
347.209503	146.380000
347.302948	147.000000
347.396362	147.680000
347.489807	147.640000
347.583221	147.920000
347.676636	147.460000
347.770050	146.220000
347.863495	145.860000
347.956909	146.000000
348.050323	145.500000
348.143768	145.380000
348.237183	145.560000
348.330597	146.260000
348.424042	146.360000
348.517456	146.660000
348.610901	147.100000
348.704315	147.200000
348.797760	146.360000
348.891174	145.680000
348.984619	145.080000
349.078033	145.360000
349.171448	145.560000
349.264923	145.620000
349.358337	145.780000
349.451782	145.900000
349.545197	145.300000
349.638641	144.500000
349.732086	144.080000
349.825500	144.560000
349.918945	144.540000
350.012390	145.080000
350.105804	145.920000
350.199249	146.440000
350.292664	146.420000
350.386108	146.500000
350.479553	146.720000
350.572968	146.340000
350.666412	146.400000
350.759857	146.560000
350.853302	147.360000
350.946716	146.360000
351.040161	146.620000
351.133606	146.520000
351.227081	145.900000
351.320465	146.120000
351.413940	146.600000
351.507355	146.660000
351.600830	146.780000
351.694244	146.740000
351.787720	146.420000
351.881104	146.720000
351.974579	146.460000
352.067993	147.380000
352.161469	147.720000
352.254883	147.020000
352.348358	146.440000
352.441803	146.460000
352.535248	145.440000
352.628693	145.740000
352.722137	145.680000
352.815582	146.060000
352.909027	146.480000
353.002472	146.540000
353.095917	146.260000
353.189362	147.000000
353.282806	146.840000
353.376251	146.320000
353.469696	145.900000
353.563141	146.480000
353.656586	145.880000
353.750061	145.180000
353.843475	145.360000
353.936981	146.320000
354.030396	145.580000
354.123871	145.780000
354.217285	147.020000
354.310760	146.940000
354.404175	146.440000
354.497681	146.460000
354.591095	146.240000
354.684570	145.380000
354.777985	145.140000
354.871490	144.860000
354.964935	145.240000
355.058380	145.460000
355.151855	145.660000
355.245300	146.180000
355.338745	146.620000
355.432220	146.360000
355.525665	145.780000
355.619110	146.020000
355.712585	145.900000
355.806030	146.100000
355.899475	145.840000
355.992950	146.540000
356.086426	146.620000
356.179871	146.360000
356.273346	146.060000
356.366791	146.320000
356.460266	146.420000
356.553711	146.080000
356.647186	146.120000
356.740631	146.100000
356.834106	145.920000
356.927551	145.820000
357.021027	145.840000
357.114471	146.100000
357.207947	145.720000
357.301422	146.020000
357.394867	145.760000
357.488342	146.300000
357.581818	146.100000
357.675262	146.660000
357.768738	146.420000
357.862213	146.180000
357.955658	145.840000
358.049133	145.860000
358.142609	146.140000
358.236053	146.140000
358.329529	146.400000
358.423035	146.720000
358.516449	146.320000
358.609955	146.500000
358.703400	147.200000
358.796906	147.620000
358.890350	147.260000
358.983826	147.840000
359.077271	146.800000
359.170776	146.100000
359.264221	145.620000
359.357727	145.680000
359.451172	146.060000
359.544647	146.300000
359.638123	146.200000
359.731598	146.640000
359.825073	147.100000
359.918549	146.720000
360.012024	147.140000
360.105499	147.300000
360.198975	147.120000
360.292450	146.940000
360.385925	146.800000
360.479401	146.100000
360.572876	146.060000
360.666351	146.180000
360.759857	146.000000
360.853302	145.980000
360.946808	145.740000
361.040253	145.600000
361.133759	145.120000
361.227203	145.220000
361.320709	145.080000
361.414154	145.860000
361.507660	146.160000
361.601105	146.760000
361.694641	147.060000
361.788086	147.040000
361.881592	147.440000
361.975067	147.140000
362.068542	147.320000
362.162018	147.080000
362.255524	146.840000
362.348999	146.540000
362.442474	146.760000
362.535950	145.960000
362.629456	145.860000
362.722931	145.620000
362.816406	145.820000
362.909882	145.980000
363.003387	145.740000
363.096863	145.800000
363.190338	146.160000
363.283875	145.780000
363.377319	145.760000
363.470825	146.760000
363.564301	146.220000
363.657806	146.560000
363.751282	146.340000
363.844788	147.020000
363.938232	146.080000
364.031769	146.840000
364.125214	146.820000
364.218750	147.300000
364.312225	145.940000
364.405731	146.300000
364.499207	145.640000
364.592712	145.300000
364.686188	145.020000
364.779694	145.820000
364.873169	145.920000
364.966675	146.140000
365.060150	146.360000
365.153656	146.780000
365.247131	146.580000
365.340637	146.800000
365.434143	147.320000
365.527618	147.360000
365.621155	146.720000
365.714600	146.760000
365.808136	146.660000
365.901611	145.860000
365.995117	145.900000
366.088593	145.940000
366.182129	146.000000
366.275604	145.720000
366.369110	145.760000
366.462585	145.720000
366.556122	146.360000
366.649567	146.200000
366.743103	146.680000
366.836609	146.700000
366.930115	147.000000
367.023590	146.880000
367.117096	146.580000
367.210602	146.020000
367.304108	146.560000
367.397614	147.040000
367.491119	147.060000
367.584595	147.560000
367.678101	148.240000
367.771606	147.920000
367.865112	147.180000
367.958649	146.440000
368.052124	146.000000
368.145660	145.480000
368.239136	146.020000
368.332672	146.100000
368.426147	146.540000
368.519684	146.700000
368.613159	147.140000
368.706696	146.380000
368.800171	146.200000
368.893707	145.860000
368.987183	145.740000
369.080719	145.660000
369.174225	146.000000
369.267731	146.140000
369.361237	146.420000
369.454742	146.620000
369.548248	146.840000
369.641754	146.660000
369.735260	146.480000
369.828766	145.680000
369.922272	146.040000
370.015808	145.800000
370.109314	145.600000
370.202820	145.580000
370.296356	147.180000
370.389832	146.580000
370.483368	146.180000
370.576874	146.380000
370.670410	146.280000
370.763885	144.900000
370.857422	145.120000
370.950928	145.040000
371.044464	145.540000
371.137939	145.840000
371.231476	146.620000
371.324982	147.200000
371.418518	147.160000
371.512024	146.920000
371.605560	146.740000
371.699066	146.640000
371.792572	146.160000
371.886108	146.540000
371.979614	145.960000
372.073120	146.440000
372.166656	146.500000
372.260162	146.280000
372.353668	146.020000
372.447205	146.180000
372.540710	145.960000
372.634277	145.540000
372.727753	145.900000
372.821320	146.280000
372.914795	146.480000
373.008362	146.000000
373.101837	146.320000
373.195404	145.880000
373.288879	145.560000
373.382446	146.140000
373.475922	146.560000
373.569489	147.060000
373.662964	147.480000
373.756531	147.540000
373.850037	147.360000
373.943573	147.080000
374.037109	145.980000
374.130615	146.080000
374.224152	146.280000
374.317657	145.960000
374.411194	146.780000
374.504730	146.900000
374.598236	146.420000
374.691772	146.060000
374.785309	146.100000
374.878815	145.140000
374.972351	145.540000
375.065887	145.580000
375.159454	146.340000
375.252930	146.220000
375.346497	146.500000
375.440002	147.120000
375.533569	147.040000
375.627045	146.340000
375.720612	146.360000
375.814117	146.660000
375.907684	145.760000
376.001160	145.640000
376.094727	145.140000
376.188232	145.940000
376.281799	145.800000
376.375336	145.980000
376.468872	146.700000
376.562408	147.160000
376.655914	146.380000
376.749451	146.480000
376.842987	146.800000
376.936523	146.340000
377.030060	146.520000
377.123596	146.960000
377.217133	146.280000
377.310669	146.120000
377.404205	146.520000
377.497772	146.680000
377.591278	146.400000
377.684845	147.340000
377.778351	147.480000
377.871918	147.400000
377.965424	146.800000
378.058990	146.640000
378.152496	146.180000
378.246063	146.380000
378.339569	146.400000
378.433136	146.620000
378.526642	146.720000
378.620209	146.760000
378.713745	146.320000
378.807312	146.840000
378.900848	146.680000
378.994385	146.880000
379.087921	146.420000
379.181458	146.640000
379.274994	145.520000
379.368530	145.440000
379.462097	145.340000
379.555634	145.880000
379.649170	145.280000
379.742706	145.460000
379.836273	145.920000
379.929810	145.700000
380.023376	145.400000
380.116882	145.760000
380.210449	145.940000
380.303986	145.460000
380.397552	145.140000
380.491058	145.560000
380.584656	145.240000
380.678162	145.340000
380.771729	145.560000
380.865265	146.460000
380.958832	146.360000
381.052368	146.600000
381.145935	146.740000
381.239471	147.300000
381.333008	147.140000
381.426575	146.800000
381.520111	147.240000
381.613647	147.400000
381.707214	146.860000
381.800751	145.840000
381.894318	146.320000
381.987854	145.680000
382.081421	145.680000
382.174988	145.920000
382.268524	146.220000
382.362091	145.880000
382.455627	146.800000
382.549194	146.180000
382.642731	145.500000
382.736298	145.540000
382.829834	145.680000
382.923401	145.880000
383.016937	146.460000
383.110504	147.200000
383.204041	147.380000
383.297607	147.800000
383.391174	146.660000
383.484741	147.160000
383.578278	146.660000
383.671844	146.300000
383.765411	145.440000
383.858948	146.200000
383.952515	145.680000
384.046051	146.320000
384.139618	146.900000
384.233185	147.340000
384.326721	147.080000
384.420288	147.560000
384.513855	147.300000
384.607422	147.260000
384.700989	147.260000
384.794525	146.840000
384.888123	146.480000
384.981659	146.380000
385.075226	145.880000
385.168762	145.720000
385.262360	146.060000
385.355896	145.140000
385.449463	145.200000
385.542999	145.560000
385.636597	146.060000
385.730164	146.280000
385.823730	146.560000
385.917267	145.920000
386.010834	146.160000
386.104401	146.060000
386.197968	146.140000
386.291534	146.520000
386.385101	147.220000
386.478668	147.420000
386.572235	146.920000
386.665802	146.140000
386.759338	146.020000
386.852905	145.620000
386.946472	145.440000
387.040070	146.100000
387.133606	146.480000
387.227203	146.240000
387.320740	146.720000
387.414337	146.060000
387.507874	145.640000
387.601471	145.760000
387.695007	145.540000
387.788605	145.060000
387.882141	145.520000
387.975739	145.460000
388.069275	145.060000
388.162872	145.600000
388.256439	145.480000
388.350037	145.280000
388.443604	145.440000
388.537170	145.580000
388.630737	145.920000
388.724304	146.420000
388.817871	146.300000
388.911438	146.300000
389.005005	146.660000
389.098602	146.560000
389.192169	146.300000
389.285736	146.780000
389.379333	146.580000
389.472870	146.120000
389.566467	145.980000
389.660034	146.240000
389.753632	145.820000
389.847168	146.320000
389.940765	146.900000
390.034332	146.880000
390.127930	146.100000
390.221466	145.940000
390.315063	145.400000
390.408630	144.340000
390.502228	143.880000
390.595795	144.680000
390.689362	145.040000
390.782959	145.300000
390.876526	145.940000
390.970093	145.840000
391.063690	145.960000
391.157257	145.940000
391.250824	146.200000
391.344421	145.920000
391.437988	146.480000
391.531555	146.340000
391.625153	146.680000
391.718750	146.700000
391.812317	146.680000
391.905914	146.120000
391.999481	146.320000
392.093079	145.860000
392.186615	146.000000
392.280243	146.540000
392.373779	146.960000
392.467407	147.120000
392.560944	147.280000
392.654572	146.760000
392.748108	146.320000
392.841736	146.340000
392.935303	145.820000
393.028900	145.560000
393.122467	145.540000
393.216064	145.520000
393.309631	144.960000
393.403229	144.780000
393.496796	144.720000
393.590393	144.180000
393.683990	144.620000
393.777557	145.120000
393.871155	145.100000
393.964722	145.780000
394.058350	146.200000
394.151917	146.080000
394.245514	146.080000
394.339081	146.620000
394.432678	146.520000
394.526245	146.240000
394.619873	145.760000
394.713409	145.780000
394.807037	145.480000
394.900604	145.600000
394.994202	145.980000
395.087769	146.660000
395.181396	146.460000
395.274994	147.280000
395.368561	146.420000
395.462158	146.540000
395.555756	146.100000
395.649353	146.420000
395.742920	145.620000
395.836517	146.500000
395.930115	145.980000
396.023712	146.440000
396.117279	146.620000
396.210876	146.180000
396.304474	146.000000
396.398071	146.460000
396.491669	146.520000
396.585266	146.060000
396.678833	146.380000
396.772461	146.520000
396.866028	146.540000
396.959656	146.900000
397.053223	147.680000
397.146851	148.200000
397.240417	148.940000
397.334015	150.120000
397.427582	150.440000
397.521210	151.140000
397.614807	152.600000
397.708405	153.880000
397.802002	155.480000
397.895599	158.660000
397.989197	161.800000
398.082794	165.080000
398.176392	169.740000
398.269989	174.860000
398.363586	180.300000
398.457184	187.540000
398.550781	195.340000
398.644379	202.060000
398.737976	209.800000
398.831573	217.000000
398.925201	223.160000
399.018768	229.120000
399.112396	234.620000
399.205963	237.300000
399.299591	239.240000
399.393158	238.980000
399.486786	237.540000
399.580353	234.480000
399.673981	232.140000
399.767578	229.060000
399.861206	227.520000
399.954773	226.320000
400.048401	225.280000
400.141998	223.020000
400.235596	221.340000
400.329193	217.140000
400.422791	212.440000
400.516418	207.920000
400.610016	204.320000
400.703613	200.360000
400.797211	196.740000
400.890808	193.200000
400.984436	189.920000
401.078033	186.060000
401.171631	181.760000
401.265259	178.140000
401.358826	174.840000
401.452484	171.320000
401.546051	168.900000
401.639679	165.880000
401.733246	163.940000
401.826904	161.360000
401.920471	158.460000
402.014099	155.780000
402.107697	153.960000
402.201324	152.040000
402.294891	150.980000
402.388550	150.600000
402.482147	150.060000
402.575745	149.300000
402.669373	148.220000
402.762970	147.620000
402.856567	147.220000
402.950195	147.180000
403.043793	147.100000
403.137390	148.060000
403.231018	147.160000
403.324615	147.440000
403.418243	146.420000
403.511841	146.760000
403.605469	146.480000
403.699066	146.900000
403.792694	146.940000
403.886292	147.720000
403.979919	147.580000
404.073517	146.920000
404.167145	147.320000
404.260712	146.940000
404.354370	146.260000
404.447937	146.440000
404.541595	146.760000
404.635162	146.960000
404.728821	147.580000
404.822418	147.420000
404.916046	147.020000
405.009644	147.180000
405.103271	146.840000
405.196899	146.180000
405.290497	146.440000
405.384125	146.680000
405.477722	146.060000
405.571350	145.660000
405.664948	145.980000
405.758575	145.980000
405.852203	145.560000
405.945801	145.880000
406.039429	146.100000
406.133057	145.500000
406.226654	145.340000
406.320312	145.360000
406.413879	145.720000
406.507538	145.800000
406.601135	145.460000
406.694763	146.040000
406.788361	145.680000
406.882019	145.000000
406.975586	145.240000
407.069244	145.960000
407.162872	146.080000
407.256470	146.380000
407.350098	146.500000
407.443726	146.220000
407.537323	145.920000
407.630951	145.580000
407.724579	145.640000
407.818207	146.140000
407.911804	145.860000
408.005432	146.140000
408.099060	146.240000
408.192688	146.560000
408.286285	146.000000
408.379913	146.040000
408.473572	146.140000
408.567169	145.580000
408.660828	145.500000
408.754395	145.500000
408.848053	145.500000
408.941650	145.340000
409.035309	145.400000
409.128906	145.140000
409.222565	145.520000
409.316132	145.900000
409.409790	145.680000
409.503387	145.660000
409.597046	146.000000
409.690674	145.760000
409.784302	145.780000
409.877930	145.840000
409.971558	146.220000
410.065186	146.000000
410.158783	145.920000
410.252411	145.620000
410.346039	145.780000
410.439667	145.540000
410.533295	145.620000
410.626923	146.160000
410.720551	146.040000
410.814209	146.460000
410.907806	146.380000
411.001465	145.900000
411.095062	145.880000
411.188721	146.000000
411.282318	145.420000
411.375977	145.440000
411.469574	145.700000
411.563232	145.380000
411.656830	145.180000
411.750488	145.120000
411.844086	144.900000
411.937744	145.360000
412.031372	145.100000
412.125000	145.220000
412.218628	145.160000
412.312256	146.040000
412.405884	146.400000
412.499512	146.660000
412.593170	146.760000
412.686798	147.220000
412.780426	146.480000
412.874054	146.300000
412.967682	145.960000
413.061310	146.660000
413.154968	146.880000
413.248566	147.100000
413.342224	146.820000
413.435852	147.340000
413.529510	146.760000
413.623108	145.940000
413.716766	145.740000
413.810364	145.920000
413.904022	145.500000
413.997650	145.200000
414.091309	146.080000
414.184906	146.420000
414.278564	146.060000
414.372192	146.600000
414.465851	146.980000
414.559479	146.380000
414.653107	147.000000
414.746735	146.920000
414.840393	146.860000
414.934021	146.900000
415.027649	146.680000
415.121277	146.160000
415.214935	146.500000
415.308563	146.440000
415.402191	145.640000
415.495850	145.880000
415.589478	145.700000
415.683136	145.120000
415.776733	145.000000
415.870422	145.960000
415.964020	145.540000
416.057678	145.620000
416.151306	145.980000
416.244965	145.860000
416.338562	145.440000
416.432251	146.340000
416.525848	146.940000
416.619507	147.120000
416.713165	147.660000
416.806793	147.720000
416.900421	147.620000
416.994080	146.900000
417.087708	146.580000
417.181366	146.020000
417.274994	145.960000
417.368622	145.680000
417.462280	146.140000
417.555908	146.280000
417.649567	146.060000
417.743195	145.940000
417.836853	146.040000
417.930481	146.040000
418.024170	146.040000
418.117767	146.440000
418.211426	147.060000
418.305054	147.060000
418.398712	146.440000
418.492340	146.580000
418.585999	146.800000
418.679626	146.740000
418.773285	147.000000
418.866913	147.600000
418.960571	147.780000
419.054230	147.640000
419.147858	147.500000
419.241516	147.340000
419.335144	147.000000
419.428802	146.680000
419.522461	146.260000
419.616089	146.000000
419.709747	146.080000
419.803375	146.200000
419.897034	145.920000
419.990662	146.180000
420.084320	146.620000
420.177979	146.620000
420.271606	146.520000
420.365295	147.180000
420.458893	147.280000
420.552582	147.260000
420.646210	147.280000
420.739868	147.260000
420.833496	146.520000
420.927155	146.180000
421.020782	145.700000
421.114471	145.100000
421.208069	145.040000
421.301758	145.540000
421.395386	145.640000
421.489044	145.480000
421.582703	145.460000
421.676361	146.160000
421.769989	145.940000
421.863647	146.480000
421.957306	146.740000
422.050934	147.040000
422.144592	146.400000
422.238251	146.160000
422.331909	145.540000
422.425537	145.200000
422.519196	145.320000
422.612854	145.400000
422.706543	145.120000
422.800140	145.580000
422.893829	145.540000
422.987457	145.220000
423.081146	145.360000
423.174744	146.380000
423.268433	146.020000
423.362061	146.120000
423.455750	146.240000
423.549347	146.280000
423.643036	145.360000
423.736664	145.980000
423.830353	145.860000
423.924011	146.140000
424.017639	145.520000
424.111298	145.720000
424.204956	145.460000
424.298615	145.820000
424.392273	145.480000
424.485931	145.820000
424.579559	145.900000
424.673218	145.660000
424.766876	145.780000
424.860535	145.660000
424.954193	145.240000
425.047882	145.920000
425.141510	146.160000
425.235199	146.240000
425.328796	146.060000
425.422485	146.200000
425.516113	145.440000
425.609802	145.160000
425.703430	145.000000
425.797119	145.180000
425.890747	145.280000
425.984436	145.440000
426.078064	145.400000
426.171753	145.400000
426.265411	145.420000
426.359070	145.520000
426.452728	145.400000
426.546356	145.240000
426.640015	145.080000
426.733673	144.880000
426.827332	144.940000
426.920990	145.560000
427.014648	145.480000
427.108307	145.920000
427.201965	146.880000
427.295624	146.900000
427.389282	146.340000
427.482941	146.780000
427.576630	146.640000
427.670258	145.820000
427.763947	145.540000
427.857574	145.420000
427.951263	145.300000
428.044922	144.780000
428.138611	144.960000
428.232239	145.500000
428.325928	146.100000
428.419556	146.680000
428.513245	146.540000
428.606903	146.500000
428.700562	146.020000
428.794220	145.420000
428.887878	144.360000
428.981537	144.740000
429.075195	144.800000
429.168854	145.240000
429.262512	145.580000
429.356201	145.900000
429.449860	145.980000
429.543518	145.980000
429.637177	145.720000
429.730835	145.500000
429.824493	145.460000
429.918182	145.820000
430.011810	145.040000
430.105530	144.660000
430.199158	144.920000
430.292847	145.120000
430.386475	144.520000
430.480164	144.960000
430.573792	145.020000
430.667511	144.700000
430.761139	144.860000
430.854828	145.400000
430.948456	145.180000
431.042145	145.780000
431.135834	145.660000
431.229492	145.560000
431.323151	145.640000
431.416809	146.100000
431.510468	145.520000
431.604156	145.440000
431.697815	145.620000
431.791473	144.920000
431.885132	144.460000
431.978821	145.060000
432.072479	145.540000
432.166138	145.540000
432.259827	145.360000
432.353485	145.940000
432.447174	145.820000
432.540802	145.520000
432.634491	145.360000
432.728149	146.120000
432.821838	146.400000
432.915466	146.040000
433.009186	146.280000
433.102814	145.780000
433.196503	145.560000
433.290131	145.520000
433.383850	145.740000
433.477509	145.660000
433.571167	146.700000
433.664856	146.920000
433.758514	147.140000
433.852173	147.280000
433.945862	147.060000
434.039520	146.800000
434.133179	146.460000
434.226868	146.020000
434.320526	145.420000
434.414185	146.100000
434.507874	145.540000
434.601562	145.560000
434.695221	145.340000
434.788910	145.880000
434.882538	145.680000
434.976257	145.520000
435.069885	145.660000
435.163574	145.800000
435.257233	145.240000
435.350922	145.160000
435.444580	145.080000
435.538269	144.900000
435.631897	145.340000
435.725616	146.100000
435.819275	146.600000
435.912964	147.420000
436.006622	148.040000
436.100311	147.700000
436.193970	146.780000
436.287628	146.100000
436.381317	145.580000
436.474976	145.100000
436.568665	144.820000
436.662323	145.320000
436.756012	145.200000
436.849670	144.840000
436.943390	144.620000
437.037018	144.660000
437.130737	144.680000
437.224365	144.700000
437.318085	145.200000
437.411713	145.280000
437.505432	145.820000
437.599060	146.200000
437.692780	146.920000
437.786407	146.960000
437.880127	147.040000
437.973755	146.500000
438.067474	146.260000
438.161133	145.980000
438.254822	146.180000
438.348480	145.960000
438.442169	146.380000
438.535828	146.460000
438.629517	145.840000
438.723175	145.120000
438.816864	145.700000
438.910553	145.400000
439.004211	145.300000
439.097900	145.600000
439.191559	145.860000
439.285248	145.220000
439.378906	145.640000
439.472626	145.520000
439.566284	145.440000
439.659973	145.940000
439.753632	145.940000
439.847321	146.100000
439.940979	146.120000
440.034698	146.220000
440.128326	145.440000
440.222046	145.520000
440.315674	144.800000
440.409393	144.880000
440.503082	144.580000
440.596741	144.940000
440.690430	144.960000
440.784088	144.860000
440.877777	144.520000
440.971466	144.760000
441.065125	144.620000
441.158813	144.340000
441.252502	144.660000
441.346161	144.900000
441.439850	145.240000
441.533539	145.180000
441.627197	146.040000
441.720886	145.720000
441.814606	145.780000
441.908234	145.840000
442.001953	145.740000
442.095612	145.240000
442.189301	145.660000
442.282959	146.040000
442.376678	145.180000
442.470306	146.200000
442.564026	146.380000
442.657684	146.360000
442.751404	146.160000
442.845032	147.140000
442.938751	146.100000
443.032440	145.860000
443.126099	145.660000
443.219788	146.120000
443.313477	145.820000
443.407166	146.640000
443.500824	146.780000
443.594513	147.100000
443.688202	146.540000
443.781891	146.100000
443.875549	145.600000
443.969238	145.960000
444.062927	145.960000
444.156647	145.920000
444.250275	146.420000
444.343994	146.340000
444.437653	146.140000
444.531372	145.980000
444.625031	145.800000
444.718719	145.240000
444.812378	145.120000
444.906097	144.940000
444.999756	144.720000
445.093445	145.100000
445.187103	145.400000
445.280823	146.000000
445.374512	145.600000
445.468201	145.760000
445.561859	145.660000
445.655548	145.900000
445.749237	145.260000
445.842926	145.560000
445.936615	146.020000
446.030304	145.700000
446.123962	145.940000
446.217651	146.040000
446.311340	146.160000
446.405029	145.480000
446.498749	145.380000
446.592407	145.020000
446.686096	145.240000
446.779755	145.160000
446.873474	145.620000
446.967133	145.860000
447.060852	145.680000
447.154510	145.660000
447.248230	145.660000
447.341858	145.460000
447.435577	145.080000
447.529236	144.840000
447.622955	144.760000
447.716644	144.720000
447.810333	144.880000
447.904022	145.640000
447.997711	145.700000
448.091400	145.840000
448.185059	145.980000
448.278748	145.760000
448.372437	145.220000
448.466125	145.500000
448.559814	145.720000
448.653503	145.980000
448.747192	146.420000
448.840912	147.020000
448.934570	146.740000
449.028290	146.660000
449.121948	146.140000
449.215637	145.600000
449.309296	145.060000
449.403015	145.780000
449.496674	145.700000
449.590393	146.180000
449.684052	146.180000
449.777771	146.720000
449.871429	145.720000
449.965149	145.680000
450.058838	145.460000
450.152527	145.940000
450.246216	145.580000
450.339905	146.040000
450.433594	145.760000
450.527283	146.540000
450.620972	146.120000
450.714661	146.160000
450.808350	145.780000
450.902039	146.140000
450.995728	145.480000
451.089417	145.000000
451.183105	145.060000
451.276794	145.960000
451.370514	145.240000
451.464172	144.620000
451.557892	144.960000
451.651550	145.040000
451.745270	144.520000
451.838928	144.360000
451.932648	144.740000
452.026306	145.220000
452.120026	144.820000
452.213684	144.920000
452.307404	145.420000
452.401062	145.640000
452.494781	145.680000
452.588470	145.780000
452.682159	145.400000
452.775848	145.360000
452.869537	144.740000
452.963226	144.260000
453.056915	144.040000
453.150604	144.500000
453.244293	144.960000
453.337982	145.860000
453.431671	146.200000
453.525360	146.980000
453.619049	146.840000
453.712769	146.600000
453.806427	145.960000
453.900146	145.580000
453.993805	145.120000
454.087555	145.500000
454.181213	145.620000
454.274933	145.580000
454.368591	145.440000
454.462311	145.320000
454.555969	144.800000
454.649689	145.460000
454.743347	145.580000
454.837067	146.400000
454.930756	147.140000
455.024445	147.180000
455.118134	146.580000
455.211853	146.620000
455.305542	146.140000
455.399231	145.660000
455.492920	145.820000
455.586609	146.120000
455.680298	146.380000
455.773987	146.180000
455.867676	146.000000
455.961365	145.880000
456.055084	145.740000
456.148773	145.660000
456.242493	145.540000
456.336151	145.660000
456.429871	146.220000
456.523529	146.260000
456.617249	146.040000
456.710907	146.700000
456.804626	146.540000
456.898315	145.820000
456.992035	145.500000
457.085693	145.080000
457.179413	144.400000
457.273102	145.460000
457.366791	145.580000
457.460480	146.240000
457.554199	147.080000
457.647888	147.280000
457.741577	146.360000
457.835266	146.620000
457.928955	146.300000
458.022644	146.420000
458.116364	147.000000
458.210052	146.780000
458.303741	146.780000
458.397461	146.120000
458.491119	145.540000
458.584839	145.380000
458.678528	145.480000
458.772247	145.160000
458.865906	145.620000
458.959625	146.500000
459.053284	146.120000
459.147003	145.960000
459.240692	146.760000
459.334412	146.700000
459.428070	146.120000
459.521790	145.960000
459.615479	146.200000
459.709198	146.020000
459.802887	145.560000
459.896576	145.220000
459.990265	145.600000
460.083954	145.700000
460.177673	145.380000
460.271362	145.640000
460.365051	145.540000
460.458740	145.200000
460.552429	144.780000
460.646149	144.560000
460.739838	144.140000
460.833527	144.440000
460.927246	144.520000
461.020905	144.600000
461.114655	144.880000
461.208313	145.560000
461.302032	145.140000
461.395691	145.600000
461.489441	145.740000
461.583099	145.500000
461.676819	144.940000
461.770477	145.480000
461.864197	144.720000
461.957916	144.580000
462.051605	144.100000
462.145294	145.320000
462.238983	144.980000
462.332703	145.700000
462.426392	146.500000
462.520081	146.900000
462.613770	146.040000
462.707489	146.320000
462.801178	146.060000
462.894867	145.740000
462.988556	145.820000
463.082275	146.280000
463.175964	145.860000
463.269684	145.980000
463.363342	145.680000
463.457092	145.180000
463.550751	145.440000
463.644470	145.920000
463.738129	145.760000
463.831879	145.980000
463.925537	147.020000
464.019257	146.520000
464.112946	146.080000
464.206665	146.020000
464.300323	145.880000
464.394043	145.440000
464.487762	145.540000
464.581451	146.140000
464.675140	146.180000
464.768829	146.260000
464.862549	146.360000
464.956238	146.260000
465.049927	146.180000
465.143646	146.180000
465.237335	146.040000
465.331024	146.320000
465.424713	146.160000
465.518433	146.160000
465.612152	146.220000
465.705811	146.300000
465.799561	146.180000
465.893219	146.280000
465.986938	146.340000
466.080597	146.140000
466.174347	146.520000
466.268005	146.640000
466.361725	146.640000
466.455414	146.500000
466.549133	146.500000
466.642792	146.440000
466.736542	145.740000
466.830231	145.640000
466.923920	145.300000
467.017609	145.600000
467.111328	145.020000
467.205017	145.120000
467.298706	145.140000
467.392426	145.340000
467.486115	145.420000
467.579803	145.200000
467.673523	145.660000
467.767212	146.180000
467.860901	146.220000
467.954651	146.060000
468.048309	146.640000
468.142029	146.500000
468.235718	146.040000
468.329437	145.780000
468.423096	145.820000
468.516846	145.500000
468.610504	145.260000
468.704224	145.140000
468.797913	145.220000
468.891632	145.400000
468.985291	145.480000
469.079010	145.820000
469.172729	145.540000
469.266418	145.840000
469.360107	145.660000
469.453827	145.640000
469.547516	145.440000
469.641205	145.860000
469.734924	145.980000
469.828613	146.300000
469.922302	146.480000
470.016022	146.700000
470.109711	146.440000
470.203430	145.800000
470.297150	144.860000
470.390808	145.140000
470.484558	144.740000
470.578217	145.520000
470.671936	146.500000
470.765625	147.540000
470.859344	147.000000
470.953003	147.360000
471.046753	146.660000
471.140411	145.760000
471.234131	145.560000
471.327820	146.340000
471.421539	146.260000
471.515228	146.000000
471.608948	146.240000
471.702637	145.760000
471.796326	145.100000
471.890045	145.120000
471.983734	145.540000
472.077423	145.020000
472.171143	145.580000
472.264832	145.740000
472.358521	145.600000
472.452240	145.100000
472.545929	146.280000
472.639648	146.400000
472.733337	146.720000
472.827057	146.940000
472.920746	147.200000
473.014465	146.900000
473.108124	146.560000
473.201874	146.340000
473.295532	145.900000
473.389252	146.300000
473.482941	146.580000
473.576660	146.280000
473.670319	145.960000
473.764069	146.400000
473.857727	146.520000
473.951477	146.420000
474.045166	147.040000
474.138855	147.120000
474.232574	146.760000
474.326263	146.560000
474.419952	146.440000
474.513672	146.120000
474.607361	146.200000
474.701050	146.320000
474.794769	146.360000
474.888458	146.720000
474.982178	146.860000
475.075867	146.720000
475.169586	146.700000
475.263275	146.440000
475.356995	145.880000
475.450653	145.380000
475.544403	145.220000
475.638062	146.040000
475.731812	145.800000
475.825470	145.720000
475.919189	146.100000
476.012878	146.260000
476.106598	145.460000
476.200256	146.080000
476.294006	145.960000
476.387695	145.680000
476.481384	145.900000
476.575104	145.860000
476.668793	145.380000
476.762512	145.060000
476.856201	145.780000
476.949890	145.420000
477.043610	144.760000
477.137299	144.780000
477.230988	145.140000
477.324707	144.420000
477.418396	145.200000
477.512146	145.720000
477.605804	145.780000
477.699524	146.000000
477.793213	146.060000
477.886932	145.480000
477.980591	145.340000
478.074341	145.200000
478.167999	144.700000
478.261749	144.840000
478.355408	144.740000
478.449127	145.260000
478.542816	146.200000
478.636536	147.000000
478.730225	147.040000
478.823944	147.300000
478.917633	147.260000
479.011322	147.060000
479.105042	146.880000
479.198730	146.860000
479.292450	146.720000
479.386139	146.860000
479.479828	146.480000
479.573547	146.600000
479.667267	146.640000
479.760925	146.700000
479.854675	146.380000
479.948334	146.300000
480.042084	145.680000
480.135742	145.960000
480.229462	145.560000
480.323151	145.940000
480.416870	145.400000
480.510529	145.720000
480.604279	144.880000
480.697937	145.620000
480.791656	145.020000
480.885345	145.080000
480.979065	145.040000
481.072754	145.680000
481.166473	145.660000
481.260132	145.680000
481.353882	146.180000
481.447540	146.160000
481.541260	145.980000
481.635010	145.520000
481.728668	145.680000
481.822388	145.280000
481.916077	145.280000
482.009796	145.100000
482.103485	145.540000
482.197205	145.600000
482.290863	145.880000
482.384613	145.640000
482.478271	145.840000
482.571991	145.680000
482.665680	145.700000
482.759399	146.500000
482.853058	146.900000
482.946808	146.480000
483.040466	146.520000
483.134216	146.340000
483.227875	145.640000
483.321594	146.120000
483.415283	146.540000
483.509003	146.260000
483.602661	146.140000
483.696411	146.160000
483.790070	145.960000
483.883789	145.800000
483.977478	146.080000
484.071198	146.120000
484.164917	145.800000
484.258606	145.240000
484.352325	145.580000
484.445984	145.720000
484.539734	145.800000
484.633392	145.700000
484.727142	146.120000
484.820801	145.880000
484.914520	145.460000
485.008209	145.800000
485.101929	146.380000
485.195587	145.980000
485.289337	146.100000
485.382996	146.060000
485.476715	146.140000
485.570404	146.540000
485.664124	146.720000
485.757782	147.060000
485.851532	147.160000
485.945190	146.540000
486.038910	146.060000
486.132599	146.220000
486.226318	145.400000
486.319977	145.220000
486.413727	145.960000
486.507446	145.820000
486.601105	145.480000
486.694855	145.720000
486.788513	145.520000
486.882233	145.180000
486.975922	145.080000
487.069641	145.020000
487.163300	144.980000
487.257050	146.360000
487.350708	146.060000
487.444427	145.920000
487.538116	146.160000
487.631836	145.920000
487.725494	145.020000
487.819214	145.300000
487.912903	145.300000
488.006622	145.320000
488.100281	145.820000
488.194031	145.840000
488.287689	146.140000
488.381409	147.000000
488.475098	146.940000
488.568817	147.340000
488.662476	147.180000
488.756226	146.540000
488.849945	145.420000
488.943604	145.460000
489.037354	145.380000
489.131012	145.600000
489.224731	145.760000
489.318390	146.100000
489.412140	145.960000
489.505798	145.460000
489.599518	145.040000
489.693207	145.380000
489.786926	145.360000
489.880585	145.540000
489.974335	145.940000
490.067993	146.860000
490.161713	146.880000
490.255371	147.700000
490.349121	147.600000
490.442780	147.180000
490.536499	146.260000
490.630188	145.980000
490.723907	145.340000
490.817566	145.120000
490.911285	145.400000
491.004974	145.440000
491.098694	145.360000
491.192413	146.040000
491.286102	146.260000
491.379822	146.420000
491.473480	146.640000
491.567200	146.860000
491.660889	146.120000
491.754608	146.200000
491.848267	146.040000
491.941986	146.020000
492.035675	145.960000
492.129395	146.360000
492.223053	146.160000
492.316772	146.280000
492.410461	146.300000
492.504181	146.360000
492.597839	145.800000
492.691559	145.900000
492.785248	145.740000
492.878967	146.020000
492.972626	145.860000
493.066345	146.240000
493.160034	146.020000
493.253754	145.760000
493.347412	145.360000
493.441132	145.840000
493.534882	146.360000
493.628540	146.420000
493.722260	146.880000
493.815918	147.120000
493.909668	147.120000
494.003326	147.040000
494.097046	147.240000
494.190704	146.940000
494.284454	147.100000
494.378113	146.940000
494.471832	146.540000
494.565491	146.220000
494.659210	146.400000
494.752899	146.160000
494.846619	146.180000
494.940277	146.280000
495.033997	146.400000
495.127686	145.800000
495.221405	145.740000
495.315063	145.460000
495.408783	145.480000
495.502441	145.800000
495.596191	146.260000
495.689850	145.940000
495.783569	146.400000
495.877228	146.320000
495.970947	146.040000
496.064697	146.160000
496.158356	147.480000
496.252075	147.240000
496.345734	147.140000
496.439453	147.680000
496.533142	147.560000
496.626862	147.160000
496.720520	147.160000
496.814240	147.240000
496.907898	147.040000
497.001617	147.400000
497.095306	146.360000
497.189026	146.340000
497.282684	146.380000
497.376404	146.660000
497.470062	146.140000
497.563782	146.460000
497.657471	146.060000
497.751190	145.820000
497.844849	145.540000
497.938568	146.140000
498.032227	146.260000
498.125946	146.580000
498.219635	146.580000
498.313354	146.580000
498.407074	145.680000
498.500732	146.040000
498.594452	146.160000
498.688110	145.920000
498.781830	145.720000
498.875519	146.320000
498.969238	145.960000
499.062897	145.960000
499.156616	146.580000
499.250275	146.640000
499.343994	146.000000
499.437653	146.160000
499.531372	146.060000
499.625061	146.240000
499.718781	146.240000
499.812439	146.920000
499.906158	146.720000
499.999817	146.480000
500.093536	145.700000
500.187195	145.960000
500.280914	145.540000
500.374573	145.740000
500.468323	145.720000
500.561981	146.340000
500.655701	145.860000
500.749420	146.140000
500.843079	146.060000
500.936798	146.480000
501.030457	146.740000
501.124176	147.100000
501.217834	147.060000
501.311554	147.140000
501.405212	146.680000
501.498962	146.060000
501.592621	145.780000
501.686340	146.220000
501.779999	146.100000
501.873718	146.220000
501.967377	146.220000
502.061096	146.300000
502.154755	145.640000
502.248474	145.960000
502.342133	146.200000
502.435852	146.100000
502.529510	146.620000
502.623230	147.180000
502.716888	146.440000
502.810608	146.380000
502.904266	147.080000
502.997986	146.520000
503.091705	145.920000
503.185364	146.220000
503.279083	146.280000
503.372772	145.760000
503.466492	145.460000
503.560150	145.700000
503.653870	145.860000
503.747528	145.560000
503.841248	145.360000
503.934906	145.680000
504.028625	145.520000
504.122284	145.820000
504.216003	146.700000
504.309662	146.580000
504.403381	146.920000
504.497040	146.860000
504.590759	146.360000
504.684418	146.160000
504.778137	146.700000
504.871796	146.720000
504.965515	146.580000
505.059174	146.740000
505.152893	145.760000
505.246521	145.240000
505.340240	144.700000
505.433899	145.140000
505.527618	145.400000
505.621338	146.260000
505.714996	146.200000
505.808716	146.380000
505.902374	146.580000
505.996094	146.580000
506.089752	146.360000
506.183472	146.380000
506.277130	146.360000
506.370850	146.420000
506.464508	145.960000
506.558228	145.760000
506.651886	145.740000
506.745605	146.080000
506.839264	145.560000
506.932983	145.780000
507.026611	145.700000
507.120331	146.280000
507.213989	145.520000
507.307709	145.840000
507.401367	146.220000
507.495087	147.300000
507.588745	146.680000
507.682465	147.440000
507.776123	147.440000
507.869843	146.860000
507.963531	146.020000
508.057190	146.720000
508.150909	146.140000
508.244568	146.080000
508.338287	146.000000
508.431946	145.600000
508.525665	145.340000
508.619324	145.500000
508.713013	145.460000
508.806671	146.000000
508.900391	146.900000
508.994049	146.760000
509.087769	146.280000
509.181427	146.760000
509.275146	146.180000
509.368774	145.460000
509.462494	145.600000
509.556152	145.900000
509.649872	145.560000
509.743530	145.660000
509.837250	145.820000
509.930878	145.640000
510.024597	145.740000
510.118256	145.600000
510.211975	145.820000
510.305695	145.740000
510.399353	146.080000
510.493042	146.720000
510.586700	146.800000
510.680420	147.280000
510.774078	147.080000
510.867798	147.160000
510.961426	146.460000
511.055145	146.460000
511.148804	145.900000
511.242523	146.400000
511.336151	146.040000
511.429871	146.640000
511.523529	146.380000
511.617249	146.160000
511.710876	145.860000
511.804596	145.480000
511.898254	145.160000
511.991974	145.500000
512.085632	145.420000
512.179321	145.420000
512.272949	146.360000
512.366699	146.640000
512.460327	146.500000
512.554077	147.620000
512.647766	147.560000
512.741394	146.900000
512.835144	147.180000
512.928772	146.780000
513.022461	146.200000
513.116150	146.040000
513.209839	146.600000
513.303467	145.760000
513.397217	145.920000
513.490845	145.580000
513.584595	145.780000
513.678223	145.120000
513.771912	144.800000
513.865601	144.920000
513.959290	145.040000
514.052917	144.820000
514.146667	145.640000
514.240295	146.240000
514.333984	146.440000
514.427673	146.460000
514.521362	147.240000
514.614990	146.360000
514.708740	146.340000
514.802368	146.560000
514.896057	146.540000
514.989746	146.680000
515.083435	147.020000
515.177124	147.300000
515.270752	146.680000
515.364502	146.880000
515.458130	146.640000
515.551819	146.500000
515.645508	146.280000
515.739197	146.500000
515.832825	146.380000
515.926575	145.960000
516.020203	146.220000
516.113892	146.380000
516.207520	146.300000
516.301270	146.240000
516.394897	146.380000
516.488586	146.620000
516.582275	146.300000
516.675964	145.760000
516.769592	145.820000
516.863281	146.420000
516.956970	146.460000
517.050659	146.860000
517.144287	147.340000
517.238037	147.260000
517.331665	146.440000
517.425354	146.000000
517.519043	145.360000
517.612732	145.960000
517.706421	145.960000
517.800049	145.920000
517.893738	145.700000
517.987427	146.000000
518.081116	145.340000
518.174744	145.160000
518.268433	145.420000
518.362122	146.120000
518.455811	146.180000
518.549438	146.780000
518.643127	147.580000
518.736816	147.380000
518.830505	146.600000
518.924133	146.460000
519.017822	146.620000
519.111511	145.720000
519.205200	146.340000
519.298828	146.420000
519.392517	146.260000
519.486206	146.040000
519.579895	146.340000
519.673523	145.760000
519.767212	145.620000
519.860901	146.240000
519.954590	146.000000
520.048279	145.820000
520.141907	145.880000
520.235596	146.960000
520.329224	146.580000
520.422974	146.680000
520.516602	146.760000
520.610291	146.300000
520.703918	145.880000
520.797607	145.680000
520.891296	145.600000
520.984985	145.660000
521.078613	146.660000
521.172302	146.260000
521.265930	147.300000
521.359680	147.560000
521.453308	147.440000
521.546997	147.180000
521.640625	147.480000
521.734314	146.580000
521.827942	146.300000
521.921692	146.780000
522.015320	146.560000
522.109009	146.260000
522.202698	146.220000
522.296326	146.200000
522.390015	146.100000
522.483704	146.180000
522.577393	146.020000
522.671021	146.160000
522.764709	145.680000
522.858337	145.980000
522.952026	146.060000
523.045654	146.940000
523.139404	147.480000
523.233032	147.800000
523.326721	147.140000
523.420349	147.200000
523.514038	146.400000
523.607666	146.360000
523.701355	145.860000
523.795044	145.980000
523.888733	145.960000
523.982361	146.320000
524.076050	145.780000
524.169678	146.440000
524.263367	146.460000
524.356995	146.120000
524.450684	145.920000
524.544373	145.920000
524.638062	145.840000
524.731750	146.080000
524.825378	146.080000
524.919067	145.760000
525.012695	145.760000
525.106384	145.640000
525.200012	145.520000
525.293701	145.520000
525.387329	145.960000
525.481018	146.320000
525.574646	146.720000
525.668396	146.760000
525.762024	147.100000
525.855713	147.100000
525.949341	146.580000
526.043030	146.720000
526.136658	146.180000
526.230347	145.760000
526.323975	145.460000
526.417664	145.700000
526.511292	145.420000
526.604980	145.920000
526.698608	145.780000
526.792297	145.960000
526.885925	146.060000
526.979614	146.320000
527.073303	146.280000
527.166931	146.880000
527.260620	147.120000
527.354309	147.540000
527.447998	147.500000
527.541626	147.180000
527.635315	147.060000
527.728943	147.240000
527.822632	146.940000
527.916260	146.640000
528.009949	147.120000
528.103577	146.700000
528.197266	146.140000
528.290894	146.360000
528.384583	146.400000
528.478210	146.140000
528.571899	146.720000
528.665527	147.060000
528.759216	146.840000
528.852844	147.140000
528.946533	147.400000
529.040161	147.180000
529.133850	146.900000
529.227478	146.840000
529.321167	146.760000
529.414856	146.920000
529.508484	147.140000
529.602173	146.860000
529.695801	146.620000
529.789490	146.300000
529.883057	145.920000
529.976746	145.820000
530.070374	146.480000
530.164062	146.580000
530.257690	146.980000
530.351379	147.000000
530.445007	146.720000
530.538696	146.040000
530.632324	146.340000
530.726013	146.100000
530.819641	146.140000
530.913330	146.300000
531.006958	146.400000
531.100647	146.520000
531.194275	146.280000
531.287964	146.260000
531.381592	146.180000
531.475220	146.460000
531.568848	146.000000
531.662537	146.020000
531.756226	146.140000
531.849854	146.120000
531.943542	146.340000
532.037170	145.900000
532.130859	146.440000
532.224487	146.120000
532.318176	145.620000
532.411804	145.560000
532.505432	146.360000
532.599060	145.920000
532.692749	145.740000
532.786377	146.380000
532.880066	145.720000
532.973694	145.080000
533.067383	145.180000
533.161011	145.320000
533.254639	145.080000
533.348267	145.340000
533.441956	145.760000
533.535583	145.560000
533.629272	145.520000
533.722900	145.140000
533.816589	145.320000
533.910156	145.580000
534.003845	145.560000
534.097534	146.020000
534.191162	147.100000
534.284851	147.180000
534.378479	146.540000
534.472107	146.440000
534.565735	146.160000
534.659424	146.040000
534.753052	146.360000
534.846741	146.140000
534.940369	146.600000
535.033997	146.400000
535.127625	146.220000
535.221313	146.500000
535.314941	146.760000
535.408630	146.300000
535.502197	146.840000
535.595886	146.380000
535.689514	145.620000
535.783203	146.160000
535.876831	146.880000
535.970459	146.620000
536.064087	146.560000
536.157776	146.740000
536.251404	146.580000
536.345093	146.020000
536.438721	146.320000
536.532349	146.720000
536.626038	146.600000
536.719666	146.620000
536.813293	146.320000
536.906921	145.800000
537.000610	146.100000
537.094238	146.120000
537.187866	146.060000
537.281494	146.340000
537.375183	146.720000
537.468811	146.060000
537.562439	146.140000
537.656067	146.080000
537.749756	146.040000
537.843384	146.420000
537.937012	146.540000
538.030640	146.140000
538.124329	146.000000
538.217896	146.240000
538.311584	146.080000
538.405212	146.160000
538.498901	146.620000
538.592468	147.380000
538.686157	146.760000
538.779785	146.180000
538.873413	146.140000
538.967102	145.720000
539.060730	144.900000
539.154358	145.580000
539.247986	145.920000
539.341675	145.820000
539.435242	145.940000
539.528931	146.260000
539.622559	145.480000
539.716187	145.820000
539.809814	145.960000
539.903503	146.040000
539.997070	145.760000
540.090759	146.440000
540.184387	145.980000
540.278015	146.360000
540.371643	146.580000
540.465332	146.700000
540.558899	146.640000
540.652588	146.520000
540.746216	145.800000
540.839844	145.960000
540.933472	145.680000
541.027100	145.360000
541.120728	145.460000
541.214417	145.980000
541.308044	145.920000
541.401672	146.160000
541.495300	146.100000
541.588928	146.000000
541.682617	145.500000
541.776184	145.240000
541.869873	145.400000
541.963440	145.680000
542.057129	146.000000
542.150757	145.940000
542.244385	145.740000
542.338013	145.420000
542.431641	145.200000
542.525269	144.880000
542.618958	145.500000
542.712524	145.760000
542.806213	145.580000
542.899780	146.100000
542.993469	145.940000
543.087036	145.520000
543.180725	145.300000
543.274292	145.680000
543.367981	145.720000
543.461548	146.200000
543.555237	146.420000
543.648926	146.880000
543.742493	147.360000
543.836182	147.000000
543.929749	146.960000
544.023437	147.100000
544.117004	147.000000
544.210693	146.780000
544.304260	146.840000
544.397949	146.620000
544.491516	146.620000
544.585205	146.540000
544.678772	146.060000
544.772461	146.360000
544.866028	146.100000
544.959717	146.220000
545.053284	145.840000
545.146973	146.260000
545.240540	146.100000
545.334229	146.840000
545.427795	146.720000
545.521423	147.000000
545.615051	146.780000
545.708679	147.260000
545.802307	146.820000
545.895935	146.760000
545.989624	147.500000
546.083191	147.480000
546.176880	146.880000
546.270447	146.680000
546.364136	147.200000
546.457703	146.460000
546.551331	146.480000
546.644958	146.540000
546.738586	146.900000
546.832214	146.240000
546.925842	145.940000
547.019409	146.040000
547.113098	145.720000
547.206665	145.320000
547.300354	145.360000
547.393921	146.200000
547.487549	146.220000
547.581177	146.300000
547.674805	146.320000
547.768433	145.960000
547.862061	145.380000
547.955627	144.580000
548.049316	144.960000
548.142883	145.320000
548.236572	146.060000
548.330139	146.240000
548.423767	146.640000
548.517456	146.720000
548.611023	146.760000
548.704651	145.940000
548.798279	145.920000
548.891907	146.580000
548.985474	146.220000
549.079163	146.580000
549.172729	146.640000
549.266357	146.220000
549.359985	146.000000
549.453613	145.580000
549.547180	145.080000
549.640869	145.540000
549.734436	145.540000
549.828064	145.520000
549.921631	145.700000
550.015320	145.420000
550.108887	145.800000
550.202515	145.920000
550.296143	145.720000
550.389771	145.840000
550.483337	146.060000
550.576965	145.720000
550.670593	146.280000
550.764221	146.520000
550.857849	146.340000
550.951477	145.940000
551.045105	145.440000
551.138672	145.140000
551.232300	144.560000
551.325928	145.060000
551.419556	145.580000
551.513123	145.900000
551.606750	145.840000
551.700378	146.340000
551.794006	145.960000
551.887573	145.780000
551.981201	146.260000
552.074768	145.980000
552.168457	145.640000
552.262024	146.420000
552.355652	146.340000
552.449219	146.620000
552.542847	147.100000
552.636475	146.960000
552.730103	145.900000
552.823669	145.740000
552.917297	144.880000
553.010864	144.760000
553.104553	145.200000
553.198181	145.140000
553.291748	145.800000
553.385376	146.140000
553.478943	145.780000
553.572571	145.760000
553.666199	146.320000
553.759827	145.720000
553.853394	145.540000
553.947021	145.540000
554.040588	145.740000
554.134216	145.780000
554.227783	146.360000
554.321411	147.000000
554.415039	146.780000
554.508667	146.420000
554.602234	146.600000
554.695862	145.900000
554.789429	145.160000
554.883057	145.640000
554.976624	145.960000
555.070251	145.900000
555.163818	145.900000
555.257507	146.040000
555.351074	146.060000
555.444702	146.800000
555.538330	146.420000
555.631897	146.800000
555.725525	147.020000
555.819092	146.740000
555.912720	145.440000
556.006287	146.020000
556.099915	145.880000
556.193481	145.840000
556.287109	146.180000
556.380676	146.380000
556.474304	146.080000
556.567871	146.460000
556.661499	145.780000
556.755066	145.420000
556.848694	145.580000
556.942261	145.720000
557.035889	145.740000
557.129517	146.200000
557.223145	146.880000
557.316711	146.860000
557.410339	146.940000
557.503906	146.580000
557.597473	146.800000
557.691040	146.160000
557.784668	146.340000
557.878296	146.140000
557.971863	146.340000
558.065491	146.320000
558.159058	146.380000
558.252686	146.880000
558.346252	147.300000
558.439880	146.940000
558.533447	146.600000
558.627075	146.500000
558.720642	145.740000
558.814270	145.540000
558.907837	145.540000
559.001465	145.440000
559.095032	146.240000
559.188660	146.480000
559.282227	145.700000
559.375854	146.500000
559.469360	146.400000
559.562988	146.360000
559.656555	146.400000
559.750183	147.100000
559.843750	146.600000
559.937378	146.760000
560.030945	146.400000
560.124573	0.000000
560.218140	0.000000
560.311707	0.000000
560.405334	0.000000
560.498901	0.000000
560.592529	0.000000
560.686096	0.000000
560.779724	0.000000
560.873291	0.000000
560.966858	0.000000
561.060425	0.000000
561.154053	0.000000
561.247620	0.000000
561.341248	0.000000
561.434814	0.000000
561.528381	0.000000
561.621948	0.000000
561.715576	0.000000
561.809143	0.000000
561.902771	0.000000
561.996277	0.000000
562.089905	0.000000
562.183472	0.000000
562.277100	0.000000
