Model Number: SPM-002-B   
Serial Number: 70087108
Firmware Version: 004.15.4
Exposure Time: 100000.000000us
Data Taken on: 11-12-2020 18:43:02.079
Wavelength	Amplitude
221.570786	0.000000
221.663406	0.000000
221.756027	0.000000
221.848648	0.000000
221.941269	0.000000
222.033905	0.000000
222.126526	0.000000
222.219162	0.000000
222.311798	0.000000
222.404419	0.000000
222.497055	0.000000
222.589676	0.000000
222.682312	0.000000
222.774933	0.000000
222.867569	0.000000
222.960205	0.000000
223.052841	0.000000
223.145462	0.000000
223.238098	0.000000
223.330734	0.000000
223.423386	0.000000
223.516022	0.000000
223.608658	0.000000
223.701309	0.000000
223.793945	0.000000
223.886581	0.000000
223.979218	0.000000
224.071869	0.000000
224.164505	0.000000
224.257156	0.000000
224.349792	0.000000
224.442444	0.000000
224.535095	0.000000
224.627747	0.000000
224.720398	0.000000
224.813034	0.000000
224.905685	0.000000
224.998337	145.760000
225.090988	145.220000
225.183640	144.900000
225.276291	144.780000
225.368942	145.320000
225.461594	145.520000
225.554245	145.820000
225.646912	146.040000
225.739578	146.280000
225.832230	146.900000
225.924896	146.100000
226.017548	146.500000
226.110199	147.100000
226.202866	146.480000
226.295532	145.980000
226.388184	146.260000
226.480850	145.720000
226.573517	145.240000
226.666168	145.820000
226.758835	145.900000
226.851501	146.300000
226.944183	146.540000
227.036850	146.060000
227.129517	145.500000
227.222183	145.620000
227.314850	145.800000
227.407516	146.200000
227.500198	147.300000
227.592865	147.580000
227.685532	147.260000
227.778214	146.840000
227.870880	146.800000
227.963562	146.680000
228.056229	147.100000
228.148926	146.900000
228.241592	147.900000
228.334274	147.520000
228.426956	147.220000
228.519638	147.080000
228.612305	146.900000
228.704987	146.400000
228.797668	146.480000
228.890350	146.440000
228.983032	145.800000
229.075714	146.780000
229.168396	146.300000
229.261108	145.980000
229.353790	145.700000
229.446472	146.360000
229.539169	145.880000
229.631851	145.440000
229.724533	145.700000
229.817230	145.920000
229.909912	146.560000
230.002609	146.620000
230.095306	147.080000
230.187988	146.940000
230.280685	146.860000
230.373383	145.740000
230.466095	145.460000
230.558792	145.740000
230.651474	145.740000
230.744171	145.560000
230.836868	145.820000
230.929581	146.260000
231.022278	146.520000
231.114975	146.560000
231.207672	146.760000
231.300369	147.040000
231.393082	146.860000
231.485779	146.300000
231.578506	146.480000
231.671204	146.500000
231.763916	146.260000
231.856613	146.320000
231.949326	146.580000
232.042023	146.340000
232.134735	146.200000
232.227448	146.100000
232.320160	146.260000
232.412872	146.280000
232.505585	147.160000
232.598297	147.640000
232.691010	147.300000
232.783722	146.580000
232.876450	147.080000
232.969162	146.540000
233.061874	145.820000
233.154587	145.760000
233.247314	146.420000
233.340027	145.740000
233.432739	146.460000
233.525467	146.380000
233.618179	146.940000
233.710907	146.440000
233.803635	146.620000
233.896347	145.720000
233.989090	146.760000
234.081818	146.280000
234.174545	146.660000
234.267258	146.320000
234.359985	146.720000
234.452713	146.280000
234.545441	146.300000
234.638168	145.940000
234.730896	146.480000
234.823639	146.180000
234.916367	146.460000
235.009094	146.680000
235.101822	146.840000
235.194580	146.360000
235.287308	146.260000
235.380051	145.620000
235.472778	145.800000
235.565521	146.040000
235.658249	145.700000
235.750992	145.680000
235.843719	145.560000
235.936462	145.880000
236.029205	145.340000
236.121948	145.660000
236.214691	146.200000
236.307449	146.920000
236.400192	146.340000
236.492935	146.400000
236.585678	146.560000
236.678421	146.420000
236.771164	146.260000
236.863907	147.040000
236.956665	147.820000
237.049408	149.460000
237.142151	149.300000
237.234909	149.580000
237.327652	149.280000
237.420410	148.560000
237.513153	147.540000
237.605927	147.080000
237.698669	146.460000
237.791428	145.740000
237.884186	146.360000
237.976944	145.280000
238.069702	145.880000
238.162445	145.560000
238.255203	146.000000
238.347961	146.180000
238.440720	146.320000
238.533478	145.860000
238.626266	145.840000
238.719025	146.220000
238.811783	145.600000
238.904541	145.660000
238.997314	145.580000
239.090073	145.560000
239.182831	145.180000
239.275604	146.200000
239.368362	146.460000
239.461136	146.680000
239.553909	146.840000
239.646667	146.760000
239.739441	145.900000
239.832214	146.020000
239.925003	146.100000
240.017761	146.880000
240.110535	147.260000
240.203308	147.040000
240.296082	147.020000
240.388855	147.000000
240.481628	146.620000
240.574417	146.740000
240.667191	146.940000
240.759964	146.660000
240.852737	146.580000
240.945526	146.160000
241.038315	145.940000
241.131088	145.780000
241.223877	145.960000
241.316650	145.700000
241.409439	146.320000
241.502228	145.600000
241.595001	146.440000
241.687790	146.120000
241.780579	146.260000
241.873367	146.000000
241.966141	146.760000
242.058929	145.900000
242.151718	146.240000
242.244507	146.720000
242.337311	146.160000
242.430099	146.260000
242.522903	146.500000
242.615692	145.860000
242.708481	145.480000
242.801270	146.300000
242.894073	145.940000
242.986862	145.840000
243.079651	146.900000
243.172455	146.600000
243.265244	146.440000
243.358063	146.300000
243.450867	146.820000
243.543655	146.380000
243.636459	146.860000
243.729263	147.060000
243.822067	147.220000
243.914856	147.420000
244.007660	147.860000
244.100464	147.660000
244.193268	147.440000
244.286072	147.440000
244.378876	146.640000
244.471680	145.920000
244.564499	146.200000
244.657318	146.600000
244.750122	147.020000
244.842926	146.800000
244.935745	147.040000
245.028549	146.280000
245.121368	145.660000
245.214172	145.320000
245.306992	146.080000
245.399796	145.780000
245.492615	146.220000
245.585434	146.100000
245.678253	146.080000
245.771072	145.540000
245.863892	146.380000
245.956711	146.600000
246.049530	146.520000
246.142349	146.300000
246.235168	146.700000
246.327988	146.900000
246.420807	146.580000
246.513626	146.900000
246.606445	146.740000
246.699280	146.680000
246.792099	146.260000
246.884918	145.880000
246.977753	145.620000
247.070587	146.020000
247.163422	145.760000
247.256241	145.960000
247.349075	146.540000
247.441895	146.940000
247.534729	146.780000
247.627563	146.740000
247.720383	146.880000
247.813217	146.740000
247.906052	146.360000
247.998886	146.400000
248.091736	146.420000
248.184570	145.920000
248.277405	146.060000
248.370239	146.940000
248.463074	147.480000
248.555908	147.620000
248.648743	147.640000
248.741592	147.800000
248.834427	146.660000
248.927261	145.700000
249.020111	145.880000
249.112946	146.280000
249.205795	146.000000
249.298630	146.460000
249.391495	146.600000
249.484344	146.300000
249.577179	146.180000
249.670029	146.360000
249.762878	146.940000
249.855728	147.400000
249.948563	147.320000
250.041412	146.700000
250.134262	146.500000
250.227112	146.300000
250.319962	146.620000
250.412827	146.820000
250.505692	146.680000
250.598541	147.060000
250.691391	146.460000
250.784241	145.980000
250.877106	146.180000
250.969955	146.220000
251.062805	146.420000
251.155670	147.380000
251.248520	146.800000
251.341385	146.700000
251.434235	146.820000
251.527100	146.280000
251.619965	145.280000
251.712814	146.540000
251.805695	146.700000
251.898560	146.660000
251.991425	146.860000
252.084290	147.380000
252.177155	146.460000
252.270020	145.940000
252.362885	146.120000
252.455750	145.960000
252.548615	145.640000
252.641479	145.720000
252.734360	145.840000
252.827240	145.780000
252.920105	146.000000
253.012970	145.720000
253.105850	145.860000
253.198715	145.580000
253.291595	145.320000
253.384460	145.060000
253.477341	145.260000
253.570221	145.360000
253.663086	145.320000
253.755966	146.040000
253.848846	146.040000
253.941727	146.500000
254.034592	146.540000
254.127472	146.120000
254.220367	146.140000
254.313248	146.360000
254.406128	145.700000
254.499008	145.780000
254.591904	147.080000
254.684784	147.440000
254.777664	147.400000
254.870544	147.160000
254.963440	147.220000
255.056335	146.760000
255.149216	146.120000
255.242111	146.580000
255.334991	147.360000
255.427887	147.060000
255.520767	147.360000
255.613663	147.740000
255.706558	147.040000
255.799438	146.500000
255.892334	146.280000
255.985229	146.060000
256.078125	145.600000
256.171021	145.680000
256.263916	146.060000
256.356812	146.480000
256.449707	146.700000
256.542603	146.520000
256.635498	146.960000
256.728394	146.880000
256.821289	146.580000
256.914215	146.560000
257.007080	147.100000
257.100006	147.000000
257.192932	147.220000
257.285828	147.540000
257.378723	147.480000
257.471619	147.000000
257.564545	146.480000
257.657440	146.800000
257.750336	146.920000
257.843262	146.460000
257.936157	147.600000
258.029053	148.080000
258.121979	147.760000
258.214874	147.500000
258.307800	147.300000
258.400696	146.140000
258.493622	145.840000
258.586517	145.220000
258.679443	145.660000
258.772339	145.460000
258.865265	145.480000
258.958160	145.500000
259.051086	146.540000
259.144012	146.220000
259.236938	147.240000
259.329834	147.460000
259.422791	147.220000
259.515717	146.220000
259.608612	145.680000
259.701538	145.720000
259.794464	145.420000
259.887390	145.440000
259.980316	145.500000
260.073212	145.620000
260.166138	144.480000
260.259064	145.260000
260.351990	146.060000
260.444916	146.200000
260.537842	146.520000
260.630768	147.720000
260.723694	147.160000
260.816620	146.580000
260.909546	146.660000
261.002472	146.360000
261.095398	145.440000
261.188354	145.660000
261.281281	145.520000
261.374207	145.500000
261.467133	146.300000
261.560089	146.680000
261.653015	146.480000
261.745972	147.280000
261.838867	147.720000
261.931824	147.640000
262.024780	147.100000
262.117706	147.360000
262.210663	147.100000
262.303589	146.980000
262.396515	146.760000
262.489471	147.980000
262.582397	147.560000
262.675354	146.780000
262.768280	146.680000
262.861237	146.820000
262.954163	146.300000
263.047119	146.620000
263.140045	146.580000
263.233002	146.420000
263.325958	145.920000
263.418884	145.480000
263.511841	145.340000
263.604797	145.420000
263.697723	145.720000
263.790680	145.840000
263.883636	146.520000
263.976593	146.440000
264.069550	146.860000
264.162476	146.520000
264.255463	146.720000
264.348419	145.940000
264.441376	146.240000
264.534332	145.840000
264.627289	145.880000
264.720245	146.100000
264.813202	146.000000
264.906158	146.220000
264.999115	146.720000
265.092072	146.680000
265.185028	146.960000
265.277985	147.600000
265.370941	147.280000
265.463898	146.960000
265.556854	146.640000
265.649811	145.740000
265.742798	145.320000
265.835754	145.320000
265.928711	146.060000
266.021667	146.240000
266.114655	146.540000
266.207611	147.040000
266.300568	146.600000
266.393585	145.700000
266.486511	146.180000
266.579498	145.580000
266.672485	145.440000
266.765442	145.420000
266.858429	145.920000
266.951385	145.260000
267.044342	145.560000
267.137329	145.320000
267.230316	145.600000
267.323273	145.120000
267.416260	146.000000
267.509216	145.860000
267.602203	146.180000
267.695160	146.200000
267.788147	146.460000
267.881134	145.900000
267.974091	146.380000
268.067078	145.940000
268.160065	145.840000
268.253052	145.880000
268.346008	146.140000
268.438995	145.920000
268.531982	145.980000
268.624969	146.040000
268.717987	146.300000
268.810944	146.280000
268.903961	146.160000
268.996948	146.020000
269.089905	146.440000
269.182892	146.400000
269.275879	146.640000
269.368866	146.500000
269.461853	146.860000
269.554871	146.780000
269.647858	146.420000
269.740845	146.440000
269.833832	146.940000
269.926819	146.660000
270.019806	146.620000
270.112793	146.440000
270.205811	146.520000
270.298798	146.140000
270.391785	146.500000
270.484772	146.020000
270.577789	146.260000
270.670776	145.780000
270.763763	145.860000
270.856750	145.740000
270.949768	145.820000
271.042786	145.900000
271.135773	145.860000
271.228790	146.380000
271.321808	146.100000
271.414795	145.660000
271.507782	145.360000
271.600800	145.020000
271.693817	144.720000
271.786804	145.260000
271.879822	145.720000
271.972809	145.720000
272.065826	146.360000
272.158844	145.940000
272.251831	146.220000
272.344849	146.360000
272.437866	146.380000
272.530853	146.420000
272.623871	147.000000
272.716888	145.920000
272.809906	146.300000
272.902893	146.340000
272.995911	145.780000
273.088928	145.540000
273.181946	146.100000
273.274963	145.560000
273.367981	145.560000
273.460999	145.720000
273.554047	146.320000
273.647003	146.920000
273.740051	147.140000
273.833069	147.580000
273.926086	147.980000
274.019135	147.320000
274.112152	146.720000
274.205170	146.440000
274.298187	146.660000
274.391205	146.080000
274.484222	146.040000
274.577240	146.040000
274.670258	145.900000
274.763306	145.180000
274.856323	145.620000
274.949341	145.760000
275.042358	145.920000
275.135406	145.920000
275.228424	146.140000
275.321442	145.900000
275.414490	145.600000
275.507507	145.920000
275.600525	146.620000
275.693573	146.280000
275.786591	146.340000
275.879669	146.520000
275.972656	145.680000
276.065735	145.240000
276.158752	145.960000
276.251801	146.380000
276.344818	146.320000
276.437866	146.860000
276.530884	146.680000
276.623932	145.860000
276.716980	145.840000
276.809998	146.320000
276.903046	146.060000
276.996094	147.020000
277.089111	147.760000
277.182159	147.800000
277.275208	147.380000
277.368256	147.640000
277.461304	146.860000
277.554321	146.100000
277.647369	146.020000
277.740417	146.020000
277.833466	145.500000
277.926514	145.600000
278.019562	146.780000
278.112610	146.240000
278.205688	146.480000
278.298706	147.000000
278.391785	146.580000
278.484833	145.620000
278.577881	145.540000
278.670929	145.880000
278.763977	145.900000
278.857025	146.660000
278.950073	146.620000
279.043121	146.740000
279.136169	146.400000
279.229248	146.080000
279.322296	146.060000
279.415344	146.180000
279.508392	146.080000
279.601440	146.020000
279.694519	146.080000
279.787567	145.700000
279.880615	145.600000
279.973694	145.480000
280.066742	145.340000
280.159790	145.440000
280.252869	145.480000
280.345917	145.460000
280.438995	145.860000
280.532074	145.880000
280.625122	146.280000
280.718201	147.280000
280.811279	147.620000
280.904327	147.480000
280.997406	148.060000
281.090454	147.960000
281.183533	146.780000
281.276581	146.620000
281.369659	146.220000
281.462738	145.760000
281.555786	145.640000
281.648865	146.060000
281.741943	145.960000
281.835022	146.900000
281.928070	146.620000
282.021149	146.300000
282.114227	146.080000
282.207306	146.320000
282.300385	146.360000
282.393433	146.860000
282.486511	147.140000
282.579590	147.860000
282.672668	147.860000
282.765747	147.140000
282.858856	146.580000
282.951904	146.580000
283.045013	146.280000
283.138062	146.700000
283.231171	147.160000
283.324249	147.780000
283.417328	147.740000
283.510406	147.080000
283.603485	146.520000
283.696564	146.260000
283.789642	146.200000
283.882751	146.060000
283.975830	146.680000
284.068909	146.860000
284.161987	147.280000
284.255066	146.420000
284.348175	146.540000
284.441254	146.280000
284.534332	146.580000
284.627441	146.080000
284.720520	146.120000
284.813599	146.020000
284.906708	146.040000
284.999786	145.400000
285.092896	145.300000
285.185974	146.640000
285.279053	146.380000
285.372192	146.480000
285.465240	147.180000
285.558380	147.320000
285.651459	146.440000
285.744568	147.340000
285.837677	147.000000
285.930756	146.540000
286.023865	146.760000
286.116943	146.540000
286.210052	145.840000
286.303162	146.000000
286.396240	146.000000
286.489349	145.660000
286.582458	146.260000
286.675568	146.520000
286.768646	146.460000
286.861755	146.800000
286.954865	147.600000
287.047974	146.680000
287.141083	146.500000
287.234161	146.300000
287.327271	145.880000
287.420380	146.000000
287.513519	146.200000
287.606598	146.400000
287.699738	146.900000
287.792816	146.940000
287.885956	146.400000
287.979034	146.640000
288.072174	146.400000
288.165283	145.820000
288.258392	146.080000
288.351501	145.600000
288.444611	145.720000
288.537720	146.260000
288.630859	146.460000
288.723969	146.300000
288.817078	146.960000
288.910187	146.920000
289.003296	146.300000
289.096436	145.960000
289.189545	145.840000
289.282654	145.300000
289.375763	145.820000
289.468903	146.360000
289.562012	146.840000
289.655121	146.920000
289.748260	146.980000
289.841400	146.600000
289.934509	146.360000
290.027649	146.380000
290.120728	146.180000
290.213898	146.520000
290.306976	146.440000
290.400146	146.280000
290.493256	145.880000
290.586395	146.300000
290.679535	146.460000
290.772644	146.560000
290.865784	146.120000
290.958893	145.960000
291.052032	145.560000
291.145172	145.300000
291.238281	145.120000
291.331421	145.420000
291.424561	146.120000
291.517670	146.060000
291.610809	146.480000
291.703949	146.340000
291.797089	146.520000
291.890228	145.940000
291.983337	145.980000
292.076477	145.260000
292.169617	145.480000
292.262756	145.380000
292.355927	145.720000
292.449036	145.440000
292.542206	145.640000
292.635315	145.780000
292.728485	146.140000
292.821625	145.620000
292.914764	146.860000
293.007904	147.060000
293.101044	147.000000
293.194183	146.420000
293.287323	146.800000
293.380463	145.860000
293.473602	145.460000
293.566742	145.860000
293.659882	146.440000
293.753021	146.660000
293.846191	146.440000
293.939331	146.260000
294.032471	145.480000
294.125610	144.920000
294.218781	145.260000
294.311920	145.900000
294.405060	146.280000
294.498230	146.500000
294.591370	146.820000
294.684540	145.940000
294.777679	145.700000
294.870850	145.840000
294.963959	145.920000
295.057159	145.720000
295.150299	146.180000
295.243469	146.000000
295.336609	145.640000
295.429779	145.440000
295.522919	146.040000
295.616089	146.400000
295.709229	146.800000
295.802399	146.800000
295.895569	146.900000
295.988708	146.340000
296.081879	146.060000
296.175018	145.700000
296.268188	145.760000
296.361359	146.240000
296.454529	146.480000
296.547668	146.380000
296.640839	146.740000
296.734009	146.760000
296.827179	146.640000
296.920319	146.980000
297.013519	146.920000
297.106659	146.880000
297.199860	146.860000
297.292999	146.660000
297.386200	145.900000
297.479309	146.020000
297.572510	145.960000
297.665680	145.580000
297.758850	145.800000
297.852020	145.920000
297.945190	145.580000
298.038361	145.280000
298.131531	146.260000
298.224701	145.740000
298.317871	145.620000
298.411072	145.360000
298.504242	144.900000
298.597412	144.520000
298.690582	144.820000
298.783752	144.940000
298.876923	145.620000
298.970093	146.220000
299.063293	146.560000
299.156464	146.680000
299.249634	147.020000
299.342834	147.140000
299.436005	147.320000
299.529205	147.040000
299.622345	147.180000
299.715576	146.680000
299.808716	146.220000
299.901917	146.040000
299.995117	146.320000
300.088287	146.520000
300.181488	146.360000
300.274658	146.360000
300.367828	146.780000
300.461029	146.400000
300.554199	146.180000
300.647400	146.500000
300.740601	146.880000
300.833771	146.360000
300.926971	146.740000
301.020142	146.140000
301.113342	146.200000
301.206512	145.980000
301.299713	146.340000
301.392914	146.020000
301.486084	146.460000
301.579285	146.080000
301.672516	146.820000
301.765686	146.460000
301.858887	146.480000
301.952057	146.740000
302.045288	147.440000
302.138458	146.840000
302.231659	147.020000
302.324860	146.960000
302.418060	146.120000
302.511261	145.760000
302.604462	146.020000
302.697662	145.640000
302.790863	145.460000
302.884064	145.520000
302.977264	145.560000
303.070465	145.580000
303.163666	146.140000
303.256866	146.520000
303.350067	146.960000
303.443268	146.820000
303.536469	146.740000
303.629669	146.340000
303.722870	146.240000
303.816071	145.840000
303.909271	145.900000
304.002472	145.140000
304.095673	145.040000
304.188934	144.300000
304.282104	145.400000
304.375336	145.620000
304.468506	145.860000
304.561768	145.620000
304.654968	146.400000
304.748169	145.580000
304.841370	145.120000
304.934601	145.240000
305.027802	145.320000
305.121002	144.960000
305.214233	145.160000
305.307434	145.560000
305.400665	146.480000
305.493866	146.260000
305.587097	146.520000
305.680298	146.280000
305.773499	146.320000
305.866730	145.780000
305.959930	146.640000
306.053162	146.700000
306.146393	146.660000
306.239594	146.360000
306.332825	146.360000
306.426025	146.680000
306.519287	146.520000
306.612488	146.580000
306.705719	146.580000
306.798920	146.620000
306.892181	145.780000
306.985352	145.460000
307.078613	145.080000
307.171844	145.500000
307.265045	144.960000
307.358276	144.960000
307.451508	145.420000
307.544739	146.140000
307.637970	145.480000
307.731201	145.440000
307.824402	145.980000
307.917633	146.300000
308.010864	146.500000
308.104095	147.120000
308.197327	147.520000
308.290558	147.380000
308.383789	146.880000
308.477020	146.320000
308.570251	145.760000
308.663483	145.480000
308.756714	145.280000
308.849976	145.380000
308.943176	146.040000
309.036438	146.060000
309.129639	145.960000
309.222900	146.060000
309.316101	146.080000
309.409393	145.340000
309.502625	145.200000
309.595856	145.500000
309.689087	145.560000
309.782318	145.660000
309.875580	145.940000
309.968811	146.280000
310.062042	145.840000
310.155273	145.760000
310.248535	146.140000
310.341766	146.000000
310.434998	145.920000
310.528259	145.900000
310.621490	146.120000
310.714722	145.260000
310.807983	145.400000
310.901215	145.520000
310.994476	145.700000
311.087708	145.140000
311.181000	145.480000
311.274200	145.080000
311.367462	144.840000
311.460693	144.980000
311.553986	145.880000
311.647186	146.060000
311.740479	146.780000
311.833710	146.680000
311.926971	146.620000
312.020203	145.760000
312.113464	145.440000
312.206726	144.840000
312.299957	145.120000
312.393219	145.460000
312.486481	145.700000
312.579712	145.900000
312.672974	145.960000
312.766235	145.960000
312.859497	145.960000
312.952759	145.720000
313.045990	146.220000
313.139252	145.980000
313.232513	146.380000
313.325775	146.000000
313.419037	145.960000
313.512299	145.280000
313.605530	145.760000
313.698822	145.760000
313.792053	146.040000
313.885345	145.920000
313.978577	146.000000
314.071869	145.520000
314.165131	145.280000
314.258392	145.320000
314.351654	145.780000
314.444916	145.200000
314.538177	145.880000
314.631439	146.220000
314.724701	145.780000
314.817993	145.640000
314.911255	146.140000
315.004517	145.480000
315.097778	145.180000
315.191040	145.620000
315.284302	145.800000
315.377594	145.740000
315.470856	145.940000
315.564117	145.520000
315.657379	145.220000
315.750671	144.600000
315.843933	145.220000
315.937195	145.120000
316.030518	145.120000
316.123749	145.200000
316.217041	146.460000
316.310303	145.900000
316.403595	146.040000
316.496857	146.360000
316.590149	146.460000
316.683411	145.520000
316.776703	145.700000
316.869965	145.720000
316.963257	145.500000
317.056519	145.200000
317.149811	145.220000
317.243073	145.000000
317.336365	145.140000
317.429626	145.600000
317.522919	146.020000
317.616180	146.220000
317.709473	146.020000
317.802765	145.800000
317.896027	145.400000
317.989319	145.680000
318.082611	145.400000
318.175873	145.580000
318.269165	145.640000
318.362488	145.680000
318.455750	145.120000
318.549042	145.680000
318.642303	146.100000
318.735626	146.020000
318.828888	146.200000
318.922211	145.820000
319.015472	146.520000
319.108765	146.040000
319.202057	145.840000
319.295349	146.320000
319.388641	146.560000
319.481934	145.700000
319.575226	145.340000
319.668518	145.740000
319.761810	145.340000
319.855103	145.660000
319.948395	145.620000
320.041687	145.900000
320.134979	145.900000
320.228271	145.620000
320.321564	145.280000
320.414856	145.380000
320.508148	145.340000
320.601440	144.900000
320.694763	144.860000
320.788025	145.580000
320.881348	145.320000
320.974640	145.480000
321.067963	145.420000
321.161224	145.440000
321.254547	144.700000
321.347839	145.180000
321.441162	144.760000
321.534454	145.080000
321.627747	144.800000
321.721069	145.580000
321.814362	145.680000
321.907654	145.700000
322.000946	145.340000
322.094269	146.300000
322.187561	145.820000
322.280884	145.760000
322.374176	146.280000
322.467468	147.140000
322.560791	146.980000
322.654083	147.460000
322.747406	147.520000
322.840698	147.560000
322.934021	147.300000
323.027344	146.900000
323.120636	146.280000
323.213959	146.140000
323.307251	145.720000
323.400574	145.480000
323.493866	145.440000
323.587219	145.960000
323.680511	146.060000
323.773834	146.400000
323.867157	146.260000
323.960449	146.520000
324.053772	146.220000
324.147095	145.940000
324.240387	146.220000
324.333710	146.780000
324.427032	146.840000
324.520355	146.780000
324.613647	146.520000
324.706970	146.240000
324.800293	145.760000
324.893616	146.040000
324.986938	146.400000
325.080231	146.120000
325.173553	146.220000
325.266876	146.760000
325.360199	146.240000
325.453522	145.700000
325.546875	145.920000
325.640167	145.960000
325.733521	146.060000
325.826813	146.580000
325.920166	146.280000
326.013489	146.360000
326.106812	145.840000
326.200134	145.100000
326.293457	144.440000
326.386780	145.060000
326.480103	144.920000
326.573425	145.060000
326.666748	145.240000
326.760071	145.480000
326.853424	145.320000
326.946747	145.500000
327.040070	146.200000
327.133392	146.140000
327.226715	145.600000
327.320068	145.380000
327.413391	145.920000
327.506714	144.940000
327.600037	144.840000
327.693390	145.360000
327.786713	145.380000
327.880066	145.180000
327.973358	146.080000
328.066742	146.800000
328.160034	146.760000
328.253418	147.080000
328.346710	146.800000
328.440063	145.880000
328.533417	145.300000
328.626740	145.420000
328.720093	145.120000
328.813416	145.360000
328.906769	145.560000
329.000092	145.660000
329.093445	145.620000
329.186768	145.540000
329.280121	145.780000
329.373444	146.440000
329.466797	146.160000
329.560120	146.020000
329.653473	146.360000
329.746796	145.720000
329.840149	145.120000
329.933502	145.400000
330.026825	145.300000
330.120178	144.960000
330.213562	145.020000
330.306854	145.220000
330.400238	145.060000
330.493561	144.940000
330.586945	145.860000
330.680237	146.280000
330.773621	146.520000
330.866974	146.520000
330.960327	146.780000
331.053680	146.120000
331.147003	146.100000
331.240356	146.140000
331.333710	146.280000
331.427063	146.120000
331.520416	145.900000
331.613770	145.440000
331.707123	145.460000
331.800476	145.400000
331.893829	146.520000
331.987152	146.640000
332.080505	146.980000
332.173859	146.800000
332.267212	146.120000
332.360565	144.840000
332.453918	144.840000
332.547333	144.740000
332.640656	144.860000
332.734039	145.480000
332.827362	145.780000
332.920746	145.900000
333.014069	146.100000
333.107452	146.600000
333.200806	146.740000
333.294159	147.040000
333.387543	146.660000
333.480896	146.040000
333.574249	145.480000
333.667603	145.440000
333.760956	145.460000
333.854340	145.380000
333.947693	145.740000
334.041046	145.620000
334.134430	145.740000
334.227783	145.140000
334.321136	145.140000
334.414520	145.180000
334.507874	145.260000
334.601227	145.020000
334.694611	145.140000
334.787964	145.440000
334.881348	145.360000
334.974701	145.380000
335.068085	145.260000
335.161438	145.820000
335.254822	145.840000
335.348175	145.740000
335.441559	145.280000
335.534943	145.900000
335.628296	145.700000
335.721680	145.780000
335.815033	146.100000
335.908417	146.600000
336.001770	146.540000
336.095154	146.140000
336.188538	145.800000
336.281891	145.540000
336.375275	145.040000
336.468658	144.700000
336.562012	145.100000
336.655396	145.760000
336.748779	146.280000
336.842133	146.380000
336.935516	146.620000
337.028900	146.240000
337.122284	145.800000
337.215637	145.560000
337.309021	146.040000
337.402435	145.460000
337.495789	145.520000
337.589203	145.320000
337.682526	144.860000
337.775940	144.960000
337.869324	145.320000
337.962708	144.900000
338.056091	145.280000
338.149475	145.060000
338.242859	144.800000
338.336243	144.560000
338.429626	145.240000
338.523010	145.200000
338.616394	145.380000
338.709778	145.360000
338.803162	145.460000
338.896545	145.200000
338.989929	145.200000
339.083313	145.300000
339.176697	145.080000
339.270081	145.080000
339.363464	145.480000
339.456848	145.420000
339.550232	145.080000
339.643616	145.120000
339.737030	145.220000
339.830383	144.800000
339.923828	145.020000
340.017181	145.520000
340.110596	145.600000
340.203949	145.640000
340.297363	145.140000
340.390778	144.880000
340.484161	144.860000
340.577545	145.180000
340.670959	145.320000
340.764343	145.700000
340.857727	146.100000
340.951111	145.520000
341.044525	145.260000
341.137909	144.860000
341.231293	145.020000
341.324707	144.440000
341.418091	145.420000
341.511505	145.620000
341.604889	146.040000
341.698303	146.360000
341.791687	146.720000
341.885071	146.080000
341.978485	145.960000
342.071899	146.040000
342.165283	146.060000
342.258698	146.160000
342.352081	146.860000
342.445496	147.140000
342.538879	147.120000
342.632324	146.680000
342.725708	146.600000
342.819122	146.120000
342.912506	145.880000
343.005920	145.660000
343.099335	146.640000
343.192719	146.400000
343.286133	146.380000
343.379547	146.640000
343.472931	146.840000
343.566345	146.020000
343.659760	146.560000
343.753143	146.360000
343.846558	145.620000
343.939972	145.340000
344.033386	146.060000
344.126770	145.320000
344.220184	145.800000
344.313599	146.380000
344.407043	146.660000
344.500427	145.780000
344.593872	146.680000
344.687225	146.200000
344.780670	145.980000
344.874054	145.780000
344.967499	146.260000
345.060913	146.220000
345.154327	146.240000
345.247742	145.880000
345.341156	145.880000
345.434570	145.680000
345.527985	145.220000
345.621399	145.440000
345.714813	145.880000
345.808228	145.840000
345.901642	145.580000
345.995056	145.080000
346.088470	145.260000
346.181885	145.160000
346.275299	145.200000
346.368713	145.360000
346.462128	145.800000
346.555573	145.660000
346.648987	145.720000
346.742401	145.460000
346.835815	146.100000
346.929260	145.580000
347.022644	145.540000
347.116119	145.760000
347.209503	146.440000
347.302948	146.720000
347.396362	147.420000
347.489807	147.680000
347.583221	147.900000
347.676636	147.300000
347.770050	146.000000
347.863495	145.460000
347.956909	145.440000
348.050323	144.860000
348.143768	144.780000
348.237183	145.180000
348.330597	145.660000
348.424042	145.860000
348.517456	146.340000
348.610901	146.700000
348.704315	146.440000
348.797760	146.000000
348.891174	145.400000
348.984619	144.740000
349.078033	144.980000
349.171448	145.880000
349.264923	145.860000
349.358337	145.900000
349.451782	146.020000
349.545197	145.280000
349.638641	144.340000
349.732086	144.060000
349.825500	144.700000
349.918945	144.560000
350.012390	145.260000
350.105804	145.880000
350.199249	146.460000
350.292664	146.320000
350.386108	147.000000
350.479553	147.400000
350.572968	146.980000
350.666412	146.720000
350.759857	146.440000
350.853302	146.220000
350.946716	145.340000
351.040161	145.600000
351.133606	145.580000
351.227081	145.440000
351.320465	146.000000
351.413940	146.300000
351.507355	146.520000
351.600830	146.960000
351.694244	146.620000
351.787720	146.200000
351.881104	145.980000
351.974579	145.520000
352.067993	146.360000
352.161469	146.700000
352.254883	146.160000
352.348358	146.260000
352.441803	146.320000
352.535248	145.520000
352.628693	145.920000
352.722137	146.400000
352.815582	146.500000
352.909027	146.640000
353.002472	146.480000
353.095917	146.280000
353.189362	146.580000
353.282806	146.520000
353.376251	146.440000
353.469696	146.260000
353.563141	147.000000
353.656586	146.380000
353.750061	146.080000
353.843475	145.840000
353.936981	146.080000
354.030396	144.960000
354.123871	145.140000
354.217285	145.960000
354.310760	146.480000
354.404175	146.760000
354.497681	146.380000
354.591095	146.460000
354.684570	145.280000
354.777985	144.820000
354.871490	144.420000
354.964935	145.340000
355.058380	145.400000
355.151855	145.620000
355.245300	146.200000
355.338745	146.380000
355.432220	146.120000
355.525665	145.700000
355.619110	146.360000
355.712585	145.940000
355.806030	145.620000
355.899475	145.360000
355.992950	145.720000
356.086426	145.620000
356.179871	145.720000
356.273346	145.900000
356.366791	146.060000
356.460266	146.260000
356.553711	146.140000
356.647186	146.120000
356.740631	146.020000
356.834106	145.820000
356.927551	145.820000
357.021027	145.840000
357.114471	146.060000
357.207947	146.100000
357.301422	146.400000
357.394867	146.320000
357.488342	146.880000
357.581818	146.820000
357.675262	147.140000
357.768738	146.900000
357.862213	146.380000
357.955658	146.020000
358.049133	145.540000
358.142609	145.340000
358.236053	145.300000
358.329529	145.380000
358.423035	145.460000
358.516449	145.580000
358.609955	146.060000
358.703400	146.520000
358.796906	147.000000
358.890350	146.480000
358.983826	146.680000
359.077271	146.000000
359.170776	145.960000
359.264221	145.420000
359.357727	145.580000
359.451172	145.920000
359.544647	146.060000
359.638123	145.880000
359.731598	146.620000
359.825073	146.960000
359.918549	146.680000
360.012024	146.840000
360.105499	146.160000
360.198975	145.940000
360.292450	145.820000
360.385925	145.580000
360.479401	144.940000
360.572876	145.580000
360.666351	145.500000
360.759857	145.520000
360.853302	145.920000
360.946808	145.680000
361.040253	145.860000
361.133759	145.780000
361.227203	145.600000
361.320709	145.240000
361.414154	145.980000
361.507660	146.200000
361.601105	146.480000
361.694641	147.360000
361.788086	147.240000
361.881592	147.580000
361.975067	147.220000
362.068542	147.340000
362.162018	146.900000
362.255524	146.840000
362.348999	146.440000
362.442474	146.620000
362.535950	145.980000
362.629456	145.420000
362.722931	145.420000
362.816406	145.820000
362.909882	146.200000
363.003387	146.140000
363.096863	146.640000
363.190338	146.740000
363.283875	146.520000
363.377319	145.780000
363.470825	146.360000
363.564301	145.820000
363.657806	146.040000
363.751282	145.600000
363.844788	146.620000
363.938232	146.100000
364.031769	146.800000
364.125214	146.760000
364.218750	147.400000
364.312225	146.120000
364.405731	146.340000
364.499207	145.740000
364.592712	145.600000
364.686188	145.540000
364.779694	146.160000
364.873169	145.960000
364.966675	146.060000
365.060150	145.920000
365.153656	145.800000
365.247131	145.680000
365.340637	146.120000
365.434143	146.260000
365.527618	146.460000
365.621155	145.920000
365.714600	145.900000
365.808136	145.780000
365.901611	145.100000
365.995117	144.860000
366.088593	145.200000
366.182129	144.980000
366.275604	145.000000
366.369110	145.620000
366.462585	145.640000
366.556122	146.140000
366.649567	146.300000
366.743103	146.340000
366.836609	145.900000
366.930115	146.320000
367.023590	146.200000
367.117096	145.920000
367.210602	145.640000
367.304108	146.360000
367.397614	146.640000
367.491119	146.680000
367.584595	146.900000
367.678101	147.380000
367.771606	146.880000
367.865112	146.780000
367.958649	146.160000
368.052124	146.240000
368.145660	145.860000
368.239136	146.240000
368.332672	146.140000
368.426147	146.460000
368.519684	146.420000
368.613159	146.800000
368.706696	146.500000
368.800171	146.280000
368.893707	146.320000
368.987183	146.360000
369.080719	145.960000
369.174225	146.020000
369.267731	146.100000
369.361237	145.900000
369.454742	145.580000
369.548248	146.220000
369.641754	146.100000
369.735260	145.960000
369.828766	145.400000
369.922272	146.260000
370.015808	145.720000
370.109314	145.620000
370.202820	145.440000
370.296356	146.680000
370.389832	146.380000
370.483368	146.180000
370.576874	146.240000
370.670410	146.660000
370.763885	145.720000
370.857422	145.480000
370.950928	145.500000
371.044464	146.160000
371.137939	146.020000
371.231476	146.540000
371.324982	146.800000
371.418518	146.980000
371.512024	146.580000
371.605560	146.700000
371.699066	146.800000
371.792572	146.180000
371.886108	146.760000
371.979614	146.360000
372.073120	146.400000
372.166656	145.840000
372.260162	146.380000
372.353668	145.900000
372.447205	145.740000
372.540710	145.660000
372.634277	146.000000
372.727753	146.140000
372.821320	146.080000
372.914795	146.420000
373.008362	146.080000
373.101837	146.220000
373.195404	145.860000
373.288879	145.780000
373.382446	146.440000
373.475922	146.520000
373.569489	146.680000
373.662964	147.180000
373.756531	147.120000
373.850037	146.740000
373.943573	146.880000
374.037109	146.000000
374.130615	145.880000
374.224152	146.080000
374.317657	145.940000
374.411194	146.720000
374.504730	147.180000
374.598236	147.200000
374.691772	146.860000
374.785309	147.140000
374.878815	146.360000
374.972351	146.540000
375.065887	146.200000
375.159454	147.140000
375.252930	146.700000
375.346497	146.820000
375.440002	146.980000
375.533569	146.980000
375.627045	145.760000
375.720612	145.740000
375.814117	145.920000
375.907684	145.680000
376.001160	145.700000
376.094727	145.600000
376.188232	146.320000
376.281799	146.360000
376.375336	146.080000
376.468872	146.380000
376.562408	146.740000
376.655914	146.040000
376.749451	145.900000
376.842987	146.260000
376.936523	145.700000
377.030060	145.580000
377.123596	146.060000
377.217133	145.400000
377.310669	145.200000
377.404205	145.700000
377.497772	146.340000
377.591278	145.900000
377.684845	147.080000
377.778351	147.360000
377.871918	147.160000
377.965424	146.200000
378.058990	146.040000
378.152496	145.780000
378.246063	145.840000
378.339569	146.040000
378.433136	146.540000
378.526642	146.680000
378.620209	146.200000
378.713745	145.740000
378.807312	146.020000
378.900848	145.820000
378.994385	146.040000
379.087921	145.560000
379.181458	145.960000
379.274994	145.120000
379.368530	145.280000
379.462097	145.340000
379.555634	146.020000
379.649170	145.640000
379.742706	145.820000
379.836273	146.160000
379.929810	145.820000
380.023376	145.700000
380.116882	145.640000
380.210449	145.840000
380.303986	145.040000
380.397552	144.880000
380.491058	145.160000
380.584656	145.080000
380.678162	145.220000
380.771729	145.460000
380.865265	146.460000
380.958832	146.280000
381.052368	146.800000
381.145935	146.920000
381.239471	147.560000
381.333008	147.020000
381.426575	146.820000
381.520111	146.940000
381.613647	146.920000
381.707214	146.580000
381.800751	146.020000
381.894318	146.380000
381.987854	145.820000
382.081421	145.700000
382.174988	145.780000
382.268524	145.680000
382.362091	145.560000
382.455627	146.140000
382.549194	145.760000
382.642731	144.860000
382.736298	145.140000
382.829834	144.700000
382.923401	145.120000
383.016937	145.320000
383.110504	146.220000
383.204041	146.240000
383.297607	146.640000
383.391174	145.560000
383.484741	146.340000
383.578278	145.960000
383.671844	145.720000
383.765411	145.200000
383.858948	145.980000
383.952515	145.320000
384.046051	146.140000
384.139618	146.640000
384.233185	146.940000
384.326721	146.780000
384.420288	147.520000
384.513855	146.880000
384.607422	147.140000
384.700989	147.420000
384.794525	146.520000
384.888123	146.000000
384.981659	146.200000
385.075226	145.740000
385.168762	145.280000
385.262360	145.800000
385.355896	145.100000
385.449463	144.920000
385.542999	144.760000
385.636597	145.480000
385.730164	145.700000
385.823730	145.700000
385.917267	145.400000
386.010834	145.980000
386.104401	145.720000
386.197968	145.940000
386.291534	146.460000
386.385101	146.760000
386.478668	146.900000
386.572235	146.740000
386.665802	146.260000
386.759338	145.840000
386.852905	145.600000
386.946472	145.060000
387.040070	145.060000
387.133606	145.040000
387.227203	144.800000
387.320740	145.400000
387.414337	145.320000
387.507874	145.740000
387.601471	145.880000
387.695007	146.200000
387.788605	145.660000
387.882141	145.780000
387.975739	145.400000
388.069275	144.980000
388.162872	145.160000
388.256439	145.320000
388.350037	145.080000
388.443604	145.080000
388.537170	145.240000
388.630737	145.580000
388.724304	145.860000
388.817871	145.920000
388.911438	145.640000
389.005005	146.040000
389.098602	146.020000
389.192169	145.620000
389.285736	146.000000
389.379333	146.120000
389.472870	145.440000
389.566467	145.520000
389.660034	145.780000
389.753632	145.420000
389.847168	145.880000
389.940765	146.440000
390.034332	146.420000
390.127930	145.580000
390.221466	145.580000
390.315063	144.920000
390.408630	144.060000
390.502228	143.360000
390.595795	144.120000
390.689362	144.120000
390.782959	144.800000
390.876526	145.620000
390.970093	145.760000
391.063690	146.120000
391.157257	146.040000
391.250824	145.980000
391.344421	145.940000
391.437988	146.280000
391.531555	146.000000
391.625153	146.540000
391.718750	146.500000
391.812317	146.220000
391.905914	145.880000
391.999481	146.200000
392.093079	146.160000
392.186615	146.320000
392.280243	146.460000
392.373779	146.560000
392.467407	146.720000
392.560944	146.640000
392.654572	146.240000
392.748108	146.180000
392.841736	146.480000
392.935303	145.660000
393.028900	145.360000
393.122467	145.600000
393.216064	145.460000
393.309631	144.680000
393.403229	144.760000
393.496796	144.600000
393.590393	143.940000
393.683990	144.320000
393.777557	145.080000
393.871155	145.400000
393.964722	146.020000
394.058350	146.540000
394.151917	146.580000
394.245514	146.300000
394.339081	146.480000
394.432678	146.560000
394.526245	146.640000
394.619873	146.060000
394.713409	146.240000
394.807037	145.980000
394.900604	145.960000
394.994202	145.940000
395.087769	146.420000
395.181396	145.960000
395.274994	146.560000
395.368561	145.800000
395.462158	145.700000
395.555756	145.680000
395.649353	146.200000
395.742920	145.560000
395.836517	146.600000
395.930115	146.140000
396.023712	146.420000
396.117279	146.720000
396.210876	146.560000
396.304474	146.220000
396.398071	146.980000
396.491669	147.260000
396.585266	147.060000
396.678833	147.420000
396.772461	147.800000
396.866028	147.940000
396.959656	148.720000
397.053223	150.240000
397.146851	151.880000
397.240417	154.400000
397.334015	158.160000
397.427582	161.720000
397.521210	166.820000
397.614807	173.880000
397.708405	181.480000
397.802002	191.160000
397.895599	203.900000
397.989197	218.100000
398.082794	234.200000
398.176392	253.820000
398.269989	275.200000
398.363586	298.140000
398.457184	323.620000
398.550781	349.980000
398.644379	375.360000
398.737976	399.680000
398.831573	422.240000
398.925201	441.280000
399.018768	459.400000
399.112396	472.760000
399.205963	482.260000
399.299591	485.960000
399.393158	485.200000
399.486786	477.740000
399.580353	468.180000
399.673981	454.720000
399.767578	441.980000
399.861206	428.980000
399.954773	416.620000
400.048401	402.900000
400.141998	387.880000
400.235596	371.060000
400.329193	351.880000
400.422791	331.320000
400.516418	310.340000
400.610016	292.200000
400.703613	275.680000
400.797211	260.620000
400.890808	247.000000
400.984436	235.640000
401.078033	224.660000
401.171631	214.020000
401.265259	204.640000
401.358826	196.480000
401.452484	188.900000
401.546051	182.420000
401.639679	176.100000
401.733246	171.340000
401.826904	166.780000
401.920471	162.600000
402.014099	159.300000
402.107697	156.940000
402.201324	154.580000
402.294891	152.960000
402.388550	151.820000
402.482147	150.680000
402.575745	149.680000
402.669373	148.500000
402.762970	147.360000
402.856567	147.240000
402.950195	146.940000
403.043793	146.720000
403.137390	147.420000
403.231018	147.160000
403.324615	147.240000
403.418243	146.940000
403.511841	147.420000
403.605469	146.960000
403.699066	147.540000
403.792694	147.280000
403.886292	147.480000
403.979919	147.000000
404.073517	146.740000
404.167145	146.460000
404.260712	146.820000
404.354370	146.500000
404.447937	146.780000
404.541595	147.280000
404.635162	147.500000
404.728821	147.580000
404.822418	147.400000
404.916046	147.200000
405.009644	147.140000
405.103271	147.360000
405.196899	146.740000
405.290497	147.020000
405.384125	147.240000
405.477722	146.940000
405.571350	146.440000
405.664948	146.620000
405.758575	146.400000
405.852203	145.600000
405.945801	145.540000
406.039429	145.820000
406.133057	145.520000
406.226654	145.820000
406.320312	146.300000
406.413879	146.440000
406.507538	146.840000
406.601135	146.600000
406.694763	146.760000
406.788361	146.180000
406.882019	145.920000
406.975586	145.940000
407.069244	146.820000
407.162872	146.500000
407.256470	146.820000
407.350098	146.920000
407.443726	146.280000
407.537323	145.640000
407.630951	146.100000
407.724579	145.840000
407.818207	146.160000
407.911804	146.040000
408.005432	146.200000
408.099060	146.140000
408.192688	147.140000
408.286285	146.700000
408.379913	146.440000
408.473572	146.820000
408.567169	146.360000
408.660828	145.700000
408.754395	145.840000
408.848053	146.020000
408.941650	145.620000
409.035309	145.380000
409.128906	145.360000
409.222565	145.520000
409.316132	145.820000
409.409790	145.760000
409.503387	145.700000
409.597046	145.960000
409.690674	145.800000
409.784302	145.740000
409.877930	145.640000
409.971558	145.960000
410.065186	145.480000
410.158783	145.680000
410.252411	145.820000
410.346039	145.960000
410.439667	146.120000
410.533295	146.720000
410.626923	146.680000
410.720551	146.320000
410.814209	146.860000
410.907806	146.480000
411.001465	146.020000
411.095062	146.000000
411.188721	145.900000
411.282318	145.200000
411.375977	145.260000
411.469574	145.360000
411.563232	145.120000
411.656830	145.200000
411.750488	145.160000
411.844086	144.840000
411.937744	144.860000
412.031372	145.020000
412.125000	145.260000
412.218628	145.400000
412.312256	146.260000
412.405884	146.980000
412.499512	146.860000
412.593170	146.980000
412.686798	147.240000
412.780426	146.660000
412.874054	146.340000
412.967682	146.360000
413.061310	146.960000
413.154968	146.940000
413.248566	147.240000
413.342224	147.220000
413.435852	147.200000
413.529510	146.480000
413.623108	145.880000
413.716766	145.760000
413.810364	146.040000
413.904022	145.760000
413.997650	145.520000
414.091309	146.360000
414.184906	146.160000
414.278564	145.440000
414.372192	146.080000
414.465851	146.600000
414.559479	146.080000
414.653107	147.000000
414.746735	147.320000
414.840393	147.060000
414.934021	147.240000
415.027649	147.040000
415.121277	146.900000
415.214935	147.120000
415.308563	147.260000
415.402191	146.560000
415.495850	146.960000
415.589478	146.440000
415.683136	145.800000
415.776733	145.840000
415.870422	146.520000
415.964020	145.820000
416.057678	145.920000
416.151306	146.140000
416.244965	146.000000
416.338562	146.060000
416.432251	146.880000
416.525848	147.480000
416.619507	147.780000
416.713165	148.140000
416.806793	147.780000
416.900421	147.820000
416.994080	146.980000
417.087708	146.740000
417.181366	146.020000
417.274994	145.660000
417.368622	145.700000
417.462280	146.320000
417.555908	146.200000
417.649567	146.140000
417.743195	146.300000
417.836853	145.840000
417.930481	145.500000
418.024170	145.800000
418.117767	146.520000
418.211426	146.800000
418.305054	147.220000
418.398712	146.920000
418.492340	146.780000
418.585999	146.860000
418.679626	146.920000
418.773285	146.800000
418.866913	147.480000
418.960571	147.740000
419.054230	147.680000
419.147858	147.740000
419.241516	147.960000
419.335144	147.160000
419.428802	146.940000
419.522461	146.820000
419.616089	146.260000
419.709747	146.200000
419.803375	146.380000
419.897034	146.160000
419.990662	145.920000
420.084320	146.340000
420.177979	146.620000
420.271606	146.740000
420.365295	147.200000
420.458893	147.220000
420.552582	147.160000
420.646210	146.780000
420.739868	146.280000
420.833496	145.900000
420.927155	146.000000
421.020782	145.940000
421.114471	145.440000
421.208069	146.020000
421.301758	146.220000
421.395386	146.260000
421.489044	145.960000
421.582703	146.100000
421.676361	146.620000
421.769989	146.160000
421.863647	146.320000
421.957306	146.560000
422.050934	146.560000
422.144592	146.260000
422.238251	146.600000
422.331909	146.220000
422.425537	145.900000
422.519196	146.020000
422.612854	145.520000
422.706543	144.900000
422.800140	145.180000
422.893829	145.180000
422.987457	144.880000
423.081146	145.000000
423.174744	146.180000
423.268433	145.520000
423.362061	145.760000
423.455750	145.960000
423.549347	146.240000
423.643036	145.640000
423.736664	146.520000
423.830353	146.380000
423.924011	146.960000
424.017639	146.220000
424.111298	146.100000
424.204956	145.760000
424.298615	145.880000
424.392273	145.280000
424.485931	145.980000
424.579559	145.940000
424.673218	145.700000
424.766876	145.960000
424.860535	145.800000
424.954193	145.600000
425.047882	146.300000
425.141510	146.440000
425.235199	146.420000
425.328796	146.180000
425.422485	145.780000
425.516113	144.900000
425.609802	144.860000
425.703430	144.700000
425.797119	144.800000
425.890747	145.160000
425.984436	145.420000
426.078064	145.420000
426.171753	145.320000
426.265411	145.280000
426.359070	145.340000
426.452728	145.200000
426.546356	145.240000
426.640015	145.220000
426.733673	145.740000
426.827332	145.680000
426.920990	146.100000
427.014648	145.940000
427.108307	146.320000
427.201965	146.480000
427.295624	146.640000
427.389282	146.060000
427.482941	146.180000
427.576630	145.840000
427.670258	145.100000
427.763947	144.820000
427.857574	144.940000
427.951263	144.840000
428.044922	144.580000
428.138611	145.020000
428.232239	145.800000
428.325928	146.260000
428.419556	146.660000
428.513245	146.440000
428.606903	146.280000
428.700562	145.260000
428.794220	144.580000
428.887878	143.980000
428.981537	144.820000
429.075195	145.100000
429.168854	145.500000
429.262512	145.980000
429.356201	146.580000
429.449860	146.240000
429.543518	146.020000
429.637177	146.280000
429.730835	146.060000
429.824493	145.560000
429.918182	145.720000
430.011810	145.180000
430.105530	144.520000
430.199158	144.840000
430.292847	144.680000
430.386475	144.460000
430.480164	144.820000
430.573792	144.660000
430.667511	144.440000
430.761139	144.820000
430.854828	145.220000
430.948456	145.560000
431.042145	146.360000
431.135834	146.100000
431.229492	146.400000
431.323151	146.480000
431.416809	146.440000
431.510468	146.080000
431.604156	146.120000
431.697815	146.060000
431.791473	145.500000
431.885132	145.160000
431.978821	145.500000
432.072479	145.720000
432.166138	145.920000
432.259827	146.300000
432.353485	146.720000
432.447174	146.860000
432.540802	146.860000
432.634491	146.680000
432.728149	146.360000
432.821838	146.420000
432.915466	146.060000
433.009186	145.940000
433.102814	145.240000
433.196503	145.380000
433.290131	145.420000
433.383850	145.640000
433.477509	145.900000
433.571167	146.720000
433.664856	146.800000
433.758514	147.360000
433.852173	147.160000
433.945862	146.900000
434.039520	146.840000
434.133179	146.300000
434.226868	145.340000
434.320526	144.760000
434.414185	145.760000
434.507874	145.340000
434.601562	145.740000
434.695221	145.840000
434.788910	146.480000
434.882538	145.960000
434.976257	145.600000
435.069885	145.560000
435.163574	145.820000
435.257233	145.540000
435.350922	145.480000
435.444580	145.520000
435.538269	145.560000
435.631897	145.640000
435.725616	146.340000
435.819275	146.600000
435.912964	147.540000
436.006622	148.120000
436.100311	147.960000
436.193970	146.980000
436.287628	146.560000
436.381317	145.940000
436.474976	145.080000
436.568665	144.860000
436.662323	145.200000
436.756012	145.020000
436.849670	145.060000
436.943390	145.280000
437.037018	145.340000
437.130737	145.480000
437.224365	145.740000
437.318085	145.840000
437.411713	145.820000
437.505432	146.380000
437.599060	146.680000
437.692780	147.040000
437.786407	146.860000
437.880127	146.700000
437.973755	146.160000
438.067474	145.800000
438.161133	145.500000
438.254822	145.900000
438.348480	146.060000
438.442169	146.800000
438.535828	147.120000
438.629517	146.720000
438.723175	146.140000
438.816864	146.680000
438.910553	145.880000
439.004211	145.540000
439.097900	145.540000
439.191559	145.480000
439.285248	144.480000
439.378906	145.020000
439.472626	145.040000
439.566284	145.120000
439.659973	145.480000
439.753632	145.360000
439.847321	145.380000
439.940979	145.300000
440.034698	145.400000
440.128326	144.960000
440.222046	145.440000
440.315674	144.760000
440.409393	144.820000
440.503082	144.700000
440.596741	145.340000
440.690430	145.600000
440.784088	145.600000
440.877777	144.980000
440.971466	144.880000
441.065125	144.400000
441.158813	144.220000
441.252502	144.340000
441.346161	144.720000
441.439850	145.020000
441.533539	144.480000
441.627197	144.640000
441.720886	144.640000
441.814606	145.060000
441.908234	145.380000
442.001953	145.900000
442.095612	145.900000
442.189301	146.380000
442.282959	146.180000
442.376678	145.420000
442.470306	146.240000
442.564026	145.820000
442.657684	145.560000
442.751404	145.720000
442.845032	146.640000
442.938751	146.080000
443.032440	146.500000
443.126099	146.220000
443.219788	146.640000
443.313477	146.220000
443.407166	146.520000
443.500824	146.260000
443.594513	146.660000
443.688202	146.160000
443.781891	145.560000
443.875549	145.100000
443.969238	145.180000
444.062927	144.960000
444.156647	145.000000
444.250275	145.580000
444.343994	145.780000
444.437653	146.140000
444.531372	146.060000
444.625031	145.660000
444.718719	145.400000
444.812378	145.200000
444.906097	144.660000
444.999756	144.260000
445.093445	144.660000
445.187103	144.600000
445.280823	145.000000
445.374512	144.900000
445.468201	145.120000
445.561859	144.860000
445.655548	145.220000
445.749237	144.740000
445.842926	144.980000
445.936615	145.540000
446.030304	145.300000
446.123962	145.560000
446.217651	145.480000
446.311340	145.640000
446.405029	145.140000
446.498749	145.380000
446.592407	144.760000
446.686096	145.080000
446.779755	145.160000
446.873474	145.380000
446.967133	145.460000
447.060852	145.340000
447.154510	145.240000
447.248230	145.340000
447.341858	145.140000
447.435577	144.780000
447.529236	144.520000
447.622955	144.660000
447.716644	144.520000
447.810333	144.820000
447.904022	145.460000
447.997711	145.640000
448.091400	145.760000
448.185059	145.580000
448.278748	145.480000
448.372437	145.340000
448.466125	145.920000
448.559814	145.640000
448.653503	146.080000
448.747192	146.420000
448.840912	146.480000
448.934570	146.340000
449.028290	146.740000
449.121948	146.300000
449.215637	145.660000
449.309296	145.540000
449.403015	145.160000
449.496674	144.980000
449.590393	145.260000
449.684052	145.180000
449.777771	145.960000
449.871429	145.820000
449.965149	145.680000
450.058838	145.800000
450.152527	146.520000
450.246216	145.760000
450.339905	146.240000
450.433594	146.080000
450.527283	146.480000
450.620972	146.260000
450.714661	146.380000
450.808350	146.560000
450.902039	146.920000
450.995728	146.460000
451.089417	145.740000
451.183105	145.700000
451.276794	145.620000
451.370514	145.220000
451.464172	144.480000
451.557892	144.980000
451.651550	145.300000
451.745270	145.000000
451.838928	144.740000
451.932648	145.320000
452.026306	145.900000
452.120026	145.380000
452.213684	145.280000
452.307404	145.680000
452.401062	145.660000
452.494781	145.440000
452.588470	145.680000
452.682159	145.760000
452.775848	145.800000
452.869537	145.220000
452.963226	144.700000
453.056915	144.460000
453.150604	144.740000
453.244293	144.940000
453.337982	145.780000
453.431671	146.380000
453.525360	146.840000
453.619049	146.780000
453.712769	146.740000
453.806427	146.300000
453.900146	145.540000
453.993805	145.180000
454.087555	145.400000
454.181213	145.180000
454.274933	145.100000
454.368591	145.340000
454.462311	145.280000
454.555969	144.700000
454.649689	145.580000
454.743347	145.480000
454.837067	146.140000
454.930756	146.800000
455.024445	147.200000
455.118134	146.680000
455.211853	146.940000
455.305542	146.360000
455.399231	146.100000
455.492920	145.960000
455.586609	145.700000
455.680298	145.960000
455.773987	145.800000
455.867676	145.620000
455.961365	145.900000
456.055084	146.080000
456.148773	145.420000
456.242493	145.520000
456.336151	145.440000
456.429871	145.500000
456.523529	145.800000
456.617249	145.720000
456.710907	146.160000
456.804626	146.080000
456.898315	145.540000
456.992035	145.100000
457.085693	145.380000
457.179413	144.720000
457.273102	145.880000
457.366791	146.220000
457.460480	146.640000
457.554199	147.260000
457.647888	147.520000
457.741577	146.780000
457.835266	146.580000
457.928955	146.580000
458.022644	146.480000
458.116364	146.940000
458.210052	146.640000
458.303741	146.740000
458.397461	146.120000
458.491119	145.860000
458.584839	145.360000
458.678528	144.980000
458.772247	144.880000
458.865906	145.200000
458.959625	145.900000
459.053284	146.340000
459.147003	146.420000
459.240692	147.080000
459.334412	147.180000
459.428070	146.380000
459.521790	146.100000
459.615479	146.460000
459.709198	146.380000
459.802887	145.820000
459.896576	145.900000
459.990265	145.960000
460.083954	146.060000
460.177673	145.460000
460.271362	145.700000
460.365051	145.540000
460.458740	145.280000
460.552429	144.820000
460.646149	144.880000
460.739838	144.520000
460.833527	144.500000
460.927246	144.340000
461.020905	144.520000
461.114655	144.520000
461.208313	144.840000
461.302032	144.640000
461.395691	145.100000
461.489441	145.400000
461.583099	145.380000
461.676819	145.360000
461.770477	145.980000
461.864197	145.620000
461.957916	145.460000
462.051605	145.060000
462.145294	145.960000
462.238983	145.200000
462.332703	146.020000
462.426392	146.500000
462.520081	146.660000
462.613770	145.980000
462.707489	146.740000
462.801178	146.320000
462.894867	145.720000
462.988556	146.000000
463.082275	146.100000
463.175964	145.440000
463.269684	145.660000
463.363342	145.580000
463.457092	145.260000
463.550751	145.420000
463.644470	145.700000
463.738129	145.300000
463.831879	145.540000
463.925537	146.040000
464.019257	145.900000
464.112946	146.060000
464.206665	146.080000
464.300323	146.060000
464.394043	146.100000
464.487762	146.100000
464.581451	146.400000
464.675140	146.420000
464.768829	146.620000
464.862549	146.540000
464.956238	146.580000
465.049927	146.360000
465.143646	146.320000
465.237335	146.120000
465.331024	146.580000
465.424713	146.260000
465.518433	146.340000
465.612152	146.240000
465.705811	145.880000
465.799561	145.320000
465.893219	145.480000
465.986938	145.080000
466.080597	145.160000
466.174347	145.720000
466.268005	145.960000
466.361725	146.180000
466.455414	146.340000
466.549133	145.980000
466.642792	146.140000
466.736542	145.180000
466.830231	145.040000
466.923920	144.800000
467.017609	145.140000
467.111328	144.340000
467.205017	145.040000
467.298706	144.980000
467.392426	145.420000
467.486115	145.660000
467.579803	145.960000
467.673523	146.040000
467.767212	146.200000
467.860901	146.000000
467.954651	145.940000
468.048309	146.040000
468.142029	145.900000
468.235718	145.640000
468.329437	145.560000
468.423096	145.620000
468.516846	145.280000
468.610504	145.080000
468.704224	144.800000
468.797913	144.720000
468.891632	144.780000
468.985291	145.100000
469.079010	145.580000
469.172729	145.600000
469.266418	146.380000
469.360107	146.040000
469.453827	145.780000
469.547516	145.540000
469.641205	145.760000
469.734924	145.360000
469.828613	145.840000
469.922302	146.180000
470.016022	146.180000
470.109711	146.080000
470.203430	145.500000
470.297150	144.560000
470.390808	144.680000
470.484558	144.520000
470.578217	145.040000
470.671936	145.680000
470.765625	146.500000
470.859344	146.040000
470.953003	146.480000
471.046753	145.680000
471.140411	145.340000
471.234131	145.580000
471.327820	146.120000
471.421539	146.180000
471.515228	146.340000
471.608948	146.360000
471.702637	145.720000
471.796326	145.200000
471.890045	145.120000
471.983734	145.420000
472.077423	145.200000
472.171143	145.440000
472.264832	145.760000
472.358521	145.380000
472.452240	145.420000
472.545929	146.360000
472.639648	146.500000
472.733337	146.740000
472.827057	147.240000
472.920746	147.080000
473.014465	147.020000
473.108124	146.780000
473.201874	147.020000
473.295532	146.800000
473.389252	147.320000
473.482941	147.520000
473.576660	147.280000
473.670319	146.520000
473.764069	146.660000
473.857727	146.580000
473.951477	146.260000
474.045166	146.900000
474.138855	146.840000
474.232574	146.700000
474.326263	146.340000
474.419952	146.320000
474.513672	146.120000
474.607361	146.220000
474.701050	146.240000
474.794769	146.680000
474.888458	146.940000
474.982178	146.800000
475.075867	146.940000
475.169586	146.920000
475.263275	146.280000
475.356995	146.040000
475.450653	145.700000
475.544403	145.280000
475.638062	146.180000
475.731812	146.260000
475.825470	145.840000
475.919189	146.460000
476.012878	146.800000
476.106598	145.620000
476.200256	146.120000
476.294006	146.040000
476.387695	145.800000
476.481384	145.840000
476.575104	146.120000
476.668793	145.580000
476.762512	145.620000
476.856201	146.060000
476.949890	145.840000
477.043610	145.340000
477.137299	145.660000
477.230988	145.920000
477.324707	145.340000
477.418396	146.000000
477.512146	146.320000
477.605804	146.280000
477.699524	146.320000
477.793213	146.260000
477.886932	146.040000
477.980591	145.900000
478.074341	145.620000
478.167999	145.080000
478.261749	145.100000
478.355408	144.940000
478.449127	145.520000
478.542816	146.600000
478.636536	147.240000
478.730225	147.620000
478.823944	147.920000
478.917633	147.460000
479.011322	147.000000
479.105042	146.860000
479.198730	146.800000
479.292450	146.400000
479.386139	146.660000
479.479828	146.460000
479.573547	146.940000
479.667267	146.860000
479.760925	146.720000
479.854675	146.860000
479.948334	146.940000
480.042084	145.960000
480.135742	146.180000
480.229462	145.800000
480.323151	145.600000
480.416870	145.140000
480.510529	145.680000
480.604279	144.900000
480.697937	145.540000
480.791656	145.340000
480.885345	145.300000
480.979065	145.080000
481.072754	145.840000
481.166473	146.220000
481.260132	146.220000
481.353882	146.560000
481.447540	146.220000
481.541260	146.040000
481.635010	145.340000
481.728668	145.120000
481.822388	145.080000
481.916077	145.580000
482.009796	145.300000
482.103485	145.980000
482.197205	146.640000
482.290863	146.600000
482.384613	146.180000
482.478271	146.100000
482.571991	145.820000
482.665680	145.340000
482.759399	145.780000
482.853058	146.280000
482.946808	146.480000
483.040466	146.380000
483.134216	146.100000
483.227875	145.920000
483.321594	146.280000
483.415283	146.580000
483.509003	146.520000
483.602661	146.560000
483.696411	146.400000
483.790070	145.840000
483.883789	145.680000
483.977478	146.020000
484.071198	146.400000
484.164917	145.960000
484.258606	145.720000
484.352325	145.800000
484.445984	145.660000
484.539734	145.440000
484.633392	145.160000
484.727142	145.640000
484.820801	145.220000
484.914520	145.400000
485.008209	145.620000
485.101929	146.240000
485.195587	145.920000
485.289337	146.080000
485.382996	145.760000
485.476715	145.800000
485.570404	146.300000
485.664124	145.880000
485.757782	146.600000
485.851532	146.480000
485.945190	146.280000
486.038910	146.200000
486.132599	146.980000
486.226318	145.760000
486.319977	146.060000
486.413727	146.580000
486.507446	145.820000
486.601105	145.360000
486.694855	145.820000
486.788513	145.420000
486.882233	145.120000
486.975922	145.220000
487.069641	144.880000
487.163300	144.660000
487.257050	145.780000
487.350708	145.380000
487.444427	145.320000
487.538116	145.680000
487.631836	145.700000
487.725494	145.100000
487.819214	145.560000
487.912903	145.840000
488.006622	146.380000
488.100281	146.880000
488.194031	146.460000
488.287689	146.580000
488.381409	147.100000
488.475098	146.560000
488.568817	146.660000
488.662476	146.600000
488.756226	145.980000
488.849945	145.340000
488.943604	145.580000
489.037354	145.540000
489.131012	145.900000
489.224731	145.980000
489.318390	145.480000
489.412140	145.280000
489.505798	144.880000
489.599518	144.340000
489.693207	144.720000
489.786926	144.780000
489.880585	144.540000
489.974335	144.980000
490.067993	146.120000
490.161713	146.060000
490.255371	147.040000
490.349121	147.400000
490.442780	146.960000
490.536499	145.780000
490.630188	145.960000
490.723907	145.380000
490.817566	145.460000
490.911285	145.600000
491.004974	145.740000
491.098694	145.320000
491.192413	146.140000
491.286102	145.960000
491.379822	146.320000
491.473480	146.900000
491.567200	147.000000
491.660889	145.820000
491.754608	145.860000
491.848267	145.460000
491.941986	145.280000
492.035675	145.240000
492.129395	145.800000
492.223053	145.900000
492.316772	146.160000
492.410461	145.800000
492.504181	146.140000
492.597839	145.800000
492.691559	145.540000
492.785248	145.440000
492.878967	145.680000
492.972626	144.980000
493.066345	145.140000
493.160034	144.880000
493.253754	144.700000
493.347412	144.460000
493.441132	145.160000
493.534882	145.700000
493.628540	146.160000
493.722260	146.400000
493.815918	146.780000
493.909668	147.120000
494.003326	147.140000
494.097046	147.020000
494.190704	146.480000
494.284454	146.480000
494.378113	146.400000
494.471832	146.120000
494.565491	146.000000
494.659210	146.520000
494.752899	146.260000
494.846619	145.720000
494.940277	145.920000
495.033997	146.360000
495.127686	146.120000
495.221405	145.980000
495.315063	146.020000
495.408783	145.660000
495.502441	145.300000
495.596191	145.420000
495.689850	145.260000
495.783569	145.380000
495.877228	145.760000
495.970947	145.280000
496.064697	145.100000
496.158356	146.120000
496.252075	146.060000
496.345734	145.620000
496.439453	146.800000
496.533142	146.980000
496.626862	146.820000
496.720520	147.020000
496.814240	147.180000
496.907898	146.560000
497.001617	146.680000
497.095306	145.900000
497.189026	145.520000
497.282684	145.640000
497.376404	146.020000
497.470062	145.680000
497.563782	146.020000
497.657471	146.220000
497.751190	145.860000
497.844849	145.580000
497.938568	146.020000
498.032227	146.000000
498.125946	146.160000
498.219635	146.400000
498.313354	146.520000
498.407074	146.080000
498.500732	146.080000
498.594452	145.840000
498.688110	145.280000
498.781830	145.020000
498.875519	144.960000
498.969238	144.900000
499.062897	144.760000
499.156616	145.460000
499.250275	145.860000
499.343994	145.660000
499.437653	145.580000
499.531372	145.940000
499.625061	146.520000
499.718781	146.420000
499.812439	147.140000
499.906158	147.120000
499.999817	146.900000
500.093536	146.160000
500.187195	145.960000
500.280914	145.580000
500.374573	145.800000
500.468323	145.580000
500.561981	145.740000
500.655701	145.620000
500.749420	145.580000
500.843079	145.560000
500.936798	145.900000
501.030457	146.200000
501.124176	146.160000
501.217834	146.180000
501.311554	146.180000
501.405212	145.840000
501.498962	145.060000
501.592621	145.300000
501.686340	145.560000
501.779999	145.640000
501.873718	146.240000
501.967377	146.600000
502.061096	147.080000
502.154755	146.420000
502.248474	146.440000
502.342133	146.240000
502.435852	146.140000
502.529510	146.340000
502.623230	147.440000
502.716888	146.800000
502.810608	146.600000
502.904266	147.140000
502.997986	146.340000
503.091705	145.360000
503.185364	145.560000
503.279083	145.380000
503.372772	144.860000
503.466492	144.640000
503.560150	144.640000
503.653870	144.980000
503.747528	145.340000
503.841248	145.160000
503.934906	145.600000
504.028625	145.600000
504.122284	145.660000
504.216003	146.060000
504.309662	146.020000
504.403381	145.800000
504.497040	146.040000
504.590759	145.700000
504.684418	145.780000
504.778137	146.420000
504.871796	146.760000
504.965515	146.800000
505.059174	147.080000
505.152893	146.460000
505.246521	145.680000
505.340240	145.600000
505.433899	145.480000
505.527618	145.600000
505.621338	145.720000
505.714996	145.800000
505.808716	145.480000
505.902374	145.920000
505.996094	146.080000
506.089752	145.940000
506.183472	146.320000
506.277130	146.380000
506.370850	146.380000
506.464508	146.000000
506.558228	146.000000
506.651886	145.540000
506.745605	145.820000
506.839264	145.580000
506.932983	145.660000
507.026611	145.700000
507.120331	146.480000
507.213989	145.960000
507.307709	145.900000
507.401367	146.260000
507.495087	147.000000
507.588745	146.320000
507.682465	147.480000
507.776123	147.560000
507.869843	147.220000
507.963531	146.940000
508.057190	147.540000
508.150909	146.280000
508.244568	146.480000
508.338287	146.360000
508.431946	145.640000
508.525665	144.960000
508.619324	145.300000
508.713013	144.860000
508.806671	145.200000
508.900391	146.420000
508.994049	146.720000
509.087769	146.540000
509.181427	146.920000
509.275146	146.480000
509.368774	145.420000
509.462494	145.620000
509.556152	145.780000
509.649872	146.120000
509.743530	146.120000
509.837250	146.400000
509.930878	146.560000
510.024597	146.420000
510.118256	145.840000
510.211975	146.000000
510.305695	145.900000
510.399353	145.860000
510.493042	146.300000
510.586700	146.780000
510.680420	147.260000
510.774078	147.280000
510.867798	147.280000
510.961426	146.920000
511.055145	146.740000
511.148804	146.140000
511.242523	146.280000
511.336151	146.080000
511.429871	146.440000
511.523529	146.000000
511.617249	145.920000
511.710876	145.540000
511.804596	145.000000
511.898254	144.680000
511.991974	145.160000
512.085632	145.320000
512.179321	145.640000
512.272949	146.460000
512.366699	146.900000
512.460327	146.860000
512.554077	147.580000
512.647766	147.280000
512.741394	146.940000
512.835144	147.380000
512.928772	147.160000
513.022461	146.740000
513.116150	146.820000
513.209839	147.260000
513.303467	146.360000
513.397217	145.980000
513.490845	145.740000
513.584595	145.600000
513.678223	144.860000
513.771912	144.360000
513.865601	144.900000
513.959290	144.580000
514.052917	144.640000
514.146667	145.680000
514.240295	146.460000
514.333984	146.360000
514.427673	146.360000
514.521362	146.680000
514.614990	145.580000
514.708740	145.380000
514.802368	145.660000
514.896057	145.980000
514.989746	146.760000
515.083435	147.060000
515.177124	147.180000
515.270752	146.760000
515.364502	146.780000
515.458130	146.240000
515.551819	146.080000
515.645508	146.080000
515.739197	145.900000
515.832825	146.000000
515.926575	145.480000
516.020203	145.860000
516.113892	146.120000
516.207520	146.380000
516.301270	146.320000
516.394897	146.680000
516.488586	146.760000
516.582275	146.600000
516.675964	145.900000
516.769592	145.360000
516.863281	145.660000
516.956970	145.920000
517.050659	145.520000
517.144287	146.000000
517.238037	146.320000
517.331665	145.740000
517.425354	145.320000
517.519043	145.200000
517.612732	145.400000
517.706421	145.540000
517.800049	145.240000
517.893738	144.740000
517.987427	144.720000
518.081116	144.600000
518.174744	144.260000
518.268433	144.740000
518.362122	145.560000
518.455811	145.760000
518.549438	146.200000
518.643127	147.480000
518.736816	147.300000
518.830505	146.660000
518.924133	146.660000
519.017822	146.700000
519.111511	145.900000
519.205200	146.400000
519.298828	146.740000
519.392517	146.620000
519.486206	146.660000
519.579895	146.500000
519.673523	145.840000
519.767212	145.740000
519.860901	146.280000
519.954590	145.520000
520.048279	145.320000
520.141907	145.520000
520.235596	146.340000
520.329224	146.480000
520.422974	147.000000
520.516602	147.260000
520.610291	147.040000
520.703918	146.640000
520.797607	145.920000
520.891296	145.660000
520.984985	145.800000
521.078613	146.180000
521.172302	145.680000
521.265930	146.760000
521.359680	147.520000
521.453308	147.000000
521.546997	147.040000
521.640625	147.220000
521.734314	146.340000
521.827942	145.920000
521.921692	146.380000
522.015320	146.220000
522.109009	145.880000
522.202698	145.540000
522.296326	145.520000
522.390015	145.600000
522.483704	145.520000
522.577393	145.540000
522.671021	145.920000
522.764709	145.520000
522.858337	145.900000
522.952026	146.120000
523.045654	146.860000
523.139404	147.260000
523.233032	147.740000
523.326721	147.160000
523.420349	147.040000
523.514038	146.500000
523.607666	146.500000
523.701355	145.800000
523.795044	145.920000
523.888733	146.180000
523.982361	146.560000
524.076050	146.200000
524.169678	146.780000
524.263367	146.320000
524.356995	146.140000
524.450684	145.880000
524.544373	145.800000
524.638062	145.820000
524.731750	146.360000
524.825378	146.140000
524.919067	145.480000
525.012695	145.600000
525.106384	145.040000
525.200012	144.980000
525.293701	144.600000
525.387329	145.360000
525.481018	145.560000
525.574646	146.020000
525.668396	146.120000
525.762024	146.920000
525.855713	146.860000
525.949341	146.480000
526.043030	146.580000
526.136658	146.080000
526.230347	145.800000
526.323975	145.600000
526.417664	145.560000
526.511292	145.600000
526.604980	146.160000
526.698608	146.000000
526.792297	145.980000
526.885925	146.320000
526.979614	146.060000
527.073303	145.520000
527.166931	145.840000
527.260620	146.160000
527.354309	146.380000
527.447998	146.540000
527.541626	146.460000
527.635315	146.640000
527.728943	147.040000
527.822632	146.760000
527.916260	146.760000
528.009949	146.920000
528.103577	146.220000
528.197266	145.420000
528.290894	145.660000
528.384583	145.360000
528.478210	145.440000
528.571899	145.780000
528.665527	145.980000
528.759216	145.920000
528.852844	146.560000
528.946533	146.500000
529.040161	146.700000
529.133850	146.640000
529.227478	146.740000
529.321167	146.920000
529.414856	147.340000
529.508484	147.640000
529.602173	147.260000
529.695801	146.900000
529.789490	146.160000
529.883057	145.900000
529.976746	145.460000
530.070374	145.960000
530.164062	146.120000
530.257690	146.480000
530.351379	146.600000
530.445007	146.580000
530.538696	146.100000
530.632324	146.380000
530.726013	146.420000
530.819641	146.540000
530.913330	146.660000
531.006958	146.660000
531.100647	146.360000
531.194275	146.100000
531.287964	145.740000
531.381592	145.680000
531.475220	145.980000
531.568848	145.820000
531.662537	145.540000
531.756226	146.140000
531.849854	146.000000
531.943542	146.220000
532.037170	145.980000
532.130859	146.720000
532.224487	146.100000
532.318176	145.860000
532.411804	146.260000
532.505432	146.600000
532.599060	145.920000
532.692749	145.880000
532.786377	146.480000
532.880066	145.820000
532.973694	145.360000
533.067383	145.400000
533.161011	145.460000
533.254639	145.160000
533.348267	144.840000
533.441956	145.300000
533.535583	145.380000
533.629272	145.280000
533.722900	144.960000
533.816589	145.200000
533.910156	145.500000
534.003845	145.280000
534.097534	145.680000
534.191162	146.520000
534.284851	146.720000
534.378479	146.300000
534.472107	146.500000
534.565735	146.060000
534.659424	145.940000
534.753052	145.980000
534.846741	145.520000
534.940369	145.960000
535.033997	146.160000
535.127625	145.880000
535.221313	146.360000
535.314941	146.640000
535.408630	145.920000
535.502197	146.240000
535.595886	145.780000
535.689514	145.140000
535.783203	145.720000
535.876831	146.360000
535.970459	146.200000
536.064087	146.520000
536.157776	146.760000
536.251404	146.580000
536.345093	146.400000
536.438721	146.240000
536.532349	146.180000
536.626038	146.020000
536.719666	146.120000
536.813293	145.820000
536.906921	145.980000
537.000610	146.420000
537.094238	146.440000
537.187866	146.000000
537.281494	146.000000
537.375183	146.320000
537.468811	146.020000
537.562439	145.960000
537.656067	146.060000
537.749756	146.120000
537.843384	146.440000
537.937012	146.420000
538.030640	146.160000
538.124329	146.260000
538.217896	146.520000
538.311584	146.040000
538.405212	145.820000
538.498901	146.260000
538.592468	146.940000
538.686157	146.320000
538.779785	145.680000
538.873413	145.640000
538.967102	145.300000
539.060730	144.820000
539.154358	145.580000
539.247986	146.200000
539.341675	146.440000
539.435242	146.680000
539.528931	146.560000
539.622559	146.100000
539.716187	146.500000
539.809814	146.580000
539.903503	146.520000
539.997070	146.580000
540.090759	146.920000
540.184387	146.420000
540.278015	146.740000
540.371643	147.020000
540.465332	146.780000
540.558899	146.540000
540.652588	146.480000
540.746216	145.900000
540.839844	146.000000
540.933472	146.080000
541.027100	145.880000
541.120728	145.980000
541.214417	146.160000
541.308044	146.180000
541.401672	146.020000
541.495300	146.060000
541.588928	145.960000
541.682617	145.920000
541.776184	145.240000
541.869873	145.500000
541.963440	145.780000
542.057129	145.740000
542.150757	145.380000
542.244385	145.480000
542.338013	145.020000
542.431641	144.760000
542.525269	144.780000
542.618958	145.520000
542.712524	145.700000
542.806213	145.900000
542.899780	146.380000
542.993469	146.280000
543.087036	145.880000
543.180725	145.440000
543.274292	145.760000
543.367981	145.560000
543.461548	145.980000
543.555237	145.820000
543.648926	146.460000
543.742493	146.960000
543.836182	146.960000
543.929749	146.720000
544.023437	147.080000
544.117004	146.700000
544.210693	146.380000
544.304260	146.340000
544.397949	146.200000
544.491516	146.240000
544.585205	146.240000
544.678772	145.720000
544.772461	146.220000
544.866028	145.980000
544.959717	145.640000
545.053284	145.660000
545.146973	146.060000
545.240540	145.700000
545.334229	146.400000
545.427795	146.840000
545.521423	146.920000
545.615051	146.820000
545.708679	147.120000
545.802307	146.540000
545.895935	146.740000
545.989624	147.540000
546.083191	147.300000
546.176880	146.920000
546.270447	146.840000
546.364136	146.860000
546.457703	146.240000
546.551331	146.100000
546.644958	146.220000
546.738586	146.620000
546.832214	146.260000
546.925842	145.920000
547.019409	146.320000
547.113098	145.980000
547.206665	145.380000
547.300354	145.400000
547.393921	146.040000
547.487549	146.280000
547.581177	146.160000
547.674805	146.520000
547.768433	145.860000
547.862061	145.460000
547.955627	144.660000
548.049316	145.200000
548.142883	145.340000
548.236572	146.060000
548.330139	146.460000
548.423767	146.860000
548.517456	146.880000
548.611023	147.000000
548.704651	146.360000
548.798279	146.060000
548.891907	146.180000
548.985474	145.860000
549.079163	146.040000
549.172729	146.020000
549.266357	145.520000
549.359985	145.520000
549.453613	144.880000
549.547180	144.700000
549.640869	145.580000
549.734436	145.680000
549.828064	146.160000
549.921631	146.600000
550.015320	145.780000
550.108887	145.600000
550.202515	145.760000
550.296143	144.980000
550.389771	145.280000
550.483337	146.040000
550.576965	145.920000
550.670593	146.280000
550.764221	146.580000
550.857849	146.480000
550.951477	146.220000
551.045105	145.860000
551.138672	145.500000
551.232300	144.980000
551.325928	145.180000
551.419556	145.280000
551.513123	145.800000
551.606750	145.760000
551.700378	146.180000
551.794006	145.880000
551.887573	145.760000
551.981201	145.900000
552.074768	145.780000
552.168457	145.580000
552.262024	146.480000
552.355652	146.560000
552.449219	146.940000
552.542847	147.300000
552.636475	147.180000
552.730103	146.100000
552.823669	146.000000
552.917297	145.280000
553.010864	144.980000
553.104553	145.520000
553.198181	145.380000
553.291748	145.920000
553.385376	146.040000
553.478943	146.220000
553.572571	146.320000
553.666199	146.600000
553.759827	145.940000
553.853394	145.620000
553.947021	145.300000
554.040588	144.720000
554.134216	144.900000
554.227783	145.720000
554.321411	146.280000
554.415039	146.220000
554.508667	146.560000
554.602234	146.660000
554.695862	145.860000
554.789429	145.300000
554.883057	145.760000
554.976624	145.740000
555.070251	145.540000
555.163818	145.660000
555.257507	145.860000
555.351074	145.740000
555.444702	146.900000
555.538330	146.860000
555.631897	147.080000
555.725525	147.160000
555.819092	147.060000
555.912720	145.420000
556.006287	146.060000
556.099915	145.800000
556.193481	145.700000
556.287109	146.180000
556.380676	146.220000
556.474304	145.460000
556.567871	145.600000
556.661499	145.180000
556.755066	144.900000
556.848694	145.260000
556.942261	145.480000
557.035889	145.620000
557.129517	146.060000
557.223145	146.300000
557.316711	146.200000
557.410339	146.180000
557.503906	145.880000
557.597473	145.780000
557.691040	145.580000
557.784668	145.640000
557.878296	145.700000
557.971863	146.120000
558.065491	146.360000
558.159058	146.120000
558.252686	146.820000
558.346252	147.480000
558.439880	146.800000
558.533447	146.420000
558.627075	146.180000
558.720642	145.640000
558.814270	145.160000
558.907837	145.560000
559.001465	145.420000
559.095032	146.260000
559.188660	146.500000
559.282227	145.920000
559.375854	146.760000
559.469360	146.880000
559.562988	146.880000
559.656555	146.780000
559.750183	147.380000
559.843750	147.020000
559.937378	147.260000
560.030945	146.780000
560.124573	0.000000
560.218140	0.000000
560.311707	0.000000
560.405334	0.000000
560.498901	0.000000
560.592529	0.000000
560.686096	0.000000
560.779724	0.000000
560.873291	0.000000
560.966858	0.000000
561.060425	0.000000
561.154053	0.000000
561.247620	0.000000
561.341248	0.000000
561.434814	0.000000
561.528381	0.000000
561.621948	0.000000
561.715576	0.000000
561.809143	0.000000
561.902771	0.000000
561.996277	0.000000
562.089905	0.000000
562.183472	0.000000
562.277100	0.000000
