Model Number: SPM-002-B   
Serial Number: 70087108
Firmware Version: 004.15.4
Exposure Time: 100000.000000us
Data Taken on: 11-12-2020 18:43:26.267
Wavelength	Amplitude
221.570786	0.000000
221.663406	0.000000
221.756027	0.000000
221.848648	0.000000
221.941269	0.000000
222.033905	0.000000
222.126526	0.000000
222.219162	0.000000
222.311798	0.000000
222.404419	0.000000
222.497055	0.000000
222.589676	0.000000
222.682312	0.000000
222.774933	0.000000
222.867569	0.000000
222.960205	0.000000
223.052841	0.000000
223.145462	0.000000
223.238098	0.000000
223.330734	0.000000
223.423386	0.000000
223.516022	0.000000
223.608658	0.000000
223.701309	0.000000
223.793945	0.000000
223.886581	0.000000
223.979218	0.000000
224.071869	0.000000
224.164505	0.000000
224.257156	0.000000
224.349792	0.000000
224.442444	0.000000
224.535095	0.000000
224.627747	0.000000
224.720398	0.000000
224.813034	0.000000
224.905685	0.000000
224.998337	145.440000
225.090988	145.560000
225.183640	145.660000
225.276291	145.400000
225.368942	145.680000
225.461594	146.040000
225.554245	145.960000
225.646912	146.100000
225.739578	146.740000
225.832230	146.860000
225.924896	146.220000
226.017548	146.940000
226.110199	147.540000
226.202866	146.700000
226.295532	146.800000
226.388184	146.760000
226.480850	146.000000
226.573517	145.180000
226.666168	145.540000
226.758835	145.840000
226.851501	146.240000
226.944183	146.720000
227.036850	146.380000
227.129517	146.400000
227.222183	146.080000
227.314850	146.020000
227.407516	146.220000
227.500198	147.440000
227.592865	147.220000
227.685532	147.000000
227.778214	146.600000
227.870880	146.700000
227.963562	146.740000
228.056229	147.080000
228.148926	147.240000
228.241592	148.120000
228.334274	147.560000
228.426956	147.040000
228.519638	146.740000
228.612305	146.120000
228.704987	146.120000
228.797668	146.120000
228.890350	145.940000
228.983032	145.400000
229.075714	146.060000
229.168396	145.500000
229.261108	145.100000
229.353790	145.120000
229.446472	145.860000
229.539169	145.640000
229.631851	145.320000
229.724533	145.820000
229.817230	145.960000
229.909912	146.880000
230.002609	146.900000
230.095306	147.180000
230.187988	147.020000
230.280685	146.940000
230.373383	145.720000
230.466095	145.780000
230.558792	146.140000
230.651474	146.260000
230.744171	146.120000
230.836868	145.920000
230.929581	146.160000
231.022278	146.080000
231.114975	146.000000
231.207672	146.040000
231.300369	146.340000
231.393082	146.340000
231.485779	146.160000
231.578506	146.260000
231.671204	146.440000
231.763916	146.780000
231.856613	146.420000
231.949326	146.240000
232.042023	146.000000
232.134735	145.780000
232.227448	145.300000
232.320160	145.800000
232.412872	146.080000
232.505585	146.600000
232.598297	146.920000
232.691010	146.720000
232.783722	146.300000
232.876450	146.800000
232.969162	146.300000
233.061874	145.880000
233.154587	145.980000
233.247314	146.080000
233.340027	145.280000
233.432739	145.840000
233.525467	145.700000
233.618179	146.000000
233.710907	145.820000
233.803635	146.200000
233.896347	146.040000
233.989090	146.980000
234.081818	147.020000
234.174545	147.360000
234.267258	147.080000
234.359985	146.880000
234.452713	146.460000
234.545441	146.100000
234.638168	145.940000
234.730896	146.440000
234.823639	146.360000
234.916367	146.520000
235.009094	146.880000
235.101822	147.120000
235.194580	146.700000
235.287308	146.820000
235.380051	146.360000
235.472778	146.580000
235.565521	146.760000
235.658249	146.500000
235.750992	146.940000
235.843719	147.200000
235.936462	147.120000
236.029205	146.580000
236.121948	146.900000
236.214691	146.960000
236.307449	147.520000
236.400192	147.280000
236.492935	147.120000
236.585678	146.740000
236.678421	146.400000
236.771164	146.220000
236.863907	146.620000
236.956665	147.040000
237.049408	148.700000
237.142151	148.320000
237.234909	148.640000
237.327652	148.300000
237.420410	147.980000
237.513153	147.180000
237.605927	147.240000
237.698669	146.780000
237.791428	146.140000
237.884186	146.640000
237.976944	146.100000
238.069702	146.420000
238.162445	145.760000
238.255203	146.460000
238.347961	146.640000
238.440720	146.760000
238.533478	146.200000
238.626266	146.360000
238.719025	146.300000
238.811783	145.920000
238.904541	145.840000
238.997314	145.840000
239.090073	145.420000
239.182831	145.720000
239.275604	146.600000
239.368362	146.320000
239.461136	147.020000
239.553909	147.380000
239.646667	147.180000
239.739441	146.260000
239.832214	146.620000
239.925003	146.480000
240.017761	147.360000
240.110535	147.820000
240.203308	147.600000
240.296082	147.660000
240.388855	147.460000
240.481628	146.780000
240.574417	146.900000
240.667191	147.140000
240.759964	146.760000
240.852737	147.020000
240.945526	147.060000
241.038315	146.360000
241.131088	146.440000
241.223877	146.840000
241.316650	146.240000
241.409439	146.680000
241.502228	146.500000
241.595001	146.780000
241.687790	146.840000
241.780579	147.100000
241.873367	146.940000
241.966141	147.300000
242.058929	146.720000
242.151718	146.820000
242.244507	147.320000
242.337311	146.520000
242.430099	146.920000
242.522903	147.140000
242.615692	146.640000
242.708481	146.600000
242.801270	147.080000
242.894073	146.660000
242.986862	146.640000
243.079651	147.100000
243.172455	146.720000
243.265244	146.820000
243.358063	146.440000
243.450867	146.880000
243.543655	146.480000
243.636459	146.480000
243.729263	146.760000
243.822067	146.940000
243.914856	146.940000
244.007660	147.300000
244.100464	147.160000
244.193268	146.820000
244.286072	147.020000
244.378876	146.500000
244.471680	146.200000
244.564499	146.880000
244.657318	147.680000
244.750122	147.780000
244.842926	147.400000
244.935745	147.820000
245.028549	147.040000
245.121368	146.180000
245.214172	146.020000
245.306992	146.460000
245.399796	145.920000
245.492615	146.300000
245.585434	146.220000
245.678253	146.220000
245.771072	146.280000
245.863892	146.580000
245.956711	146.620000
246.049530	146.460000
246.142349	146.320000
246.235168	146.400000
246.327988	146.800000
246.420807	146.640000
246.513626	146.800000
246.606445	146.600000
246.699280	146.300000
246.792099	145.980000
246.884918	145.440000
246.977753	145.220000
247.070587	145.400000
247.163422	145.520000
247.256241	145.380000
247.349075	146.180000
247.441895	146.260000
247.534729	146.280000
247.627563	146.220000
247.720383	146.840000
247.813217	146.560000
247.906052	146.280000
247.998886	146.400000
248.091736	146.260000
248.184570	145.500000
248.277405	145.640000
248.370239	146.940000
248.463074	147.900000
248.555908	148.280000
248.648743	148.400000
248.741592	148.100000
248.834427	146.860000
248.927261	145.560000
249.020111	145.920000
249.112946	146.660000
249.205795	146.700000
249.298630	147.140000
249.391495	147.380000
249.484344	146.840000
249.577179	146.520000
249.670029	146.480000
249.762878	147.020000
249.855728	146.840000
249.948563	146.720000
250.041412	146.280000
250.134262	146.800000
250.227112	146.400000
250.319962	146.800000
250.412827	146.940000
250.505692	146.400000
250.598541	145.920000
250.691391	145.600000
250.784241	145.320000
250.877106	145.480000
250.969955	145.500000
251.062805	146.100000
251.155670	146.700000
251.248520	146.660000
251.341385	146.680000
251.434235	147.100000
251.527100	146.640000
251.619965	146.320000
251.712814	146.960000
251.805695	147.120000
251.898560	147.100000
251.991425	147.300000
252.084290	147.440000
252.177155	146.600000
252.270020	146.120000
252.362885	146.180000
252.455750	146.240000
252.548615	146.200000
252.641479	146.660000
252.734360	146.740000
252.827240	146.800000
252.920105	146.620000
253.012970	146.100000
253.105850	145.820000
253.198715	145.760000
253.291595	145.720000
253.384460	145.680000
253.477341	146.060000
253.570221	146.260000
253.663086	145.920000
253.755966	146.520000
253.848846	146.320000
253.941727	146.740000
254.034592	146.640000
254.127472	146.360000
254.220367	146.040000
254.313248	146.200000
254.406128	145.440000
254.499008	145.800000
254.591904	146.900000
254.684784	147.260000
254.777664	147.500000
254.870544	147.460000
254.963440	147.320000
255.056335	146.960000
255.149216	146.520000
255.242111	146.600000
255.334991	147.160000
255.427887	146.980000
255.520767	147.300000
255.613663	147.480000
255.706558	146.760000
255.799438	146.180000
255.892334	145.940000
255.985229	145.500000
256.078125	145.100000
256.171021	145.460000
256.263916	146.180000
256.356812	146.420000
256.449707	146.520000
256.542603	146.460000
256.635498	147.140000
256.728394	146.680000
256.821289	146.460000
256.914215	146.860000
257.007080	147.040000
257.100006	146.760000
257.192932	147.220000
257.285828	147.460000
257.378723	147.080000
257.471619	146.960000
257.564545	146.540000
257.657440	146.320000
257.750336	146.740000
257.843262	146.460000
257.936157	147.560000
258.029053	147.880000
258.121979	147.840000
258.214874	147.700000
258.307800	147.680000
258.400696	146.460000
258.493622	146.200000
258.586517	145.680000
258.679443	145.760000
258.772339	145.660000
258.865265	145.600000
258.958160	145.480000
259.051086	146.440000
259.144012	146.000000
259.236938	146.820000
259.329834	147.040000
259.422791	146.820000
259.515717	145.880000
259.608612	145.920000
259.701538	145.900000
259.794464	145.560000
259.887390	145.840000
259.980316	146.040000
260.073212	146.020000
260.166138	144.900000
260.259064	145.380000
260.351990	145.940000
260.444916	146.040000
260.537842	146.360000
260.630768	147.180000
260.723694	146.900000
260.816620	146.400000
260.909546	146.540000
261.002472	145.900000
261.095398	145.360000
261.188354	145.540000
261.281281	145.360000
261.374207	145.560000
261.467133	146.640000
261.560089	147.200000
261.653015	146.940000
261.745972	147.720000
261.838867	147.640000
261.931824	147.280000
262.024780	146.640000
262.117706	147.060000
262.210663	146.560000
262.303589	146.480000
262.396515	146.380000
262.489471	147.180000
262.582397	147.020000
262.675354	146.940000
262.768280	146.760000
262.861237	146.900000
262.954163	146.640000
263.047119	146.600000
263.140045	146.060000
263.233002	146.220000
263.325958	145.780000
263.418884	145.500000
263.511841	145.440000
263.604797	145.600000
263.697723	145.620000
263.790680	145.700000
263.883636	146.320000
263.976593	146.180000
264.069550	146.680000
264.162476	146.060000
264.255463	146.120000
264.348419	145.660000
264.441376	146.080000
264.534332	145.640000
264.627289	146.120000
264.720245	146.620000
264.813202	146.220000
264.906158	146.500000
264.999115	147.060000
265.092072	147.060000
265.185028	147.500000
265.277985	148.040000
265.370941	147.440000
265.463898	147.120000
265.556854	146.840000
265.649811	145.800000
265.742798	145.960000
265.835754	146.380000
265.928711	146.600000
266.021667	146.960000
266.114655	146.860000
266.207611	146.860000
266.300568	146.120000
266.393585	145.620000
266.486511	145.740000
266.579498	145.340000
266.672485	145.060000
266.765442	145.280000
266.858429	145.740000
266.951385	145.280000
267.044342	145.540000
267.137329	145.580000
267.230316	145.920000
267.323273	145.580000
267.416260	146.380000
267.509216	146.120000
267.602203	145.980000
267.695160	146.640000
267.788147	146.800000
267.881134	146.160000
267.974091	147.080000
268.067078	147.140000
268.160065	146.440000
268.253052	146.400000
268.346008	146.560000
268.438995	146.020000
268.531982	146.280000
268.624969	146.220000
268.717987	146.720000
268.810944	146.600000
268.903961	146.800000
268.996948	146.240000
269.089905	146.580000
269.182892	146.340000
269.275879	146.720000
269.368866	146.160000
269.461853	146.360000
269.554871	146.080000
269.647858	146.120000
269.740845	146.120000
269.833832	146.560000
269.926819	146.300000
270.019806	146.300000
270.112793	145.740000
270.205811	145.640000
270.298798	145.660000
270.391785	146.540000
270.484772	146.260000
270.577789	146.340000
270.670776	145.860000
270.763763	145.420000
270.856750	144.880000
270.949768	144.800000
271.042786	145.000000
271.135773	145.220000
271.228790	145.860000
271.321808	145.800000
271.414795	145.840000
271.507782	145.680000
271.600800	145.480000
271.693817	145.300000
271.786804	145.560000
271.879822	145.720000
271.972809	145.540000
272.065826	146.300000
272.158844	146.040000
272.251831	146.560000
272.344849	146.600000
272.437866	146.420000
272.530853	146.400000
272.623871	147.140000
272.716888	145.900000
272.809906	146.040000
272.902893	146.380000
272.995911	145.560000
273.088928	145.120000
273.181946	145.680000
273.274963	145.540000
273.367981	145.480000
273.460999	145.920000
273.554047	146.260000
273.647003	146.580000
273.740051	146.520000
273.833069	147.020000
273.926086	147.280000
274.019135	146.820000
274.112152	146.480000
274.205170	146.540000
274.298187	146.620000
274.391205	146.200000
274.484222	146.580000
274.577240	146.740000
274.670258	146.760000
274.763306	146.560000
274.856323	146.880000
274.949341	146.560000
275.042358	146.860000
275.135406	146.780000
275.228424	146.720000
275.321442	146.320000
275.414490	145.980000
275.507507	146.280000
275.600525	146.800000
275.693573	146.480000
275.786591	146.560000
275.879669	146.800000
275.972656	146.180000
276.065735	145.860000
276.158752	146.480000
276.251801	146.960000
276.344818	147.400000
276.437866	147.560000
276.530884	147.360000
276.623932	146.660000
276.716980	146.660000
276.809998	146.420000
276.903046	146.380000
276.996094	147.220000
277.089111	147.940000
277.182159	148.320000
277.275208	147.940000
277.368256	148.100000
277.461304	147.620000
277.554321	146.840000
277.647369	146.080000
277.740417	146.340000
277.833466	146.140000
277.926514	145.900000
278.019562	146.680000
278.112610	146.420000
278.205688	146.720000
278.298706	146.840000
278.391785	146.840000
278.484833	146.400000
278.577881	146.340000
278.670929	146.500000
278.763977	146.520000
278.857025	146.880000
278.950073	146.960000
279.043121	147.040000
279.136169	146.760000
279.229248	146.400000
279.322296	146.240000
279.415344	146.180000
279.508392	146.180000
279.601440	146.160000
279.694519	146.180000
279.787567	145.860000
279.880615	145.580000
279.973694	145.720000
280.066742	145.700000
280.159790	145.640000
280.252869	145.520000
280.345917	145.900000
280.438995	145.700000
280.532074	145.500000
280.625122	145.920000
280.718201	146.860000
280.811279	146.960000
280.904327	147.040000
280.997406	147.180000
281.090454	147.280000
281.183533	146.580000
281.276581	146.400000
281.369659	146.140000
281.462738	146.380000
281.555786	146.180000
281.648865	146.200000
281.741943	145.980000
281.835022	146.600000
281.928070	146.060000
282.021149	145.780000
282.114227	145.760000
282.207306	145.820000
282.300385	146.180000
282.393433	146.420000
282.486511	146.520000
282.579590	146.840000
282.672668	147.160000
282.765747	146.540000
282.858856	146.200000
282.951904	146.400000
283.045013	146.260000
283.138062	146.620000
283.231171	146.800000
283.324249	147.480000
283.417328	147.560000
283.510406	147.300000
283.603485	146.820000
283.696564	146.640000
283.789642	146.780000
283.882751	146.560000
283.975830	147.080000
284.068909	146.820000
284.161987	147.420000
284.255066	146.940000
284.348175	146.880000
284.441254	146.840000
284.534332	147.380000
284.627441	146.960000
284.720520	146.700000
284.813599	147.200000
284.906708	147.080000
284.999786	146.240000
285.092896	145.940000
285.185974	147.180000
285.279053	146.500000
285.372192	146.460000
285.465240	147.320000
285.558380	147.260000
285.651459	146.420000
285.744568	147.640000
285.837677	147.500000
285.930756	147.420000
286.023865	147.760000
286.116943	147.420000
286.210052	146.960000
286.303162	146.840000
286.396240	146.880000
286.489349	146.480000
286.582458	147.160000
286.675568	146.660000
286.768646	146.500000
286.861755	146.500000
286.954865	147.400000
287.047974	146.560000
287.141083	146.480000
287.234161	146.440000
287.327271	146.120000
287.420380	146.180000
287.513519	146.260000
287.606598	146.260000
287.699738	146.580000
287.792816	146.400000
287.885956	145.640000
287.979034	145.660000
288.072174	145.920000
288.165283	145.720000
288.258392	146.420000
288.351501	146.300000
288.444611	146.600000
288.537720	146.980000
288.630859	147.120000
288.723969	146.840000
288.817078	147.180000
288.910187	147.440000
289.003296	146.580000
289.096436	146.400000
289.189545	146.220000
289.282654	145.880000
289.375763	146.160000
289.468903	146.740000
289.562012	147.020000
289.655121	147.200000
289.748260	147.560000
289.841400	147.400000
289.934509	147.260000
290.027649	147.620000
290.120728	147.280000
290.213898	147.480000
290.306976	147.140000
290.400146	147.120000
290.493256	146.420000
290.586395	146.460000
290.679535	146.240000
290.772644	146.120000
290.865784	145.580000
290.958893	145.800000
291.052032	145.880000
291.145172	145.940000
291.238281	145.760000
291.331421	146.020000
291.424561	146.600000
291.517670	146.440000
291.610809	146.840000
291.703949	147.200000
291.797089	147.360000
291.890228	146.760000
291.983337	146.600000
292.076477	145.960000
292.169617	145.880000
292.262756	146.200000
292.355927	146.020000
292.449036	146.060000
292.542206	146.420000
292.635315	146.540000
292.728485	146.380000
292.821625	146.100000
292.914764	147.140000
293.007904	147.120000
293.101044	147.220000
293.194183	146.940000
293.287323	147.080000
293.380463	146.340000
293.473602	145.740000
293.566742	145.780000
293.659882	146.360000
293.753021	146.720000
293.846191	146.660000
293.939331	146.820000
294.032471	146.680000
294.125610	146.300000
294.218781	146.500000
294.311920	146.760000
294.405060	146.940000
294.498230	147.040000
294.591370	146.740000
294.684540	146.080000
294.777679	145.700000
294.870850	146.020000
294.963959	145.720000
295.057159	145.860000
295.150299	146.640000
295.243469	146.720000
295.336609	146.240000
295.429779	146.120000
295.522919	146.700000
295.616089	146.560000
295.709229	147.420000
295.802399	147.740000
295.895569	147.680000
295.988708	147.260000
296.081879	147.260000
296.175018	146.340000
296.268188	146.200000
296.361359	146.980000
296.454529	147.280000
296.547668	147.140000
296.640839	147.400000
296.734009	147.340000
296.827179	147.260000
296.920319	147.420000
297.013519	147.260000
297.106659	147.400000
297.199860	147.280000
297.292999	146.980000
297.386200	146.440000
297.479309	146.520000
297.572510	146.660000
297.665680	146.400000
297.758850	146.460000
297.852020	146.480000
297.945190	146.140000
298.038361	145.580000
298.131531	146.840000
298.224701	146.380000
298.317871	146.180000
298.411072	146.120000
298.504242	145.940000
298.597412	145.160000
298.690582	145.660000
298.783752	145.580000
298.876923	145.780000
298.970093	146.180000
299.063293	146.500000
299.156464	146.720000
299.249634	146.980000
299.342834	147.080000
299.436005	147.200000
299.529205	146.860000
299.622345	146.600000
299.715576	145.960000
299.808716	146.060000
299.901917	145.700000
299.995117	145.900000
300.088287	146.040000
300.181488	146.260000
300.274658	146.140000
300.367828	146.380000
300.461029	146.220000
300.554199	146.460000
300.647400	146.520000
300.740601	146.920000
300.833771	146.740000
300.926971	147.100000
301.020142	146.260000
301.113342	146.540000
301.206512	146.200000
301.299713	146.340000
301.392914	146.080000
301.486084	146.900000
301.579285	146.740000
301.672516	147.340000
301.765686	147.180000
301.858887	146.980000
301.952057	146.620000
302.045288	146.700000
302.138458	146.040000
302.231659	145.980000
302.324860	145.900000
302.418060	145.520000
302.511261	145.320000
302.604462	145.520000
302.697662	145.240000
302.790863	145.560000
302.884064	145.280000
302.977264	145.580000
303.070465	145.980000
303.163666	147.140000
303.256866	147.100000
303.350067	147.440000
303.443268	147.460000
303.536469	147.200000
303.629669	146.380000
303.722870	146.720000
303.816071	146.680000
303.909271	146.740000
304.002472	146.020000
304.095673	145.980000
304.188934	144.800000
304.282104	145.720000
304.375336	145.560000
304.468506	145.760000
304.561768	145.560000
304.654968	146.260000
304.748169	145.500000
304.841370	145.540000
304.934601	146.020000
305.027802	146.020000
305.121002	145.760000
305.214233	145.900000
305.307434	146.020000
305.400665	146.360000
305.493866	146.420000
305.587097	146.880000
305.680298	146.420000
305.773499	146.580000
305.866730	146.280000
305.959930	146.700000
306.053162	147.020000
306.146393	147.060000
306.239594	146.260000
306.332825	146.020000
306.426025	146.160000
306.519287	145.580000
306.612488	145.540000
306.705719	145.660000
306.798920	145.680000
306.892181	144.980000
306.985352	144.880000
307.078613	144.720000
307.171844	145.260000
307.265045	145.020000
307.358276	145.320000
307.451508	145.420000
307.544739	146.180000
307.637970	145.840000
307.731201	146.280000
307.824402	146.700000
307.917633	147.140000
308.010864	147.300000
308.104095	147.640000
308.197327	147.380000
308.290558	147.280000
308.383789	146.600000
308.477020	146.180000
308.570251	145.340000
308.663483	145.160000
308.756714	144.820000
308.849976	144.840000
308.943176	145.460000
309.036438	145.800000
309.129639	145.420000
309.222900	145.280000
309.316101	145.340000
309.409393	144.360000
309.502625	144.500000
309.595856	145.120000
309.689087	145.280000
309.782318	145.520000
309.875580	145.900000
309.968811	146.160000
310.062042	145.720000
310.155273	145.820000
310.248535	146.200000
310.341766	146.120000
310.434998	145.680000
310.528259	145.600000
310.621490	145.820000
310.714722	145.300000
310.807983	145.600000
310.901215	146.100000
310.994476	146.880000
311.087708	146.600000
311.181000	146.800000
311.274200	146.400000
311.367462	146.140000
311.460693	145.680000
311.553986	146.280000
311.647186	146.440000
311.740479	146.600000
311.833710	146.360000
311.926971	146.080000
312.020203	145.580000
312.113464	145.080000
312.206726	144.860000
312.299957	145.060000
312.393219	146.000000
312.486481	146.060000
312.579712	146.380000
312.672974	146.260000
312.766235	145.980000
312.859497	145.360000
312.952759	145.200000
313.045990	145.920000
313.139252	145.820000
313.232513	146.600000
313.325775	146.640000
313.419037	146.460000
313.512299	145.240000
313.605530	145.700000
313.698822	145.380000
313.792053	145.560000
313.885345	145.520000
313.978577	145.860000
314.071869	145.340000
314.165131	145.280000
314.258392	145.560000
314.351654	145.780000
314.444916	145.340000
314.538177	146.220000
314.631439	146.520000
314.724701	146.080000
314.817993	145.960000
314.911255	146.560000
315.004517	145.980000
315.097778	145.820000
315.191040	146.440000
315.284302	146.660000
315.377594	146.440000
315.470856	146.540000
315.564117	145.980000
315.657379	145.220000
315.750671	144.780000
315.843933	145.120000
315.937195	144.600000
316.030518	144.500000
316.123749	144.720000
316.217041	145.740000
316.310303	145.400000
316.403595	145.860000
316.496857	146.500000
316.590149	146.880000
316.683411	145.940000
316.776703	146.080000
316.869965	146.020000
316.963257	145.700000
317.056519	144.580000
317.149811	144.660000
317.243073	144.460000
317.336365	144.520000
317.429626	144.940000
317.522919	145.660000
317.616180	145.560000
317.709473	145.460000
317.802765	145.440000
317.896027	145.440000
317.989319	145.860000
318.082611	146.080000
318.175873	146.320000
318.269165	146.620000
318.362488	146.360000
318.455750	145.900000
318.549042	146.100000
318.642303	146.560000
318.735626	146.240000
318.828888	146.360000
318.922211	146.020000
319.015472	146.640000
319.108765	146.000000
319.202057	145.880000
319.295349	145.720000
319.388641	146.300000
319.481934	145.620000
319.575226	145.600000
319.668518	145.780000
319.761810	146.040000
319.855103	146.000000
319.948395	146.080000
320.041687	146.240000
320.134979	146.320000
320.228271	146.000000
320.321564	145.760000
320.414856	145.600000
320.508148	145.280000
320.601440	145.160000
320.694763	145.300000
320.788025	146.100000
320.881348	146.100000
320.974640	146.540000
321.067963	146.200000
321.161224	146.140000
321.254547	145.220000
321.347839	146.120000
321.441162	145.800000
321.534454	146.160000
321.627747	146.220000
321.721069	147.000000
321.814362	146.600000
321.907654	146.620000
322.000946	146.460000
322.094269	146.920000
322.187561	146.260000
322.280884	146.580000
322.374176	146.680000
322.467468	147.180000
322.560791	146.820000
322.654083	147.500000
322.747406	147.300000
322.840698	147.500000
322.934021	147.580000
323.027344	147.920000
323.120636	147.260000
323.213959	147.240000
323.307251	146.660000
323.400574	146.360000
323.493866	145.680000
323.587219	145.980000
323.680511	145.740000
323.773834	146.440000
323.867157	146.680000
323.960449	147.240000
324.053772	147.040000
324.147095	147.140000
324.240387	147.440000
324.333710	147.640000
324.427032	147.420000
324.520355	147.300000
324.613647	147.040000
324.706970	146.540000
324.800293	146.180000
324.893616	146.520000
324.986938	146.820000
325.080231	146.460000
325.173553	146.760000
325.266876	147.160000
325.360199	147.140000
325.453522	146.840000
325.546875	146.740000
325.640167	146.660000
325.733521	146.580000
325.826813	146.660000
325.920166	146.620000
326.013489	146.880000
326.106812	146.020000
326.200134	145.600000
326.293457	144.860000
326.386780	145.240000
326.480103	145.460000
326.573425	145.620000
326.666748	145.700000
326.760071	146.320000
326.853424	146.140000
326.946747	146.040000
327.040070	147.140000
327.133392	147.000000
327.226715	146.280000
327.320068	145.880000
327.413391	146.500000
327.506714	145.400000
327.600037	145.220000
327.693390	145.460000
327.786713	145.600000
327.880066	145.040000
327.973358	145.700000
328.066742	146.160000
328.160034	146.320000
328.253418	146.640000
328.346710	146.380000
328.440063	145.900000
328.533417	145.680000
328.626740	146.080000
328.720093	145.680000
328.813416	145.680000
328.906769	145.780000
329.000092	145.720000
329.093445	145.440000
329.186768	145.420000
329.280121	145.880000
329.373444	145.780000
329.466797	145.820000
329.560120	145.860000
329.653473	146.200000
329.746796	145.840000
329.840149	145.920000
329.933502	146.060000
330.026825	145.840000
330.120178	145.620000
330.213562	145.600000
330.306854	145.700000
330.400238	145.640000
330.493561	145.640000
330.586945	146.380000
330.680237	146.760000
330.773621	146.940000
330.866974	146.820000
330.960327	147.100000
331.053680	146.320000
331.147003	146.160000
331.240356	146.300000
331.333710	146.600000
331.427063	146.140000
331.520416	146.120000
331.613770	146.480000
331.707123	146.380000
331.800476	146.220000
331.893829	147.200000
331.987152	147.420000
332.080505	146.900000
332.173859	146.760000
332.267212	146.420000
332.360565	145.660000
332.453918	145.780000
332.547333	145.900000
332.640656	145.960000
332.734039	146.280000
332.827362	146.400000
332.920746	146.220000
333.014069	146.440000
333.107452	146.800000
333.200806	146.920000
333.294159	146.940000
333.387543	146.560000
333.480896	146.140000
333.574249	145.700000
333.667603	145.400000
333.760956	145.340000
333.854340	145.640000
333.947693	145.880000
334.041046	146.060000
334.134430	146.260000
334.227783	145.980000
334.321136	145.940000
334.414520	145.360000
334.507874	145.500000
334.601227	145.460000
334.694611	145.440000
334.787964	145.660000
334.881348	146.080000
334.974701	146.160000
335.068085	145.940000
335.161438	146.360000
335.254822	145.980000
335.348175	146.040000
335.441559	145.440000
335.534943	146.240000
335.628296	146.040000
335.721680	146.260000
335.815033	146.060000
335.908417	146.700000
336.001770	146.320000
336.095154	146.360000
336.188538	146.120000
336.281891	146.160000
336.375275	145.380000
336.468658	144.960000
336.562012	144.920000
336.655396	145.280000
336.748779	145.720000
336.842133	145.900000
336.935516	146.320000
337.028900	146.020000
337.122284	145.760000
337.215637	145.980000
337.309021	146.140000
337.402435	146.000000
337.495789	146.060000
337.589203	146.100000
337.682526	145.740000
337.775940	146.220000
337.869324	146.220000
337.962708	146.040000
338.056091	146.500000
338.149475	146.020000
338.242859	145.640000
338.336243	145.420000
338.429626	146.000000
338.523010	146.020000
338.616394	146.300000
338.709778	145.940000
338.803162	146.080000
338.896545	145.880000
338.989929	145.120000
339.083313	145.120000
339.176697	145.320000
339.270081	145.280000
339.363464	145.640000
339.456848	146.100000
339.550232	145.680000
339.643616	145.420000
339.737030	145.320000
339.830383	144.740000
339.923828	144.740000
340.017181	144.980000
340.110596	145.540000
340.203949	145.320000
340.297363	145.480000
340.390778	145.560000
340.484161	145.740000
340.577545	145.620000
340.670959	146.020000
340.764343	145.960000
340.857727	145.900000
340.951111	145.500000
341.044525	145.600000
341.137909	145.000000
341.231293	144.820000
341.324707	144.480000
341.418091	145.380000
341.511505	145.500000
341.604889	146.080000
341.698303	146.520000
341.791687	146.980000
341.885071	146.240000
341.978485	145.680000
342.071899	145.920000
342.165283	146.060000
342.258698	146.420000
342.352081	147.300000
342.445496	148.140000
342.538879	147.760000
342.632324	147.360000
342.725708	147.040000
342.819122	146.180000
342.912506	145.820000
343.005920	145.680000
343.099335	146.260000
343.192719	145.980000
343.286133	146.040000
343.379547	146.000000
343.472931	146.440000
343.566345	145.760000
343.659760	146.080000
343.753143	145.960000
343.846558	145.560000
343.939972	145.420000
344.033386	146.080000
344.126770	145.780000
344.220184	146.240000
344.313599	146.600000
344.407043	146.600000
344.500427	146.080000
344.593872	146.540000
344.687225	146.020000
344.780670	145.720000
344.874054	145.600000
344.967499	145.860000
345.060913	145.720000
345.154327	145.920000
345.247742	145.720000
345.341156	145.820000
345.434570	145.540000
345.527985	145.480000
345.621399	145.380000
345.714813	145.740000
345.808228	146.040000
345.901642	146.080000
345.995056	145.760000
346.088470	146.080000
346.181885	146.280000
346.275299	145.760000
346.368713	145.640000
346.462128	145.560000
346.555573	145.060000
346.648987	145.000000
346.742401	144.820000
346.835815	145.160000
346.929260	145.020000
347.022644	145.580000
347.116119	145.700000
347.209503	146.460000
347.302948	147.140000
347.396362	147.680000
347.489807	147.680000
347.583221	148.100000
347.676636	147.180000
347.770050	145.960000
347.863495	145.480000
347.956909	145.440000
348.050323	144.720000
348.143768	145.080000
348.237183	145.040000
348.330597	145.760000
348.424042	145.940000
348.517456	146.360000
348.610901	146.740000
348.704315	146.900000
348.797760	146.160000
348.891174	145.420000
348.984619	144.700000
349.078033	144.840000
349.171448	145.560000
349.264923	145.580000
349.358337	146.040000
349.451782	146.500000
349.545197	145.900000
349.638641	145.000000
349.732086	144.900000
349.825500	145.360000
349.918945	144.760000
350.012390	144.860000
350.105804	145.700000
350.199249	146.060000
350.292664	145.960000
350.386108	146.560000
350.479553	147.320000
350.572968	146.860000
350.666412	147.160000
350.759857	146.980000
350.853302	147.160000
350.946716	146.500000
351.040161	146.780000
351.133606	146.500000
351.227081	146.380000
351.320465	147.160000
351.413940	147.100000
351.507355	147.140000
351.600830	147.200000
351.694244	146.900000
351.787720	146.360000
351.881104	146.440000
351.974579	146.200000
352.067993	146.980000
352.161469	147.360000
352.254883	146.680000
352.348358	146.700000
352.441803	147.000000
352.535248	146.320000
352.628693	146.640000
352.722137	146.580000
352.815582	146.760000
352.909027	146.840000
353.002472	146.720000
353.095917	146.400000
353.189362	147.200000
353.282806	147.020000
353.376251	146.500000
353.469696	146.080000
353.563141	146.520000
353.656586	145.740000
353.750061	145.320000
353.843475	145.360000
353.936981	146.220000
354.030396	145.420000
354.123871	145.960000
354.217285	147.040000
354.310760	147.540000
354.404175	147.140000
354.497681	147.080000
354.591095	146.720000
354.684570	145.680000
354.777985	145.080000
354.871490	144.700000
354.964935	145.260000
355.058380	145.500000
355.151855	145.380000
355.245300	145.840000
355.338745	146.100000
355.432220	145.820000
355.525665	145.160000
355.619110	146.000000
355.712585	145.660000
355.806030	145.500000
355.899475	145.020000
355.992950	145.780000
356.086426	145.900000
356.179871	146.160000
356.273346	146.520000
356.366791	147.200000
356.460266	147.080000
356.553711	146.460000
356.647186	146.460000
356.740631	146.040000
356.834106	145.700000
356.927551	145.880000
357.021027	145.780000
357.114471	145.420000
357.207947	145.800000
357.301422	145.940000
357.394867	145.580000
357.488342	146.080000
357.581818	146.200000
357.675262	146.460000
357.768738	146.480000
357.862213	146.200000
357.955658	146.080000
358.049133	145.940000
358.142609	145.940000
358.236053	145.720000
358.329529	145.920000
358.423035	146.040000
358.516449	145.780000
358.609955	145.960000
358.703400	146.720000
358.796906	146.940000
358.890350	146.380000
358.983826	147.060000
359.077271	146.300000
359.170776	145.940000
359.264221	145.800000
359.357727	146.100000
359.451172	146.160000
359.544647	146.280000
359.638123	146.000000
359.731598	146.120000
359.825073	146.780000
359.918549	146.620000
360.012024	146.920000
360.105499	146.480000
360.198975	146.500000
360.292450	145.820000
360.385925	145.860000
360.479401	145.280000
360.572876	145.940000
360.666351	146.040000
360.759857	146.180000
360.853302	146.200000
360.946808	146.120000
361.040253	146.180000
361.133759	145.740000
361.227203	145.800000
361.320709	145.300000
361.414154	146.000000
361.507660	146.080000
361.601105	146.700000
361.694641	147.220000
361.788086	147.100000
361.881592	147.240000
361.975067	146.900000
362.068542	146.960000
362.162018	146.500000
362.255524	146.700000
362.348999	146.260000
362.442474	146.480000
362.535950	145.800000
362.629456	145.800000
362.722931	145.900000
362.816406	146.480000
362.909882	146.740000
363.003387	146.960000
363.096863	147.200000
363.190338	147.340000
363.283875	146.700000
363.377319	146.460000
363.470825	146.660000
363.564301	146.000000
363.657806	145.920000
363.751282	145.840000
363.844788	146.540000
363.938232	146.220000
364.031769	146.840000
364.125214	147.440000
364.218750	148.020000
364.312225	146.820000
364.405731	147.220000
364.499207	146.780000
364.592712	146.060000
364.686188	145.920000
364.779694	146.200000
364.873169	145.980000
364.966675	145.740000
365.060150	145.680000
365.153656	146.080000
365.247131	146.040000
365.340637	146.280000
365.434143	147.040000
365.527618	147.140000
365.621155	146.160000
365.714600	146.380000
365.808136	146.460000
365.901611	145.440000
365.995117	145.200000
366.088593	145.400000
366.182129	145.340000
366.275604	145.140000
366.369110	145.520000
366.462585	145.680000
366.556122	146.420000
366.649567	146.300000
366.743103	146.540000
366.836609	146.460000
366.930115	146.720000
367.023590	146.360000
367.117096	146.300000
367.210602	145.880000
367.304108	146.500000
367.397614	147.000000
367.491119	147.140000
367.584595	147.140000
367.678101	147.400000
367.771606	146.800000
367.865112	146.220000
367.958649	145.680000
368.052124	145.480000
368.145660	145.500000
368.239136	146.140000
368.332672	145.980000
368.426147	146.240000
368.519684	146.460000
368.613159	146.520000
368.706696	146.300000
368.800171	146.600000
368.893707	146.520000
368.987183	146.520000
369.080719	146.400000
369.174225	146.340000
369.267731	146.520000
369.361237	146.460000
369.454742	146.520000
369.548248	146.880000
369.641754	146.320000
369.735260	146.020000
369.828766	145.400000
369.922272	146.060000
370.015808	145.520000
370.109314	145.600000
370.202820	145.320000
370.296356	146.840000
370.389832	146.200000
370.483368	146.120000
370.576874	146.120000
370.670410	146.800000
370.763885	145.320000
370.857422	145.300000
370.950928	145.060000
371.044464	145.900000
371.137939	145.740000
371.231476	146.760000
371.324982	147.440000
371.418518	147.720000
371.512024	147.460000
371.605560	147.140000
371.699066	147.020000
371.792572	146.440000
371.886108	146.800000
371.979614	146.440000
372.073120	146.940000
372.166656	146.380000
372.260162	146.540000
372.353668	146.380000
372.447205	146.320000
372.540710	146.100000
372.634277	146.300000
372.727753	146.380000
372.821320	146.440000
372.914795	146.580000
373.008362	146.400000
373.101837	146.540000
373.195404	146.080000
373.288879	145.760000
373.382446	146.300000
373.475922	146.400000
373.569489	146.780000
373.662964	147.400000
373.756531	147.580000
373.850037	147.260000
373.943573	147.100000
374.037109	146.340000
374.130615	146.280000
374.224152	146.320000
374.317657	145.980000
374.411194	147.040000
374.504730	146.920000
374.598236	146.740000
374.691772	146.460000
374.785309	147.140000
374.878815	145.780000
374.972351	146.620000
375.065887	146.380000
375.159454	147.300000
375.252930	146.740000
375.346497	147.260000
375.440002	147.500000
375.533569	147.480000
375.627045	146.580000
375.720612	146.760000
375.814117	146.920000
375.907684	146.340000
376.001160	146.160000
376.094727	145.820000
376.188232	146.360000
376.281799	146.440000
376.375336	146.060000
376.468872	146.760000
376.562408	146.900000
376.655914	146.360000
376.749451	146.120000
376.842987	146.620000
376.936523	146.180000
377.030060	146.460000
377.123596	146.560000
377.217133	145.980000
377.310669	146.100000
377.404205	146.540000
377.497772	147.060000
377.591278	146.660000
377.684845	147.780000
377.778351	147.680000
377.871918	147.140000
377.965424	146.120000
378.058990	146.000000
378.152496	145.540000
378.246063	145.620000
378.339569	145.860000
378.433136	146.200000
378.526642	146.420000
378.620209	146.140000
378.713745	145.980000
378.807312	146.460000
378.900848	146.360000
378.994385	146.780000
379.087921	146.580000
379.181458	146.660000
379.274994	145.680000
379.368530	145.680000
379.462097	145.720000
379.555634	146.340000
379.649170	146.040000
379.742706	146.320000
379.836273	146.660000
379.929810	146.140000
380.023376	145.600000
380.116882	145.340000
380.210449	145.300000
380.303986	144.560000
380.397552	144.320000
380.491058	144.700000
380.584656	144.740000
380.678162	144.980000
380.771729	145.680000
380.865265	146.460000
380.958832	146.360000
381.052368	146.920000
381.145935	147.140000
381.239471	147.060000
381.333008	146.880000
381.426575	146.640000
381.520111	146.840000
381.613647	147.000000
381.707214	147.020000
381.800751	146.580000
381.894318	146.940000
381.987854	146.200000
382.081421	145.900000
382.174988	146.000000
382.268524	145.760000
382.362091	145.800000
382.455627	146.580000
382.549194	146.100000
382.642731	145.600000
382.736298	145.620000
382.829834	145.220000
382.923401	145.580000
383.016937	146.220000
383.110504	146.680000
383.204041	147.200000
383.297607	147.680000
383.391174	146.420000
383.484741	146.760000
383.578278	146.360000
383.671844	145.880000
383.765411	144.880000
383.858948	145.660000
383.952515	145.200000
384.046051	145.600000
384.139618	146.160000
384.233185	146.900000
384.326721	146.740000
384.420288	147.360000
384.513855	147.540000
384.607422	147.540000
384.700989	147.800000
384.794525	147.540000
384.888123	147.040000
384.981659	147.240000
385.075226	146.940000
385.168762	146.420000
385.262360	146.500000
385.355896	145.440000
385.449463	145.320000
385.542999	145.480000
385.636597	146.420000
385.730164	146.440000
385.823730	146.860000
385.917267	146.220000
386.010834	146.380000
386.104401	145.960000
386.197968	146.260000
386.291534	146.900000
386.385101	147.240000
386.478668	147.520000
386.572235	147.340000
386.665802	146.800000
386.759338	146.020000
386.852905	145.600000
386.946472	145.040000
387.040070	145.360000
387.133606	145.620000
387.227203	145.920000
387.320740	146.420000
387.414337	146.180000
387.507874	146.000000
387.601471	146.180000
387.695007	146.100000
387.788605	145.860000
387.882141	145.840000
387.975739	145.920000
388.069275	145.720000
388.162872	145.780000
388.256439	145.820000
388.350037	146.080000
388.443604	145.840000
388.537170	145.700000
388.630737	146.540000
388.724304	146.660000
388.817871	146.540000
388.911438	146.520000
389.005005	146.820000
389.098602	146.700000
389.192169	146.400000
389.285736	146.900000
389.379333	146.560000
389.472870	146.300000
389.566467	145.820000
389.660034	146.340000
389.753632	145.720000
389.847168	146.080000
389.940765	146.300000
390.034332	146.580000
390.127930	145.620000
390.221466	146.000000
390.315063	145.640000
390.408630	144.660000
390.502228	143.880000
390.595795	144.700000
390.689362	144.340000
390.782959	144.900000
390.876526	145.920000
390.970093	146.120000
391.063690	146.380000
391.157257	146.700000
391.250824	146.840000
391.344421	146.500000
391.437988	146.800000
391.531555	146.740000
391.625153	146.720000
391.718750	146.780000
391.812317	146.700000
391.905914	146.420000
391.999481	146.340000
392.093079	146.340000
392.186615	146.640000
392.280243	146.860000
392.373779	147.160000
392.467407	147.420000
392.560944	147.700000
392.654572	147.100000
392.748108	146.960000
392.841736	147.040000
392.935303	146.520000
393.028900	146.100000
393.122467	145.980000
393.216064	145.720000
393.309631	145.160000
393.403229	144.860000
393.496796	144.880000
393.590393	144.640000
393.683990	145.100000
393.777557	145.820000
393.871155	146.240000
393.964722	146.460000
394.058350	146.720000
394.151917	146.720000
394.245514	146.400000
394.339081	146.660000
394.432678	146.880000
394.526245	146.820000
394.619873	146.500000
394.713409	146.540000
394.807037	146.240000
394.900604	146.140000
394.994202	146.320000
395.087769	146.680000
395.181396	146.400000
395.274994	147.160000
395.368561	146.640000
395.462158	146.700000
395.555756	146.240000
395.649353	146.700000
395.742920	146.020000
395.836517	146.720000
395.930115	145.960000
396.023712	146.520000
396.117279	147.080000
396.210876	146.500000
396.304474	146.580000
396.398071	147.220000
396.491669	147.300000
396.585266	146.880000
396.678833	147.560000
396.772461	148.040000
396.866028	148.780000
396.959656	149.680000
397.053223	151.100000
397.146851	152.960000
397.240417	155.680000
397.334015	160.040000
397.427582	165.440000
397.521210	172.140000
397.614807	181.560000
397.708405	192.300000
397.802002	206.340000
397.895599	223.300000
397.989197	243.900000
398.082794	267.280000
398.176392	295.680000
398.269989	325.440000
398.363586	358.880000
398.457184	396.360000
398.550781	436.160000
398.644379	476.060000
398.737976	518.140000
398.831573	559.180000
398.925201	596.380000
399.018768	631.840000
399.112396	660.980000
399.205963	683.800000
399.299591	698.020000
399.393158	705.020000
399.486786	702.980000
399.580353	696.240000
399.673981	682.900000
399.767578	669.040000
399.861206	652.800000
399.954773	635.980000
400.048401	614.880000
400.141998	591.540000
400.235596	563.560000
400.329193	530.840000
400.422791	495.060000
400.516418	459.680000
400.610016	426.420000
400.703613	395.280000
400.797211	366.740000
400.890808	341.060000
400.984436	318.240000
401.078033	296.100000
401.171631	275.500000
401.265259	256.640000
401.358826	239.560000
401.452484	223.320000
401.546051	209.640000
401.639679	197.020000
401.733246	187.740000
401.826904	178.500000
401.920471	171.280000
402.014099	165.380000
402.107697	160.740000
402.201324	156.580000
402.294891	154.140000
402.388550	152.760000
402.482147	151.260000
402.575745	150.180000
402.669373	149.040000
402.762970	148.340000
402.856567	147.400000
402.950195	147.180000
403.043793	146.800000
403.137390	147.600000
403.231018	146.720000
403.324615	146.980000
403.418243	146.280000
403.511841	146.840000
403.605469	146.460000
403.699066	146.940000
403.792694	147.140000
403.886292	147.460000
403.979919	147.020000
404.073517	146.740000
404.167145	146.920000
404.260712	146.780000
404.354370	146.420000
404.447937	146.660000
404.541595	146.780000
404.635162	146.860000
404.728821	147.140000
404.822418	146.960000
404.916046	146.640000
405.009644	146.700000
405.103271	146.960000
405.196899	146.420000
405.290497	146.800000
405.384125	147.240000
405.477722	146.740000
405.571350	146.300000
405.664948	146.480000
405.758575	146.240000
405.852203	145.700000
405.945801	146.100000
406.039429	146.020000
406.133057	145.660000
406.226654	145.760000
406.320312	145.840000
406.413879	145.960000
406.507538	146.380000
406.601135	146.200000
406.694763	146.580000
406.788361	146.100000
406.882019	145.660000
406.975586	146.080000
407.069244	146.780000
407.162872	146.500000
407.256470	146.880000
407.350098	147.020000
407.443726	146.300000
407.537323	145.740000
407.630951	146.040000
407.724579	145.700000
407.818207	146.080000
407.911804	146.060000
408.005432	146.000000
408.099060	146.040000
408.192688	146.540000
408.286285	145.880000
408.379913	145.500000
408.473572	145.800000
408.567169	145.020000
408.660828	144.960000
408.754395	145.220000
408.848053	145.320000
408.941650	145.560000
409.035309	145.420000
409.128906	145.340000
409.222565	145.360000
409.316132	145.780000
409.409790	145.120000
409.503387	145.520000
409.597046	145.600000
409.690674	145.860000
409.784302	145.860000
409.877930	145.820000
409.971558	145.980000
410.065186	145.820000
410.158783	145.620000
410.252411	145.420000
410.346039	145.900000
410.439667	146.040000
410.533295	146.500000
410.626923	146.920000
410.720551	146.880000
410.814209	147.360000
410.907806	147.240000
411.001465	146.640000
411.095062	146.400000
411.188721	146.640000
411.282318	146.060000
411.375977	145.920000
411.469574	146.080000
411.563232	145.840000
411.656830	145.540000
411.750488	145.500000
411.844086	145.240000
411.937744	145.500000
412.031372	145.640000
412.125000	145.780000
412.218628	145.920000
412.312256	146.680000
412.405884	146.940000
412.499512	146.760000
412.593170	147.260000
412.686798	147.520000
412.780426	147.060000
412.874054	147.140000
412.967682	147.620000
413.061310	147.620000
413.154968	147.160000
413.248566	147.240000
413.342224	146.940000
413.435852	146.720000
413.529510	146.480000
413.623108	146.220000
413.716766	146.020000
413.810364	146.200000
413.904022	145.920000
413.997650	145.280000
414.091309	146.080000
414.184906	146.160000
414.278564	145.780000
414.372192	146.100000
414.465851	146.760000
414.559479	146.440000
414.653107	147.060000
414.746735	147.120000
414.840393	147.100000
414.934021	147.200000
415.027649	146.940000
415.121277	146.660000
415.214935	147.060000
415.308563	146.860000
415.402191	146.180000
415.495850	146.260000
415.589478	145.940000
415.683136	145.680000
415.776733	146.020000
415.870422	146.980000
415.964020	146.620000
416.057678	146.760000
416.151306	146.300000
416.244965	146.060000
416.338562	145.660000
416.432251	146.420000
416.525848	147.000000
416.619507	147.680000
416.713165	147.940000
416.806793	147.720000
416.900421	147.460000
416.994080	146.760000
417.087708	146.460000
417.181366	146.100000
417.274994	146.180000
417.368622	146.280000
417.462280	146.680000
417.555908	146.640000
417.649567	146.480000
417.743195	146.560000
417.836853	146.520000
417.930481	146.820000
418.024170	147.020000
418.117767	147.820000
418.211426	147.860000
418.305054	147.940000
418.398712	147.220000
418.492340	146.980000
418.585999	147.040000
418.679626	147.300000
418.773285	147.360000
418.866913	147.820000
418.960571	148.440000
419.054230	148.040000
419.147858	147.880000
419.241516	147.940000
419.335144	147.400000
419.428802	147.000000
419.522461	146.920000
419.616089	146.260000
419.709747	146.220000
419.803375	146.420000
419.897034	146.200000
419.990662	145.980000
420.084320	146.800000
420.177979	146.740000
420.271606	146.660000
420.365295	147.200000
420.458893	147.680000
420.552582	147.680000
420.646210	148.040000
420.739868	148.240000
420.833496	147.980000
420.927155	147.380000
421.020782	146.860000
421.114471	146.060000
421.208069	145.940000
421.301758	146.060000
421.395386	146.260000
421.489044	146.360000
421.582703	146.580000
421.676361	147.040000
421.769989	146.520000
421.863647	146.900000
421.957306	146.860000
422.050934	147.080000
422.144592	147.040000
422.238251	147.180000
422.331909	146.520000
422.425537	146.460000
422.519196	146.460000
422.612854	145.880000
422.706543	145.480000
422.800140	146.060000
422.893829	145.620000
422.987457	145.160000
423.081146	145.300000
423.174744	146.220000
423.268433	145.560000
423.362061	145.740000
423.455750	146.080000
423.549347	146.260000
423.643036	145.380000
423.736664	146.160000
423.830353	146.340000
423.924011	146.820000
424.017639	146.460000
424.111298	146.780000
424.204956	146.560000
424.298615	146.540000
424.392273	146.040000
424.485931	146.220000
424.579559	146.320000
424.673218	145.800000
424.766876	146.160000
424.860535	145.540000
424.954193	145.360000
425.047882	145.720000
425.141510	146.180000
425.235199	145.940000
425.328796	146.160000
425.422485	146.060000
425.516113	145.600000
425.609802	145.380000
425.703430	145.440000
425.797119	145.520000
425.890747	145.840000
425.984436	145.860000
426.078064	146.040000
426.171753	146.080000
426.265411	146.060000
426.359070	146.260000
426.452728	146.040000
426.546356	145.740000
426.640015	145.440000
426.733673	145.520000
426.827332	144.940000
426.920990	145.760000
427.014648	145.700000
427.108307	146.200000
427.201965	146.640000
427.295624	147.040000
427.389282	146.160000
427.482941	146.460000
427.576630	146.220000
427.670258	145.380000
427.763947	145.160000
427.857574	145.460000
427.951263	145.340000
428.044922	145.380000
428.138611	145.860000
428.232239	146.360000
428.325928	146.640000
428.419556	146.680000
428.513245	146.260000
428.606903	146.460000
428.700562	145.760000
428.794220	145.200000
428.887878	145.200000
428.981537	145.460000
429.075195	145.280000
429.168854	145.860000
429.262512	146.000000
429.356201	146.140000
429.449860	146.040000
429.543518	146.200000
429.637177	146.120000
429.730835	146.020000
429.824493	146.000000
429.918182	146.460000
430.011810	145.940000
430.105530	145.360000
430.199158	145.680000
430.292847	145.320000
430.386475	144.780000
430.480164	144.860000
430.573792	144.720000
430.667511	144.500000
430.761139	144.620000
430.854828	145.200000
430.948456	145.420000
431.042145	146.360000
431.135834	146.260000
431.229492	146.440000
431.323151	146.320000
431.416809	146.260000
431.510468	145.620000
431.604156	145.600000
431.697815	145.720000
431.791473	145.440000
431.885132	145.080000
431.978821	145.720000
432.072479	146.140000
432.166138	146.320000
432.259827	145.980000
432.353485	146.660000
432.447174	146.620000
432.540802	146.300000
432.634491	146.160000
432.728149	146.560000
432.821838	146.740000
432.915466	146.360000
433.009186	146.760000
433.102814	146.220000
433.196503	146.180000
433.290131	145.800000
433.383850	146.180000
433.477509	146.120000
433.571167	147.180000
433.664856	147.560000
433.758514	147.880000
433.852173	147.480000
433.945862	147.240000
434.039520	147.000000
434.133179	146.440000
434.226868	145.860000
434.320526	145.360000
434.414185	146.040000
434.507874	145.400000
434.601562	145.860000
434.695221	146.120000
434.788910	146.720000
434.882538	146.320000
434.976257	146.040000
435.069885	145.840000
435.163574	145.900000
435.257233	145.460000
435.350922	145.480000
435.444580	145.440000
435.538269	145.300000
435.631897	145.620000
435.725616	146.460000
435.819275	146.800000
435.912964	147.740000
436.006622	148.180000
436.100311	147.980000
436.193970	147.040000
436.287628	146.420000
436.381317	145.900000
436.474976	145.260000
436.568665	144.860000
436.662323	145.260000
436.756012	145.380000
436.849670	145.040000
436.943390	145.240000
437.037018	145.440000
437.130737	145.400000
437.224365	145.300000
437.318085	145.560000
437.411713	145.840000
437.505432	146.240000
437.599060	146.700000
437.692780	147.440000
437.786407	147.480000
437.880127	147.180000
437.973755	146.700000
438.067474	146.240000
438.161133	145.740000
438.254822	146.180000
438.348480	145.960000
438.442169	146.740000
438.535828	147.300000
438.629517	146.900000
438.723175	146.340000
438.816864	147.020000
438.910553	146.260000
439.004211	145.840000
439.097900	145.760000
439.191559	145.940000
439.285248	145.080000
439.378906	145.400000
439.472626	145.200000
439.566284	145.220000
439.659973	145.480000
439.753632	145.960000
439.847321	146.320000
439.940979	146.640000
440.034698	146.940000
440.128326	146.580000
440.222046	146.340000
440.315674	145.500000
440.409393	145.460000
440.503082	145.020000
440.596741	145.000000
440.690430	145.220000
440.784088	145.080000
440.877777	144.660000
440.971466	145.140000
441.065125	145.060000
441.158813	144.800000
441.252502	145.240000
441.346161	145.500000
441.439850	145.700000
441.533539	145.480000
441.627197	145.740000
441.720886	145.760000
441.814606	146.240000
441.908234	146.060000
442.001953	146.180000
442.095612	146.300000
442.189301	146.400000
442.282959	146.460000
442.376678	145.880000
442.470306	146.760000
442.564026	146.540000
442.657684	146.360000
442.751404	145.960000
442.845032	147.080000
442.938751	146.380000
443.032440	146.600000
443.126099	146.300000
443.219788	146.700000
443.313477	146.340000
443.407166	146.680000
443.500824	146.400000
443.594513	146.780000
443.688202	146.420000
443.781891	145.640000
443.875549	145.280000
443.969238	145.240000
444.062927	145.360000
444.156647	145.340000
444.250275	146.340000
444.343994	146.300000
444.437653	146.820000
444.531372	146.600000
444.625031	146.400000
444.718719	145.860000
444.812378	146.040000
444.906097	145.620000
444.999756	145.320000
445.093445	145.360000
445.187103	145.180000
445.280823	145.820000
445.374512	145.500000
445.468201	145.720000
445.561859	145.620000
445.655548	145.980000
445.749237	145.000000
445.842926	145.300000
445.936615	145.720000
446.030304	145.380000
446.123962	145.620000
446.217651	145.700000
446.311340	145.900000
446.405029	145.440000
446.498749	145.760000
446.592407	145.320000
446.686096	145.920000
446.779755	145.960000
446.873474	146.060000
446.967133	146.300000
447.060852	146.260000
447.154510	145.780000
447.248230	145.780000
447.341858	145.660000
447.435577	145.260000
447.529236	144.980000
447.622955	144.900000
447.716644	144.880000
447.810333	145.040000
447.904022	145.480000
447.997711	145.480000
448.091400	145.920000
448.185059	145.900000
448.278748	146.260000
448.372437	146.040000
448.466125	146.620000
448.559814	146.360000
448.653503	146.460000
448.747192	146.260000
448.840912	146.460000
448.934570	146.300000
449.028290	146.980000
449.121948	146.660000
449.215637	146.200000
449.309296	145.980000
449.403015	146.220000
449.496674	145.620000
449.590393	145.600000
449.684052	145.700000
449.777771	146.640000
449.871429	145.880000
449.965149	145.820000
450.058838	145.940000
450.152527	146.560000
450.246216	145.780000
450.339905	145.980000
450.433594	145.800000
450.527283	146.440000
450.620972	145.980000
450.714661	146.120000
450.808350	146.240000
450.902039	146.640000
450.995728	146.320000
451.089417	145.980000
451.183105	146.120000
451.276794	146.720000
451.370514	146.060000
451.464172	145.160000
451.557892	145.340000
451.651550	145.360000
451.745270	144.480000
451.838928	144.360000
451.932648	145.020000
452.026306	145.480000
452.120026	145.180000
452.213684	145.680000
452.307404	146.020000
452.401062	146.240000
452.494781	146.440000
452.588470	146.540000
452.682159	146.060000
452.775848	146.440000
452.869537	145.840000
452.963226	145.440000
453.056915	145.140000
453.150604	145.300000
453.244293	145.520000
453.337982	146.340000
453.431671	146.600000
453.525360	147.520000
453.619049	147.920000
453.712769	147.440000
453.806427	146.940000
453.900146	146.540000
453.993805	145.920000
454.087555	146.320000
454.181213	146.600000
454.274933	146.260000
454.368591	146.260000
454.462311	145.940000
454.555969	145.460000
454.649689	145.880000
454.743347	145.820000
454.837067	146.280000
454.930756	147.060000
455.024445	147.180000
455.118134	146.720000
455.211853	147.220000
455.305542	146.780000
455.399231	146.460000
455.492920	146.220000
455.586609	146.320000
455.680298	146.280000
455.773987	146.160000
455.867676	145.860000
455.961365	145.940000
456.055084	145.720000
456.148773	145.460000
456.242493	145.600000
456.336151	145.900000
456.429871	146.160000
456.523529	146.540000
456.617249	146.500000
456.710907	146.840000
456.804626	146.700000
456.898315	146.300000
456.992035	145.960000
457.085693	146.080000
457.179413	145.500000
457.273102	146.420000
457.366791	146.320000
457.460480	146.640000
457.554199	147.280000
457.647888	147.800000
457.741577	146.980000
457.835266	147.240000
457.928955	147.080000
458.022644	147.040000
458.116364	146.940000
458.210052	146.800000
458.303741	146.860000
458.397461	146.320000
458.491119	145.480000
458.584839	145.480000
458.678528	145.400000
458.772247	145.040000
458.865906	145.420000
458.959625	146.360000
459.053284	146.500000
459.147003	146.460000
459.240692	147.200000
459.334412	147.500000
459.428070	147.020000
459.521790	146.620000
459.615479	146.580000
459.709198	146.820000
459.802887	146.300000
459.896576	146.040000
459.990265	146.220000
460.083954	146.260000
460.177673	145.520000
460.271362	145.840000
460.365051	145.820000
460.458740	145.620000
460.552429	145.580000
460.646149	145.720000
460.739838	145.140000
460.833527	145.500000
460.927246	145.580000
461.020905	145.260000
461.114655	145.220000
461.208313	145.740000
461.302032	145.300000
461.395691	145.440000
461.489441	146.000000
461.583099	145.740000
461.676819	145.640000
461.770477	146.040000
461.864197	145.660000
461.957916	145.340000
462.051605	145.080000
462.145294	146.160000
462.238983	145.880000
462.332703	146.940000
462.426392	147.500000
462.520081	147.640000
462.613770	146.600000
462.707489	146.780000
462.801178	145.880000
462.894867	145.600000
462.988556	145.820000
463.082275	145.800000
463.175964	145.600000
463.269684	146.080000
463.363342	146.060000
463.457092	145.520000
463.550751	145.820000
463.644470	145.960000
463.738129	145.900000
463.831879	145.960000
463.925537	146.760000
464.019257	147.040000
464.112946	147.040000
464.206665	146.380000
464.300323	146.120000
464.394043	145.820000
464.487762	145.400000
464.581451	145.560000
464.675140	145.880000
464.768829	146.160000
464.862549	146.240000
464.956238	146.060000
465.049927	146.120000
465.143646	146.140000
465.237335	145.880000
465.331024	146.460000
465.424713	146.920000
465.518433	146.800000
465.612152	146.540000
465.705811	146.820000
465.799561	146.440000
465.893219	145.900000
465.986938	145.920000
466.080597	146.100000
466.174347	146.240000
466.268005	146.180000
466.361725	146.500000
466.455414	146.420000
466.549133	146.280000
466.642792	146.580000
466.736542	146.080000
466.830231	146.080000
466.923920	146.200000
467.017609	146.420000
467.111328	145.640000
467.205017	145.920000
467.298706	145.440000
467.392426	145.320000
467.486115	145.420000
467.579803	145.020000
467.673523	145.440000
467.767212	146.000000
467.860901	146.040000
467.954651	146.180000
468.048309	147.020000
468.142029	146.660000
468.235718	146.540000
468.329437	146.440000
468.423096	146.220000
468.516846	146.040000
468.610504	146.040000
468.704224	145.700000
468.797913	145.480000
468.891632	145.720000
468.985291	145.600000
469.079010	145.440000
469.172729	145.200000
469.266418	145.800000
469.360107	145.560000
469.453827	145.600000
469.547516	145.740000
469.641205	146.420000
469.734924	146.440000
469.828613	146.920000
469.922302	147.160000
470.016022	147.240000
470.109711	147.100000
470.203430	146.420000
470.297150	145.500000
470.390808	145.360000
470.484558	145.120000
470.578217	145.600000
470.671936	146.120000
470.765625	146.980000
470.859344	146.780000
470.953003	147.400000
471.046753	146.660000
471.140411	145.980000
471.234131	145.860000
471.327820	146.120000
471.421539	145.880000
471.515228	145.680000
471.608948	146.100000
471.702637	145.540000
471.796326	145.320000
471.890045	145.580000
471.983734	145.960000
472.077423	145.760000
472.171143	146.080000
472.264832	145.940000
472.358521	145.220000
472.452240	144.800000
472.545929	145.600000
472.639648	145.620000
472.733337	146.200000
472.827057	146.640000
472.920746	147.000000
473.014465	146.620000
473.108124	146.500000
473.201874	146.440000
473.295532	146.400000
473.389252	146.980000
473.482941	147.060000
473.576660	146.900000
473.670319	146.660000
473.764069	146.940000
473.857727	146.580000
473.951477	146.800000
474.045166	147.300000
474.138855	147.200000
474.232574	147.160000
474.326263	147.300000
474.419952	147.120000
474.513672	146.760000
474.607361	146.780000
474.701050	146.520000
474.794769	146.500000
474.888458	146.900000
474.982178	146.960000
475.075867	147.060000
475.169586	147.240000
475.263275	146.840000
475.356995	146.560000
475.450653	146.240000
475.544403	146.060000
475.638062	146.600000
475.731812	146.240000
475.825470	146.060000
475.919189	146.620000
476.012878	146.720000
476.106598	145.660000
476.200256	146.120000
476.294006	146.180000
476.387695	146.060000
476.481384	145.860000
476.575104	146.140000
476.668793	145.980000
476.762512	145.660000
476.856201	146.240000
476.949890	146.300000
477.043610	146.020000
477.137299	146.200000
477.230988	146.680000
477.324707	145.840000
477.418396	146.320000
477.512146	146.620000
477.605804	146.580000
477.699524	146.480000
477.793213	146.480000
477.886932	146.100000
477.980591	146.120000
478.074341	145.700000
478.167999	144.940000
478.261749	145.300000
478.355408	145.120000
478.449127	145.380000
478.542816	146.740000
478.636536	147.720000
478.730225	147.900000
478.823944	148.080000
478.917633	147.920000
479.011322	147.580000
479.105042	147.400000
479.198730	147.000000
479.292450	147.060000
479.386139	147.160000
479.479828	147.100000
479.573547	147.240000
479.667267	147.440000
479.760925	147.440000
479.854675	147.480000
479.948334	147.340000
480.042084	146.660000
480.135742	146.840000
480.229462	146.340000
480.323151	146.180000
480.416870	145.580000
480.510529	146.200000
480.604279	145.680000
480.697937	146.560000
480.791656	146.160000
480.885345	146.120000
480.979065	145.920000
481.072754	146.560000
481.166473	146.640000
481.260132	147.160000
481.353882	147.260000
481.447540	146.980000
481.541260	147.000000
481.635010	146.260000
481.728668	145.740000
481.822388	145.840000
481.916077	146.160000
482.009796	145.800000
482.103485	146.060000
482.197205	146.220000
482.290863	146.180000
482.384613	145.740000
482.478271	145.420000
482.571991	145.420000
482.665680	145.420000
482.759399	146.100000
482.853058	146.900000
482.946808	147.040000
483.040466	147.220000
483.134216	147.420000
483.227875	146.740000
483.321594	147.080000
483.415283	147.120000
483.509003	146.720000
483.602661	146.440000
483.696411	146.740000
483.790070	146.040000
483.883789	146.160000
483.977478	146.360000
484.071198	146.440000
484.164917	145.880000
484.258606	145.620000
484.352325	145.960000
484.445984	145.940000
484.539734	145.880000
484.633392	145.760000
484.727142	146.060000
484.820801	145.820000
484.914520	145.880000
485.008209	146.400000
485.101929	147.260000
485.195587	146.940000
485.289337	146.840000
485.382996	146.840000
485.476715	146.500000
485.570404	146.420000
485.664124	146.440000
485.757782	146.860000
485.851532	146.660000
485.945190	146.680000
486.038910	146.640000
486.132599	147.340000
486.226318	146.560000
486.319977	146.600000
486.413727	147.060000
486.507446	146.600000
486.601105	145.520000
486.694855	145.620000
486.788513	145.480000
486.882233	144.960000
486.975922	144.920000
487.069641	145.080000
487.163300	144.940000
487.257050	146.100000
487.350708	145.900000
487.444427	146.100000
487.538116	146.300000
487.631836	146.300000
487.725494	145.620000
487.819214	145.760000
487.912903	145.560000
488.006622	146.360000
488.100281	146.920000
488.194031	146.700000
488.287689	147.260000
488.381409	148.280000
488.475098	147.560000
488.568817	147.500000
488.662476	147.380000
488.756226	146.500000
488.849945	145.360000
488.943604	145.480000
489.037354	145.540000
489.131012	145.560000
489.224731	145.580000
489.318390	145.920000
489.412140	145.860000
489.505798	145.600000
489.599518	145.480000
489.693207	145.880000
489.786926	145.460000
489.880585	145.140000
489.974335	145.540000
490.067993	146.800000
490.161713	146.920000
490.255371	147.620000
490.349121	147.600000
490.442780	146.760000
490.536499	145.540000
490.630188	145.760000
490.723907	145.180000
490.817566	145.720000
490.911285	146.260000
491.004974	146.300000
491.098694	145.640000
491.192413	146.640000
491.286102	146.280000
491.379822	146.220000
491.473480	146.460000
491.567200	146.620000
491.660889	145.580000
491.754608	145.540000
491.848267	145.480000
491.941986	145.320000
492.035675	145.500000
492.129395	145.900000
492.223053	145.780000
492.316772	145.960000
492.410461	146.020000
492.504181	145.880000
492.597839	145.760000
492.691559	146.360000
492.785248	146.520000
492.878967	146.580000
492.972626	146.540000
493.066345	146.560000
493.160034	145.740000
493.253754	145.540000
493.347412	145.220000
493.441132	145.220000
493.534882	145.840000
493.628540	146.440000
493.722260	146.500000
493.815918	146.900000
493.909668	147.540000
494.003326	147.400000
494.097046	147.060000
494.190704	146.800000
494.284454	146.860000
494.378113	146.720000
494.471832	146.180000
494.565491	146.240000
494.659210	146.600000
494.752899	146.660000
494.846619	146.240000
494.940277	146.640000
495.033997	146.780000
495.127686	146.300000
495.221405	145.860000
495.315063	145.700000
495.408783	145.680000
495.502441	145.660000
495.596191	145.940000
495.689850	145.820000
495.783569	146.160000
495.877228	146.320000
495.970947	146.080000
496.064697	145.980000
496.158356	147.260000
496.252075	147.240000
496.345734	147.060000
496.439453	148.020000
496.533142	148.040000
496.626862	147.620000
496.720520	147.180000
496.814240	147.060000
496.907898	146.640000
497.001617	147.100000
497.095306	146.280000
497.189026	146.740000
497.282684	146.900000
497.376404	147.080000
497.470062	146.440000
497.563782	146.720000
497.657471	146.740000
497.751190	146.580000
497.844849	146.500000
497.938568	147.040000
498.032227	147.380000
498.125946	147.360000
498.219635	146.880000
498.313354	146.740000
498.407074	146.340000
498.500732	146.320000
498.594452	146.460000
498.688110	146.660000
498.781830	146.120000
498.875519	146.160000
498.969238	145.620000
499.062897	145.360000
499.156616	145.980000
499.250275	146.460000
499.343994	146.120000
499.437653	146.180000
499.531372	146.400000
499.625061	146.740000
499.718781	146.940000
499.812439	147.700000
499.906158	148.020000
499.999817	147.880000
500.093536	147.100000
500.187195	146.780000
500.280914	146.200000
500.374573	146.260000
500.468323	145.940000
500.561981	146.040000
500.655701	145.640000
500.749420	145.980000
500.843079	146.180000
500.936798	146.460000
501.030457	146.920000
501.124176	147.360000
501.217834	146.980000
501.311554	146.620000
501.405212	146.460000
501.498962	145.420000
501.592621	145.480000
501.686340	146.020000
501.779999	146.120000
501.873718	146.280000
501.967377	146.960000
502.061096	147.060000
502.154755	146.640000
502.248474	146.520000
502.342133	146.600000
502.435852	146.740000
502.529510	147.080000
502.623230	147.720000
502.716888	147.140000
502.810608	147.300000
502.904266	147.560000
502.997986	147.120000
503.091705	146.300000
503.185364	146.660000
503.279083	146.660000
503.372772	146.120000
503.466492	145.760000
503.560150	145.940000
503.653870	146.260000
503.747528	145.920000
503.841248	146.080000
503.934906	146.420000
504.028625	146.200000
504.122284	146.360000
504.216003	146.980000
504.309662	146.380000
504.403381	146.600000
504.497040	146.500000
504.590759	146.080000
504.684418	146.080000
504.778137	146.680000
504.871796	146.800000
504.965515	146.840000
505.059174	147.020000
505.152893	146.400000
505.246521	145.920000
505.340240	145.360000
505.433899	145.860000
505.527618	146.160000
505.621338	146.440000
505.714996	146.580000
505.808716	146.740000
505.902374	146.940000
505.996094	146.680000
506.089752	146.540000
506.183472	146.700000
506.277130	146.820000
506.370850	146.540000
506.464508	146.100000
506.558228	146.160000
506.651886	146.100000
506.745605	145.840000
506.839264	145.900000
506.932983	146.480000
507.026611	146.320000
507.120331	146.760000
507.213989	146.620000
507.307709	146.720000
507.401367	146.800000
507.495087	147.540000
507.588745	147.020000
507.682465	147.860000
507.776123	147.480000
507.869843	147.120000
507.963531	146.920000
508.057190	147.640000
508.150909	146.920000
508.244568	147.160000
508.338287	147.120000
508.431946	146.620000
508.525665	145.980000
508.619324	146.000000
508.713013	146.080000
508.806671	146.360000
508.900391	147.300000
508.994049	147.480000
509.087769	147.240000
509.181427	147.380000
509.275146	147.020000
509.368774	145.920000
509.462494	145.740000
509.556152	146.020000
509.649872	146.300000
509.743530	146.540000
509.837250	146.760000
509.930878	146.800000
510.024597	146.660000
510.118256	146.280000
510.211975	146.160000
510.305695	146.320000
510.399353	146.820000
510.493042	147.340000
510.586700	147.380000
510.680420	147.800000
510.774078	147.500000
510.867798	147.500000
510.961426	146.960000
511.055145	147.060000
511.148804	146.780000
511.242523	147.360000
511.336151	147.060000
511.429871	147.420000
511.523529	147.080000
511.617249	146.800000
511.710876	146.400000
511.804596	146.160000
511.898254	145.980000
511.991974	146.260000
512.085632	146.040000
512.179321	146.020000
512.272949	146.360000
512.366699	146.740000
512.460327	146.440000
512.554077	147.480000
512.647766	147.400000
512.741394	147.240000
512.835144	147.500000
512.928772	147.260000
513.022461	146.980000
513.116150	146.800000
513.209839	147.380000
513.303467	146.660000
513.397217	146.780000
513.490845	146.480000
513.584595	146.520000
513.678223	145.720000
513.771912	145.240000
513.865601	145.360000
513.959290	145.120000
514.052917	145.080000
514.146667	145.780000
514.240295	146.400000
514.333984	146.620000
514.427673	146.440000
514.521362	146.940000
514.614990	146.280000
514.708740	146.200000
514.802368	146.420000
514.896057	146.600000
514.989746	147.040000
515.083435	147.040000
515.177124	147.200000
515.270752	146.680000
515.364502	146.940000
515.458130	146.560000
515.551819	146.600000
515.645508	146.600000
515.739197	146.540000
515.832825	146.540000
515.926575	146.220000
516.020203	146.320000
516.113892	146.880000
516.207520	146.920000
516.301270	147.000000
516.394897	147.180000
516.488586	147.800000
516.582275	147.260000
516.675964	146.920000
516.769592	146.940000
516.863281	147.300000
516.956970	147.160000
517.050659	147.160000
517.144287	147.680000
517.238037	147.480000
517.331665	146.740000
517.425354	146.200000
517.519043	146.040000
517.612732	146.320000
517.706421	146.180000
517.800049	146.240000
517.893738	146.060000
517.987427	146.280000
518.081116	145.800000
518.174744	145.620000
518.268433	145.900000
518.362122	146.640000
518.455811	146.480000
518.549438	146.980000
518.643127	147.900000
518.736816	147.740000
518.830505	147.120000
518.924133	147.060000
519.017822	147.140000
519.111511	146.360000
519.205200	146.700000
519.298828	146.800000
519.392517	146.500000
519.486206	146.320000
519.579895	146.820000
519.673523	146.600000
519.767212	146.480000
519.860901	147.180000
519.954590	146.920000
520.048279	146.520000
520.141907	146.380000
520.235596	147.300000
520.329224	147.020000
520.422974	147.060000
520.516602	147.000000
520.610291	146.660000
520.703918	146.180000
520.797607	146.100000
520.891296	146.180000
520.984985	146.220000
521.078613	146.720000
521.172302	146.100000
521.265930	146.800000
521.359680	147.180000
521.453308	147.280000
521.546997	147.120000
521.640625	147.220000
521.734314	146.560000
521.827942	146.200000
521.921692	146.380000
522.015320	146.500000
522.109009	146.320000
522.202698	146.080000
522.296326	146.200000
522.390015	146.400000
522.483704	146.420000
522.577393	146.700000
522.671021	146.900000
522.764709	146.480000
522.858337	146.380000
522.952026	146.380000
523.045654	147.060000
523.139404	147.580000
523.233032	148.000000
523.326721	147.780000
523.420349	147.840000
523.514038	147.100000
523.607666	147.140000
523.701355	146.440000
523.795044	146.460000
523.888733	146.420000
523.982361	146.660000
524.076050	145.980000
524.169678	146.540000
524.263367	146.300000
524.356995	146.200000
524.450684	146.200000
524.544373	146.240000
524.638062	146.140000
524.731750	146.520000
524.825378	146.340000
524.919067	145.960000
525.012695	146.240000
525.106384	146.080000
525.200012	146.520000
525.293701	146.420000
525.387329	146.700000
525.481018	146.540000
525.574646	146.800000
525.668396	146.260000
525.762024	146.460000
525.855713	146.820000
525.949341	146.280000
526.043030	146.580000
526.136658	146.340000
526.230347	146.160000
526.323975	145.520000
526.417664	145.720000
526.511292	145.480000
526.604980	145.680000
526.698608	145.700000
526.792297	146.000000
526.885925	146.480000
526.979614	146.560000
527.073303	146.620000
527.166931	146.680000
527.260620	146.880000
527.354309	147.100000
527.447998	147.080000
527.541626	146.880000
527.635315	147.100000
527.728943	147.540000
527.822632	147.320000
527.916260	147.320000
528.009949	147.500000
528.103577	147.180000
528.197266	146.400000
528.290894	146.620000
528.384583	146.520000
528.478210	146.520000
528.571899	147.160000
528.665527	147.500000
528.759216	147.360000
528.852844	147.720000
528.946533	147.660000
529.040161	147.320000
529.133850	147.060000
529.227478	147.220000
529.321167	147.140000
529.414856	147.400000
529.508484	147.840000
529.602173	147.440000
529.695801	147.160000
529.789490	146.880000
529.883057	146.620000
529.976746	146.360000
530.070374	146.820000
530.164062	146.520000
530.257690	146.760000
530.351379	147.000000
530.445007	146.660000
530.538696	146.360000
530.632324	146.860000
530.726013	146.660000
530.819641	146.600000
530.913330	147.040000
531.006958	147.040000
531.100647	147.040000
531.194275	146.900000
531.287964	146.660000
531.381592	146.120000
531.475220	146.440000
531.568848	146.200000
531.662537	146.260000
531.756226	146.560000
531.849854	146.560000
531.943542	146.540000
532.037170	146.160000
532.130859	146.360000
532.224487	145.980000
532.318176	145.860000
532.411804	146.380000
532.505432	146.800000
532.599060	146.500000
532.692749	146.680000
532.786377	147.460000
532.880066	146.620000
532.973694	146.000000
533.067383	146.300000
533.161011	146.140000
533.254639	145.780000
533.348267	145.780000
533.441956	146.220000
533.535583	145.900000
533.629272	146.180000
533.722900	145.660000
533.816589	145.880000
533.910156	146.440000
534.003845	146.160000
534.097534	146.240000
534.191162	147.260000
534.284851	147.460000
534.378479	146.940000
534.472107	147.140000
534.565735	146.820000
534.659424	146.440000
534.753052	146.520000
534.846741	146.240000
534.940369	146.940000
535.033997	147.080000
535.127625	147.040000
535.221313	147.260000
535.314941	147.580000
535.408630	146.680000
535.502197	146.960000
535.595886	146.820000
535.689514	146.260000
535.783203	146.520000
535.876831	147.140000
535.970459	147.200000
536.064087	146.820000
536.157776	146.960000
536.251404	146.720000
536.345093	146.660000
536.438721	146.180000
536.532349	146.660000
536.626038	146.560000
536.719666	147.120000
536.813293	146.980000
536.906921	147.160000
537.000610	147.260000
537.094238	147.300000
537.187866	146.820000
537.281494	146.440000
537.375183	146.580000
537.468811	146.480000
537.562439	146.700000
537.656067	146.660000
537.749756	146.880000
537.843384	147.160000
537.937012	147.200000
538.030640	146.860000
538.124329	147.020000
538.217896	147.540000
538.311584	147.480000
538.405212	147.320000
538.498901	147.680000
538.592468	148.140000
538.686157	147.320000
538.779785	146.480000
538.873413	146.340000
538.967102	146.000000
539.060730	145.100000
539.154358	145.760000
539.247986	146.240000
539.341675	146.460000
539.435242	146.420000
539.528931	146.760000
539.622559	146.300000
539.716187	146.620000
539.809814	146.560000
539.903503	146.600000
539.997070	146.380000
540.090759	146.520000
540.184387	146.120000
540.278015	146.480000
540.371643	146.640000
540.465332	146.740000
540.558899	146.740000
540.652588	146.900000
540.746216	146.280000
540.839844	146.460000
540.933472	146.640000
541.027100	146.420000
541.120728	146.260000
541.214417	146.760000
541.308044	146.700000
541.401672	146.500000
541.495300	146.520000
541.588928	146.560000
541.682617	146.420000
541.776184	146.300000
541.869873	146.580000
541.963440	147.020000
542.057129	146.980000
542.150757	146.660000
542.244385	146.580000
542.338013	146.320000
542.431641	146.120000
542.525269	146.100000
542.618958	146.720000
542.712524	147.060000
542.806213	146.820000
542.899780	146.960000
542.993469	147.000000
543.087036	146.580000
543.180725	146.060000
543.274292	146.620000
543.367981	146.580000
543.461548	146.900000
543.555237	146.940000
543.648926	147.680000
543.742493	148.020000
543.836182	148.200000
543.929749	148.020000
544.023437	147.880000
544.117004	147.400000
544.210693	146.960000
544.304260	146.760000
544.397949	146.720000
544.491516	147.340000
544.585205	147.340000
544.678772	147.060000
544.772461	147.660000
544.866028	147.220000
544.959717	146.900000
545.053284	146.500000
545.146973	146.900000
545.240540	146.480000
545.334229	147.420000
545.427795	147.480000
545.521423	147.980000
545.615051	147.880000
545.708679	147.860000
545.802307	147.540000
545.895935	147.720000
545.989624	148.480000
546.083191	148.140000
546.176880	148.060000
546.270447	147.660000
546.364136	147.880000
546.457703	147.060000
546.551331	147.140000
546.644958	147.620000
546.738586	148.000000
546.832214	147.260000
546.925842	147.200000
547.019409	147.520000
547.113098	146.740000
547.206665	146.280000
547.300354	146.380000
547.393921	146.500000
547.487549	146.820000
547.581177	146.620000
547.674805	146.920000
547.768433	146.400000
547.862061	146.640000
547.955627	145.640000
548.049316	146.460000
548.142883	146.580000
548.236572	147.680000
548.330139	147.400000
548.423767	147.620000
548.517456	147.500000
548.611023	147.680000
548.704651	146.920000
548.798279	147.100000
548.891907	147.380000
548.985474	147.040000
549.079163	146.740000
549.172729	146.940000
549.266357	146.380000
549.359985	146.380000
549.453613	146.080000
549.547180	145.960000
549.640869	146.080000
549.734436	145.980000
549.828064	146.260000
549.921631	146.000000
550.015320	145.920000
550.108887	146.440000
550.202515	146.700000
550.296143	146.240000
550.389771	146.980000
550.483337	147.160000
550.576965	146.400000
550.670593	146.960000
550.764221	147.100000
550.857849	146.740000
550.951477	146.420000
551.045105	146.380000
551.138672	146.220000
551.232300	145.900000
551.325928	146.440000
551.419556	146.660000
551.513123	146.780000
551.606750	146.300000
551.700378	146.520000
551.794006	146.140000
551.887573	146.020000
551.981201	146.640000
552.074768	146.320000
552.168457	146.180000
552.262024	146.880000
552.355652	147.040000
552.449219	147.100000
552.542847	147.760000
552.636475	147.520000
552.730103	146.600000
552.823669	146.280000
552.917297	145.500000
553.010864	145.420000
553.104553	145.920000
553.198181	145.740000
553.291748	146.400000
553.385376	146.700000
553.478943	146.720000
553.572571	146.840000
553.666199	147.320000
553.759827	146.880000
553.853394	146.340000
553.947021	146.220000
554.040588	146.040000
554.134216	145.980000
554.227783	146.300000
554.321411	146.980000
554.415039	146.720000
554.508667	146.520000
554.602234	146.780000
554.695862	146.620000
554.789429	146.440000
554.883057	146.460000
554.976624	146.580000
555.070251	145.860000
555.163818	145.520000
555.257507	145.580000
555.351074	145.680000
555.444702	146.960000
555.538330	147.380000
555.631897	147.860000
555.725525	147.760000
555.819092	147.920000
555.912720	146.620000
556.006287	146.800000
556.099915	146.420000
556.193481	146.180000
556.287109	146.280000
556.380676	146.160000
556.474304	146.180000
556.567871	146.580000
556.661499	146.480000
556.755066	146.480000
556.848694	146.680000
556.942261	146.500000
557.035889	146.420000
557.129517	146.720000
557.223145	146.940000
557.316711	146.940000
557.410339	147.100000
557.503906	146.800000
557.597473	147.080000
557.691040	146.760000
557.784668	146.660000
557.878296	146.500000
557.971863	146.880000
558.065491	146.720000
558.159058	146.600000
558.252686	147.240000
558.346252	148.160000
558.439880	147.560000
558.533447	147.260000
558.627075	147.060000
558.720642	146.440000
558.814270	145.840000
558.907837	146.060000
559.001465	145.780000
559.095032	146.340000
559.188660	146.640000
559.282227	145.880000
559.375854	146.440000
559.469360	146.540000
559.562988	146.820000
559.656555	146.540000
559.750183	147.060000
559.843750	146.920000
559.937378	146.980000
560.030945	146.700000
560.124573	0.000000
560.218140	0.000000
560.311707	0.000000
560.405334	0.000000
560.498901	0.000000
560.592529	0.000000
560.686096	0.000000
560.779724	0.000000
560.873291	0.000000
560.966858	0.000000
561.060425	0.000000
561.154053	0.000000
561.247620	0.000000
561.341248	0.000000
561.434814	0.000000
561.528381	0.000000
561.621948	0.000000
561.715576	0.000000
561.809143	0.000000
561.902771	0.000000
561.996277	0.000000
562.089905	0.000000
562.183472	0.000000
562.277100	0.000000
