Model Number: SPM-002-B   
Serial Number: 70087108
Firmware Version: 004.15.4
Exposure Time: 100000.000000us
Data Taken on: 11-12-2020 18:44:50.500
Wavelength	Amplitude
221.570786	0.000000
221.663406	0.000000
221.756027	0.000000
221.848648	0.000000
221.941269	0.000000
222.033905	0.000000
222.126526	0.000000
222.219162	0.000000
222.311798	0.000000
222.404419	0.000000
222.497055	0.000000
222.589676	0.000000
222.682312	0.000000
222.774933	0.000000
222.867569	0.000000
222.960205	0.000000
223.052841	0.000000
223.145462	0.000000
223.238098	0.000000
223.330734	0.000000
223.423386	0.000000
223.516022	0.000000
223.608658	0.000000
223.701309	0.000000
223.793945	0.000000
223.886581	0.000000
223.979218	0.000000
224.071869	0.000000
224.164505	0.000000
224.257156	0.000000
224.349792	0.000000
224.442444	0.000000
224.535095	0.000000
224.627747	0.000000
224.720398	0.000000
224.813034	0.000000
224.905685	0.000000
224.998337	145.240000
225.090988	144.640000
225.183640	144.980000
225.276291	144.840000
225.368942	145.580000
225.461594	146.280000
225.554245	146.360000
225.646912	146.080000
225.739578	146.660000
225.832230	146.200000
225.924896	145.100000
226.017548	145.380000
226.110199	145.800000
226.202866	144.820000
226.295532	144.780000
226.388184	144.840000
226.480850	144.300000
226.573517	143.980000
226.666168	144.300000
226.758835	144.600000
226.851501	145.360000
226.944183	145.440000
227.036850	145.140000
227.129517	145.140000
227.222183	145.320000
227.314850	145.040000
227.407516	145.860000
227.500198	146.520000
227.592865	146.160000
227.685532	145.740000
227.778214	145.660000
227.870880	145.620000
227.963562	146.180000
228.056229	146.860000
228.148926	146.820000
228.241592	147.780000
228.334274	147.300000
228.426956	146.640000
228.519638	146.500000
228.612305	146.280000
228.704987	146.040000
228.797668	146.040000
228.890350	145.860000
228.983032	145.060000
229.075714	145.940000
229.168396	145.140000
229.261108	145.060000
229.353790	145.180000
229.446472	145.560000
229.539169	144.840000
229.631851	144.720000
229.724533	145.060000
229.817230	145.400000
229.909912	146.360000
230.002609	146.420000
230.095306	146.400000
230.187988	146.340000
230.280685	146.080000
230.373383	145.240000
230.466095	145.080000
230.558792	145.520000
230.651474	145.560000
230.744171	145.320000
230.836868	145.180000
230.929581	145.720000
231.022278	145.640000
231.114975	145.640000
231.207672	145.460000
231.300369	146.200000
231.393082	145.960000
231.485779	145.680000
231.578506	145.680000
231.671204	145.920000
231.763916	145.500000
231.856613	145.700000
231.949326	146.120000
232.042023	146.080000
232.134735	146.020000
232.227448	145.880000
232.320160	146.060000
232.412872	146.060000
232.505585	146.600000
232.598297	146.760000
232.691010	146.900000
232.783722	146.200000
232.876450	146.500000
232.969162	146.080000
233.061874	145.840000
233.154587	145.500000
233.247314	146.060000
233.340027	145.380000
233.432739	145.620000
233.525467	145.700000
233.618179	145.940000
233.710907	145.680000
233.803635	146.280000
233.896347	146.040000
233.989090	146.820000
234.081818	146.720000
234.174545	146.740000
234.267258	146.160000
234.359985	146.100000
234.452713	145.600000
234.545441	145.660000
234.638168	145.560000
234.730896	146.000000
234.823639	145.900000
234.916367	146.440000
235.009094	146.540000
235.101822	146.620000
235.194580	146.680000
235.287308	146.800000
235.380051	146.180000
235.472778	146.560000
235.565521	146.820000
235.658249	146.200000
235.750992	146.240000
235.843719	146.020000
235.936462	145.720000
236.029205	145.580000
236.121948	145.380000
236.214691	145.760000
236.307449	146.500000
236.400192	146.160000
236.492935	145.800000
236.585678	146.160000
236.678421	145.860000
236.771164	145.460000
236.863907	146.020000
236.956665	146.420000
237.049408	147.880000
237.142151	147.460000
237.234909	148.020000
237.327652	147.760000
237.420410	147.420000
237.513153	146.520000
237.605927	146.240000
237.698669	145.660000
237.791428	145.040000
237.884186	145.260000
237.976944	144.740000
238.069702	145.620000
238.162445	145.100000
238.255203	145.380000
238.347961	145.780000
238.440720	145.960000
238.533478	145.840000
238.626266	145.940000
238.719025	146.480000
238.811783	146.260000
238.904541	146.020000
238.997314	145.600000
239.090073	145.440000
239.182831	145.380000
239.275604	145.820000
239.368362	146.040000
239.461136	146.120000
239.553909	146.300000
239.646667	145.900000
239.739441	145.340000
239.832214	145.520000
239.925003	146.080000
240.017761	146.780000
240.110535	147.520000
240.203308	147.300000
240.296082	147.320000
240.388855	146.920000
240.481628	146.820000
240.574417	146.620000
240.667191	147.100000
240.759964	146.960000
240.852737	147.080000
240.945526	146.580000
241.038315	146.320000
241.131088	145.960000
241.223877	146.040000
241.316650	145.280000
241.409439	145.760000
241.502228	145.160000
241.595001	145.760000
241.687790	145.520000
241.780579	145.920000
241.873367	145.820000
241.966141	146.460000
242.058929	145.560000
242.151718	145.800000
242.244507	145.940000
242.337311	145.100000
242.430099	145.720000
242.522903	146.040000
242.615692	145.360000
242.708481	145.620000
242.801270	146.420000
242.894073	145.940000
242.986862	146.320000
243.079651	147.160000
243.172455	146.680000
243.265244	146.880000
243.358063	146.000000
243.450867	145.940000
243.543655	145.880000
243.636459	146.220000
243.729263	146.020000
243.822067	146.920000
243.914856	147.240000
244.007660	147.260000
244.100464	147.340000
244.193268	146.900000
244.286072	146.520000
244.378876	145.760000
244.471680	145.380000
244.564499	145.380000
244.657318	146.380000
244.750122	146.680000
244.842926	146.060000
244.935745	146.800000
245.028549	146.460000
245.121368	145.780000
245.214172	145.580000
245.306992	146.640000
245.399796	145.700000
245.492615	145.840000
245.585434	145.760000
245.678253	145.940000
245.771072	145.640000
245.863892	145.980000
245.956711	146.160000
246.049530	146.300000
246.142349	146.100000
246.235168	146.260000
246.327988	147.280000
246.420807	146.920000
246.513626	147.000000
246.606445	146.760000
246.699280	146.540000
246.792099	145.720000
246.884918	145.900000
246.977753	145.480000
247.070587	145.700000
247.163422	145.740000
247.256241	145.620000
247.349075	145.620000
247.441895	145.660000
247.534729	145.900000
247.627563	145.880000
247.720383	146.500000
247.813217	146.340000
247.906052	146.220000
247.998886	146.120000
248.091736	146.220000
248.184570	145.720000
248.277405	146.160000
248.370239	147.220000
248.463074	147.900000
248.555908	148.080000
248.648743	148.020000
248.741592	147.960000
248.834427	147.040000
248.927261	146.060000
249.020111	146.220000
249.112946	146.660000
249.205795	146.180000
249.298630	146.460000
249.391495	146.580000
249.484344	146.320000
249.577179	146.140000
249.670029	146.600000
249.762878	147.000000
249.855728	147.100000
249.948563	146.900000
250.041412	146.320000
250.134262	146.540000
250.227112	146.540000
250.319962	146.280000
250.412827	146.860000
250.505692	146.640000
250.598541	146.340000
250.691391	145.560000
250.784241	145.840000
250.877106	145.500000
250.969955	145.720000
251.062805	146.480000
251.155670	147.300000
251.248520	147.280000
251.341385	147.580000
251.434235	147.620000
251.527100	146.880000
251.619965	146.320000
251.712814	146.940000
251.805695	146.680000
251.898560	146.760000
251.991425	146.880000
252.084290	147.040000
252.177155	146.340000
252.270020	145.980000
252.362885	145.820000
252.455750	145.640000
252.548615	145.300000
252.641479	145.360000
252.734360	145.420000
252.827240	145.340000
252.920105	145.620000
253.012970	145.860000
253.105850	145.520000
253.198715	145.220000
253.291595	145.560000
253.384460	145.100000
253.477341	144.700000
253.570221	145.440000
253.663086	145.340000
253.755966	145.700000
253.848846	145.800000
253.941727	146.340000
254.034592	145.940000
254.127472	145.840000
254.220367	145.680000
254.313248	145.880000
254.406128	145.440000
254.499008	145.640000
254.591904	146.700000
254.684784	147.220000
254.777664	147.100000
254.870544	147.000000
254.963440	146.700000
255.056335	146.340000
255.149216	145.600000
255.242111	146.240000
255.334991	146.780000
255.427887	146.880000
255.520767	146.880000
255.613663	147.120000
255.706558	146.280000
255.799438	145.940000
255.892334	145.600000
255.985229	145.580000
256.078125	145.740000
256.171021	146.160000
256.263916	146.960000
256.356812	147.420000
256.449707	147.460000
256.542603	146.840000
256.635498	147.160000
256.728394	146.580000
256.821289	146.400000
256.914215	146.640000
257.007080	147.200000
257.100006	146.840000
257.192932	147.020000
257.285828	147.120000
257.378723	146.720000
257.471619	146.440000
257.564545	146.360000
257.657440	146.300000
257.750336	146.760000
257.843262	146.620000
257.936157	147.520000
258.029053	147.840000
258.121979	148.020000
258.214874	147.500000
258.307800	147.440000
258.400696	146.460000
258.493622	146.300000
258.586517	145.400000
258.679443	145.700000
258.772339	145.420000
258.865265	145.420000
258.958160	144.960000
259.051086	146.120000
259.144012	145.900000
259.236938	147.020000
259.329834	147.240000
259.422791	147.240000
259.515717	146.580000
259.608612	146.380000
259.701538	146.040000
259.794464	145.940000
259.887390	146.240000
259.980316	146.100000
260.073212	145.920000
260.166138	145.040000
260.259064	145.360000
260.351990	145.400000
260.444916	145.560000
260.537842	146.080000
260.630768	146.880000
260.723694	146.540000
260.816620	146.440000
260.909546	146.480000
261.002472	146.080000
261.095398	145.740000
261.188354	145.600000
261.281281	145.500000
261.374207	145.760000
261.467133	146.580000
261.560089	146.800000
261.653015	146.680000
261.745972	147.300000
261.838867	147.500000
261.931824	147.400000
262.024780	147.020000
262.117706	147.420000
262.210663	147.180000
262.303589	146.740000
262.396515	146.700000
262.489471	147.600000
262.582397	147.460000
262.675354	147.140000
262.768280	147.000000
262.861237	146.840000
262.954163	146.480000
263.047119	146.480000
263.140045	146.140000
263.233002	146.180000
263.325958	145.880000
263.418884	145.480000
263.511841	145.520000
263.604797	145.820000
263.697723	146.120000
263.790680	146.020000
263.883636	146.720000
263.976593	146.320000
264.069550	146.500000
264.162476	146.160000
264.255463	146.340000
264.348419	145.620000
264.441376	146.160000
264.534332	145.760000
264.627289	145.880000
264.720245	146.220000
264.813202	146.160000
264.906158	146.220000
264.999115	146.640000
265.092072	146.620000
265.185028	146.800000
265.277985	147.240000
265.370941	147.160000
265.463898	146.920000
265.556854	146.840000
265.649811	146.060000
265.742798	145.680000
265.835754	145.540000
265.928711	146.120000
266.021667	146.080000
266.114655	146.480000
266.207611	147.060000
266.300568	146.780000
266.393585	146.040000
266.486511	146.420000
266.579498	145.680000
266.672485	145.060000
266.765442	144.880000
266.858429	145.380000
266.951385	144.940000
267.044342	145.360000
267.137329	145.600000
267.230316	146.100000
267.323273	145.740000
267.416260	146.460000
267.509216	146.600000
267.602203	146.600000
267.695160	146.900000
267.788147	147.020000
267.881134	146.240000
267.974091	146.500000
268.067078	146.280000
268.160065	145.860000
268.253052	145.800000
268.346008	145.940000
268.438995	145.720000
268.531982	145.820000
268.624969	145.680000
268.717987	145.780000
268.810944	145.800000
268.903961	145.840000
268.996948	145.340000
269.089905	145.780000
269.182892	146.120000
269.275879	146.480000
269.368866	145.860000
269.461853	146.400000
269.554871	146.160000
269.647858	145.540000
269.740845	145.640000
269.833832	146.500000
269.926819	146.340000
270.019806	146.580000
270.112793	146.200000
270.205811	145.980000
270.298798	145.440000
270.391785	145.780000
270.484772	145.120000
270.577789	145.600000
270.670776	145.100000
270.763763	145.020000
270.856750	144.840000
270.949768	144.900000
271.042786	144.980000
271.135773	145.640000
271.228790	146.120000
271.321808	146.000000
271.414795	145.680000
271.507782	145.420000
271.600800	144.940000
271.693817	145.000000
271.786804	145.220000
271.879822	145.980000
271.972809	146.040000
272.065826	146.380000
272.158844	145.720000
272.251831	146.280000
272.344849	146.000000
272.437866	145.960000
272.530853	145.980000
272.623871	146.460000
272.716888	145.520000
272.809906	146.000000
272.902893	146.160000
272.995911	145.700000
273.088928	145.780000
273.181946	146.120000
273.274963	145.640000
273.367981	145.620000
273.460999	145.940000
273.554047	146.120000
273.647003	146.540000
273.740051	146.760000
273.833069	147.240000
273.926086	147.420000
274.019135	146.940000
274.112152	146.480000
274.205170	146.460000
274.298187	146.620000
274.391205	146.120000
274.484222	146.420000
274.577240	146.600000
274.670258	146.360000
274.763306	145.900000
274.856323	146.380000
274.949341	146.340000
275.042358	146.500000
275.135406	146.540000
275.228424	146.300000
275.321442	146.440000
275.414490	146.280000
275.507507	146.460000
275.600525	147.080000
275.693573	147.200000
275.786591	146.380000
275.879669	146.680000
275.972656	146.160000
276.065735	145.560000
276.158752	146.140000
276.251801	147.300000
276.344818	147.200000
276.437866	147.580000
276.530884	147.340000
276.623932	146.420000
276.716980	146.080000
276.809998	146.260000
276.903046	146.180000
276.996094	147.380000
277.089111	148.200000
277.182159	148.560000
277.275208	148.180000
277.368256	148.200000
277.461304	147.760000
277.554321	146.880000
277.647369	146.540000
277.740417	146.560000
277.833466	146.560000
277.926514	146.120000
278.019562	146.520000
278.112610	146.180000
278.205688	146.260000
278.298706	146.320000
278.391785	146.340000
278.484833	145.960000
278.577881	145.940000
278.670929	146.160000
278.763977	146.020000
278.857025	146.340000
278.950073	146.740000
279.043121	146.340000
279.136169	146.180000
279.229248	146.060000
279.322296	145.980000
279.415344	145.880000
279.508392	146.180000
279.601440	146.240000
279.694519	145.980000
279.787567	145.880000
279.880615	145.880000
279.973694	145.680000
280.066742	145.660000
280.159790	146.000000
280.252869	145.580000
280.345917	145.860000
280.438995	146.120000
280.532074	145.980000
280.625122	146.380000
280.718201	147.620000
280.811279	147.520000
280.904327	147.600000
280.997406	147.920000
281.090454	147.420000
281.183533	146.160000
281.276581	146.040000
281.369659	145.740000
281.462738	145.460000
281.555786	146.000000
281.648865	146.340000
281.741943	146.560000
281.835022	147.320000
281.928070	147.120000
282.021149	146.320000
282.114227	146.020000
282.207306	145.720000
282.300385	145.460000
282.393433	145.760000
282.486511	146.220000
282.579590	147.040000
282.672668	147.200000
282.765747	146.800000
282.858856	146.720000
282.951904	146.480000
283.045013	146.240000
283.138062	146.560000
283.231171	147.140000
283.324249	147.520000
283.417328	147.800000
283.510406	147.480000
283.603485	147.220000
283.696564	146.500000
283.789642	146.420000
283.882751	146.060000
283.975830	146.580000
284.068909	146.440000
284.161987	147.420000
284.255066	146.620000
284.348175	146.940000
284.441254	146.480000
284.534332	146.800000
284.627441	146.100000
284.720520	146.260000
284.813599	146.160000
284.906708	146.460000
284.999786	145.780000
285.092896	145.700000
285.185974	146.740000
285.279053	146.600000
285.372192	146.800000
285.465240	147.720000
285.558380	147.580000
285.651459	147.060000
285.744568	147.760000
285.837677	147.020000
285.930756	146.720000
286.023865	146.980000
286.116943	146.780000
286.210052	146.800000
286.303162	146.880000
286.396240	146.600000
286.489349	146.600000
286.582458	146.860000
286.675568	146.220000
286.768646	146.700000
286.861755	146.860000
286.954865	147.240000
287.047974	146.540000
287.141083	146.380000
287.234161	146.080000
287.327271	145.840000
287.420380	146.160000
287.513519	146.440000
287.606598	146.760000
287.699738	146.740000
287.792816	146.860000
287.885956	146.440000
287.979034	146.160000
288.072174	145.940000
288.165283	146.060000
288.258392	146.300000
288.351501	145.560000
288.444611	146.060000
288.537720	146.560000
288.630859	146.400000
288.723969	146.280000
288.817078	147.000000
288.910187	146.920000
289.003296	146.280000
289.096436	146.240000
289.189545	145.920000
289.282654	145.400000
289.375763	145.620000
289.468903	145.880000
289.562012	145.980000
289.655121	146.360000
289.748260	146.580000
289.841400	146.640000
289.934509	146.380000
290.027649	146.640000
290.120728	146.360000
290.213898	146.420000
290.306976	146.280000
290.400146	146.540000
290.493256	145.860000
290.586395	146.080000
290.679535	146.400000
290.772644	145.860000
290.865784	145.320000
290.958893	145.400000
291.052032	145.200000
291.145172	144.880000
291.238281	145.040000
291.331421	145.340000
291.424561	145.840000
291.517670	145.740000
291.610809	145.580000
291.703949	145.560000
291.797089	145.940000
291.890228	145.520000
291.983337	145.340000
292.076477	145.780000
292.169617	146.140000
292.262756	145.980000
292.355927	145.820000
292.449036	145.860000
292.542206	145.620000
292.635315	145.500000
292.728485	145.620000
292.821625	145.520000
292.914764	146.920000
293.007904	146.880000
293.101044	146.900000
293.194183	146.340000
293.287323	146.620000
293.380463	145.580000
293.473602	145.700000
293.566742	145.860000
293.659882	146.660000
293.753021	147.020000
293.846191	146.760000
293.939331	145.900000
294.032471	145.720000
294.125610	145.160000
294.218781	145.580000
294.311920	146.220000
294.405060	147.100000
294.498230	146.960000
294.591370	147.240000
294.684540	146.100000
294.777679	145.380000
294.870850	145.380000
294.963959	145.440000
295.057159	144.960000
295.150299	145.640000
295.243469	145.780000
295.336609	145.120000
295.429779	145.040000
295.522919	145.740000
295.616089	145.600000
295.709229	146.300000
295.802399	146.680000
295.895569	146.580000
295.988708	146.060000
296.081879	146.100000
296.175018	145.280000
296.268188	145.140000
296.361359	145.840000
296.454529	146.040000
296.547668	145.860000
296.640839	146.300000
296.734009	146.260000
296.827179	146.120000
296.920319	146.340000
297.013519	146.140000
297.106659	146.180000
297.199860	146.360000
297.292999	145.920000
297.386200	145.680000
297.479309	145.680000
297.572510	145.460000
297.665680	145.380000
297.758850	145.400000
297.852020	145.380000
297.945190	145.460000
298.038361	145.160000
298.131531	146.060000
298.224701	146.120000
298.317871	145.900000
298.411072	145.780000
298.504242	145.920000
298.597412	145.040000
298.690582	145.220000
298.783752	145.520000
298.876923	146.040000
298.970093	146.160000
299.063293	146.540000
299.156464	146.840000
299.249634	146.680000
299.342834	146.620000
299.436005	147.000000
299.529205	146.920000
299.622345	147.000000
299.715576	146.460000
299.808716	146.160000
299.901917	145.960000
299.995117	146.200000
300.088287	146.220000
300.181488	146.440000
300.274658	146.840000
300.367828	146.780000
300.461029	146.660000
300.554199	146.680000
300.647400	146.960000
300.740601	147.180000
300.833771	147.040000
300.926971	147.120000
301.020142	146.540000
301.113342	146.400000
301.206512	145.800000
301.299713	146.160000
301.392914	145.940000
301.486084	146.260000
301.579285	146.500000
301.672516	147.320000
301.765686	146.900000
301.858887	146.880000
301.952057	146.960000
302.045288	147.040000
302.138458	146.340000
302.231659	146.240000
302.324860	146.180000
302.418060	145.800000
302.511261	145.320000
302.604462	145.660000
302.697662	145.660000
302.790863	145.360000
302.884064	145.080000
302.977264	145.480000
303.070465	145.720000
303.163666	146.820000
303.256866	147.200000
303.350067	147.200000
303.443268	146.960000
303.536469	146.840000
303.629669	146.160000
303.722870	146.280000
303.816071	146.400000
303.909271	146.640000
304.002472	146.080000
304.095673	145.720000
304.188934	145.060000
304.282104	146.220000
304.375336	146.400000
304.468506	146.420000
304.561768	146.280000
304.654968	147.120000
304.748169	145.980000
304.841370	145.520000
304.934601	145.800000
305.027802	145.700000
305.121002	145.240000
305.214233	145.580000
305.307434	145.860000
305.400665	146.300000
305.493866	146.440000
305.587097	146.680000
305.680298	146.360000
305.773499	146.780000
305.866730	146.320000
305.959930	146.740000
306.053162	146.800000
306.146393	146.600000
306.239594	145.520000
306.332825	145.440000
306.426025	145.960000
306.519287	145.400000
306.612488	145.840000
306.705719	146.360000
306.798920	146.320000
306.892181	145.340000
306.985352	145.200000
307.078613	144.660000
307.171844	145.000000
307.265045	144.640000
307.358276	144.440000
307.451508	145.040000
307.544739	145.720000
307.637970	145.040000
307.731201	145.420000
307.824402	146.240000
307.917633	146.320000
308.010864	146.440000
308.104095	147.080000
308.197327	147.260000
308.290558	147.080000
308.383789	146.320000
308.477020	146.040000
308.570251	145.140000
308.663483	144.640000
308.756714	144.360000
308.849976	145.020000
308.943176	145.440000
309.036438	145.920000
309.129639	145.860000
309.222900	146.000000
309.316101	145.700000
309.409393	145.080000
309.502625	144.600000
309.595856	144.780000
309.689087	144.900000
309.782318	145.060000
309.875580	145.260000
309.968811	146.060000
310.062042	146.000000
310.155273	145.700000
310.248535	146.000000
310.341766	145.640000
310.434998	145.240000
310.528259	145.200000
310.621490	145.720000
310.714722	144.980000
310.807983	145.500000
310.901215	145.360000
310.994476	145.580000
311.087708	145.040000
311.181000	145.640000
311.274200	145.100000
311.367462	145.620000
311.460693	145.420000
311.553986	146.400000
311.647186	146.660000
311.740479	147.200000
311.833710	146.480000
311.926971	146.720000
312.020203	145.820000
312.113464	145.480000
312.206726	144.840000
312.299957	145.580000
312.393219	145.660000
312.486481	145.820000
312.579712	145.680000
312.672974	145.900000
312.766235	145.460000
312.859497	145.280000
312.952759	145.220000
313.045990	146.100000
313.139252	145.580000
313.232513	145.960000
313.325775	146.280000
313.419037	146.160000
313.512299	145.380000
313.605530	146.260000
313.698822	146.440000
313.792053	146.340000
313.885345	145.960000
313.978577	146.140000
314.071869	145.360000
314.165131	145.360000
314.258392	145.640000
314.351654	146.300000
314.444916	145.640000
314.538177	146.680000
314.631439	146.700000
314.724701	146.240000
314.817993	146.040000
314.911255	146.480000
315.004517	145.800000
315.097778	145.500000
315.191040	146.140000
315.284302	146.420000
315.377594	146.060000
315.470856	146.300000
315.564117	145.940000
315.657379	145.140000
315.750671	144.660000
315.843933	145.100000
315.937195	144.780000
316.030518	144.840000
316.123749	144.980000
316.217041	145.660000
316.310303	145.980000
316.403595	146.280000
316.496857	146.620000
316.590149	146.840000
316.683411	145.980000
316.776703	145.660000
316.869965	145.640000
316.963257	145.400000
317.056519	144.920000
317.149811	145.200000
317.243073	145.060000
317.336365	145.020000
317.429626	145.220000
317.522919	145.880000
317.616180	145.840000
317.709473	145.640000
317.802765	145.600000
317.896027	145.660000
317.989319	145.840000
318.082611	145.940000
318.175873	145.740000
318.269165	145.980000
318.362488	145.900000
318.455750	145.640000
318.549042	146.120000
318.642303	147.000000
318.735626	146.520000
318.828888	146.460000
318.922211	146.080000
319.015472	146.180000
319.108765	145.400000
319.202057	145.740000
319.295349	146.260000
319.388641	146.180000
319.481934	145.880000
319.575226	145.660000
319.668518	145.700000
319.761810	145.560000
319.855103	145.660000
319.948395	145.600000
320.041687	146.340000
320.134979	146.480000
320.228271	146.060000
320.321564	146.220000
320.414856	146.160000
320.508148	145.360000
320.601440	145.120000
320.694763	145.080000
320.788025	145.640000
320.881348	145.620000
320.974640	146.060000
321.067963	145.740000
321.161224	145.940000
321.254547	144.900000
321.347839	145.220000
321.441162	145.220000
321.534454	145.420000
321.627747	145.260000
321.721069	146.220000
321.814362	146.320000
321.907654	146.280000
322.000946	146.420000
322.094269	147.100000
322.187561	146.440000
322.280884	146.660000
322.374176	146.700000
322.467468	147.080000
322.560791	146.540000
322.654083	146.960000
322.747406	146.720000
322.840698	147.140000
322.934021	147.120000
323.027344	147.380000
323.120636	147.340000
323.213959	147.260000
323.307251	146.560000
323.400574	146.300000
323.493866	145.840000
323.587219	145.980000
323.680511	146.100000
323.773834	146.480000
323.867157	146.260000
323.960449	146.640000
324.053772	146.300000
324.147095	146.060000
324.240387	146.620000
324.333710	147.020000
324.427032	146.940000
324.520355	147.120000
324.613647	146.940000
324.706970	146.520000
324.800293	146.420000
324.893616	146.800000
324.986938	146.860000
325.080231	146.740000
325.173553	146.820000
325.266876	147.160000
325.360199	146.880000
325.453522	146.480000
325.546875	146.500000
325.640167	146.660000
325.733521	146.720000
325.826813	146.900000
325.920166	146.800000
326.013489	146.700000
326.106812	145.800000
326.200134	145.000000
326.293457	144.360000
326.386780	144.640000
326.480103	144.760000
326.573425	144.920000
326.666748	145.000000
326.760071	145.660000
326.853424	145.540000
326.946747	145.580000
327.040070	146.500000
327.133392	146.200000
327.226715	145.160000
327.320068	144.940000
327.413391	145.380000
327.506714	144.380000
327.600037	144.720000
327.693390	145.360000
327.786713	145.280000
327.880066	145.120000
327.973358	145.920000
328.066742	146.460000
328.160034	146.720000
328.253418	147.380000
328.346710	146.900000
328.440063	146.500000
328.533417	146.140000
328.626740	146.100000
328.720093	145.660000
328.813416	146.040000
328.906769	145.820000
329.000092	145.960000
329.093445	145.560000
329.186768	145.560000
329.280121	146.000000
329.373444	146.520000
329.466797	146.520000
329.560120	146.940000
329.653473	147.160000
329.746796	146.380000
329.840149	146.140000
329.933502	146.140000
330.026825	145.900000
330.120178	145.820000
330.213562	145.920000
330.306854	145.960000
330.400238	146.020000
330.493561	145.880000
330.586945	146.500000
330.680237	146.880000
330.773621	147.240000
330.866974	147.040000
330.960327	147.640000
331.053680	147.040000
331.147003	146.840000
331.240356	146.480000
331.333710	146.240000
331.427063	145.580000
331.520416	145.620000
331.613770	145.500000
331.707123	145.460000
331.800476	145.820000
331.893829	146.820000
331.987152	147.120000
332.080505	147.140000
332.173859	146.820000
332.267212	146.220000
332.360565	145.240000
332.453918	144.620000
332.547333	144.740000
332.640656	145.140000
332.734039	145.540000
332.827362	145.740000
332.920746	146.380000
333.014069	146.400000
333.107452	146.480000
333.200806	146.700000
333.294159	146.840000
333.387543	146.180000
333.480896	145.840000
333.574249	145.520000
333.667603	145.080000
333.760956	145.160000
333.854340	145.380000
333.947693	145.580000
334.041046	146.120000
334.134430	146.660000
334.227783	146.400000
334.321136	146.320000
334.414520	146.060000
334.507874	146.120000
334.601227	145.980000
334.694611	145.860000
334.787964	146.140000
334.881348	146.840000
334.974701	146.680000
335.068085	146.500000
335.161438	146.880000
335.254822	146.660000
335.348175	146.040000
335.441559	145.560000
335.534943	146.160000
335.628296	145.680000
335.721680	145.520000
335.815033	145.780000
335.908417	146.160000
336.001770	145.740000
336.095154	145.920000
336.188538	145.720000
336.281891	145.440000
336.375275	144.900000
336.468658	144.700000
336.562012	144.980000
336.655396	145.580000
336.748779	145.800000
336.842133	146.300000
336.935516	146.780000
337.028900	146.100000
337.122284	145.860000
337.215637	145.940000
337.309021	145.660000
337.402435	145.100000
337.495789	145.480000
337.589203	145.440000
337.682526	145.440000
337.775940	145.700000
337.869324	145.980000
337.962708	145.640000
338.056091	145.880000
338.149475	145.660000
338.242859	145.620000
338.336243	145.580000
338.429626	145.720000
338.523010	145.840000
338.616394	145.720000
338.709778	145.920000
338.803162	145.960000
338.896545	146.300000
338.989929	145.500000
339.083313	145.720000
339.176697	145.140000
339.270081	144.880000
339.363464	144.920000
339.456848	146.000000
339.550232	145.560000
339.643616	145.800000
339.737030	145.780000
339.830383	145.560000
339.923828	145.260000
340.017181	145.560000
340.110596	145.760000
340.203949	145.780000
340.297363	145.760000
340.390778	145.540000
340.484161	145.500000
340.577545	145.280000
340.670959	145.440000
340.764343	145.540000
340.857727	145.520000
340.951111	145.260000
341.044525	145.460000
341.137909	144.920000
341.231293	145.000000
341.324707	144.680000
341.418091	145.560000
341.511505	145.560000
341.604889	146.140000
341.698303	146.080000
341.791687	146.420000
341.885071	145.820000
341.978485	145.580000
342.071899	145.780000
342.165283	146.100000
342.258698	146.260000
342.352081	146.840000
342.445496	147.500000
342.538879	147.400000
342.632324	146.680000
342.725708	146.480000
342.819122	145.700000
342.912506	145.400000
343.005920	145.240000
343.099335	146.520000
343.192719	146.540000
343.286133	146.760000
343.379547	146.740000
343.472931	146.920000
343.566345	145.720000
343.659760	145.780000
343.753143	145.440000
343.846558	145.080000
343.939972	144.840000
344.033386	145.840000
344.126770	145.680000
344.220184	145.940000
344.313599	146.380000
344.407043	146.480000
344.500427	145.560000
344.593872	146.080000
344.687225	146.180000
344.780670	145.960000
344.874054	145.860000
344.967499	146.460000
345.060913	146.140000
345.154327	146.180000
345.247742	145.620000
345.341156	145.540000
345.434570	145.260000
345.527985	145.320000
345.621399	145.280000
345.714813	145.900000
345.808228	146.360000
345.901642	146.080000
345.995056	145.600000
346.088470	145.660000
346.181885	145.660000
346.275299	144.900000
346.368713	145.040000
346.462128	145.440000
346.555573	145.340000
346.648987	145.340000
346.742401	145.320000
346.835815	145.860000
346.929260	145.440000
347.022644	145.460000
347.116119	145.780000
347.209503	146.340000
347.302948	146.760000
347.396362	147.500000
347.489807	147.820000
347.583221	148.080000
347.676636	147.760000
347.770050	146.700000
347.863495	146.240000
347.956909	146.060000
348.050323	145.460000
348.143768	145.620000
348.237183	145.580000
348.330597	145.940000
348.424042	146.020000
348.517456	146.180000
348.610901	146.220000
348.704315	146.120000
348.797760	145.480000
348.891174	145.060000
348.984619	144.840000
349.078033	145.140000
349.171448	145.840000
349.264923	146.120000
349.358337	146.280000
349.451782	146.320000
349.545197	145.700000
349.638641	145.100000
349.732086	144.700000
349.825500	145.040000
349.918945	144.620000
350.012390	144.980000
350.105804	145.500000
350.199249	145.680000
350.292664	146.040000
350.386108	146.260000
350.479553	146.900000
350.572968	146.600000
350.666412	147.120000
350.759857	146.540000
350.853302	146.900000
350.946716	146.220000
351.040161	146.320000
351.133606	145.900000
351.227081	146.080000
351.320465	146.800000
351.413940	146.900000
351.507355	147.000000
351.600830	147.220000
351.694244	146.940000
351.787720	146.240000
351.881104	145.980000
351.974579	145.900000
352.067993	146.480000
352.161469	146.640000
352.254883	146.320000
352.348358	146.420000
352.441803	146.200000
352.535248	145.580000
352.628693	145.640000
352.722137	145.600000
352.815582	145.760000
352.909027	145.840000
353.002472	145.840000
353.095917	145.680000
353.189362	145.820000
353.282806	145.640000
353.376251	145.760000
353.469696	145.620000
353.563141	146.020000
353.656586	145.880000
353.750061	145.480000
353.843475	145.260000
353.936981	145.700000
354.030396	145.000000
354.123871	144.960000
354.217285	146.060000
354.310760	146.360000
354.404175	146.180000
354.497681	146.140000
354.591095	146.320000
354.684570	145.280000
354.777985	144.820000
354.871490	144.620000
354.964935	145.220000
355.058380	145.280000
355.151855	145.160000
355.245300	145.420000
355.338745	145.600000
355.432220	145.640000
355.525665	145.380000
355.619110	146.200000
355.712585	146.180000
355.806030	145.980000
355.899475	145.720000
355.992950	146.100000
356.086426	146.060000
356.179871	146.260000
356.273346	146.240000
356.366791	146.220000
356.460266	146.260000
356.553711	145.780000
356.647186	146.040000
356.740631	146.120000
356.834106	145.520000
356.927551	145.240000
357.021027	145.640000
357.114471	145.380000
357.207947	145.100000
357.301422	146.120000
357.394867	146.400000
357.488342	146.540000
357.581818	146.300000
357.675262	146.760000
357.768738	146.060000
357.862213	145.340000
357.955658	144.880000
358.049133	144.940000
358.142609	145.140000
358.236053	145.200000
358.329529	145.520000
358.423035	146.120000
358.516449	145.860000
358.609955	145.920000
358.703400	146.720000
358.796906	146.820000
358.890350	146.320000
358.983826	146.980000
359.077271	146.280000
359.170776	145.720000
359.264221	145.720000
359.357727	146.040000
359.451172	146.000000
359.544647	146.360000
359.638123	146.320000
359.731598	146.740000
359.825073	146.680000
359.918549	146.640000
360.012024	146.660000
360.105499	146.340000
360.198975	145.940000
360.292450	145.700000
360.385925	145.440000
360.479401	145.140000
360.572876	145.640000
360.666351	146.040000
360.759857	146.180000
360.853302	146.220000
360.946808	145.700000
361.040253	145.540000
361.133759	145.240000
361.227203	145.500000
361.320709	145.240000
361.414154	146.120000
361.507660	146.160000
361.601105	146.760000
361.694641	147.060000
361.788086	147.180000
361.881592	147.560000
361.975067	147.260000
362.068542	147.140000
362.162018	146.480000
362.255524	146.220000
362.348999	145.780000
362.442474	145.960000
362.535950	145.260000
362.629456	145.460000
362.722931	145.120000
362.816406	145.660000
362.909882	146.100000
363.003387	145.820000
363.096863	146.120000
363.190338	146.740000
363.283875	146.080000
363.377319	145.980000
363.470825	146.860000
363.564301	146.060000
363.657806	146.120000
363.751282	146.060000
363.844788	146.720000
363.938232	145.840000
364.031769	146.680000
364.125214	146.980000
364.218750	147.460000
364.312225	145.980000
364.405731	146.540000
364.499207	146.020000
364.592712	145.560000
364.686188	145.340000
364.779694	146.160000
364.873169	146.020000
364.966675	146.040000
365.060150	145.900000
365.153656	146.280000
365.247131	146.100000
365.340637	146.540000
365.434143	147.220000
365.527618	147.480000
365.621155	146.420000
365.714600	146.480000
365.808136	146.280000
365.901611	145.040000
365.995117	145.040000
366.088593	145.340000
366.182129	145.140000
366.275604	145.280000
366.369110	145.540000
366.462585	145.620000
366.556122	146.320000
366.649567	146.120000
366.743103	146.020000
366.836609	146.260000
366.930115	146.560000
367.023590	146.420000
367.117096	146.440000
367.210602	146.280000
367.304108	146.680000
367.397614	146.860000
367.491119	146.720000
367.584595	146.900000
367.678101	147.300000
367.771606	146.700000
367.865112	146.200000
367.958649	145.880000
368.052124	145.660000
368.145660	145.080000
368.239136	145.720000
368.332672	145.520000
368.426147	145.700000
368.519684	145.760000
368.613159	146.480000
368.706696	145.940000
368.800171	146.140000
368.893707	145.860000
368.987183	146.020000
369.080719	145.700000
369.174225	145.880000
369.267731	145.800000
369.361237	146.340000
369.454742	146.380000
369.548248	146.520000
369.641754	146.040000
369.735260	146.220000
369.828766	145.540000
369.922272	146.120000
370.015808	145.680000
370.109314	145.740000
370.202820	145.500000
370.296356	146.300000
370.389832	145.780000
370.483368	145.800000
370.576874	145.800000
370.670410	145.940000
370.763885	144.840000
370.857422	144.900000
370.950928	144.800000
371.044464	145.620000
371.137939	145.620000
371.231476	146.000000
371.324982	146.440000
371.418518	146.760000
371.512024	146.620000
371.605560	146.420000
371.699066	146.660000
371.792572	146.080000
371.886108	146.340000
371.979614	145.920000
372.073120	146.340000
372.166656	146.420000
372.260162	146.780000
372.353668	146.320000
372.447205	146.120000
372.540710	145.800000
372.634277	145.460000
372.727753	145.080000
372.821320	144.840000
372.914795	144.740000
373.008362	144.640000
373.101837	145.020000
373.195404	144.900000
373.288879	145.240000
373.382446	146.120000
373.475922	146.260000
373.569489	146.660000
373.662964	147.300000
373.756531	147.000000
373.850037	146.620000
373.943573	146.400000
374.037109	145.360000
374.130615	145.240000
374.224152	145.740000
374.317657	145.940000
374.411194	147.140000
374.504730	147.320000
374.598236	146.920000
374.691772	146.320000
374.785309	146.360000
374.878815	144.920000
374.972351	145.780000
375.065887	145.860000
375.159454	146.640000
375.252930	146.280000
375.346497	146.920000
375.440002	146.840000
375.533569	146.920000
375.627045	146.040000
375.720612	146.100000
375.814117	146.220000
375.907684	145.660000
376.001160	145.240000
376.094727	145.260000
376.188232	145.940000
376.281799	145.820000
376.375336	145.900000
376.468872	146.780000
376.562408	146.940000
376.655914	146.240000
376.749451	146.260000
376.842987	146.640000
376.936523	146.260000
377.030060	146.460000
377.123596	146.780000
377.217133	146.300000
377.310669	146.020000
377.404205	146.320000
377.497772	146.820000
377.591278	146.400000
377.684845	147.200000
377.778351	147.340000
377.871918	146.780000
377.965424	145.800000
378.058990	145.900000
378.152496	145.600000
378.246063	145.760000
378.339569	146.220000
378.433136	146.720000
378.526642	146.700000
378.620209	146.560000
378.713745	146.040000
378.807312	146.300000
378.900848	146.300000
378.994385	146.680000
379.087921	145.960000
379.181458	146.680000
379.274994	145.780000
379.368530	145.220000
379.462097	145.380000
379.555634	146.300000
379.649170	145.500000
379.742706	145.780000
379.836273	146.300000
379.929810	145.540000
380.023376	145.120000
380.116882	145.180000
380.210449	145.160000
380.303986	145.040000
380.397552	144.700000
380.491058	144.780000
380.584656	144.860000
380.678162	145.140000
380.771729	144.860000
380.865265	146.100000
380.958832	146.180000
381.052368	146.080000
381.145935	146.220000
381.239471	146.740000
381.333008	146.180000
381.426575	146.100000
381.520111	146.620000
381.613647	146.560000
381.707214	146.500000
381.800751	145.820000
381.894318	145.800000
381.987854	145.080000
382.081421	144.840000
382.174988	144.740000
382.268524	144.860000
382.362091	145.000000
382.455627	145.660000
382.549194	145.480000
382.642731	144.820000
382.736298	145.040000
382.829834	144.860000
382.923401	145.260000
383.016937	145.340000
383.110504	146.080000
383.204041	145.960000
383.297607	146.060000
383.391174	145.500000
383.484741	146.280000
383.578278	145.720000
383.671844	145.560000
383.765411	145.300000
383.858948	145.540000
383.952515	145.040000
384.046051	145.680000
384.139618	146.320000
384.233185	146.940000
384.326721	146.980000
384.420288	147.520000
384.513855	147.800000
384.607422	147.940000
384.700989	147.660000
384.794525	147.260000
384.888123	146.640000
384.981659	146.340000
385.075226	145.620000
385.168762	145.480000
385.262360	145.520000
385.355896	144.960000
385.449463	144.600000
385.542999	145.080000
385.636597	145.920000
385.730164	146.200000
385.823730	146.060000
385.917267	146.120000
386.010834	145.900000
386.104401	145.320000
386.197968	145.640000
386.291534	146.560000
386.385101	146.500000
386.478668	146.880000
386.572235	146.580000
386.665802	145.520000
386.759338	145.000000
386.852905	144.740000
386.946472	144.380000
387.040070	144.800000
387.133606	145.400000
387.227203	145.120000
387.320740	145.740000
387.414337	145.680000
387.507874	145.420000
387.601471	145.260000
387.695007	145.480000
387.788605	145.480000
387.882141	145.820000
387.975739	145.900000
388.069275	146.040000
388.162872	146.380000
388.256439	146.240000
388.350037	146.000000
388.443604	146.000000
388.537170	145.940000
388.630737	146.380000
388.724304	146.500000
388.817871	146.380000
388.911438	146.300000
389.005005	146.500000
389.098602	146.500000
389.192169	146.000000
389.285736	146.480000
389.379333	146.520000
389.472870	146.000000
389.566467	145.720000
389.660034	145.860000
389.753632	145.420000
389.847168	145.680000
389.940765	146.080000
390.034332	146.240000
390.127930	145.960000
390.221466	145.880000
390.315063	145.260000
390.408630	144.520000
390.502228	143.520000
390.595795	143.680000
390.689362	144.040000
390.782959	144.840000
390.876526	145.560000
390.970093	145.940000
391.063690	146.620000
391.157257	146.440000
391.250824	146.520000
391.344421	146.280000
391.437988	146.620000
391.531555	146.700000
391.625153	146.860000
391.718750	146.980000
391.812317	147.280000
391.905914	147.080000
391.999481	146.720000
392.093079	146.680000
392.186615	146.480000
392.280243	146.100000
392.373779	146.200000
392.467407	146.460000
392.560944	146.280000
392.654572	145.940000
392.748108	146.120000
392.841736	146.180000
392.935303	145.900000
393.028900	146.140000
393.122467	146.340000
393.216064	146.160000
393.309631	145.560000
393.403229	145.340000
393.496796	145.220000
393.590393	144.360000
393.683990	144.400000
393.777557	145.020000
393.871155	145.200000
393.964722	145.640000
394.058350	146.340000
394.151917	146.640000
394.245514	146.400000
394.339081	146.720000
394.432678	146.520000
394.526245	146.380000
394.619873	145.980000
394.713409	146.240000
394.807037	146.140000
394.900604	146.440000
394.994202	146.440000
395.087769	146.900000
395.181396	146.520000
395.274994	147.140000
395.368561	146.060000
395.462158	146.200000
395.555756	145.740000
395.649353	146.320000
395.742920	145.700000
395.836517	146.680000
395.930115	145.960000
396.023712	146.300000
396.117279	146.400000
396.210876	145.880000
396.304474	145.820000
396.398071	146.560000
396.491669	146.740000
396.585266	146.380000
396.678833	146.780000
396.772461	146.940000
396.866028	147.140000
396.959656	147.760000
397.053223	148.660000
397.146851	149.840000
397.240417	151.500000
397.334015	154.280000
397.427582	156.900000
397.521210	160.940000
397.614807	166.160000
397.708405	172.160000
397.802002	180.040000
397.895599	190.300000
397.989197	202.940000
398.082794	217.840000
398.176392	236.800000
398.269989	258.220000
398.363586	283.380000
398.457184	310.980000
398.550781	341.640000
398.644379	372.280000
398.737976	404.740000
398.831573	436.780000
398.925201	466.700000
399.018768	494.980000
399.112396	519.660000
399.205963	539.900000
399.299591	553.580000
399.393158	562.900000
399.486786	565.840000
399.580353	565.360000
399.673981	559.000000
399.767578	552.680000
399.861206	544.820000
399.954773	534.820000
400.048401	521.400000
400.141998	505.640000
400.235596	486.260000
400.329193	462.700000
400.422791	437.280000
400.516418	411.580000
400.610016	387.720000
400.703613	364.580000
400.797211	342.400000
400.890808	322.480000
400.984436	304.660000
401.078033	286.620000
401.171631	269.300000
401.265259	253.220000
401.358826	237.780000
401.452484	222.880000
401.546051	210.300000
401.639679	197.960000
401.733246	188.500000
401.826904	179.920000
401.920471	172.260000
402.014099	165.840000
402.107697	161.320000
402.201324	157.320000
402.294891	154.480000
402.388550	152.580000
402.482147	151.060000
402.575745	149.600000
402.669373	148.120000
402.762970	147.540000
402.856567	147.280000
402.950195	146.940000
403.043793	146.940000
403.137390	147.540000
403.231018	146.900000
403.324615	147.320000
403.418243	146.620000
403.511841	146.900000
403.605469	146.480000
403.699066	146.740000
403.792694	146.300000
403.886292	146.880000
403.979919	146.580000
404.073517	146.400000
404.167145	146.620000
404.260712	146.680000
404.354370	146.480000
404.447937	146.900000
404.541595	147.000000
404.635162	147.100000
404.728821	147.280000
404.822418	146.920000
404.916046	146.320000
405.009644	146.580000
405.103271	146.740000
405.196899	146.340000
405.290497	146.960000
405.384125	147.500000
405.477722	146.980000
405.571350	146.060000
405.664948	146.020000
405.758575	145.680000
405.852203	145.060000
405.945801	145.160000
406.039429	145.480000
406.133057	145.440000
406.226654	145.400000
406.320312	145.380000
406.413879	145.600000
406.507538	146.260000
406.601135	145.980000
406.694763	146.460000
406.788361	146.540000
406.882019	146.020000
406.975586	145.780000
407.069244	146.500000
407.162872	146.080000
407.256470	146.000000
407.350098	146.160000
407.443726	145.720000
407.537323	145.260000
407.630951	145.460000
407.724579	145.120000
407.818207	145.720000
407.911804	145.840000
408.005432	145.620000
408.099060	146.020000
408.192688	146.780000
408.286285	146.560000
408.379913	146.440000
408.473572	146.920000
408.567169	145.860000
408.660828	145.760000
408.754395	145.360000
408.848053	145.400000
408.941650	145.300000
409.035309	145.400000
409.128906	145.100000
409.222565	145.400000
409.316132	145.500000
409.409790	145.200000
409.503387	145.360000
409.597046	145.660000
409.690674	145.840000
409.784302	145.820000
409.877930	145.760000
409.971558	145.920000
410.065186	145.740000
410.158783	145.680000
410.252411	145.820000
410.346039	146.060000
410.439667	146.040000
410.533295	146.240000
410.626923	146.720000
410.720551	146.460000
410.814209	146.880000
410.907806	146.820000
411.001465	146.200000
411.095062	145.840000
411.188721	146.320000
411.282318	145.720000
411.375977	145.680000
411.469574	146.240000
411.563232	146.000000
411.656830	145.400000
411.750488	145.580000
411.844086	145.620000
411.937744	145.540000
412.031372	145.400000
412.125000	145.620000
412.218628	145.640000
412.312256	146.280000
412.405884	146.860000
412.499512	146.800000
412.593170	147.020000
412.686798	146.980000
412.780426	146.280000
412.874054	146.060000
412.967682	146.120000
413.061310	146.500000
413.154968	146.540000
413.248566	146.740000
413.342224	146.360000
413.435852	146.520000
413.529510	145.900000
413.623108	145.220000
413.716766	145.040000
413.810364	145.500000
413.904022	145.060000
413.997650	144.960000
414.091309	146.280000
414.184906	146.260000
414.278564	145.460000
414.372192	146.160000
414.465851	146.540000
414.559479	145.760000
414.653107	146.540000
414.746735	146.740000
414.840393	146.800000
414.934021	146.760000
415.027649	146.480000
415.121277	145.900000
415.214935	146.580000
415.308563	146.140000
415.402191	145.540000
415.495850	145.720000
415.589478	145.760000
415.683136	145.180000
415.776733	145.500000
415.870422	146.440000
415.964020	146.060000
416.057678	146.020000
416.151306	145.880000
416.244965	145.920000
416.338562	145.500000
416.432251	146.320000
416.525848	147.220000
416.619507	147.720000
416.713165	147.760000
416.806793	147.240000
416.900421	147.220000
416.994080	146.080000
417.087708	145.800000
417.181366	145.320000
417.274994	145.540000
417.368622	145.840000
417.462280	146.500000
417.555908	146.440000
417.649567	146.600000
417.743195	146.960000
417.836853	146.660000
417.930481	146.740000
418.024170	147.020000
418.117767	147.300000
418.211426	147.340000
418.305054	147.340000
418.398712	146.760000
418.492340	146.680000
418.585999	146.960000
418.679626	147.080000
418.773285	147.040000
418.866913	147.380000
418.960571	147.220000
419.054230	147.060000
419.147858	147.020000
419.241516	147.180000
419.335144	146.840000
419.428802	146.920000
419.522461	146.460000
419.616089	146.100000
419.709747	146.060000
419.803375	146.280000
419.897034	146.020000
419.990662	146.120000
420.084320	146.600000
420.177979	146.840000
420.271606	146.940000
420.365295	147.580000
420.458893	147.980000
420.552582	147.820000
420.646210	147.360000
420.739868	147.000000
420.833496	146.580000
420.927155	145.940000
421.020782	145.680000
421.114471	145.460000
421.208069	145.500000
421.301758	145.720000
421.395386	146.020000
421.489044	145.820000
421.582703	145.920000
421.676361	146.600000
421.769989	146.080000
421.863647	146.480000
421.957306	146.640000
422.050934	146.900000
422.144592	146.460000
422.238251	146.480000
422.331909	145.820000
422.425537	145.800000
422.519196	145.580000
422.612854	145.480000
422.706543	145.440000
422.800140	145.920000
422.893829	145.780000
422.987457	145.560000
423.081146	145.580000
423.174744	146.260000
423.268433	145.820000
423.362061	145.880000
423.455750	145.900000
423.549347	145.940000
423.643036	144.860000
423.736664	145.640000
423.830353	145.720000
423.924011	146.380000
424.017639	145.860000
424.111298	146.400000
424.204956	146.040000
424.298615	145.900000
424.392273	145.320000
424.485931	145.660000
424.579559	145.860000
424.673218	145.760000
424.766876	145.880000
424.860535	145.760000
424.954193	145.660000
425.047882	145.920000
425.141510	145.740000
425.235199	145.980000
425.328796	145.920000
425.422485	145.480000
425.516113	144.980000
425.609802	145.080000
425.703430	145.020000
425.797119	145.160000
425.890747	145.640000
425.984436	145.680000
426.078064	145.740000
426.171753	145.760000
426.265411	145.620000
426.359070	145.880000
426.452728	145.720000
426.546356	145.460000
426.640015	145.140000
426.733673	145.200000
426.827332	144.840000
426.920990	145.840000
427.014648	145.760000
427.108307	145.780000
427.201965	146.340000
427.295624	146.500000
427.389282	145.560000
427.482941	146.060000
427.576630	146.360000
427.670258	145.620000
427.763947	145.380000
427.857574	145.720000
427.951263	145.380000
428.044922	145.020000
428.138611	145.320000
428.232239	146.080000
428.325928	146.320000
428.419556	146.860000
428.513245	146.580000
428.606903	146.700000
428.700562	145.960000
428.794220	145.280000
428.887878	144.680000
428.981537	145.200000
429.075195	145.060000
429.168854	145.820000
429.262512	146.040000
429.356201	146.380000
429.449860	146.080000
429.543518	146.140000
429.637177	145.880000
429.730835	146.040000
429.824493	145.620000
429.918182	145.740000
430.011810	145.400000
430.105530	144.760000
430.199158	144.700000
430.292847	144.900000
430.386475	144.880000
430.480164	145.060000
430.573792	145.020000
430.667511	145.220000
430.761139	145.220000
430.854828	145.620000
430.948456	145.580000
431.042145	146.060000
431.135834	145.500000
431.229492	145.420000
431.323151	145.480000
431.416809	145.580000
431.510468	145.480000
431.604156	145.460000
431.697815	145.500000
431.791473	145.000000
431.885132	144.800000
431.978821	145.440000
432.072479	145.840000
432.166138	146.380000
432.259827	146.260000
432.353485	146.640000
432.447174	146.520000
432.540802	146.360000
432.634491	146.080000
432.728149	146.620000
432.821838	146.760000
432.915466	146.000000
433.009186	145.960000
433.102814	145.160000
433.196503	144.780000
433.290131	144.620000
433.383850	145.000000
433.477509	145.160000
433.571167	146.260000
433.664856	146.780000
433.758514	147.120000
433.852173	146.960000
433.945862	146.660000
434.039520	146.340000
434.133179	145.540000
434.226868	145.360000
434.320526	145.080000
434.414185	145.740000
434.507874	145.460000
434.601562	146.000000
434.695221	145.780000
434.788910	146.380000
434.882538	146.340000
434.976257	146.080000
435.069885	146.020000
435.163574	146.120000
435.257233	145.380000
435.350922	145.180000
435.444580	145.280000
435.538269	144.980000
435.631897	145.440000
435.725616	146.120000
435.819275	146.520000
435.912964	147.340000
436.006622	147.980000
436.100311	147.580000
436.193970	147.080000
436.287628	146.420000
436.381317	145.640000
436.474976	145.060000
436.568665	144.580000
436.662323	144.640000
436.756012	144.640000
436.849670	144.640000
436.943390	144.400000
437.037018	144.540000
437.130737	144.740000
437.224365	144.500000
437.318085	144.660000
437.411713	145.200000
437.505432	145.640000
437.599060	146.360000
437.692780	147.260000
437.786407	147.160000
437.880127	147.400000
437.973755	147.260000
438.067474	146.500000
438.161133	146.160000
438.254822	146.740000
438.348480	146.400000
438.442169	147.120000
438.535828	147.460000
438.629517	147.300000
438.723175	146.560000
438.816864	146.720000
438.910553	145.740000
439.004211	145.580000
439.097900	145.240000
439.191559	145.360000
439.285248	144.620000
439.378906	145.000000
439.472626	144.900000
439.566284	145.060000
439.659973	145.560000
439.753632	145.920000
439.847321	146.480000
439.940979	146.380000
440.034698	146.420000
440.128326	145.600000
440.222046	145.380000
440.315674	144.240000
440.409393	144.740000
440.503082	144.820000
440.596741	145.440000
440.690430	145.940000
440.784088	146.120000
440.877777	145.360000
440.971466	145.500000
441.065125	144.980000
441.158813	144.640000
441.252502	144.960000
441.346161	145.400000
441.439850	145.660000
441.533539	145.880000
441.627197	146.280000
441.720886	145.920000
441.814606	146.180000
441.908234	146.320000
442.001953	146.260000
442.095612	146.120000
442.189301	146.600000
442.282959	146.620000
442.376678	145.940000
442.470306	146.680000
442.564026	146.640000
442.657684	146.740000
442.751404	146.580000
442.845032	147.240000
442.938751	146.500000
443.032440	146.560000
443.126099	146.140000
443.219788	146.580000
443.313477	146.300000
443.407166	146.760000
443.500824	146.480000
443.594513	146.760000
443.688202	146.480000
443.781891	145.820000
443.875549	145.020000
443.969238	145.200000
444.062927	145.040000
444.156647	144.680000
444.250275	145.220000
444.343994	145.640000
444.437653	145.620000
444.531372	145.360000
444.625031	145.200000
444.718719	144.960000
444.812378	145.120000
444.906097	144.940000
444.999756	144.760000
445.093445	145.140000
445.187103	145.480000
445.280823	145.880000
445.374512	145.580000
445.468201	145.880000
445.561859	145.420000
445.655548	145.260000
445.749237	144.340000
445.842926	144.920000
445.936615	145.260000
446.030304	145.420000
446.123962	145.720000
446.217651	146.020000
446.311340	146.260000
446.405029	145.700000
446.498749	145.400000
446.592407	144.860000
446.686096	145.320000
446.779755	145.040000
446.873474	145.420000
446.967133	145.860000
447.060852	145.560000
447.154510	145.360000
447.248230	145.140000
447.341858	145.100000
447.435577	144.700000
447.529236	144.860000
447.622955	144.480000
447.716644	144.840000
447.810333	144.860000
447.904022	145.740000
447.997711	145.820000
448.091400	146.340000
448.185059	146.200000
448.278748	146.360000
448.372437	145.560000
448.466125	145.860000
448.559814	145.720000
448.653503	146.200000
448.747192	146.260000
448.840912	147.060000
448.934570	147.100000
449.028290	147.260000
449.121948	146.700000
449.215637	146.500000
449.309296	145.720000
449.403015	145.920000
449.496674	145.800000
449.590393	145.840000
449.684052	145.400000
449.777771	146.360000
449.871429	145.580000
449.965149	145.380000
450.058838	145.520000
450.152527	146.300000
450.246216	145.980000
450.339905	146.440000
450.433594	146.440000
450.527283	147.180000
450.620972	146.660000
450.714661	146.440000
450.808350	146.520000
450.902039	146.760000
450.995728	146.060000
451.089417	145.940000
451.183105	145.720000
451.276794	145.920000
451.370514	145.200000
451.464172	144.420000
451.557892	144.240000
451.651550	144.600000
451.745270	143.880000
451.838928	143.900000
451.932648	144.300000
452.026306	145.100000
452.120026	144.700000
452.213684	145.340000
452.307404	145.580000
452.401062	145.860000
452.494781	145.660000
452.588470	145.980000
452.682159	145.400000
452.775848	145.600000
452.869537	144.940000
452.963226	144.400000
453.056915	144.100000
453.150604	144.500000
453.244293	144.640000
453.337982	145.740000
453.431671	146.400000
453.525360	146.860000
453.619049	147.040000
453.712769	146.940000
453.806427	146.040000
453.900146	145.340000
453.993805	144.980000
454.087555	145.100000
454.181213	145.280000
454.274933	145.660000
454.368591	145.840000
454.462311	145.760000
454.555969	145.400000
454.649689	146.140000
454.743347	145.900000
454.837067	146.780000
454.930756	147.280000
455.024445	147.420000
455.118134	146.740000
455.211853	147.380000
455.305542	146.840000
455.399231	146.740000
455.492920	146.780000
455.586609	146.940000
455.680298	146.820000
455.773987	146.300000
455.867676	146.320000
455.961365	146.380000
456.055084	145.980000
456.148773	145.700000
456.242493	146.040000
456.336151	145.800000
456.429871	146.160000
456.523529	146.640000
456.617249	146.380000
456.710907	146.840000
456.804626	146.720000
456.898315	145.840000
456.992035	145.540000
457.085693	145.520000
457.179413	144.880000
457.273102	146.060000
457.366791	146.240000
457.460480	146.460000
457.554199	147.220000
457.647888	147.240000
457.741577	146.180000
457.835266	146.500000
457.928955	146.760000
458.022644	146.660000
458.116364	147.320000
458.210052	147.380000
458.303741	147.440000
458.397461	146.640000
458.491119	146.160000
458.584839	145.720000
458.678528	145.640000
458.772247	145.480000
458.865906	145.660000
458.959625	146.460000
459.053284	146.440000
459.147003	146.340000
459.240692	146.900000
459.334412	147.100000
459.428070	146.380000
459.521790	146.200000
459.615479	146.060000
459.709198	146.000000
459.802887	145.440000
459.896576	145.200000
459.990265	145.320000
460.083954	145.620000
460.177673	144.840000
460.271362	145.460000
460.365051	145.840000
460.458740	145.700000
460.552429	145.280000
460.646149	145.400000
460.739838	144.660000
460.833527	144.740000
460.927246	144.800000
461.020905	145.180000
461.114655	145.320000
461.208313	145.720000
461.302032	145.380000
461.395691	145.640000
461.489441	145.340000
461.583099	145.380000
461.676819	145.260000
461.770477	145.380000
461.864197	145.040000
461.957916	145.100000
462.051605	144.520000
462.145294	145.460000
462.238983	145.440000
462.332703	146.060000
462.426392	146.500000
462.520081	146.900000
462.613770	146.160000
462.707489	146.580000
462.801178	146.320000
462.894867	146.520000
462.988556	146.660000
463.082275	146.800000
463.175964	146.180000
463.269684	146.360000
463.363342	145.780000
463.457092	145.160000
463.550751	145.420000
463.644470	145.480000
463.738129	145.160000
463.831879	145.580000
463.925537	146.520000
464.019257	146.360000
464.112946	146.560000
464.206665	146.500000
464.300323	146.120000
464.394043	145.580000
464.487762	145.400000
464.581451	145.900000
464.675140	145.940000
464.768829	146.060000
464.862549	146.340000
464.956238	146.420000
465.049927	145.920000
465.143646	146.020000
465.237335	145.820000
465.331024	146.040000
465.424713	146.120000
465.518433	146.460000
465.612152	146.320000
465.705811	146.640000
465.799561	146.400000
465.893219	146.160000
465.986938	145.760000
466.080597	145.800000
466.174347	145.980000
466.268005	146.300000
466.361725	146.200000
466.455414	146.060000
466.549133	145.940000
466.642792	145.700000
466.736542	145.140000
466.830231	145.440000
466.923920	145.740000
467.017609	145.640000
467.111328	145.400000
467.205017	145.480000
467.298706	145.540000
467.392426	145.820000
467.486115	146.100000
467.579803	146.020000
467.673523	146.560000
467.767212	146.600000
467.860901	146.260000
467.954651	146.320000
468.048309	146.680000
468.142029	146.180000
468.235718	146.020000
468.329437	145.880000
468.423096	145.960000
468.516846	145.600000
468.610504	145.540000
468.704224	145.200000
468.797913	145.400000
468.891632	145.380000
468.985291	145.400000
469.079010	145.740000
469.172729	145.520000
469.266418	145.880000
469.360107	145.780000
469.453827	145.860000
469.547516	145.680000
469.641205	146.440000
469.734924	146.060000
469.828613	146.540000
469.922302	146.760000
470.016022	146.700000
470.109711	146.120000
470.203430	145.980000
470.297150	144.820000
470.390808	144.920000
470.484558	144.600000
470.578217	145.320000
470.671936	145.920000
470.765625	147.020000
470.859344	146.500000
470.953003	146.980000
471.046753	146.460000
471.140411	145.540000
471.234131	145.460000
471.327820	146.260000
471.421539	146.420000
471.515228	146.080000
471.608948	146.360000
471.702637	145.560000
471.796326	145.040000
471.890045	145.020000
471.983734	145.360000
472.077423	144.760000
472.171143	145.260000
472.264832	145.340000
472.358521	144.760000
472.452240	144.520000
472.545929	145.600000
472.639648	145.780000
472.733337	146.120000
472.827057	146.420000
472.920746	146.780000
473.014465	146.720000
473.108124	146.520000
473.201874	146.400000
473.295532	146.400000
473.389252	146.640000
473.482941	146.680000
473.576660	146.360000
473.670319	146.020000
473.764069	146.220000
473.857727	146.420000
473.951477	146.560000
474.045166	147.320000
474.138855	147.280000
474.232574	147.240000
474.326263	146.840000
474.419952	146.720000
474.513672	146.540000
474.607361	146.600000
474.701050	146.500000
474.794769	146.800000
474.888458	147.220000
474.982178	147.100000
475.075867	147.120000
475.169586	147.040000
475.263275	146.780000
475.356995	146.280000
475.450653	145.720000
475.544403	145.440000
475.638062	146.220000
475.731812	145.880000
475.825470	145.660000
475.919189	146.080000
476.012878	146.460000
476.106598	145.560000
476.200256	146.120000
476.294006	146.100000
476.387695	146.060000
476.481384	145.760000
476.575104	145.960000
476.668793	145.380000
476.762512	145.260000
476.856201	145.880000
476.949890	146.120000
477.043610	145.580000
477.137299	145.640000
477.230988	146.100000
477.324707	145.480000
477.418396	145.580000
477.512146	146.160000
477.605804	146.260000
477.699524	146.060000
477.793213	146.100000
477.886932	146.000000
477.980591	145.620000
478.074341	145.600000
478.167999	145.340000
478.261749	145.200000
478.355408	144.740000
478.449127	145.060000
478.542816	145.780000
478.636536	146.520000
478.730225	146.860000
478.823944	147.520000
478.917633	147.380000
479.011322	147.360000
479.105042	146.840000
479.198730	147.060000
479.292450	146.520000
479.386139	146.840000
479.479828	146.740000
479.573547	147.360000
479.667267	146.980000
479.760925	147.420000
479.854675	147.420000
479.948334	147.140000
480.042084	146.320000
480.135742	146.620000
480.229462	146.300000
480.323151	146.200000
480.416870	145.760000
480.510529	145.940000
480.604279	145.560000
480.697937	146.200000
480.791656	145.640000
480.885345	145.740000
480.979065	145.660000
481.072754	146.060000
481.166473	146.120000
481.260132	146.420000
481.353882	146.420000
481.447540	146.480000
481.541260	146.300000
481.635010	145.580000
481.728668	145.420000
481.822388	145.500000
481.916077	145.500000
482.009796	145.200000
482.103485	145.640000
482.197205	146.040000
482.290863	146.140000
482.384613	145.760000
482.478271	145.440000
482.571991	145.260000
482.665680	144.860000
482.759399	145.560000
482.853058	146.380000
482.946808	146.680000
483.040466	146.640000
483.134216	146.800000
483.227875	145.920000
483.321594	146.120000
483.415283	146.220000
483.509003	145.960000
483.602661	145.900000
483.696411	146.180000
483.790070	145.680000
483.883789	145.600000
483.977478	146.200000
484.071198	146.140000
484.164917	145.800000
484.258606	145.240000
484.352325	145.160000
484.445984	145.040000
484.539734	145.020000
484.633392	144.800000
484.727142	145.320000
484.820801	145.600000
484.914520	145.600000
485.008209	145.940000
485.101929	146.660000
485.195587	146.540000
485.289337	146.420000
485.382996	146.400000
485.476715	146.540000
485.570404	146.800000
485.664124	146.600000
485.757782	146.820000
485.851532	146.380000
485.945190	146.120000
486.038910	145.780000
486.132599	146.340000
486.226318	146.160000
486.319977	146.340000
486.413727	146.900000
486.507446	146.240000
486.601105	145.700000
486.694855	145.380000
486.788513	145.280000
486.882233	144.740000
486.975922	145.140000
487.069641	145.280000
487.163300	145.460000
487.257050	146.500000
487.350708	146.400000
487.444427	146.180000
487.538116	146.140000
487.631836	146.040000
487.725494	145.340000
487.819214	145.440000
487.912903	145.700000
488.006622	146.080000
488.100281	146.260000
488.194031	146.380000
488.287689	146.740000
488.381409	147.060000
488.475098	146.980000
488.568817	147.140000
488.662476	146.820000
488.756226	146.000000
488.849945	145.060000
488.943604	144.980000
489.037354	145.040000
489.131012	145.240000
489.224731	145.420000
489.318390	145.840000
489.412140	145.800000
489.505798	145.360000
489.599518	144.960000
489.693207	145.500000
489.786926	145.240000
489.880585	145.140000
489.974335	145.440000
490.067993	146.700000
490.161713	146.840000
490.255371	147.760000
490.349121	147.840000
490.442780	147.880000
490.536499	146.980000
490.630188	146.860000
490.723907	146.120000
490.817566	146.020000
490.911285	146.020000
491.004974	145.600000
491.098694	145.020000
491.192413	145.640000
491.286102	145.680000
491.379822	145.480000
491.473480	145.940000
491.567200	146.060000
491.660889	145.280000
491.754608	145.180000
491.848267	145.020000
491.941986	144.580000
492.035675	144.660000
492.129395	145.360000
492.223053	145.320000
492.316772	145.860000
492.410461	145.960000
492.504181	146.060000
492.597839	145.440000
492.691559	145.640000
492.785248	145.580000
492.878967	145.760000
492.972626	145.540000
493.066345	145.840000
493.160034	145.240000
493.253754	145.080000
493.347412	144.740000
493.441132	145.020000
493.534882	145.500000
493.628540	146.320000
493.722260	146.340000
493.815918	146.860000
493.909668	147.340000
494.003326	147.320000
494.097046	147.060000
494.190704	146.560000
494.284454	146.380000
494.378113	146.080000
494.471832	145.960000
494.565491	145.700000
494.659210	146.420000
494.752899	146.320000
494.846619	146.080000
494.940277	145.900000
495.033997	145.860000
495.127686	145.160000
495.221405	145.160000
495.315063	145.160000
495.408783	144.920000
495.502441	145.220000
495.596191	145.780000
495.689850	145.600000
495.783569	145.720000
495.877228	145.900000
495.970947	145.340000
496.064697	145.040000
496.158356	145.660000
496.252075	145.780000
496.345734	145.580000
496.439453	146.580000
496.533142	146.740000
496.626862	146.880000
496.720520	146.540000
496.814240	146.780000
496.907898	146.220000
497.001617	146.360000
497.095306	145.420000
497.189026	145.380000
497.282684	145.440000
497.376404	145.840000
497.470062	145.420000
497.563782	145.900000
497.657471	146.100000
497.751190	145.900000
497.844849	145.500000
497.938568	146.040000
498.032227	145.920000
498.125946	145.560000
498.219635	145.500000
498.313354	145.940000
498.407074	145.580000
498.500732	145.840000
498.594452	146.320000
498.688110	146.120000
498.781830	145.480000
498.875519	145.480000
498.969238	145.020000
499.062897	145.040000
499.156616	145.760000
499.250275	145.820000
499.343994	145.600000
499.437653	146.120000
499.531372	145.860000
499.625061	146.140000
499.718781	146.320000
499.812439	146.800000
499.906158	146.300000
499.999817	146.440000
500.093536	145.820000
500.187195	145.900000
500.280914	145.880000
500.374573	146.060000
500.468323	145.680000
500.561981	145.920000
500.655701	145.680000
500.749420	145.560000
500.843079	145.860000
500.936798	146.180000
501.030457	146.340000
501.124176	146.580000
501.217834	146.240000
501.311554	145.880000
501.405212	145.680000
501.498962	144.860000
501.592621	144.800000
501.686340	145.500000
501.779999	145.700000
501.873718	145.920000
501.967377	146.540000
502.061096	146.620000
502.154755	146.100000
502.248474	146.420000
502.342133	146.200000
502.435852	145.820000
502.529510	146.300000
502.623230	147.120000
502.716888	146.600000
502.810608	146.820000
502.904266	147.280000
502.997986	146.580000
503.091705	145.280000
503.185364	145.360000
503.279083	145.440000
503.372772	145.320000
503.466492	145.080000
503.560150	145.580000
503.653870	145.640000
503.747528	145.620000
503.841248	145.500000
503.934906	145.600000
504.028625	145.320000
504.122284	145.280000
504.216003	145.840000
504.309662	145.560000
504.403381	146.000000
504.497040	146.140000
504.590759	145.960000
504.684418	145.940000
504.778137	146.600000
504.871796	146.940000
504.965515	146.700000
505.059174	146.840000
505.152893	146.060000
505.246521	145.300000
505.340240	144.940000
505.433899	145.080000
505.527618	145.260000
505.621338	145.560000
505.714996	145.460000
505.808716	145.080000
505.902374	146.020000
505.996094	146.080000
506.089752	145.740000
506.183472	146.060000
506.277130	146.180000
506.370850	145.680000
506.464508	145.500000
506.558228	145.880000
506.651886	145.740000
506.745605	146.060000
506.839264	145.960000
506.932983	146.100000
507.026611	145.660000
507.120331	146.220000
507.213989	145.580000
507.307709	145.640000
507.401367	145.720000
507.495087	146.780000
507.588745	146.180000
507.682465	147.180000
507.776123	147.100000
507.869843	147.020000
507.963531	146.380000
508.057190	146.660000
508.150909	145.840000
508.244568	145.900000
508.338287	145.580000
508.431946	145.240000
508.525665	145.040000
508.619324	145.100000
508.713013	145.340000
508.806671	145.760000
508.900391	146.840000
508.994049	147.080000
509.087769	146.860000
509.181427	146.580000
509.275146	146.400000
509.368774	145.300000
509.462494	145.100000
509.556152	145.520000
509.649872	145.860000
509.743530	145.760000
509.837250	146.160000
509.930878	146.220000
510.024597	146.040000
510.118256	145.640000
510.211975	145.740000
510.305695	145.660000
510.399353	145.720000
510.493042	146.380000
510.586700	146.500000
510.680420	146.940000
510.774078	146.580000
510.867798	147.000000
510.961426	146.220000
511.055145	146.200000
511.148804	145.660000
511.242523	146.380000
511.336151	146.440000
511.429871	146.740000
511.523529	146.860000
511.617249	146.640000
511.710876	145.940000
511.804596	145.300000
511.898254	145.060000
511.991974	145.040000
512.085632	144.940000
512.179321	145.520000
512.272949	145.820000
512.366699	146.560000
512.460327	146.520000
512.554077	147.700000
512.647766	147.660000
512.741394	147.520000
512.835144	147.260000
512.928772	147.180000
513.022461	146.600000
513.116150	146.200000
513.209839	146.740000
513.303467	146.440000
513.397217	146.060000
513.490845	145.720000
513.584595	145.440000
513.678223	144.680000
513.771912	144.400000
513.865601	145.040000
513.959290	144.700000
514.052917	145.120000
514.146667	145.900000
514.240295	146.080000
514.333984	146.180000
514.427673	146.460000
514.521362	146.720000
514.614990	146.040000
514.708740	146.180000
514.802368	146.140000
514.896057	146.540000
514.989746	147.000000
515.083435	147.260000
515.177124	147.660000
515.270752	147.220000
515.364502	147.120000
515.458130	146.760000
515.551819	146.320000
515.645508	146.140000
515.739197	146.400000
515.832825	146.360000
515.926575	145.720000
516.020203	146.100000
516.113892	146.320000
516.207520	146.060000
516.301270	145.740000
516.394897	146.160000
516.488586	146.500000
516.582275	145.980000
516.675964	145.580000
516.769592	145.680000
516.863281	146.300000
516.956970	146.420000
517.050659	146.440000
517.144287	146.700000
517.238037	146.760000
517.331665	145.840000
517.425354	145.420000
517.519043	145.400000
517.612732	145.760000
517.706421	145.640000
517.800049	145.780000
517.893738	145.420000
517.987427	145.480000
518.081116	145.420000
518.174744	145.220000
518.268433	145.400000
518.362122	146.020000
518.455811	145.860000
518.549438	146.240000
518.643127	147.300000
518.736816	146.900000
518.830505	146.560000
518.924133	146.500000
519.017822	146.160000
519.111511	145.540000
519.205200	146.060000
519.298828	146.080000
519.392517	145.960000
519.486206	146.140000
519.579895	146.160000
519.673523	145.860000
519.767212	145.840000
519.860901	146.420000
519.954590	146.100000
520.048279	145.540000
520.141907	145.380000
520.235596	146.020000
520.329224	145.860000
520.422974	145.780000
520.516602	146.020000
520.610291	145.920000
520.703918	145.800000
520.797607	145.580000
520.891296	145.680000
520.984985	145.800000
521.078613	146.500000
521.172302	145.600000
521.265930	146.560000
521.359680	147.100000
521.453308	147.220000
521.546997	146.860000
521.640625	147.380000
521.734314	146.400000
521.827942	145.840000
521.921692	145.980000
522.015320	146.020000
522.109009	145.740000
522.202698	145.720000
522.296326	145.860000
522.390015	146.120000
522.483704	146.240000
522.577393	146.060000
522.671021	146.020000
522.764709	145.580000
522.858337	145.740000
522.952026	145.400000
523.045654	146.180000
523.139404	146.480000
523.233032	146.680000
523.326721	146.200000
523.420349	146.180000
523.514038	145.360000
523.607666	145.740000
523.701355	145.320000
523.795044	145.340000
523.888733	145.420000
523.982361	145.700000
524.076050	145.060000
524.169678	145.940000
524.263367	145.540000
524.356995	145.400000
524.450684	145.480000
524.544373	145.420000
524.638062	145.060000
524.731750	145.640000
524.825378	145.740000
524.919067	145.200000
525.012695	145.180000
525.106384	144.940000
525.200012	144.580000
525.293701	144.480000
525.387329	145.060000
525.481018	145.280000
525.574646	145.540000
525.668396	145.800000
525.762024	146.120000
525.855713	146.140000
525.949341	146.100000
526.043030	146.220000
526.136658	145.880000
526.230347	145.900000
526.323975	145.780000
526.417664	145.720000
526.511292	145.820000
526.604980	145.940000
526.698608	145.660000
526.792297	145.880000
526.885925	146.080000
526.979614	146.080000
527.073303	145.900000
527.166931	145.820000
527.260620	145.900000
527.354309	146.400000
527.447998	146.320000
527.541626	146.040000
527.635315	146.380000
527.728943	146.920000
527.822632	146.840000
527.916260	146.860000
528.009949	147.520000
528.103577	147.220000
528.197266	146.260000
528.290894	146.120000
528.384583	145.700000
528.478210	145.300000
528.571899	145.500000
528.665527	146.140000
528.759216	145.840000
528.852844	146.440000
528.946533	146.720000
529.040161	146.440000
529.133850	145.620000
529.227478	146.200000
529.321167	146.060000
529.414856	146.100000
529.508484	146.820000
529.602173	146.820000
529.695801	146.340000
529.789490	146.240000
529.883057	146.160000
529.976746	145.980000
530.070374	146.440000
530.164062	146.120000
530.257690	146.320000
530.351379	146.760000
530.445007	146.460000
530.538696	145.780000
530.632324	146.220000
530.726013	146.160000
530.819641	145.700000
530.913330	145.880000
531.006958	146.140000
531.100647	146.200000
531.194275	146.080000
531.287964	145.860000
531.381592	145.760000
531.475220	146.120000
531.568848	146.120000
531.662537	145.860000
531.756226	146.560000
531.849854	146.220000
531.943542	146.180000
532.037170	145.620000
532.130859	146.160000
532.224487	145.240000
532.318176	145.200000
532.411804	145.540000
532.505432	146.020000
532.599060	145.560000
532.692749	145.800000
532.786377	146.440000
532.880066	145.760000
532.973694	145.120000
533.067383	145.180000
533.161011	144.960000
533.254639	144.600000
533.348267	144.440000
533.441956	144.780000
533.535583	144.460000
533.629272	144.880000
533.722900	144.120000
533.816589	144.540000
533.910156	144.860000
534.003845	145.120000
534.097534	145.360000
534.191162	146.300000
534.284851	146.300000
534.378479	145.880000
534.472107	145.700000
534.565735	145.460000
534.659424	145.600000
534.753052	145.820000
534.846741	145.960000
534.940369	146.580000
535.033997	146.500000
535.127625	146.180000
535.221313	146.460000
535.314941	146.280000
535.408630	145.520000
535.502197	145.960000
535.595886	145.820000
535.689514	145.480000
535.783203	146.160000
535.876831	146.800000
535.970459	146.380000
536.064087	146.380000
536.157776	146.060000
536.251404	145.840000
536.345093	145.360000
536.438721	145.660000
536.532349	146.000000
536.626038	146.120000
536.719666	146.280000
536.813293	146.340000
536.906921	146.160000
537.000610	146.020000
537.094238	145.980000
537.187866	145.640000
537.281494	145.760000
537.375183	146.120000
537.468811	146.240000
537.562439	146.220000
537.656067	146.280000
537.749756	146.260000
537.843384	146.100000
537.937012	146.020000
538.030640	145.760000
538.124329	145.480000
538.217896	145.920000
538.311584	145.900000
538.405212	145.820000
538.498901	146.300000
538.592468	146.980000
538.686157	146.020000
538.779785	145.540000
538.873413	145.420000
538.967102	145.020000
539.060730	144.500000
539.154358	145.140000
539.247986	145.660000
539.341675	145.780000
539.435242	146.100000
539.528931	146.260000
539.622559	146.220000
539.716187	146.460000
539.809814	146.360000
539.903503	146.280000
539.997070	145.860000
540.090759	145.960000
540.184387	145.600000
540.278015	146.220000
540.371643	146.440000
540.465332	146.740000
540.558899	146.260000
540.652588	146.540000
540.746216	146.120000
540.839844	146.400000
540.933472	146.320000
541.027100	146.380000
541.120728	146.180000
541.214417	146.280000
541.308044	146.000000
541.401672	145.800000
541.495300	145.760000
541.588928	145.880000
541.682617	145.540000
541.776184	145.080000
541.869873	145.400000
541.963440	145.720000
542.057129	145.280000
542.150757	145.400000
542.244385	145.280000
542.338013	144.980000
542.431641	144.880000
542.525269	145.120000
542.618958	145.680000
542.712524	146.360000
542.806213	146.380000
542.899780	146.480000
542.993469	146.040000
543.087036	145.300000
543.180725	144.540000
543.274292	144.980000
543.367981	145.120000
543.461548	145.720000
543.555237	145.860000
543.648926	146.380000
543.742493	146.920000
543.836182	146.940000
543.929749	146.600000
544.023437	147.000000
544.117004	147.140000
544.210693	146.540000
544.304260	146.720000
544.397949	146.700000
544.491516	146.620000
544.585205	146.360000
544.678772	145.920000
544.772461	145.740000
544.866028	145.660000
544.959717	145.760000
545.053284	145.620000
545.146973	146.080000
545.240540	145.980000
545.334229	146.520000
545.427795	146.220000
545.521423	146.440000
545.615051	146.400000
545.708679	146.880000
545.802307	146.600000
545.895935	146.700000
545.989624	147.500000
546.083191	147.020000
546.176880	146.460000
546.270447	146.000000
546.364136	146.400000
546.457703	145.600000
546.551331	145.840000
546.644958	146.400000
546.738586	147.020000
546.832214	146.420000
546.925842	146.540000
547.019409	147.140000
547.113098	146.460000
547.206665	146.180000
547.300354	146.300000
547.393921	146.400000
547.487549	146.200000
547.581177	146.360000
547.674805	146.180000
547.768433	145.640000
547.862061	145.660000
547.955627	145.280000
548.049316	145.500000
548.142883	145.860000
548.236572	146.360000
548.330139	146.620000
548.423767	146.620000
548.517456	146.640000
548.611023	146.720000
548.704651	146.140000
548.798279	145.940000
548.891907	146.280000
548.985474	146.040000
549.079163	146.100000
549.172729	146.400000
549.266357	145.800000
549.359985	145.660000
549.453613	145.300000
549.547180	144.920000
549.640869	145.360000
549.734436	145.500000
549.828064	145.920000
549.921631	146.140000
550.015320	146.220000
550.108887	146.220000
550.202515	146.120000
550.296143	145.600000
550.389771	145.680000
550.483337	145.600000
550.576965	145.780000
550.670593	146.320000
550.764221	146.500000
550.857849	146.580000
550.951477	146.300000
551.045105	145.520000
551.138672	145.400000
551.232300	145.040000
551.325928	145.320000
551.419556	145.700000
551.513123	146.100000
551.606750	145.820000
551.700378	146.040000
551.794006	145.580000
551.887573	145.420000
551.981201	145.820000
552.074768	146.080000
552.168457	145.720000
552.262024	146.700000
552.355652	146.740000
552.449219	146.900000
552.542847	146.740000
552.636475	146.880000
552.730103	145.900000
552.823669	145.920000
552.917297	145.140000
553.010864	145.040000
553.104553	145.200000
553.198181	145.180000
553.291748	145.380000
553.385376	145.800000
553.478943	145.960000
553.572571	146.100000
553.666199	146.420000
553.759827	146.420000
553.853394	145.960000
553.947021	145.900000
554.040588	145.960000
554.134216	146.080000
554.227783	146.700000
554.321411	147.500000
554.415039	147.320000
554.508667	147.040000
554.602234	147.100000
554.695862	146.100000
554.789429	146.040000
554.883057	146.300000
554.976624	146.260000
555.070251	145.780000
555.163818	145.760000
555.257507	145.480000
555.351074	145.400000
555.444702	146.660000
555.538330	146.300000
555.631897	146.920000
555.725525	146.740000
555.819092	146.460000
555.912720	145.000000
556.006287	145.760000
556.099915	145.380000
556.193481	145.660000
556.287109	146.020000
556.380676	146.220000
556.474304	146.340000
556.567871	146.320000
556.661499	145.960000
556.755066	146.160000
556.848694	146.060000
556.942261	145.720000
557.035889	146.180000
557.129517	146.260000
557.223145	146.120000
557.316711	146.360000
557.410339	146.440000
557.503906	145.780000
557.597473	146.300000
557.691040	146.240000
557.784668	146.500000
557.878296	146.560000
557.971863	146.880000
558.065491	146.820000
558.159058	146.600000
558.252686	147.100000
558.346252	147.520000
558.439880	147.080000
558.533447	146.280000
558.627075	146.200000
558.720642	145.400000
558.814270	145.220000
558.907837	145.420000
559.001465	145.640000
559.095032	146.300000
559.188660	146.660000
559.282227	145.840000
559.375854	146.400000
559.469360	146.420000
559.562988	146.180000
559.656555	145.880000
559.750183	146.400000
559.843750	146.420000
559.937378	146.320000
560.030945	146.260000
560.124573	0.000000
560.218140	0.000000
560.311707	0.000000
560.405334	0.000000
560.498901	0.000000
560.592529	0.000000
560.686096	0.000000
560.779724	0.000000
560.873291	0.000000
560.966858	0.000000
561.060425	0.000000
561.154053	0.000000
561.247620	0.000000
561.341248	0.000000
561.434814	0.000000
561.528381	0.000000
561.621948	0.000000
561.715576	0.000000
561.809143	0.000000
561.902771	0.000000
561.996277	0.000000
562.089905	0.000000
562.183472	0.000000
562.277100	0.000000
