Model Number: SPM-002-B   
Serial Number: 70087108
Firmware Version: 004.15.4
Exposure Time: 100000.000000us
Data Taken on: 11-12-2020 18:45:01.584
Wavelength	Amplitude
221.570786	0.000000
221.663406	0.000000
221.756027	0.000000
221.848648	0.000000
221.941269	0.000000
222.033905	0.000000
222.126526	0.000000
222.219162	0.000000
222.311798	0.000000
222.404419	0.000000
222.497055	0.000000
222.589676	0.000000
222.682312	0.000000
222.774933	0.000000
222.867569	0.000000
222.960205	0.000000
223.052841	0.000000
223.145462	0.000000
223.238098	0.000000
223.330734	0.000000
223.423386	0.000000
223.516022	0.000000
223.608658	0.000000
223.701309	0.000000
223.793945	0.000000
223.886581	0.000000
223.979218	0.000000
224.071869	0.000000
224.164505	0.000000
224.257156	0.000000
224.349792	0.000000
224.442444	0.000000
224.535095	0.000000
224.627747	0.000000
224.720398	0.000000
224.813034	0.000000
224.905685	0.000000
224.998337	145.200000
225.090988	144.940000
225.183640	144.880000
225.276291	144.160000
225.368942	144.700000
225.461594	145.360000
225.554245	145.440000
225.646912	145.620000
225.739578	146.440000
225.832230	146.680000
225.924896	145.800000
226.017548	146.260000
226.110199	146.600000
226.202866	146.200000
226.295532	146.000000
226.388184	145.920000
226.480850	145.240000
226.573517	144.660000
226.666168	144.940000
226.758835	145.060000
226.851501	145.860000
226.944183	146.160000
227.036850	145.960000
227.129517	145.960000
227.222183	145.840000
227.314850	145.440000
227.407516	145.780000
227.500198	146.700000
227.592865	146.460000
227.685532	146.400000
227.778214	146.260000
227.870880	146.540000
227.963562	146.520000
228.056229	146.820000
228.148926	146.800000
228.241592	147.320000
228.334274	146.820000
228.426956	146.640000
228.519638	146.540000
228.612305	146.320000
228.704987	146.600000
228.797668	146.800000
228.890350	146.520000
228.983032	145.940000
229.075714	146.540000
229.168396	145.920000
229.261108	145.520000
229.353790	145.420000
229.446472	146.160000
229.539169	145.980000
229.631851	145.680000
229.724533	145.820000
229.817230	146.220000
229.909912	146.640000
230.002609	146.640000
230.095306	146.840000
230.187988	146.740000
230.280685	146.300000
230.373383	145.620000
230.466095	145.300000
230.558792	145.580000
230.651474	145.600000
230.744171	145.600000
230.836868	145.200000
230.929581	145.880000
231.022278	145.800000
231.114975	146.000000
231.207672	146.080000
231.300369	146.700000
231.393082	146.380000
231.485779	146.260000
231.578506	146.000000
231.671204	145.820000
231.763916	145.800000
231.856613	145.780000
231.949326	145.740000
232.042023	145.840000
232.134735	146.260000
232.227448	145.740000
232.320160	146.040000
232.412872	146.300000
232.505585	147.040000
232.598297	147.300000
232.691010	147.460000
232.783722	146.820000
232.876450	147.300000
232.969162	146.640000
233.061874	145.760000
233.154587	145.660000
233.247314	145.860000
233.340027	145.060000
233.432739	145.700000
233.525467	145.740000
233.618179	146.160000
233.710907	145.960000
233.803635	146.700000
233.896347	146.060000
233.989090	146.720000
234.081818	146.500000
234.174545	147.000000
234.267258	146.200000
234.359985	146.340000
234.452713	146.140000
234.545441	146.140000
234.638168	145.620000
234.730896	146.100000
234.823639	145.880000
234.916367	146.340000
235.009094	146.260000
235.101822	146.480000
235.194580	146.060000
235.287308	146.180000
235.380051	145.620000
235.472778	145.920000
235.565521	146.320000
235.658249	146.420000
235.750992	146.620000
235.843719	146.560000
235.936462	146.760000
236.029205	146.300000
236.121948	146.200000
236.214691	146.300000
236.307449	147.020000
236.400192	146.720000
236.492935	146.680000
236.585678	146.900000
236.678421	146.720000
236.771164	146.440000
236.863907	146.740000
236.956665	147.020000
237.049408	148.540000
237.142151	148.180000
237.234909	148.680000
237.327652	148.540000
237.420410	148.200000
237.513153	147.280000
237.605927	147.400000
237.698669	146.780000
237.791428	146.000000
237.884186	146.640000
237.976944	145.900000
238.069702	146.360000
238.162445	146.060000
238.255203	146.380000
238.347961	146.420000
238.440720	146.600000
238.533478	146.200000
238.626266	146.080000
238.719025	146.320000
238.811783	145.800000
238.904541	145.600000
238.997314	145.820000
239.090073	145.580000
239.182831	145.920000
239.275604	146.980000
239.368362	146.900000
239.461136	146.700000
239.553909	147.100000
239.646667	146.600000
239.739441	145.980000
239.832214	146.260000
239.925003	146.300000
240.017761	146.800000
240.110535	147.460000
240.203308	146.960000
240.296082	146.980000
240.388855	146.840000
240.481628	146.740000
240.574417	146.560000
240.667191	146.800000
240.759964	146.540000
240.852737	146.740000
240.945526	146.140000
241.038315	145.920000
241.131088	145.940000
241.223877	146.500000
241.316650	146.120000
241.409439	146.900000
241.502228	146.540000
241.595001	147.060000
241.687790	146.520000
241.780579	146.740000
241.873367	146.560000
241.966141	147.080000
242.058929	146.160000
242.151718	146.540000
242.244507	146.940000
242.337311	146.260000
242.430099	146.620000
242.522903	147.000000
242.615692	146.700000
242.708481	146.600000
242.801270	147.040000
242.894073	146.580000
242.986862	146.660000
243.079651	147.040000
243.172455	146.600000
243.265244	146.860000
243.358063	146.180000
243.450867	146.780000
243.543655	146.600000
243.636459	147.080000
243.729263	147.200000
243.822067	147.680000
243.914856	147.560000
244.007660	147.600000
244.100464	147.300000
244.193268	146.640000
244.286072	146.820000
244.378876	146.160000
244.471680	145.860000
244.564499	146.160000
244.657318	146.880000
244.750122	147.020000
244.842926	146.820000
244.935745	147.360000
245.028549	146.920000
245.121368	146.580000
245.214172	146.180000
245.306992	146.620000
245.399796	146.280000
245.492615	146.560000
245.585434	146.300000
245.678253	146.780000
245.771072	146.640000
245.863892	146.900000
245.956711	147.280000
246.049530	147.320000
246.142349	146.720000
246.235168	146.760000
246.327988	146.980000
246.420807	146.360000
246.513626	146.480000
246.606445	146.480000
246.699280	146.500000
246.792099	146.280000
246.884918	146.120000
246.977753	145.560000
247.070587	145.880000
247.163422	145.680000
247.256241	145.380000
247.349075	145.860000
247.441895	146.100000
247.534729	145.900000
247.627563	145.800000
247.720383	146.480000
247.813217	146.300000
247.906052	146.500000
247.998886	146.360000
248.091736	146.140000
248.184570	145.700000
248.277405	145.580000
248.370239	146.420000
248.463074	147.400000
248.555908	148.000000
248.648743	147.720000
248.741592	147.800000
248.834427	147.080000
248.927261	145.860000
249.020111	146.140000
249.112946	146.740000
249.205795	146.720000
249.298630	146.800000
249.391495	147.120000
249.484344	146.580000
249.577179	146.380000
249.670029	146.360000
249.762878	146.760000
249.855728	147.400000
249.948563	147.220000
250.041412	146.660000
250.134262	147.220000
250.227112	147.080000
250.319962	146.640000
250.412827	147.080000
250.505692	146.960000
250.598541	146.740000
250.691391	146.440000
250.784241	146.400000
250.877106	146.580000
250.969955	146.720000
251.062805	146.740000
251.155670	147.080000
251.248520	146.860000
251.341385	146.840000
251.434235	146.760000
251.527100	146.440000
251.619965	145.920000
251.712814	146.840000
251.805695	146.720000
251.898560	147.100000
251.991425	147.680000
252.084290	148.160000
252.177155	147.260000
252.270020	147.020000
252.362885	146.980000
252.455750	146.700000
252.548615	146.420000
252.641479	146.520000
252.734360	146.260000
252.827240	146.180000
252.920105	146.320000
253.012970	145.800000
253.105850	145.700000
253.198715	145.880000
253.291595	146.380000
253.384460	145.920000
253.477341	146.020000
253.570221	146.460000
253.663086	146.380000
253.755966	146.540000
253.848846	146.800000
253.941727	147.520000
254.034592	147.340000
254.127472	146.840000
254.220367	146.580000
254.313248	146.720000
254.406128	146.140000
254.499008	146.400000
254.591904	147.700000
254.684784	147.860000
254.777664	147.420000
254.870544	146.980000
254.963440	146.760000
255.056335	146.340000
255.149216	145.700000
255.242111	146.540000
255.334991	147.300000
255.427887	147.120000
255.520767	147.120000
255.613663	147.500000
255.706558	146.640000
255.799438	146.480000
255.892334	146.480000
255.985229	146.100000
256.078125	146.020000
256.171021	145.920000
256.263916	146.280000
256.356812	146.340000
256.449707	146.620000
256.542603	146.500000
256.635498	147.280000
256.728394	146.880000
256.821289	146.800000
256.914215	147.000000
257.007080	147.260000
257.100006	147.320000
257.192932	147.740000
257.285828	147.860000
257.378723	147.500000
257.471619	147.120000
257.564545	146.300000
257.657440	146.320000
257.750336	146.700000
257.843262	146.280000
257.936157	147.120000
258.029053	147.580000
258.121979	147.360000
258.214874	147.060000
258.307800	147.220000
258.400696	146.180000
258.493622	146.060000
258.586517	145.360000
258.679443	145.480000
258.772339	145.480000
258.865265	145.480000
258.958160	145.200000
259.051086	146.180000
259.144012	145.980000
259.236938	146.440000
259.329834	146.660000
259.422791	146.440000
259.515717	145.680000
259.608612	145.500000
259.701538	145.820000
259.794464	145.920000
259.887390	146.140000
259.980316	146.260000
260.073212	146.160000
260.166138	145.260000
260.259064	145.480000
260.351990	146.060000
260.444916	146.420000
260.537842	147.100000
260.630768	147.740000
260.723694	147.780000
260.816620	147.500000
260.909546	147.240000
261.002472	146.500000
261.095398	145.880000
261.188354	145.880000
261.281281	145.620000
261.374207	145.500000
261.467133	146.300000
261.560089	146.620000
261.653015	146.140000
261.745972	146.860000
261.838867	147.580000
261.931824	147.700000
262.024780	147.400000
262.117706	147.800000
262.210663	147.540000
262.303589	147.100000
262.396515	146.980000
262.489471	147.800000
262.582397	147.280000
262.675354	146.900000
262.768280	146.720000
262.861237	146.560000
262.954163	146.460000
263.047119	146.920000
263.140045	146.820000
263.233002	147.020000
263.325958	146.780000
263.418884	146.080000
263.511841	146.120000
263.604797	145.920000
263.697723	146.060000
263.790680	145.880000
263.883636	146.240000
263.976593	145.760000
264.069550	146.120000
264.162476	145.560000
264.255463	145.680000
264.348419	145.640000
264.441376	146.260000
264.534332	145.960000
264.627289	146.540000
264.720245	146.940000
264.813202	146.440000
264.906158	146.440000
264.999115	146.980000
265.092072	146.580000
265.185028	146.980000
265.277985	147.380000
265.370941	147.260000
265.463898	147.040000
265.556854	146.900000
265.649811	145.720000
265.742798	146.040000
265.835754	145.940000
265.928711	146.240000
266.021667	146.360000
266.114655	146.780000
266.207611	146.920000
266.300568	146.560000
266.393585	145.900000
266.486511	146.280000
266.579498	145.920000
266.672485	145.580000
266.765442	145.600000
266.858429	146.220000
266.951385	145.620000
267.044342	145.680000
267.137329	145.520000
267.230316	145.900000
267.323273	145.280000
267.416260	146.320000
267.509216	146.340000
267.602203	146.400000
267.695160	146.720000
267.788147	147.120000
267.881134	146.180000
267.974091	146.360000
268.067078	146.220000
268.160065	145.860000
268.253052	145.540000
268.346008	145.580000
268.438995	145.460000
268.531982	145.740000
268.624969	145.640000
268.717987	146.080000
268.810944	146.460000
268.903961	146.840000
268.996948	146.600000
269.089905	146.960000
269.182892	146.780000
269.275879	146.500000
269.368866	145.840000
269.461853	146.000000
269.554871	145.480000
269.647858	145.720000
269.740845	146.220000
269.833832	146.760000
269.926819	146.380000
270.019806	146.680000
270.112793	146.380000
270.205811	146.280000
270.298798	146.140000
270.391785	146.940000
270.484772	146.660000
270.577789	146.700000
270.670776	146.380000
270.763763	146.440000
270.856750	146.100000
270.949768	145.880000
271.042786	145.760000
271.135773	145.800000
271.228790	145.980000
271.321808	145.780000
271.414795	145.700000
271.507782	145.640000
271.600800	145.400000
271.693817	145.680000
271.786804	146.400000
271.879822	146.900000
271.972809	146.840000
272.065826	147.480000
272.158844	146.960000
272.251831	146.980000
272.344849	146.820000
272.437866	146.820000
272.530853	146.580000
272.623871	146.780000
272.716888	145.820000
272.809906	146.100000
272.902893	145.940000
272.995911	145.400000
273.088928	145.200000
273.181946	145.540000
273.274963	144.960000
273.367981	145.120000
273.460999	145.680000
273.554047	146.200000
273.647003	146.860000
273.740051	147.160000
273.833069	147.400000
273.926086	147.580000
274.019135	147.160000
274.112152	146.720000
274.205170	146.580000
274.298187	146.640000
274.391205	146.260000
274.484222	146.220000
274.577240	146.080000
274.670258	146.300000
274.763306	146.200000
274.856323	146.340000
274.949341	146.360000
275.042358	146.900000
275.135406	146.880000
275.228424	146.960000
275.321442	146.640000
275.414490	146.520000
275.507507	146.380000
275.600525	146.700000
275.693573	146.440000
275.786591	146.340000
275.879669	146.380000
275.972656	145.900000
276.065735	145.600000
276.158752	146.040000
276.251801	147.020000
276.344818	147.080000
276.437866	147.200000
276.530884	147.200000
276.623932	146.620000
276.716980	146.320000
276.809998	146.340000
276.903046	146.240000
276.996094	146.840000
277.089111	147.520000
277.182159	147.980000
277.275208	147.800000
277.368256	147.860000
277.461304	147.440000
277.554321	146.780000
277.647369	146.060000
277.740417	146.340000
277.833466	146.100000
277.926514	145.980000
278.019562	146.700000
278.112610	146.520000
278.205688	146.440000
278.298706	146.860000
278.391785	146.680000
278.484833	146.080000
278.577881	145.980000
278.670929	146.040000
278.763977	146.120000
278.857025	146.400000
278.950073	146.540000
279.043121	146.440000
279.136169	146.820000
279.229248	146.460000
279.322296	146.320000
279.415344	146.180000
279.508392	146.140000
279.601440	145.760000
279.694519	145.740000
279.787567	145.600000
279.880615	145.420000
279.973694	145.620000
280.066742	145.460000
280.159790	145.580000
280.252869	145.280000
280.345917	145.420000
280.438995	145.260000
280.532074	145.280000
280.625122	145.880000
280.718201	147.080000
280.811279	147.300000
280.904327	147.140000
280.997406	147.380000
281.090454	147.020000
281.183533	146.100000
281.276581	146.040000
281.369659	146.220000
281.462738	146.100000
281.555786	146.200000
281.648865	146.400000
281.741943	146.180000
281.835022	146.920000
281.928070	147.200000
282.021149	146.400000
282.114227	146.060000
282.207306	146.000000
282.300385	145.920000
282.393433	145.680000
282.486511	146.160000
282.579590	146.660000
282.672668	147.180000
282.765747	146.620000
282.858856	146.340000
282.951904	146.560000
283.045013	146.740000
283.138062	147.000000
283.231171	147.120000
283.324249	147.600000
283.417328	147.540000
283.510406	147.140000
283.603485	146.840000
283.696564	146.780000
283.789642	146.780000
283.882751	146.560000
283.975830	147.200000
284.068909	146.760000
284.161987	147.460000
284.255066	146.820000
284.348175	147.020000
284.441254	146.660000
284.534332	147.280000
284.627441	146.820000
284.720520	146.740000
284.813599	146.760000
284.906708	146.700000
284.999786	145.920000
285.092896	145.400000
285.185974	146.340000
285.279053	146.040000
285.372192	146.040000
285.465240	146.780000
285.558380	146.960000
285.651459	146.380000
285.744568	146.960000
285.837677	146.740000
285.930756	146.440000
286.023865	146.560000
286.116943	146.380000
286.210052	146.260000
286.303162	146.040000
286.396240	146.360000
286.489349	146.200000
286.582458	146.540000
286.675568	146.320000
286.768646	146.400000
286.861755	146.460000
286.954865	147.100000
287.047974	146.660000
287.141083	146.500000
287.234161	146.580000
287.327271	146.440000
287.420380	146.740000
287.513519	146.980000
287.606598	147.200000
287.699738	147.220000
287.792816	147.080000
287.885956	146.460000
287.979034	146.500000
288.072174	146.380000
288.165283	146.360000
288.258392	146.340000
288.351501	145.840000
288.444611	145.860000
288.537720	146.380000
288.630859	146.300000
288.723969	146.480000
288.817078	147.060000
288.910187	147.300000
289.003296	146.500000
289.096436	146.000000
289.189545	145.740000
289.282654	145.280000
289.375763	145.160000
289.468903	145.800000
289.562012	146.320000
289.655121	146.380000
289.748260	146.560000
289.841400	146.700000
289.934509	146.380000
290.027649	146.460000
290.120728	146.320000
290.213898	146.300000
290.306976	146.100000
290.400146	146.160000
290.493256	145.860000
290.586395	146.220000
290.679535	146.660000
290.772644	146.480000
290.865784	145.900000
290.958893	146.240000
291.052032	145.920000
291.145172	145.760000
291.238281	145.720000
291.331421	146.080000
291.424561	146.320000
291.517670	146.220000
291.610809	146.460000
291.703949	146.560000
291.797089	146.880000
291.890228	146.360000
291.983337	146.300000
292.076477	145.940000
292.169617	146.120000
292.262756	146.000000
292.355927	146.040000
292.449036	146.140000
292.542206	146.240000
292.635315	146.300000
292.728485	146.200000
292.821625	145.820000
292.914764	146.840000
293.007904	146.760000
293.101044	146.900000
293.194183	147.100000
293.287323	147.540000
293.380463	146.700000
293.473602	146.580000
293.566742	146.380000
293.659882	146.740000
293.753021	146.920000
293.846191	146.860000
293.939331	146.620000
294.032471	146.680000
294.125610	146.080000
294.218781	146.300000
294.311920	146.640000
294.405060	146.980000
294.498230	146.860000
294.591370	146.980000
294.684540	146.240000
294.777679	145.820000
294.870850	146.060000
294.963959	146.020000
295.057159	146.040000
295.150299	146.420000
295.243469	146.280000
295.336609	145.820000
295.429779	146.080000
295.522919	146.580000
295.616089	146.980000
295.709229	147.620000
295.802399	147.940000
295.895569	147.300000
295.988708	146.740000
296.081879	146.820000
296.175018	146.080000
296.268188	145.780000
296.361359	146.540000
296.454529	146.780000
296.547668	146.380000
296.640839	146.900000
296.734009	146.600000
296.827179	146.280000
296.920319	146.340000
297.013519	146.240000
297.106659	146.240000
297.199860	146.480000
297.292999	146.660000
297.386200	146.220000
297.479309	145.900000
297.572510	145.640000
297.665680	145.460000
297.758850	145.220000
297.852020	145.120000
297.945190	145.260000
298.038361	145.140000
298.131531	146.200000
298.224701	146.080000
298.317871	146.040000
298.411072	145.760000
298.504242	145.740000
298.597412	145.000000
298.690582	145.400000
298.783752	145.480000
298.876923	146.160000
298.970093	146.320000
299.063293	146.680000
299.156464	146.720000
299.249634	147.200000
299.342834	147.380000
299.436005	147.740000
299.529205	147.340000
299.622345	147.220000
299.715576	146.160000
299.808716	145.640000
299.901917	145.580000
299.995117	145.980000
300.088287	146.160000
300.181488	146.340000
300.274658	146.460000
300.367828	146.220000
300.461029	146.080000
300.554199	146.440000
300.647400	146.980000
300.740601	147.300000
300.833771	147.200000
300.926971	147.380000
301.020142	146.500000
301.113342	146.340000
301.206512	146.380000
301.299713	146.520000
301.392914	146.320000
301.486084	146.960000
301.579285	146.800000
301.672516	146.820000
301.765686	146.940000
301.858887	146.760000
301.952057	146.400000
302.045288	146.580000
302.138458	146.380000
302.231659	145.900000
302.324860	146.040000
302.418060	145.860000
302.511261	145.780000
302.604462	145.960000
302.697662	145.960000
302.790863	145.980000
302.884064	145.800000
302.977264	145.860000
303.070465	146.000000
303.163666	146.820000
303.256866	147.020000
303.350067	147.280000
303.443268	147.420000
303.536469	147.480000
303.629669	146.640000
303.722870	146.380000
303.816071	145.880000
303.909271	145.700000
304.002472	144.680000
304.095673	144.700000
304.188934	144.120000
304.282104	145.280000
304.375336	145.400000
304.468506	145.860000
304.561768	145.860000
304.654968	146.460000
304.748169	145.580000
304.841370	145.560000
304.934601	145.800000
305.027802	145.660000
305.121002	145.620000
305.214233	145.780000
305.307434	145.500000
305.400665	145.940000
305.493866	145.780000
305.587097	145.960000
305.680298	145.680000
305.773499	146.320000
305.866730	145.680000
305.959930	146.740000
306.053162	146.900000
306.146393	146.760000
306.239594	145.820000
306.332825	146.040000
306.426025	145.760000
306.519287	145.260000
306.612488	145.680000
306.705719	145.920000
306.798920	146.080000
306.892181	145.480000
306.985352	145.160000
307.078613	144.660000
307.171844	144.980000
307.265045	144.240000
307.358276	144.000000
307.451508	144.580000
307.544739	145.340000
307.637970	144.920000
307.731201	145.080000
307.824402	146.060000
307.917633	146.300000
308.010864	146.500000
308.104095	146.880000
308.197327	147.000000
308.290558	146.640000
308.383789	146.120000
308.477020	145.560000
308.570251	145.000000
308.663483	144.640000
308.756714	144.380000
308.849976	144.440000
308.943176	144.960000
309.036438	144.980000
309.129639	145.040000
309.222900	145.080000
309.316101	145.180000
309.409393	144.600000
309.502625	144.800000
309.595856	145.360000
309.689087	145.640000
309.782318	145.480000
309.875580	145.520000
309.968811	145.520000
310.062042	144.900000
310.155273	144.900000
310.248535	145.540000
310.341766	145.820000
310.434998	145.860000
310.528259	145.820000
310.621490	146.020000
310.714722	145.160000
310.807983	145.100000
310.901215	145.320000
310.994476	145.800000
311.087708	145.380000
311.181000	145.840000
311.274200	145.360000
311.367462	145.520000
311.460693	145.200000
311.553986	145.920000
311.647186	146.260000
311.740479	147.280000
311.833710	146.920000
311.926971	147.240000
312.020203	146.760000
312.113464	146.360000
312.206726	145.500000
312.299957	146.100000
312.393219	146.640000
312.486481	146.420000
312.579712	146.300000
312.672974	146.560000
312.766235	146.200000
312.859497	145.860000
312.952759	145.860000
313.045990	146.800000
313.139252	146.080000
313.232513	146.440000
313.325775	146.420000
313.419037	146.320000
313.512299	145.420000
313.605530	146.160000
313.698822	145.720000
313.792053	145.500000
313.885345	145.140000
313.978577	145.280000
314.071869	145.120000
314.165131	145.200000
314.258392	145.680000
314.351654	146.260000
314.444916	145.580000
314.538177	146.320000
314.631439	146.780000
314.724701	146.400000
314.817993	146.160000
314.911255	146.820000
315.004517	145.600000
315.097778	145.300000
315.191040	145.700000
315.284302	145.900000
315.377594	145.920000
315.470856	146.500000
315.564117	146.140000
315.657379	145.460000
315.750671	145.420000
315.843933	145.440000
315.937195	145.140000
316.030518	145.140000
316.123749	145.260000
316.217041	145.960000
316.310303	146.080000
316.403595	146.380000
316.496857	146.720000
316.590149	147.100000
316.683411	146.280000
316.776703	146.120000
316.869965	146.100000
316.963257	145.720000
317.056519	145.100000
317.149811	145.100000
317.243073	145.000000
317.336365	145.080000
317.429626	145.540000
317.522919	145.900000
317.616180	145.780000
317.709473	145.480000
317.802765	145.400000
317.896027	145.340000
317.989319	145.740000
318.082611	145.460000
318.175873	145.840000
318.269165	145.800000
318.362488	145.460000
318.455750	144.900000
318.549042	145.720000
318.642303	146.160000
318.735626	145.800000
318.828888	146.200000
318.922211	146.300000
319.015472	146.960000
319.108765	146.280000
319.202057	146.260000
319.295349	146.220000
319.388641	146.160000
319.481934	145.400000
319.575226	145.220000
319.668518	145.620000
319.761810	145.700000
319.855103	145.940000
319.948395	145.860000
320.041687	145.820000
320.134979	145.720000
320.228271	145.240000
320.321564	144.780000
320.414856	145.040000
320.508148	145.120000
320.601440	145.000000
320.694763	145.080000
320.788025	146.100000
320.881348	145.920000
320.974640	146.040000
321.067963	145.520000
321.161224	145.620000
321.254547	144.720000
321.347839	145.260000
321.441162	144.860000
321.534454	145.620000
321.627747	145.480000
321.721069	146.100000
321.814362	146.000000
321.907654	146.300000
322.000946	146.260000
322.094269	146.820000
322.187561	146.500000
322.280884	146.440000
322.374176	146.580000
322.467468	147.000000
322.560791	146.860000
322.654083	147.300000
322.747406	147.240000
322.840698	147.340000
322.934021	147.120000
323.027344	147.200000
323.120636	146.860000
323.213959	146.840000
323.307251	146.540000
323.400574	146.140000
323.493866	145.940000
323.587219	146.180000
323.680511	146.400000
323.773834	146.500000
323.867157	146.860000
323.960449	146.600000
324.053772	146.140000
324.147095	145.700000
324.240387	146.420000
324.333710	146.300000
324.427032	146.560000
324.520355	146.460000
324.613647	146.100000
324.706970	145.280000
324.800293	145.360000
324.893616	145.500000
324.986938	146.060000
325.080231	146.260000
325.173553	147.000000
325.266876	147.380000
325.360199	147.220000
325.453522	146.480000
325.546875	146.540000
325.640167	146.360000
325.733521	146.480000
325.826813	146.920000
325.920166	147.000000
326.013489	147.000000
326.106812	146.140000
326.200134	145.500000
326.293457	144.800000
326.386780	144.940000
326.480103	144.600000
326.573425	145.000000
326.666748	145.040000
326.760071	145.700000
326.853424	145.740000
326.946747	146.060000
327.040070	146.540000
327.133392	146.440000
327.226715	145.680000
327.320068	145.160000
327.413391	145.580000
327.506714	145.180000
327.600037	145.180000
327.693390	145.660000
327.786713	146.180000
327.880066	146.060000
327.973358	146.080000
328.066742	146.480000
328.160034	146.500000
328.253418	146.940000
328.346710	146.560000
328.440063	146.200000
328.533417	145.920000
328.626740	146.060000
328.720093	145.660000
328.813416	145.480000
328.906769	145.740000
329.000092	145.900000
329.093445	145.620000
329.186768	145.480000
329.280121	145.960000
329.373444	146.000000
329.466797	146.000000
329.560120	145.800000
329.653473	146.100000
329.746796	145.960000
329.840149	145.840000
329.933502	145.840000
330.026825	145.840000
330.120178	145.280000
330.213562	145.100000
330.306854	145.220000
330.400238	144.740000
330.493561	144.540000
330.586945	145.600000
330.680237	145.920000
330.773621	146.040000
330.866974	146.500000
330.960327	147.020000
331.053680	146.420000
331.147003	146.460000
331.240356	146.640000
331.333710	146.640000
331.427063	146.380000
331.520416	146.080000
331.613770	145.820000
331.707123	146.040000
331.800476	145.860000
331.893829	147.120000
331.987152	147.440000
332.080505	147.460000
332.173859	147.040000
332.267212	146.940000
332.360565	145.640000
332.453918	145.340000
332.547333	145.260000
332.640656	145.380000
332.734039	145.480000
332.827362	145.820000
332.920746	146.140000
333.014069	146.400000
333.107452	146.740000
333.200806	147.100000
333.294159	146.940000
333.387543	146.620000
333.480896	145.920000
333.574249	145.260000
333.667603	144.740000
333.760956	144.880000
333.854340	144.940000
333.947693	145.360000
334.041046	145.800000
334.134430	146.300000
334.227783	146.180000
334.321136	146.260000
334.414520	146.220000
334.507874	146.260000
334.601227	146.020000
334.694611	145.880000
334.787964	146.040000
334.881348	145.900000
334.974701	145.600000
335.068085	145.160000
335.161438	145.700000
335.254822	145.660000
335.348175	146.080000
335.441559	145.680000
335.534943	146.580000
335.628296	146.040000
335.721680	145.760000
335.815033	145.560000
335.908417	146.200000
336.001770	145.960000
336.095154	145.920000
336.188538	145.600000
336.281891	145.240000
336.375275	144.880000
336.468658	144.440000
336.562012	144.640000
336.655396	145.100000
336.748779	145.800000
336.842133	146.040000
336.935516	146.160000
337.028900	145.880000
337.122284	145.840000
337.215637	145.960000
337.309021	145.860000
337.402435	145.660000
337.495789	145.980000
337.589203	146.040000
337.682526	145.620000
337.775940	145.940000
337.869324	146.180000
337.962708	145.820000
338.056091	146.260000
338.149475	145.880000
338.242859	145.800000
338.336243	145.660000
338.429626	145.800000
338.523010	145.600000
338.616394	145.620000
338.709778	145.720000
338.803162	145.800000
338.896545	145.860000
338.989929	145.640000
339.083313	146.040000
339.176697	145.800000
339.270081	146.080000
339.363464	146.520000
339.456848	146.800000
339.550232	146.580000
339.643616	146.200000
339.737030	146.160000
339.830383	146.060000
339.923828	146.100000
340.017181	146.300000
340.110596	146.700000
340.203949	146.440000
340.297363	145.920000
340.390778	145.640000
340.484161	145.340000
340.577545	145.320000
340.670959	145.660000
340.764343	145.640000
340.857727	145.700000
340.951111	145.620000
341.044525	145.960000
341.137909	145.120000
341.231293	144.900000
341.324707	144.440000
341.418091	145.080000
341.511505	144.780000
341.604889	145.480000
341.698303	146.060000
341.791687	146.580000
341.885071	146.060000
341.978485	145.780000
342.071899	145.900000
342.165283	146.040000
342.258698	146.240000
342.352081	146.840000
342.445496	147.380000
342.538879	147.340000
342.632324	146.700000
342.725708	146.620000
342.819122	145.940000
342.912506	145.580000
343.005920	145.200000
343.099335	146.560000
343.192719	146.340000
343.286133	146.520000
343.379547	146.880000
343.472931	146.940000
343.566345	145.840000
343.659760	146.240000
343.753143	145.800000
343.846558	145.400000
343.939972	145.600000
344.033386	146.060000
344.126770	145.640000
344.220184	145.940000
344.313599	146.480000
344.407043	146.240000
344.500427	145.740000
344.593872	146.520000
344.687225	146.440000
344.780670	145.960000
344.874054	146.200000
344.967499	146.540000
345.060913	145.920000
345.154327	145.960000
345.247742	145.620000
345.341156	145.540000
345.434570	145.200000
345.527985	145.080000
345.621399	145.180000
345.714813	145.700000
345.808228	145.560000
345.901642	145.700000
345.995056	145.460000
346.088470	145.620000
346.181885	145.600000
346.275299	145.640000
346.368713	145.400000
346.462128	145.440000
346.555573	145.580000
346.648987	145.540000
346.742401	145.420000
346.835815	145.860000
346.929260	145.700000
347.022644	145.780000
347.116119	145.920000
347.209503	146.300000
347.302948	147.060000
347.396362	147.680000
347.489807	147.680000
347.583221	148.180000
347.676636	148.060000
347.770050	146.880000
347.863495	146.380000
347.956909	146.260000
348.050323	145.360000
348.143768	145.260000
348.237183	145.400000
348.330597	145.900000
348.424042	146.160000
348.517456	146.540000
348.610901	146.600000
348.704315	146.520000
348.797760	146.260000
348.891174	145.420000
348.984619	145.020000
349.078033	145.500000
349.171448	146.160000
349.264923	145.780000
349.358337	146.020000
349.451782	146.260000
349.545197	145.300000
349.638641	144.520000
349.732086	144.340000
349.825500	144.900000
349.918945	144.840000
350.012390	145.520000
350.105804	146.300000
350.199249	146.860000
350.292664	147.140000
350.386108	146.960000
350.479553	147.560000
350.572968	147.300000
350.666412	147.400000
350.759857	146.860000
350.853302	147.500000
350.946716	146.840000
351.040161	146.900000
351.133606	146.900000
351.227081	147.120000
351.320465	147.400000
351.413940	147.200000
351.507355	147.480000
351.600830	147.400000
351.694244	146.960000
351.787720	146.740000
351.881104	147.140000
351.974579	146.540000
352.067993	147.320000
352.161469	147.500000
352.254883	146.780000
352.348358	146.620000
352.441803	146.520000
352.535248	145.880000
352.628693	146.340000
352.722137	146.380000
352.815582	146.380000
352.909027	146.760000
353.002472	146.420000
353.095917	145.720000
353.189362	146.040000
353.282806	145.680000
353.376251	145.460000
353.469696	145.260000
353.563141	146.240000
353.656586	146.080000
353.750061	145.600000
353.843475	145.420000
353.936981	146.200000
354.030396	145.560000
354.123871	146.040000
354.217285	147.380000
354.310760	147.680000
354.404175	147.100000
354.497681	146.740000
354.591095	146.220000
354.684570	145.240000
354.777985	144.780000
354.871490	144.660000
354.964935	145.480000
355.058380	145.540000
355.151855	145.660000
355.245300	146.400000
355.338745	146.820000
355.432220	146.400000
355.525665	145.980000
355.619110	146.500000
355.712585	146.240000
355.806030	146.260000
355.899475	145.860000
355.992950	146.460000
356.086426	146.640000
356.179871	146.560000
356.273346	146.220000
356.366791	146.880000
356.460266	146.860000
356.553711	146.000000
356.647186	146.160000
356.740631	146.140000
356.834106	145.340000
356.927551	145.500000
357.021027	145.760000
357.114471	145.960000
357.207947	146.340000
357.301422	146.840000
357.394867	146.600000
357.488342	147.080000
357.581818	146.860000
357.675262	146.880000
357.768738	146.720000
357.862213	146.240000
357.955658	146.140000
358.049133	146.040000
358.142609	146.360000
358.236053	146.200000
358.329529	146.600000
358.423035	146.920000
358.516449	146.740000
358.609955	147.020000
358.703400	147.680000
358.796906	147.780000
358.890350	147.140000
358.983826	147.460000
359.077271	146.240000
359.170776	145.740000
359.264221	145.440000
359.357727	145.520000
359.451172	145.780000
359.544647	146.400000
359.638123	146.480000
359.731598	147.280000
359.825073	147.480000
359.918549	146.940000
360.012024	146.960000
360.105499	146.360000
360.198975	146.100000
360.292450	146.100000
360.385925	146.300000
360.479401	145.760000
360.572876	146.500000
360.666351	146.280000
360.759857	146.080000
360.853302	146.320000
360.946808	145.960000
361.040253	145.760000
361.133759	145.700000
361.227203	145.980000
361.320709	145.100000
361.414154	145.880000
361.507660	146.040000
361.601105	146.420000
361.694641	146.740000
361.788086	147.080000
361.881592	147.240000
361.975067	146.980000
362.068542	146.960000
362.162018	146.800000
362.255524	146.620000
362.348999	146.680000
362.442474	147.040000
362.535950	146.580000
362.629456	146.280000
362.722931	146.460000
362.816406	146.740000
362.909882	146.940000
363.003387	146.940000
363.096863	147.540000
363.190338	147.540000
363.283875	147.160000
363.377319	146.920000
363.470825	147.300000
363.564301	146.240000
363.657806	146.440000
363.751282	146.160000
363.844788	146.920000
363.938232	146.500000
364.031769	147.460000
364.125214	147.420000
364.218750	147.760000
364.312225	146.480000
364.405731	146.560000
364.499207	145.560000
364.592712	145.060000
364.686188	144.900000
364.779694	145.220000
364.873169	145.120000
364.966675	145.400000
365.060150	145.780000
365.153656	146.240000
365.247131	146.260000
365.340637	146.320000
365.434143	146.700000
365.527618	146.920000
365.621155	146.060000
365.714600	145.980000
365.808136	146.280000
365.901611	145.520000
365.995117	145.280000
366.088593	145.640000
366.182129	145.540000
366.275604	145.260000
366.369110	145.680000
366.462585	145.840000
366.556122	146.440000
366.649567	146.600000
366.743103	146.820000
366.836609	146.440000
366.930115	146.800000
367.023590	146.620000
367.117096	146.540000
367.210602	146.700000
367.304108	147.540000
367.397614	147.540000
367.491119	147.440000
367.584595	147.860000
367.678101	148.000000
367.771606	147.340000
367.865112	147.020000
367.958649	146.220000
368.052124	145.800000
368.145660	145.460000
368.239136	146.160000
368.332672	146.200000
368.426147	147.040000
368.519684	146.900000
368.613159	147.080000
368.706696	146.740000
368.800171	146.740000
368.893707	146.360000
368.987183	146.860000
369.080719	146.860000
369.174225	146.520000
369.267731	146.820000
369.361237	146.740000
369.454742	146.560000
369.548248	146.860000
369.641754	146.840000
369.735260	146.360000
369.828766	145.820000
369.922272	146.160000
370.015808	145.520000
370.109314	145.460000
370.202820	145.660000
370.296356	146.920000
370.389832	146.500000
370.483368	146.340000
370.576874	146.500000
370.670410	146.420000
370.763885	145.040000
370.857422	144.920000
370.950928	145.040000
371.044464	145.280000
371.137939	145.380000
371.231476	146.040000
371.324982	146.800000
371.418518	147.200000
371.512024	147.340000
371.605560	147.080000
371.699066	147.340000
371.792572	146.560000
371.886108	146.680000
371.979614	146.260000
372.073120	146.800000
372.166656	146.540000
372.260162	146.960000
372.353668	146.480000
372.447205	146.320000
372.540710	145.980000
372.634277	146.040000
372.727753	145.900000
372.821320	145.980000
372.914795	146.100000
373.008362	146.080000
373.101837	146.100000
373.195404	145.980000
373.288879	145.900000
373.382446	146.680000
373.475922	146.640000
373.569489	147.080000
373.662964	147.260000
373.756531	147.400000
373.850037	146.880000
373.943573	146.680000
374.037109	145.860000
374.130615	145.820000
374.224152	145.720000
374.317657	145.620000
374.411194	146.320000
374.504730	146.360000
374.598236	146.120000
374.691772	145.960000
374.785309	146.240000
374.878815	145.640000
374.972351	146.020000
375.065887	146.240000
375.159454	147.140000
375.252930	146.500000
375.346497	146.680000
375.440002	147.260000
375.533569	146.940000
375.627045	146.180000
375.720612	146.540000
375.814117	146.620000
375.907684	145.920000
376.001160	145.980000
376.094727	145.620000
376.188232	146.260000
376.281799	146.580000
376.375336	146.680000
376.468872	147.340000
376.562408	147.620000
376.655914	146.920000
376.749451	146.740000
376.842987	147.020000
376.936523	146.600000
377.030060	146.880000
377.123596	147.340000
377.217133	146.820000
377.310669	146.700000
377.404205	146.840000
377.497772	147.040000
377.591278	146.560000
377.684845	147.340000
377.778351	147.560000
377.871918	147.260000
377.965424	146.500000
378.058990	146.560000
378.152496	145.880000
378.246063	145.900000
378.339569	146.300000
378.433136	146.300000
378.526642	146.480000
378.620209	146.520000
378.713745	146.080000
378.807312	146.380000
378.900848	146.480000
378.994385	146.440000
379.087921	145.960000
379.181458	146.440000
379.274994	145.360000
379.368530	145.480000
379.462097	145.820000
379.555634	146.680000
379.649170	146.180000
379.742706	146.520000
379.836273	146.820000
379.929810	146.300000
380.023376	145.520000
380.116882	145.180000
380.210449	145.120000
380.303986	144.800000
380.397552	144.760000
380.491058	145.440000
380.584656	145.600000
380.678162	145.860000
380.771729	146.260000
380.865265	146.960000
380.958832	147.040000
381.052368	147.300000
381.145935	147.360000
381.239471	147.380000
381.333008	146.900000
381.426575	146.740000
381.520111	146.640000
381.613647	147.260000
381.707214	146.860000
381.800751	146.520000
381.894318	146.800000
381.987854	146.540000
382.081421	146.000000
382.174988	146.340000
382.268524	146.160000
382.362091	145.620000
382.455627	146.660000
382.549194	146.280000
382.642731	145.620000
382.736298	145.860000
382.829834	145.900000
382.923401	145.940000
383.016937	146.040000
383.110504	146.460000
383.204041	146.640000
383.297607	146.840000
383.391174	145.860000
383.484741	146.700000
383.578278	146.400000
383.671844	146.040000
383.765411	145.500000
383.858948	146.120000
383.952515	145.380000
384.046051	146.080000
384.139618	146.660000
384.233185	146.980000
384.326721	146.780000
384.420288	147.160000
384.513855	146.920000
384.607422	147.080000
384.700989	147.360000
384.794525	146.920000
384.888123	147.080000
384.981659	147.200000
385.075226	146.760000
385.168762	146.460000
385.262360	146.600000
385.355896	145.580000
385.449463	145.320000
385.542999	145.120000
385.636597	145.840000
385.730164	145.980000
385.823730	146.080000
385.917267	145.980000
386.010834	146.260000
386.104401	145.880000
386.197968	145.920000
386.291534	146.560000
386.385101	146.620000
386.478668	146.880000
386.572235	146.580000
386.665802	146.340000
386.759338	145.620000
386.852905	145.380000
386.946472	145.080000
387.040070	145.240000
387.133606	145.500000
387.227203	145.680000
387.320740	145.940000
387.414337	145.460000
387.507874	145.520000
387.601471	145.240000
387.695007	145.160000
387.788605	145.140000
387.882141	145.680000
387.975739	145.860000
388.069275	145.680000
388.162872	146.200000
388.256439	146.000000
388.350037	145.680000
388.443604	145.320000
388.537170	145.460000
388.630737	145.880000
388.724304	146.300000
388.817871	146.160000
388.911438	146.300000
389.005005	146.620000
389.098602	146.580000
389.192169	146.280000
389.285736	146.920000
389.379333	146.860000
389.472870	146.540000
389.566467	146.040000
389.660034	146.100000
389.753632	145.660000
389.847168	145.860000
389.940765	146.100000
390.034332	146.540000
390.127930	145.920000
390.221466	146.080000
390.315063	145.580000
390.408630	144.880000
390.502228	143.900000
390.595795	144.880000
390.689362	144.920000
390.782959	145.440000
390.876526	146.140000
390.970093	146.320000
391.063690	146.540000
391.157257	146.740000
391.250824	146.800000
391.344421	146.800000
391.437988	147.300000
391.531555	146.960000
391.625153	147.140000
391.718750	147.320000
391.812317	147.080000
391.905914	146.540000
391.999481	146.680000
392.093079	146.460000
392.186615	146.560000
392.280243	146.880000
392.373779	147.360000
392.467407	147.740000
392.560944	147.580000
392.654572	146.860000
392.748108	146.680000
392.841736	146.740000
392.935303	146.080000
393.028900	145.940000
393.122467	146.320000
393.216064	146.000000
393.309631	145.280000
393.403229	145.140000
393.496796	144.940000
393.590393	144.600000
393.683990	145.180000
393.777557	145.900000
393.871155	146.020000
393.964722	146.640000
394.058350	146.800000
394.151917	146.820000
394.245514	146.440000
394.339081	146.740000
394.432678	146.920000
394.526245	146.700000
394.619873	146.120000
394.713409	146.540000
394.807037	146.040000
394.900604	145.920000
394.994202	146.140000
395.087769	146.760000
395.181396	146.140000
395.274994	147.020000
395.368561	146.520000
395.462158	146.900000
395.555756	146.480000
395.649353	147.160000
395.742920	146.460000
395.836517	147.080000
395.930115	146.460000
396.023712	146.720000
396.117279	146.940000
396.210876	147.100000
396.304474	146.860000
396.398071	147.200000
396.491669	147.680000
396.585266	147.220000
396.678833	147.300000
396.772461	147.720000
396.866028	147.840000
396.959656	148.340000
397.053223	149.740000
397.146851	151.120000
397.240417	153.440000
397.334015	157.520000
397.427582	161.160000
397.521210	166.240000
397.614807	173.720000
397.708405	181.820000
397.802002	191.500000
397.895599	205.060000
397.989197	221.120000
398.082794	240.100000
398.176392	264.160000
398.269989	290.420000
398.363586	319.940000
398.457184	353.620000
398.550781	389.160000
398.644379	424.820000
398.737976	463.560000
398.831573	501.420000
398.925201	536.600000
399.018768	570.840000
399.112396	600.920000
399.205963	626.560000
399.299591	645.820000
399.393158	659.340000
399.486786	665.960000
399.580353	668.880000
399.673981	663.160000
399.767578	656.140000
399.861206	646.460000
399.954773	633.560000
400.048401	615.140000
400.141998	595.640000
400.235596	570.800000
400.329193	541.920000
400.422791	509.480000
400.516418	476.800000
400.610016	444.640000
400.703613	414.540000
400.797211	384.640000
400.890808	358.740000
400.984436	335.380000
401.078033	312.740000
401.171631	291.180000
401.265259	271.660000
401.358826	253.160000
401.452484	234.960000
401.546051	220.020000
401.639679	205.740000
401.733246	194.640000
401.826904	184.160000
401.920471	175.980000
402.014099	168.600000
402.107697	163.380000
402.201324	159.200000
402.294891	156.320000
402.388550	154.380000
402.482147	152.740000
402.575745	151.320000
402.669373	149.680000
402.762970	148.720000
402.856567	147.960000
402.950195	148.020000
403.043793	147.540000
403.137390	148.420000
403.231018	147.760000
403.324615	148.360000
403.418243	147.520000
403.511841	147.960000
403.605469	147.280000
403.699066	147.760000
403.792694	147.380000
403.886292	147.680000
403.979919	147.640000
404.073517	147.320000
404.167145	147.520000
404.260712	147.160000
404.354370	147.200000
404.447937	147.240000
404.541595	147.340000
404.635162	147.520000
404.728821	147.980000
404.822418	147.560000
404.916046	147.080000
405.009644	147.340000
405.103271	147.380000
405.196899	147.220000
405.290497	147.260000
405.384125	147.600000
405.477722	147.100000
405.571350	146.300000
405.664948	146.140000
405.758575	146.120000
405.852203	145.780000
405.945801	145.960000
406.039429	146.180000
406.133057	145.780000
406.226654	145.820000
406.320312	145.860000
406.413879	145.960000
406.507538	146.060000
406.601135	146.000000
406.694763	146.420000
406.788361	146.140000
406.882019	145.840000
406.975586	145.960000
407.069244	146.640000
407.162872	146.580000
407.256470	146.880000
407.350098	146.740000
407.443726	146.500000
407.537323	145.640000
407.630951	145.680000
407.724579	145.320000
407.818207	145.820000
407.911804	145.500000
408.005432	145.920000
408.099060	146.160000
408.192688	146.600000
408.286285	146.220000
408.379913	146.400000
408.473572	146.560000
408.567169	145.760000
408.660828	145.820000
408.754395	145.740000
408.848053	145.880000
408.941650	145.920000
409.035309	146.020000
409.128906	145.940000
409.222565	146.040000
409.316132	146.100000
409.409790	145.960000
409.503387	145.760000
409.597046	145.840000
409.690674	146.220000
409.784302	146.180000
409.877930	146.240000
409.971558	146.860000
410.065186	146.520000
410.158783	146.160000
410.252411	146.280000
410.346039	146.220000
410.439667	146.020000
410.533295	146.600000
410.626923	147.080000
410.720551	146.540000
410.814209	147.260000
410.907806	147.120000
411.001465	146.440000
411.095062	146.460000
411.188721	146.900000
411.282318	146.280000
411.375977	146.140000
411.469574	146.360000
411.563232	145.820000
411.656830	145.580000
411.750488	145.460000
411.844086	145.320000
411.937744	145.360000
412.031372	145.420000
412.125000	145.760000
412.218628	145.920000
412.312256	146.720000
412.405884	147.080000
412.499512	147.160000
412.593170	147.420000
412.686798	147.240000
412.780426	146.580000
412.874054	146.460000
412.967682	146.360000
413.061310	146.780000
413.154968	146.880000
413.248566	147.060000
413.342224	146.920000
413.435852	147.120000
413.529510	145.940000
413.623108	145.440000
413.716766	145.300000
413.810364	145.560000
413.904022	145.300000
413.997650	145.500000
414.091309	146.540000
414.184906	146.480000
414.278564	146.000000
414.372192	146.380000
414.465851	146.880000
414.559479	146.220000
414.653107	147.240000
414.746735	147.300000
414.840393	147.080000
414.934021	147.120000
415.027649	147.000000
415.121277	146.220000
415.214935	146.760000
415.308563	146.700000
415.402191	145.900000
415.495850	146.140000
415.589478	146.120000
415.683136	145.580000
415.776733	145.920000
415.870422	147.100000
415.964020	146.460000
416.057678	146.740000
416.151306	147.000000
416.244965	146.800000
416.338562	146.160000
416.432251	147.100000
416.525848	147.680000
416.619507	147.700000
416.713165	147.940000
416.806793	147.840000
416.900421	147.620000
416.994080	146.940000
417.087708	146.640000
417.181366	145.920000
417.274994	146.120000
417.368622	146.260000
417.462280	146.680000
417.555908	146.960000
417.649567	147.000000
417.743195	146.960000
417.836853	147.060000
417.930481	146.640000
418.024170	146.620000
418.117767	147.480000
418.211426	147.740000
418.305054	147.720000
418.398712	147.480000
418.492340	147.380000
418.585999	147.320000
418.679626	147.040000
418.773285	146.820000
418.866913	146.920000
418.960571	147.400000
419.054230	147.380000
419.147858	147.520000
419.241516	147.540000
419.335144	147.360000
419.428802	146.900000
419.522461	146.480000
419.616089	146.000000
419.709747	146.180000
419.803375	146.620000
419.897034	146.280000
419.990662	146.260000
420.084320	146.960000
420.177979	146.980000
420.271606	146.880000
420.365295	147.480000
420.458893	147.780000
420.552582	147.740000
420.646210	147.600000
420.739868	147.260000
420.833496	146.860000
420.927155	146.460000
421.020782	146.100000
421.114471	145.860000
421.208069	146.160000
421.301758	146.460000
421.395386	146.700000
421.489044	146.400000
421.582703	146.280000
421.676361	146.600000
421.769989	146.200000
421.863647	146.340000
421.957306	146.600000
422.050934	147.000000
422.144592	146.740000
422.238251	146.560000
422.331909	146.200000
422.425537	146.240000
422.519196	146.040000
422.612854	145.680000
422.706543	145.500000
422.800140	145.980000
422.893829	145.700000
422.987457	145.540000
423.081146	145.900000
423.174744	147.080000
423.268433	146.380000
423.362061	146.280000
423.455750	146.220000
423.549347	146.020000
423.643036	144.940000
423.736664	145.680000
423.830353	145.840000
423.924011	146.360000
424.017639	146.180000
424.111298	146.360000
424.204956	146.060000
424.298615	146.220000
424.392273	145.840000
424.485931	145.920000
424.579559	146.140000
424.673218	145.900000
424.766876	145.900000
424.860535	145.940000
424.954193	145.560000
425.047882	146.260000
425.141510	146.700000
425.235199	146.700000
425.328796	146.420000
425.422485	146.980000
425.516113	145.840000
425.609802	145.860000
425.703430	145.780000
425.797119	145.900000
425.890747	145.740000
425.984436	146.320000
426.078064	146.160000
426.171753	146.000000
426.265411	145.840000
426.359070	145.840000
426.452728	145.660000
426.546356	145.700000
426.640015	145.620000
426.733673	145.640000
426.827332	145.460000
426.920990	145.920000
427.014648	145.400000
427.108307	146.000000
427.201965	146.840000
427.295624	147.260000
427.389282	146.680000
427.482941	146.980000
427.576630	146.660000
427.670258	145.540000
427.763947	145.260000
427.857574	145.260000
427.951263	145.420000
428.044922	145.260000
428.138611	145.540000
428.232239	146.160000
428.325928	146.540000
428.419556	146.860000
428.513245	146.580000
428.606903	146.880000
428.700562	146.240000
428.794220	145.640000
428.887878	144.800000
428.981537	145.260000
429.075195	145.320000
429.168854	145.700000
429.262512	145.920000
429.356201	146.500000
429.449860	146.380000
429.543518	146.040000
429.637177	146.200000
429.730835	146.000000
429.824493	145.560000
429.918182	145.780000
430.011810	145.380000
430.105530	144.600000
430.199158	144.820000
430.292847	144.980000
430.386475	144.500000
430.480164	144.920000
430.573792	144.700000
430.667511	144.940000
430.761139	144.840000
430.854828	145.580000
430.948456	145.560000
431.042145	146.500000
431.135834	146.220000
431.229492	146.460000
431.323151	146.100000
431.416809	146.020000
431.510468	145.440000
431.604156	145.500000
431.697815	145.740000
431.791473	145.380000
431.885132	145.160000
431.978821	145.720000
432.072479	145.700000
432.166138	145.860000
432.259827	146.100000
432.353485	146.520000
432.447174	146.240000
432.540802	146.120000
432.634491	145.960000
432.728149	146.340000
432.821838	146.700000
432.915466	146.460000
433.009186	146.660000
433.102814	145.920000
433.196503	145.600000
433.290131	145.620000
433.383850	146.060000
433.477509	146.180000
433.571167	147.460000
433.664856	147.780000
433.758514	147.960000
433.852173	147.840000
433.945862	147.680000
434.039520	146.980000
434.133179	146.680000
434.226868	145.960000
434.320526	145.300000
434.414185	146.060000
434.507874	145.840000
434.601562	146.120000
434.695221	146.420000
434.788910	146.740000
434.882538	146.360000
434.976257	146.280000
435.069885	146.120000
435.163574	146.280000
435.257233	146.160000
435.350922	145.940000
435.444580	145.720000
435.538269	145.160000
435.631897	145.120000
435.725616	145.980000
435.819275	146.560000
435.912964	147.400000
436.006622	148.180000
436.100311	148.300000
436.193970	147.360000
436.287628	146.720000
436.381317	146.200000
436.474976	145.760000
436.568665	145.220000
436.662323	145.620000
436.756012	145.700000
436.849670	145.820000
436.943390	145.900000
437.037018	145.840000
437.130737	145.680000
437.224365	145.520000
437.318085	145.480000
437.411713	145.580000
437.505432	146.500000
437.599060	146.780000
437.692780	147.620000
437.786407	147.520000
437.880127	147.240000
437.973755	146.620000
438.067474	146.420000
438.161133	146.040000
438.254822	146.380000
438.348480	146.280000
438.442169	146.620000
438.535828	147.020000
438.629517	146.540000
438.723175	145.980000
438.816864	146.900000
438.910553	146.620000
439.004211	145.960000
439.097900	146.080000
439.191559	146.340000
439.285248	145.020000
439.378906	145.380000
439.472626	145.620000
439.566284	145.340000
439.659973	145.760000
439.753632	146.160000
439.847321	146.340000
439.940979	146.440000
440.034698	146.780000
440.128326	145.980000
440.222046	146.160000
440.315674	145.180000
440.409393	145.180000
440.503082	144.840000
440.596741	145.480000
440.690430	145.520000
440.784088	145.620000
440.877777	145.160000
440.971466	145.320000
441.065125	144.940000
441.158813	144.600000
441.252502	144.640000
441.346161	144.820000
441.439850	145.120000
441.533539	145.160000
441.627197	145.700000
441.720886	145.800000
441.814606	146.260000
441.908234	146.620000
442.001953	146.800000
442.095612	146.560000
442.189301	146.800000
442.282959	146.660000
442.376678	145.600000
442.470306	145.820000
442.564026	145.540000
442.657684	145.580000
442.751404	145.340000
442.845032	146.440000
442.938751	145.820000
443.032440	146.540000
443.126099	146.280000
443.219788	146.940000
443.313477	146.840000
443.407166	147.340000
443.500824	146.540000
443.594513	146.660000
443.688202	146.140000
443.781891	145.340000
443.875549	145.040000
443.969238	145.520000
444.062927	145.440000
444.156647	145.320000
444.250275	145.920000
444.343994	146.060000
444.437653	145.960000
444.531372	146.180000
444.625031	146.020000
444.718719	145.440000
444.812378	145.400000
444.906097	145.400000
444.999756	144.980000
445.093445	145.440000
445.187103	145.700000
445.280823	146.200000
445.374512	145.880000
445.468201	146.140000
445.561859	145.980000
445.655548	146.080000
445.749237	145.340000
445.842926	145.640000
445.936615	146.040000
446.030304	145.740000
446.123962	145.800000
446.217651	145.900000
446.311340	146.040000
446.405029	145.460000
446.498749	145.780000
446.592407	145.740000
446.686096	146.000000
446.779755	146.240000
446.873474	146.620000
446.967133	146.720000
447.060852	146.360000
447.154510	146.280000
447.248230	145.900000
447.341858	145.600000
447.435577	145.240000
447.529236	145.200000
447.622955	144.880000
447.716644	144.880000
447.810333	145.000000
447.904022	145.600000
447.997711	145.480000
448.091400	146.060000
448.185059	146.000000
448.278748	145.940000
448.372437	145.380000
448.466125	146.200000
448.559814	146.040000
448.653503	146.620000
448.747192	147.040000
448.840912	147.360000
448.934570	147.040000
449.028290	147.700000
449.121948	147.120000
449.215637	146.620000
449.309296	146.240000
449.403015	146.300000
449.496674	145.480000
449.590393	145.600000
449.684052	145.640000
449.777771	146.640000
449.871429	146.100000
449.965149	146.200000
450.058838	146.220000
450.152527	146.780000
450.246216	146.200000
450.339905	146.340000
450.433594	146.000000
450.527283	146.740000
450.620972	146.180000
450.714661	146.180000
450.808350	146.400000
450.902039	147.080000
450.995728	146.540000
451.089417	146.380000
451.183105	146.340000
451.276794	146.620000
451.370514	145.780000
451.464172	145.140000
451.557892	145.160000
451.651550	145.360000
451.745270	144.860000
451.838928	144.560000
451.932648	145.160000
452.026306	145.560000
452.120026	145.140000
452.213684	145.460000
452.307404	145.980000
452.401062	146.320000
452.494781	146.540000
452.588470	146.640000
452.682159	146.120000
452.775848	146.180000
452.869537	145.360000
452.963226	144.840000
453.056915	144.860000
453.150604	145.040000
453.244293	145.420000
453.337982	146.040000
453.431671	146.420000
453.525360	146.900000
453.619049	147.100000
453.712769	147.120000
453.806427	146.880000
453.900146	146.040000
453.993805	145.800000
454.087555	146.300000
454.181213	145.980000
454.274933	145.840000
454.368591	146.360000
454.462311	146.140000
454.555969	145.540000
454.649689	146.300000
454.743347	146.060000
454.837067	146.700000
454.930756	147.620000
455.024445	148.180000
455.118134	147.580000
455.211853	147.980000
455.305542	147.440000
455.399231	146.600000
455.492920	146.340000
455.586609	146.480000
455.680298	146.440000
455.773987	146.080000
455.867676	146.100000
455.961365	146.240000
456.055084	146.060000
456.148773	145.760000
456.242493	146.100000
456.336151	146.000000
456.429871	146.220000
456.523529	146.480000
456.617249	146.160000
456.710907	146.720000
456.804626	146.740000
456.898315	146.080000
456.992035	145.860000
457.085693	145.980000
457.179413	145.360000
457.273102	146.160000
457.366791	146.500000
457.460480	147.120000
457.554199	147.880000
457.647888	148.140000
457.741577	147.660000
457.835266	147.480000
457.928955	147.400000
458.022644	147.580000
458.116364	147.880000
458.210052	147.520000
458.303741	147.580000
458.397461	146.580000
458.491119	145.620000
458.584839	145.400000
458.678528	145.500000
458.772247	145.340000
458.865906	145.780000
458.959625	147.040000
459.053284	146.720000
459.147003	146.620000
459.240692	147.340000
459.334412	147.280000
459.428070	146.700000
459.521790	146.680000
459.615479	146.820000
459.709198	146.780000
459.802887	146.760000
459.896576	146.560000
459.990265	146.560000
460.083954	146.840000
460.177673	146.360000
460.271362	146.660000
460.365051	146.520000
460.458740	146.520000
460.552429	145.820000
460.646149	145.720000
460.739838	145.100000
460.833527	145.120000
460.927246	144.940000
461.020905	144.880000
461.114655	144.980000
461.208313	145.500000
461.302032	145.120000
461.395691	145.640000
461.489441	145.800000
461.583099	145.880000
461.676819	145.560000
461.770477	146.020000
461.864197	145.600000
461.957916	145.600000
462.051605	144.900000
462.145294	145.500000
462.238983	145.300000
462.332703	145.740000
462.426392	146.300000
462.520081	146.600000
462.613770	146.060000
462.707489	146.120000
462.801178	145.960000
462.894867	145.780000
462.988556	145.880000
463.082275	146.100000
463.175964	145.880000
463.269684	146.000000
463.363342	145.840000
463.457092	145.420000
463.550751	145.160000
463.644470	145.460000
463.738129	145.000000
463.831879	144.960000
463.925537	145.980000
464.019257	146.280000
464.112946	146.180000
464.206665	146.200000
464.300323	146.140000
464.394043	145.500000
464.487762	145.600000
464.581451	145.900000
464.675140	145.940000
464.768829	146.240000
464.862549	146.500000
464.956238	146.600000
465.049927	146.380000
465.143646	146.540000
465.237335	146.140000
465.331024	146.440000
465.424713	146.160000
465.518433	146.300000
465.612152	145.980000
465.705811	146.340000
465.799561	145.960000
465.893219	146.180000
465.986938	146.000000
466.080597	145.980000
466.174347	146.200000
466.268005	146.200000
466.361725	145.800000
466.455414	146.380000
466.549133	146.340000
466.642792	146.560000
466.736542	146.320000
466.830231	146.300000
466.923920	145.740000
467.017609	146.140000
467.111328	145.000000
467.205017	145.220000
467.298706	145.220000
467.392426	145.420000
467.486115	145.580000
467.579803	146.160000
467.673523	146.440000
467.767212	146.700000
467.860901	146.500000
467.954651	146.360000
468.048309	146.380000
468.142029	146.140000
468.235718	146.360000
468.329437	146.280000
468.423096	146.160000
468.516846	146.040000
468.610504	145.960000
468.704224	145.360000
468.797913	145.340000
468.891632	145.600000
468.985291	145.760000
469.079010	145.720000
469.172729	145.520000
469.266418	146.180000
469.360107	146.200000
469.453827	145.740000
469.547516	145.820000
469.641205	146.560000
469.734924	146.340000
469.828613	146.640000
469.922302	147.200000
470.016022	147.280000
470.109711	147.020000
470.203430	146.460000
470.297150	145.700000
470.390808	145.960000
470.484558	145.440000
470.578217	145.920000
470.671936	146.640000
470.765625	147.340000
470.859344	146.640000
470.953003	147.420000
471.046753	146.740000
471.140411	145.840000
471.234131	145.600000
471.327820	146.260000
471.421539	146.200000
471.515228	146.040000
471.608948	146.460000
471.702637	145.980000
471.796326	145.260000
471.890045	145.220000
471.983734	145.580000
472.077423	145.420000
472.171143	146.000000
472.264832	146.160000
472.358521	145.920000
472.452240	145.700000
472.545929	146.700000
472.639648	146.460000
472.733337	146.740000
472.827057	146.480000
472.920746	146.700000
473.014465	146.300000
473.108124	146.480000
473.201874	146.460000
473.295532	146.560000
473.389252	147.000000
473.482941	146.840000
473.576660	146.580000
473.670319	146.340000
473.764069	146.680000
473.857727	146.620000
473.951477	146.840000
474.045166	147.480000
474.138855	147.520000
474.232574	147.280000
474.326263	147.080000
474.419952	147.100000
474.513672	146.580000
474.607361	146.500000
474.701050	146.660000
474.794769	146.560000
474.888458	146.740000
474.982178	146.680000
475.075867	147.020000
475.169586	147.180000
475.263275	147.080000
475.356995	146.840000
475.450653	146.820000
475.544403	146.280000
475.638062	146.760000
475.731812	146.460000
475.825470	146.080000
475.919189	146.120000
476.012878	146.480000
476.106598	145.980000
476.200256	146.620000
476.294006	146.560000
476.387695	146.480000
476.481384	146.280000
476.575104	146.080000
476.668793	145.260000
476.762512	145.120000
476.856201	145.740000
476.949890	145.440000
477.043610	144.920000
477.137299	145.280000
477.230988	145.560000
477.324707	144.840000
477.418396	145.880000
477.512146	146.300000
477.605804	146.320000
477.699524	146.460000
477.793213	146.200000
477.886932	145.360000
477.980591	145.120000
478.074341	144.840000
478.167999	144.160000
478.261749	144.840000
478.355408	144.760000
478.449127	145.740000
478.542816	146.760000
478.636536	147.520000
478.730225	147.320000
478.823944	147.860000
478.917633	147.040000
479.011322	146.700000
479.105042	146.800000
479.198730	146.640000
479.292450	146.160000
479.386139	146.480000
479.479828	146.500000
479.573547	146.660000
479.667267	146.580000
479.760925	146.700000
479.854675	146.840000
479.948334	146.800000
480.042084	146.060000
480.135742	146.620000
480.229462	146.300000
480.323151	146.080000
480.416870	145.180000
480.510529	145.620000
480.604279	144.800000
480.697937	145.540000
480.791656	145.160000
480.885345	145.460000
480.979065	145.220000
481.072754	146.080000
481.166473	146.460000
481.260132	146.620000
481.353882	146.520000
481.447540	146.400000
481.541260	146.400000
481.635010	145.600000
481.728668	145.560000
481.822388	145.620000
481.916077	145.800000
482.009796	145.360000
482.103485	145.780000
482.197205	145.700000
482.290863	145.820000
482.384613	145.540000
482.478271	145.360000
482.571991	145.240000
482.665680	145.340000
482.759399	146.200000
482.853058	146.880000
482.946808	147.020000
483.040466	147.060000
483.134216	146.740000
483.227875	145.800000
483.321594	145.820000
483.415283	145.700000
483.509003	145.720000
483.602661	145.860000
483.696411	146.060000
483.790070	145.860000
483.883789	146.040000
483.977478	146.140000
484.071198	146.320000
484.164917	146.120000
484.258606	145.680000
484.352325	145.780000
484.445984	145.660000
484.539734	145.360000
484.633392	145.260000
484.727142	145.600000
484.820801	145.300000
484.914520	145.060000
485.008209	145.420000
485.101929	146.040000
485.195587	145.780000
485.289337	145.980000
485.382996	146.320000
485.476715	146.280000
485.570404	146.640000
485.664124	146.700000
485.757782	147.080000
485.851532	146.400000
485.945190	146.360000
486.038910	146.280000
486.132599	146.940000
486.226318	146.020000
486.319977	146.260000
486.413727	146.600000
486.507446	145.860000
486.601105	144.820000
486.694855	144.740000
486.788513	144.560000
486.882233	144.320000
486.975922	144.680000
487.069641	144.880000
487.163300	145.220000
487.257050	146.420000
487.350708	146.220000
487.444427	145.900000
487.538116	146.160000
487.631836	146.040000
487.725494	145.160000
487.819214	145.520000
487.912903	145.460000
488.006622	145.700000
488.100281	146.040000
488.194031	146.080000
488.287689	146.340000
488.381409	147.340000
488.475098	147.260000
488.568817	147.420000
488.662476	147.300000
488.756226	146.640000
488.849945	145.380000
488.943604	145.340000
489.037354	145.460000
489.131012	145.200000
489.224731	145.220000
489.318390	145.420000
489.412140	145.060000
489.505798	144.640000
489.599518	144.820000
489.693207	145.220000
489.786926	145.400000
489.880585	145.820000
489.974335	146.380000
490.067993	147.700000
490.161713	147.880000
490.255371	148.580000
490.349121	148.400000
490.442780	148.080000
490.536499	146.720000
490.630188	146.560000
490.723907	146.000000
490.817566	146.180000
490.911285	145.980000
491.004974	146.060000
491.098694	145.620000
491.192413	146.240000
491.286102	145.680000
491.379822	146.160000
491.473480	146.600000
491.567200	146.880000
491.660889	146.100000
491.754608	146.460000
491.848267	146.160000
491.941986	145.760000
492.035675	145.980000
492.129395	146.280000
492.223053	146.260000
492.316772	146.260000
492.410461	146.280000
492.504181	146.280000
492.597839	145.800000
492.691559	145.860000
492.785248	145.960000
492.878967	146.140000
492.972626	145.720000
493.066345	146.200000
493.160034	145.840000
493.253754	145.840000
493.347412	145.440000
493.441132	145.460000
493.534882	145.520000
493.628540	146.040000
493.722260	146.180000
493.815918	146.400000
493.909668	146.720000
494.003326	147.020000
494.097046	146.560000
494.190704	146.220000
494.284454	146.280000
494.378113	146.380000
494.471832	146.000000
494.565491	146.260000
494.659210	146.340000
494.752899	146.440000
494.846619	145.940000
494.940277	145.940000
495.033997	145.800000
495.127686	145.740000
495.221405	145.260000
495.315063	145.880000
495.408783	145.840000
495.502441	145.840000
495.596191	145.880000
495.689850	146.100000
495.783569	146.020000
495.877228	146.340000
495.970947	146.320000
496.064697	146.160000
496.158356	147.020000
496.252075	146.880000
496.345734	146.320000
496.439453	147.120000
496.533142	147.620000
496.626862	147.360000
496.720520	147.320000
496.814240	147.640000
496.907898	147.120000
497.001617	146.780000
497.095306	146.220000
497.189026	146.080000
497.282684	146.120000
497.376404	146.360000
497.470062	146.020000
497.563782	146.320000
497.657471	146.360000
497.751190	146.100000
497.844849	145.740000
497.938568	146.320000
498.032227	146.060000
498.125946	146.100000
498.219635	146.200000
498.313354	146.520000
498.407074	146.220000
498.500732	146.680000
498.594452	147.040000
498.688110	146.720000
498.781830	146.200000
498.875519	145.960000
498.969238	145.820000
499.062897	145.460000
499.156616	146.060000
499.250275	146.500000
499.343994	146.600000
499.437653	146.480000
499.531372	146.600000
499.625061	147.020000
499.718781	146.720000
499.812439	147.160000
499.906158	147.220000
499.999817	146.920000
500.093536	146.280000
500.187195	146.680000
500.280914	146.440000
500.374573	146.540000
500.468323	146.600000
500.561981	147.060000
500.655701	146.180000
500.749420	146.320000
500.843079	146.400000
500.936798	146.720000
501.030457	146.740000
501.124176	147.340000
501.217834	146.940000
501.311554	146.460000
501.405212	145.900000
501.498962	145.060000
501.592621	145.120000
501.686340	145.660000
501.779999	145.980000
501.873718	146.300000
501.967377	146.580000
502.061096	146.860000
502.154755	146.320000
502.248474	146.260000
502.342133	146.560000
502.435852	146.580000
502.529510	147.020000
502.623230	147.760000
502.716888	147.480000
502.810608	147.040000
502.904266	147.620000
502.997986	146.900000
503.091705	146.360000
503.185364	146.180000
503.279083	146.560000
503.372772	146.340000
503.466492	145.840000
503.560150	146.020000
503.653870	146.660000
503.747528	146.340000
503.841248	146.240000
503.934906	146.960000
504.028625	146.460000
504.122284	146.340000
504.216003	146.800000
504.309662	146.140000
504.403381	146.120000
504.497040	146.340000
504.590759	145.960000
504.684418	145.960000
504.778137	146.620000
504.871796	146.500000
504.965515	146.380000
505.059174	146.460000
505.152893	145.840000
505.246521	145.480000
505.340240	145.320000
505.433899	145.600000
505.527618	146.100000
505.621338	146.700000
505.714996	146.460000
505.808716	146.560000
505.902374	146.920000
505.996094	146.920000
506.089752	146.660000
506.183472	146.840000
506.277130	146.820000
506.370850	146.740000
506.464508	146.220000
506.558228	146.360000
506.651886	146.380000
506.745605	146.400000
506.839264	146.300000
506.932983	146.500000
507.026611	146.100000
507.120331	146.860000
507.213989	146.580000
507.307709	146.220000
507.401367	146.620000
507.495087	147.720000
507.588745	146.700000
507.682465	147.520000
507.776123	147.600000
507.869843	146.980000
507.963531	146.280000
508.057190	146.960000
508.150909	146.000000
508.244568	146.400000
508.338287	146.420000
508.431946	146.100000
508.525665	145.920000
508.619324	146.160000
508.713013	146.180000
508.806671	146.700000
508.900391	147.700000
508.994049	147.880000
509.087769	147.760000
509.181427	147.440000
509.275146	146.860000
509.368774	145.880000
509.462494	145.660000
509.556152	145.600000
509.649872	146.260000
509.743530	146.700000
509.837250	146.820000
509.930878	146.800000
510.024597	146.840000
510.118256	145.960000
510.211975	145.700000
510.305695	145.580000
510.399353	145.720000
510.493042	145.980000
510.586700	146.700000
510.680420	147.460000
510.774078	147.260000
510.867798	147.340000
510.961426	146.760000
511.055145	146.480000
511.148804	145.780000
511.242523	146.420000
511.336151	146.340000
511.429871	146.940000
511.523529	146.420000
511.617249	146.040000
511.710876	145.820000
511.804596	145.260000
511.898254	145.180000
511.991974	145.860000
512.085632	145.960000
512.179321	145.900000
512.272949	146.760000
512.366699	146.820000
512.460327	146.580000
512.554077	147.480000
512.647766	147.320000
512.741394	146.740000
512.835144	147.280000
512.928772	147.100000
513.022461	146.820000
513.116150	146.740000
513.209839	147.340000
513.303467	146.280000
513.397217	145.840000
513.490845	145.560000
513.584595	145.700000
513.678223	145.180000
513.771912	145.040000
513.865601	145.640000
513.959290	145.040000
514.052917	145.300000
514.146667	145.680000
514.240295	146.220000
514.333984	146.320000
514.427673	146.540000
514.521362	146.760000
514.614990	146.340000
514.708740	146.560000
514.802368	146.880000
514.896057	147.020000
514.989746	147.200000
515.083435	147.520000
515.177124	147.540000
515.270752	146.880000
515.364502	147.140000
515.458130	147.240000
515.551819	146.940000
515.645508	146.780000
515.739197	146.820000
515.832825	146.940000
515.926575	146.320000
516.020203	146.240000
516.113892	146.560000
516.207520	146.600000
516.301270	146.140000
516.394897	146.220000
516.488586	146.740000
516.582275	146.540000
516.675964	146.080000
516.769592	146.400000
516.863281	147.100000
516.956970	146.960000
517.050659	146.800000
517.144287	147.080000
517.238037	147.080000
517.331665	146.320000
517.425354	145.940000
517.519043	145.840000
517.612732	146.460000
517.706421	146.380000
517.800049	146.100000
517.893738	146.060000
517.987427	145.960000
518.081116	145.520000
518.174744	145.080000
518.268433	145.580000
518.362122	146.380000
518.455811	146.640000
518.549438	147.340000
518.643127	148.560000
518.736816	148.200000
518.830505	147.280000
518.924133	147.100000
519.017822	146.740000
519.111511	145.860000
519.205200	146.160000
519.298828	146.500000
519.392517	146.440000
519.486206	146.740000
519.579895	146.980000
519.673523	146.920000
519.767212	146.560000
519.860901	147.000000
519.954590	146.220000
520.048279	146.020000
520.141907	145.820000
520.235596	147.220000
520.329224	147.220000
520.422974	147.500000
520.516602	147.200000
520.610291	146.980000
520.703918	146.140000
520.797607	145.640000
520.891296	145.540000
520.984985	146.040000
521.078613	146.460000
521.172302	146.280000
521.265930	147.460000
521.359680	147.820000
521.453308	147.660000
521.546997	147.380000
521.640625	147.340000
521.734314	146.560000
521.827942	146.340000
521.921692	146.580000
522.015320	146.720000
522.109009	146.580000
522.202698	146.440000
522.296326	146.400000
522.390015	146.420000
522.483704	146.600000
522.577393	146.660000
522.671021	146.200000
522.764709	145.760000
522.858337	145.940000
522.952026	145.600000
523.045654	146.040000
523.139404	147.040000
523.233032	147.360000
523.326721	146.620000
523.420349	146.780000
523.514038	146.080000
523.607666	145.980000
523.701355	145.520000
523.795044	145.900000
523.888733	145.920000
523.982361	146.420000
524.076050	145.800000
524.169678	146.420000
524.263367	146.160000
524.356995	146.100000
524.450684	146.060000
524.544373	146.140000
524.638062	146.140000
524.731750	146.460000
524.825378	146.500000
524.919067	146.140000
525.012695	146.140000
525.106384	145.860000
525.200012	145.920000
525.293701	145.520000
525.387329	146.140000
525.481018	146.520000
525.574646	147.060000
525.668396	146.680000
525.762024	147.280000
525.855713	147.140000
525.949341	146.600000
526.043030	146.480000
526.136658	146.660000
526.230347	146.400000
526.323975	146.020000
526.417664	145.920000
526.511292	145.560000
526.604980	145.800000
526.698608	145.680000
526.792297	145.780000
526.885925	146.340000
526.979614	146.620000
527.073303	146.440000
527.166931	146.500000
527.260620	146.680000
527.354309	146.820000
527.447998	146.740000
527.541626	146.240000
527.635315	146.240000
527.728943	146.740000
527.822632	146.600000
527.916260	146.760000
528.009949	147.200000
528.103577	146.960000
528.197266	146.180000
528.290894	146.300000
528.384583	145.700000
528.478210	145.660000
528.571899	146.260000
528.665527	146.720000
528.759216	146.640000
528.852844	147.400000
528.946533	147.640000
529.040161	147.460000
529.133850	147.100000
529.227478	147.140000
529.321167	147.200000
529.414856	147.220000
529.508484	147.540000
529.602173	147.280000
529.695801	146.940000
529.789490	146.800000
529.883057	146.780000
529.976746	146.800000
530.070374	147.460000
530.164062	147.620000
530.257690	147.640000
530.351379	147.620000
530.445007	147.360000
530.538696	146.740000
530.632324	146.780000
530.726013	146.720000
530.819641	146.720000
530.913330	146.420000
531.006958	146.620000
531.100647	146.580000
531.194275	146.560000
531.287964	146.200000
531.381592	146.440000
531.475220	146.600000
531.568848	146.480000
531.662537	146.260000
531.756226	146.940000
531.849854	146.760000
531.943542	146.620000
532.037170	146.220000
532.130859	146.480000
532.224487	146.040000
532.318176	145.600000
532.411804	146.320000
532.505432	146.920000
532.599060	146.660000
532.692749	146.600000
532.786377	147.340000
532.880066	146.440000
532.973694	145.800000
533.067383	145.760000
533.161011	145.680000
533.254639	145.260000
533.348267	145.180000
533.441956	145.840000
533.535583	145.880000
533.629272	145.860000
533.722900	145.480000
533.816589	145.700000
533.910156	145.940000
534.003845	145.460000
534.097534	145.800000
534.191162	146.740000
534.284851	146.760000
534.378479	146.380000
534.472107	147.020000
534.565735	146.580000
534.659424	146.700000
534.753052	146.920000
534.846741	146.600000
534.940369	146.840000
535.033997	147.220000
535.127625	146.900000
535.221313	147.180000
535.314941	147.200000
535.408630	146.360000
535.502197	146.680000
535.595886	146.520000
535.689514	146.160000
535.783203	146.740000
535.876831	147.320000
535.970459	146.900000
536.064087	146.700000
536.157776	146.580000
536.251404	146.480000
536.345093	146.160000
536.438721	146.080000
536.532349	146.440000
536.626038	146.400000
536.719666	146.520000
536.813293	146.420000
536.906921	146.480000
537.000610	146.800000
537.094238	146.700000
537.187866	146.320000
537.281494	146.720000
537.375183	146.820000
537.468811	146.100000
537.562439	146.260000
537.656067	146.380000
537.749756	146.320000
537.843384	146.820000
537.937012	147.360000
538.030640	147.320000
538.124329	147.140000
538.217896	147.220000
538.311584	147.000000
538.405212	146.660000
538.498901	146.900000
538.592468	147.600000
538.686157	147.280000
538.779785	146.320000
538.873413	146.320000
538.967102	146.080000
539.060730	145.360000
539.154358	145.800000
539.247986	146.640000
539.341675	146.640000
539.435242	146.460000
539.528931	146.900000
539.622559	146.220000
539.716187	146.580000
539.809814	146.660000
539.903503	146.820000
539.997070	146.500000
540.090759	146.700000
540.184387	146.200000
540.278015	146.460000
540.371643	146.760000
540.465332	146.800000
540.558899	146.760000
540.652588	146.960000
540.746216	146.800000
540.839844	147.000000
540.933472	146.980000
541.027100	147.140000
541.120728	147.060000
541.214417	147.280000
541.308044	147.360000
541.401672	147.220000
541.495300	146.800000
541.588928	146.920000
541.682617	146.400000
541.776184	145.720000
541.869873	145.960000
541.963440	146.340000
542.057129	145.880000
542.150757	146.180000
542.244385	146.080000
542.338013	145.880000
542.431641	145.720000
542.525269	145.620000
542.618958	145.960000
542.712524	146.460000
542.806213	146.400000
542.899780	146.840000
542.993469	146.860000
543.087036	146.420000
543.180725	146.000000
543.274292	146.260000
543.367981	146.420000
543.461548	147.040000
543.555237	147.080000
543.648926	147.560000
543.742493	148.180000
543.836182	147.940000
543.929749	147.580000
544.023437	147.560000
544.117004	147.240000
544.210693	146.920000
544.304260	147.040000
544.397949	146.820000
544.491516	147.000000
544.585205	147.160000
544.678772	146.600000
544.772461	146.500000
544.866028	146.580000
544.959717	146.280000
545.053284	145.800000
545.146973	146.120000
545.240540	146.080000
545.334229	146.480000
545.427795	146.780000
545.521423	146.780000
545.615051	146.860000
545.708679	147.200000
545.802307	147.160000
545.895935	147.240000
545.989624	148.160000
546.083191	147.800000
546.176880	147.460000
546.270447	146.920000
546.364136	147.100000
546.457703	146.460000
546.551331	146.580000
546.644958	146.860000
546.738586	147.320000
546.832214	146.660000
546.925842	146.720000
547.019409	146.940000
547.113098	146.560000
547.206665	146.140000
547.300354	146.480000
547.393921	146.520000
547.487549	146.680000
547.581177	146.520000
547.674805	146.960000
547.768433	146.320000
547.862061	146.540000
547.955627	146.140000
548.049316	146.540000
548.142883	146.340000
548.236572	147.300000
548.330139	147.220000
548.423767	147.160000
548.517456	147.280000
548.611023	147.580000
548.704651	146.800000
548.798279	146.840000
548.891907	147.380000
548.985474	147.380000
549.079163	147.440000
549.172729	147.480000
549.266357	146.720000
549.359985	146.640000
549.453613	145.820000
549.547180	145.680000
549.640869	146.140000
549.734436	146.420000
549.828064	146.300000
549.921631	146.400000
550.015320	145.680000
550.108887	146.100000
550.202515	146.420000
550.296143	146.000000
550.389771	146.340000
550.483337	146.640000
550.576965	146.120000
550.670593	146.280000
550.764221	146.640000
550.857849	146.260000
550.951477	145.940000
551.045105	145.640000
551.138672	145.620000
551.232300	145.220000
551.325928	145.860000
551.419556	146.440000
551.513123	146.520000
551.606750	146.200000
551.700378	146.320000
551.794006	146.080000
551.887573	145.980000
551.981201	146.340000
552.074768	146.140000
552.168457	146.000000
552.262024	146.920000
552.355652	146.700000
552.449219	147.140000
552.542847	147.600000
552.636475	147.600000
552.730103	146.280000
552.823669	146.380000
552.917297	145.760000
553.010864	145.840000
553.104553	146.140000
553.198181	146.320000
553.291748	146.820000
553.385376	146.960000
553.478943	146.560000
553.572571	146.700000
553.666199	146.680000
553.759827	145.980000
553.853394	145.280000
553.947021	145.480000
554.040588	145.340000
554.134216	145.700000
554.227783	146.440000
554.321411	147.400000
554.415039	146.960000
554.508667	146.840000
554.602234	147.100000
554.695862	146.500000
554.789429	146.080000
554.883057	146.520000
554.976624	146.420000
555.070251	146.040000
555.163818	145.900000
555.257507	145.980000
555.351074	145.760000
555.444702	147.100000
555.538330	146.920000
555.631897	147.640000
555.725525	147.540000
555.819092	147.620000
555.912720	146.140000
556.006287	146.700000
556.099915	146.240000
556.193481	146.240000
556.287109	146.380000
556.380676	146.400000
556.474304	146.240000
556.567871	146.220000
556.661499	146.100000
556.755066	146.080000
556.848694	146.420000
556.942261	146.320000
557.035889	146.780000
557.129517	147.080000
557.223145	147.720000
557.316711	147.640000
557.410339	147.680000
557.503906	147.240000
557.597473	147.280000
557.691040	146.540000
557.784668	146.800000
557.878296	146.640000
557.971863	146.800000
558.065491	146.860000
558.159058	146.520000
558.252686	146.960000
558.346252	147.640000
558.439880	147.220000
558.533447	146.680000
558.627075	146.820000
558.720642	145.820000
558.814270	145.700000
558.907837	146.020000
559.001465	145.680000
559.095032	146.460000
559.188660	147.060000
559.282227	146.140000
559.375854	146.700000
559.469360	146.980000
559.562988	147.080000
559.656555	146.880000
559.750183	147.600000
559.843750	147.180000
559.937378	147.500000
560.030945	146.840000
560.124573	0.000000
560.218140	0.000000
560.311707	0.000000
560.405334	0.000000
560.498901	0.000000
560.592529	0.000000
560.686096	0.000000
560.779724	0.000000
560.873291	0.000000
560.966858	0.000000
561.060425	0.000000
561.154053	0.000000
561.247620	0.000000
561.341248	0.000000
561.434814	0.000000
561.528381	0.000000
561.621948	0.000000
561.715576	0.000000
561.809143	0.000000
561.902771	0.000000
561.996277	0.000000
562.089905	0.000000
562.183472	0.000000
562.277100	0.000000
