Model Number: SPM-002-B   
Serial Number: 70087108
Firmware Version: 004.15.4
Exposure Time: 100000.000000us
Data Taken on: 11-12-2020 18:45:09.490
Wavelength	Amplitude
221.570786	0.000000
221.663406	0.000000
221.756027	0.000000
221.848648	0.000000
221.941269	0.000000
222.033905	0.000000
222.126526	0.000000
222.219162	0.000000
222.311798	0.000000
222.404419	0.000000
222.497055	0.000000
222.589676	0.000000
222.682312	0.000000
222.774933	0.000000
222.867569	0.000000
222.960205	0.000000
223.052841	0.000000
223.145462	0.000000
223.238098	0.000000
223.330734	0.000000
223.423386	0.000000
223.516022	0.000000
223.608658	0.000000
223.701309	0.000000
223.793945	0.000000
223.886581	0.000000
223.979218	0.000000
224.071869	0.000000
224.164505	0.000000
224.257156	0.000000
224.349792	0.000000
224.442444	0.000000
224.535095	0.000000
224.627747	0.000000
224.720398	0.000000
224.813034	0.000000
224.905685	0.000000
224.998337	146.540000
225.090988	146.040000
225.183640	145.920000
225.276291	145.600000
225.368942	145.860000
225.461594	146.680000
225.554245	147.220000
225.646912	147.360000
225.739578	148.240000
225.832230	148.640000
225.924896	147.280000
226.017548	147.500000
226.110199	147.740000
226.202866	146.700000
226.295532	146.360000
226.388184	146.580000
226.480850	146.160000
226.573517	145.720000
226.666168	145.920000
226.758835	145.960000
226.851501	146.480000
226.944183	146.560000
227.036850	146.420000
227.129517	146.420000
227.222183	146.620000
227.314850	146.520000
227.407516	146.940000
227.500198	147.860000
227.592865	147.440000
227.685532	147.100000
227.778214	146.840000
227.870880	146.940000
227.963562	146.920000
228.056229	147.700000
228.148926	147.700000
228.241592	148.400000
228.334274	147.720000
228.426956	147.340000
228.519638	147.340000
228.612305	146.880000
228.704987	146.780000
228.797668	147.100000
228.890350	147.120000
228.983032	146.540000
229.075714	147.500000
229.168396	146.880000
229.261108	146.320000
229.353790	146.320000
229.446472	146.620000
229.539169	146.260000
229.631851	146.120000
229.724533	146.540000
229.817230	146.780000
229.909912	147.720000
230.002609	147.540000
230.095306	147.820000
230.187988	147.600000
230.280685	147.220000
230.373383	145.860000
230.466095	145.840000
230.558792	146.020000
230.651474	146.100000
230.744171	146.060000
230.836868	146.060000
230.929581	146.340000
231.022278	146.040000
231.114975	146.180000
231.207672	146.140000
231.300369	146.900000
231.393082	146.700000
231.485779	146.320000
231.578506	146.140000
231.671204	146.340000
231.763916	145.960000
231.856613	146.000000
231.949326	146.900000
232.042023	146.800000
232.134735	146.620000
232.227448	146.300000
232.320160	146.540000
232.412872	146.180000
232.505585	146.780000
232.598297	147.300000
232.691010	147.280000
232.783722	147.040000
232.876450	147.520000
232.969162	147.140000
233.061874	146.280000
233.154587	146.120000
233.247314	146.160000
233.340027	145.440000
233.432739	145.720000
233.525467	145.880000
233.618179	146.420000
233.710907	146.300000
233.803635	147.260000
233.896347	146.960000
233.989090	147.740000
234.081818	147.820000
234.174545	148.200000
234.267258	147.440000
234.359985	147.860000
234.452713	147.320000
234.545441	147.080000
234.638168	146.740000
234.730896	147.140000
234.823639	146.760000
234.916367	147.280000
235.009094	147.300000
235.101822	147.340000
235.194580	147.160000
235.287308	147.140000
235.380051	146.580000
235.472778	146.960000
235.565521	147.220000
235.658249	146.880000
235.750992	146.780000
235.843719	146.720000
235.936462	146.700000
236.029205	146.140000
236.121948	145.960000
236.214691	146.560000
236.307449	147.320000
236.400192	146.500000
236.492935	146.540000
236.585678	147.120000
236.678421	146.580000
236.771164	146.040000
236.863907	147.100000
236.956665	147.400000
237.049408	148.360000
237.142151	148.180000
237.234909	148.600000
237.327652	148.300000
237.420410	148.180000
237.513153	147.480000
237.605927	147.480000
237.698669	147.140000
237.791428	146.700000
237.884186	147.080000
237.976944	146.300000
238.069702	146.560000
238.162445	146.160000
238.255203	146.200000
238.347961	146.120000
238.440720	146.180000
238.533478	145.960000
238.626266	145.700000
238.719025	146.120000
238.811783	145.820000
238.904541	145.880000
238.997314	145.800000
239.090073	145.840000
239.182831	145.660000
239.275604	146.280000
239.368362	146.000000
239.461136	146.040000
239.553909	146.040000
239.646667	145.860000
239.739441	145.520000
239.832214	146.120000
239.925003	146.640000
240.017761	147.340000
240.110535	148.000000
240.203308	147.580000
240.296082	147.360000
240.388855	147.160000
240.481628	147.320000
240.574417	147.080000
240.667191	147.380000
240.759964	147.280000
240.852737	147.140000
240.945526	146.640000
241.038315	146.280000
241.131088	146.440000
241.223877	146.760000
241.316650	146.420000
241.409439	146.800000
241.502228	146.480000
241.595001	146.820000
241.687790	146.700000
241.780579	146.880000
241.873367	147.080000
241.966141	147.460000
242.058929	146.960000
242.151718	147.000000
242.244507	147.180000
242.337311	146.020000
242.430099	146.540000
242.522903	146.460000
242.615692	146.040000
242.708481	146.120000
242.801270	147.220000
242.894073	146.940000
242.986862	146.980000
243.079651	147.660000
243.172455	147.540000
243.265244	147.500000
243.358063	147.100000
243.450867	147.520000
243.543655	147.520000
243.636459	147.700000
243.729263	147.480000
243.822067	148.040000
243.914856	147.980000
244.007660	147.800000
244.100464	147.820000
244.193268	147.560000
244.286072	146.960000
244.378876	146.680000
244.471680	146.320000
244.564499	146.300000
244.657318	146.900000
244.750122	147.300000
244.842926	146.780000
244.935745	147.440000
245.028549	147.400000
245.121368	146.900000
245.214172	146.880000
245.306992	147.480000
245.399796	146.780000
245.492615	146.800000
245.585434	146.760000
245.678253	146.540000
245.771072	146.220000
245.863892	146.980000
245.956711	146.960000
246.049530	146.700000
246.142349	146.700000
246.235168	146.760000
246.327988	146.900000
246.420807	146.940000
246.513626	147.200000
246.606445	146.920000
246.699280	146.800000
246.792099	146.420000
246.884918	145.920000
246.977753	145.860000
247.070587	146.340000
247.163422	146.500000
247.256241	146.300000
247.349075	146.720000
247.441895	146.720000
247.534729	146.520000
247.627563	146.500000
247.720383	147.120000
247.813217	146.880000
247.906052	146.700000
247.998886	146.700000
248.091736	146.580000
248.184570	146.100000
248.277405	146.120000
248.370239	147.080000
248.463074	147.900000
248.555908	148.220000
248.648743	148.100000
248.741592	148.440000
248.834427	147.620000
248.927261	146.360000
249.020111	146.500000
249.112946	147.060000
249.205795	146.520000
249.298630	146.680000
249.391495	146.860000
249.484344	146.700000
249.577179	146.520000
249.670029	146.940000
249.762878	147.460000
249.855728	147.600000
249.948563	147.580000
250.041412	146.740000
250.134262	146.880000
250.227112	146.840000
250.319962	146.940000
250.412827	146.940000
250.505692	146.940000
250.598541	146.940000
250.691391	146.360000
250.784241	146.480000
250.877106	146.320000
250.969955	146.300000
251.062805	146.760000
251.155670	147.200000
251.248520	146.660000
251.341385	147.120000
251.434235	147.240000
251.527100	146.560000
251.619965	146.580000
251.712814	147.700000
251.805695	147.280000
251.898560	147.580000
251.991425	147.700000
252.084290	147.460000
252.177155	146.560000
252.270020	146.520000
252.362885	146.540000
252.455750	146.640000
252.548615	146.620000
252.641479	146.640000
252.734360	146.560000
252.827240	146.500000
252.920105	146.400000
253.012970	146.120000
253.105850	146.140000
253.198715	145.960000
253.291595	145.980000
253.384460	145.800000
253.477341	145.700000
253.570221	145.840000
253.663086	145.700000
253.755966	146.160000
253.848846	146.360000
253.941727	146.680000
254.034592	146.640000
254.127472	146.660000
254.220367	146.400000
254.313248	146.360000
254.406128	146.240000
254.499008	146.340000
254.591904	147.400000
254.684784	147.800000
254.777664	147.700000
254.870544	147.080000
254.963440	147.180000
255.056335	146.620000
255.149216	146.040000
255.242111	146.400000
255.334991	147.180000
255.427887	147.220000
255.520767	147.400000
255.613663	147.680000
255.706558	147.140000
255.799438	146.860000
255.892334	146.420000
255.985229	146.460000
256.078125	146.260000
256.171021	146.580000
256.263916	146.960000
256.356812	147.520000
256.449707	147.420000
256.542603	147.220000
256.635498	147.420000
256.728394	147.140000
256.821289	146.700000
256.914215	146.660000
257.007080	147.240000
257.100006	147.040000
257.192932	147.340000
257.285828	147.720000
257.378723	147.660000
257.471619	146.920000
257.564545	146.520000
257.657440	146.480000
257.750336	146.680000
257.843262	146.380000
257.936157	147.680000
258.029053	148.200000
258.121979	148.240000
258.214874	147.800000
258.307800	147.480000
258.400696	146.260000
258.493622	146.200000
258.586517	145.680000
258.679443	145.960000
258.772339	146.000000
258.865265	145.880000
258.958160	145.300000
259.051086	146.060000
259.144012	145.880000
259.236938	146.660000
259.329834	146.940000
259.422791	147.260000
259.515717	146.540000
259.608612	145.960000
259.701538	145.760000
259.794464	145.560000
259.887390	145.360000
259.980316	145.420000
260.073212	145.580000
260.166138	144.800000
260.259064	145.380000
260.351990	145.920000
260.444916	146.080000
260.537842	146.460000
260.630768	147.420000
260.723694	147.020000
260.816620	147.000000
260.909546	146.800000
261.002472	146.620000
261.095398	146.060000
261.188354	146.040000
261.281281	145.240000
261.374207	145.280000
261.467133	145.980000
261.560089	146.040000
261.653015	145.800000
261.745972	146.880000
261.838867	147.560000
261.931824	147.400000
262.024780	147.480000
262.117706	147.740000
262.210663	147.620000
262.303589	146.980000
262.396515	147.140000
262.489471	147.820000
262.582397	147.760000
262.675354	147.120000
262.768280	147.420000
262.861237	147.180000
262.954163	146.620000
263.047119	146.940000
263.140045	146.880000
263.233002	146.780000
263.325958	146.640000
263.418884	146.320000
263.511841	146.020000
263.604797	146.280000
263.697723	146.240000
263.790680	146.080000
263.883636	146.440000
263.976593	146.560000
264.069550	146.540000
264.162476	146.540000
264.255463	146.440000
264.348419	146.300000
264.441376	146.480000
264.534332	146.140000
264.627289	146.020000
264.720245	146.380000
264.813202	145.840000
264.906158	145.840000
264.999115	146.360000
265.092072	146.600000
265.185028	147.320000
265.277985	147.740000
265.370941	147.520000
265.463898	147.220000
265.556854	146.720000
265.649811	145.600000
265.742798	145.520000
265.835754	145.640000
265.928711	146.120000
266.021667	146.380000
266.114655	146.540000
266.207611	147.000000
266.300568	146.260000
266.393585	145.560000
266.486511	145.920000
266.579498	145.320000
266.672485	145.260000
266.765442	145.820000
266.858429	146.400000
266.951385	145.800000
267.044342	146.000000
267.137329	145.680000
267.230316	145.880000
267.323273	145.180000
267.416260	146.080000
267.509216	146.120000
267.602203	146.180000
267.695160	146.300000
267.788147	146.640000
267.881134	145.680000
267.974091	146.060000
268.067078	146.180000
268.160065	146.040000
268.253052	146.200000
268.346008	146.600000
268.438995	146.400000
268.531982	146.360000
268.624969	146.040000
268.717987	146.440000
268.810944	146.460000
268.903961	146.660000
268.996948	146.540000
269.089905	146.900000
269.182892	146.560000
269.275879	146.720000
269.368866	146.480000
269.461853	146.820000
269.554871	146.760000
269.647858	146.880000
269.740845	147.200000
269.833832	147.320000
269.926819	146.820000
270.019806	147.180000
270.112793	146.840000
270.205811	146.500000
270.298798	146.440000
270.391785	147.240000
270.484772	146.800000
270.577789	146.800000
270.670776	146.260000
270.763763	146.200000
270.856750	145.980000
270.949768	145.700000
271.042786	145.960000
271.135773	146.220000
271.228790	146.580000
271.321808	145.860000
271.414795	145.520000
271.507782	145.060000
271.600800	144.700000
271.693817	144.940000
271.786804	145.520000
271.879822	145.940000
271.972809	146.400000
272.065826	147.020000
272.158844	146.320000
272.251831	146.880000
272.344849	147.220000
272.437866	146.680000
272.530853	146.500000
272.623871	146.820000
272.716888	145.760000
272.809906	146.060000
272.902893	146.340000
272.995911	145.840000
273.088928	145.920000
273.181946	146.200000
273.274963	145.580000
273.367981	145.360000
273.460999	145.860000
273.554047	146.260000
273.647003	147.240000
273.740051	147.360000
273.833069	147.920000
273.926086	148.140000
274.019135	147.660000
274.112152	146.620000
274.205170	146.840000
274.298187	147.140000
274.391205	146.480000
274.484222	146.720000
274.577240	147.040000
274.670258	146.740000
274.763306	146.420000
274.856323	146.980000
274.949341	146.740000
275.042358	147.040000
275.135406	146.860000
275.228424	146.680000
275.321442	146.560000
275.414490	146.120000
275.507507	146.140000
275.600525	146.400000
275.693573	146.200000
275.786591	146.060000
275.879669	146.500000
275.972656	146.220000
276.065735	146.460000
276.158752	146.960000
276.251801	147.500000
276.344818	147.600000
276.437866	147.400000
276.530884	146.900000
276.623932	146.200000
276.716980	146.160000
276.809998	145.980000
276.903046	146.060000
276.996094	147.020000
277.089111	147.820000
277.182159	147.920000
277.275208	147.820000
277.368256	147.940000
277.461304	147.340000
277.554321	146.520000
277.647369	146.600000
277.740417	146.860000
277.833466	146.940000
277.926514	146.800000
278.019562	147.600000
278.112610	146.920000
278.205688	146.820000
278.298706	146.700000
278.391785	146.360000
278.484833	145.800000
278.577881	145.760000
278.670929	146.100000
278.763977	146.160000
278.857025	146.880000
278.950073	147.060000
279.043121	146.960000
279.136169	146.920000
279.229248	146.780000
279.322296	146.540000
279.415344	146.420000
279.508392	146.340000
279.601440	146.100000
279.694519	145.720000
279.787567	145.680000
279.880615	145.320000
279.973694	145.500000
280.066742	145.420000
280.159790	145.920000
280.252869	145.280000
280.345917	145.700000
280.438995	145.580000
280.532074	145.720000
280.625122	145.900000
280.718201	147.040000
280.811279	146.820000
280.904327	147.100000
280.997406	147.040000
281.090454	146.740000
281.183533	145.960000
281.276581	145.880000
281.369659	145.520000
281.462738	145.680000
281.555786	145.700000
281.648865	146.020000
281.741943	146.180000
281.835022	146.680000
281.928070	146.220000
282.021149	145.900000
282.114227	145.460000
282.207306	145.560000
282.300385	145.680000
282.393433	146.020000
282.486511	146.100000
282.579590	146.900000
282.672668	147.040000
282.765747	146.460000
282.858856	146.300000
282.951904	146.740000
283.045013	146.340000
283.138062	146.560000
283.231171	147.040000
283.324249	147.280000
283.417328	147.260000
283.510406	147.060000
283.603485	146.820000
283.696564	146.540000
283.789642	146.580000
283.882751	146.400000
283.975830	146.920000
284.068909	146.300000
284.161987	146.980000
284.255066	146.200000
284.348175	146.480000
284.441254	146.640000
284.534332	147.700000
284.627441	147.140000
284.720520	147.380000
284.813599	147.440000
284.906708	146.980000
284.999786	146.040000
285.092896	145.820000
285.185974	146.660000
285.279053	146.020000
285.372192	146.120000
285.465240	147.020000
285.558380	147.120000
285.651459	146.580000
285.744568	147.560000
285.837677	147.280000
285.930756	147.000000
286.023865	147.000000
286.116943	146.580000
286.210052	146.400000
286.303162	146.620000
286.396240	146.500000
286.489349	146.580000
286.582458	147.220000
286.675568	146.840000
286.768646	146.800000
286.861755	147.180000
286.954865	147.860000
287.047974	147.140000
287.141083	146.880000
287.234161	146.740000
287.327271	146.340000
287.420380	146.720000
287.513519	146.740000
287.606598	146.800000
287.699738	146.740000
287.792816	146.620000
287.885956	145.900000
287.979034	146.280000
288.072174	146.400000
288.165283	146.600000
288.258392	146.900000
288.351501	146.100000
288.444611	146.160000
288.537720	146.380000
288.630859	146.280000
288.723969	146.180000
288.817078	146.520000
288.910187	146.520000
289.003296	146.080000
289.096436	146.060000
289.189545	145.760000
289.282654	145.660000
289.375763	145.860000
289.468903	146.360000
289.562012	146.580000
289.655121	146.740000
289.748260	146.740000
289.841400	146.880000
289.934509	146.480000
290.027649	146.540000
290.120728	146.380000
290.213898	146.520000
290.306976	146.080000
290.400146	146.220000
290.493256	145.900000
290.586395	146.320000
290.679535	146.860000
290.772644	146.800000
290.865784	146.220000
290.958893	146.100000
291.052032	146.000000
291.145172	145.660000
291.238281	145.740000
291.331421	146.060000
291.424561	146.620000
291.517670	146.180000
291.610809	146.560000
291.703949	146.560000
291.797089	146.800000
291.890228	146.320000
291.983337	146.240000
292.076477	145.900000
292.169617	146.220000
292.262756	146.400000
292.355927	146.460000
292.449036	146.460000
292.542206	146.200000
292.635315	146.120000
292.728485	145.980000
292.821625	145.680000
292.914764	146.700000
293.007904	147.200000
293.101044	147.080000
293.194183	147.100000
293.287323	147.580000
293.380463	146.940000
293.473602	146.340000
293.566742	146.640000
293.659882	147.020000
293.753021	147.080000
293.846191	147.040000
293.939331	146.840000
294.032471	146.640000
294.125610	146.020000
294.218781	145.980000
294.311920	146.200000
294.405060	146.840000
294.498230	146.560000
294.591370	147.120000
294.684540	146.700000
294.777679	146.360000
294.870850	146.300000
294.963959	146.420000
295.057159	145.760000
295.150299	146.120000
295.243469	146.120000
295.336609	145.900000
295.429779	146.040000
295.522919	146.420000
295.616089	146.280000
295.709229	146.820000
295.802399	146.940000
295.895569	146.340000
295.988708	146.100000
296.081879	146.440000
296.175018	145.820000
296.268188	145.660000
296.361359	146.360000
296.454529	146.460000
296.547668	146.240000
296.640839	146.600000
296.734009	146.380000
296.827179	146.100000
296.920319	146.360000
297.013519	146.140000
297.106659	146.340000
297.199860	146.680000
297.292999	146.680000
297.386200	146.380000
297.479309	146.240000
297.572510	145.940000
297.665680	145.940000
297.758850	146.340000
297.852020	146.400000
297.945190	146.480000
298.038361	146.020000
298.131531	146.660000
298.224701	146.300000
298.317871	145.720000
298.411072	145.500000
298.504242	145.560000
298.597412	144.720000
298.690582	144.960000
298.783752	145.380000
298.876923	145.920000
298.970093	146.080000
299.063293	146.480000
299.156464	146.680000
299.249634	147.140000
299.342834	147.060000
299.436005	147.240000
299.529205	146.980000
299.622345	146.660000
299.715576	145.720000
299.808716	145.460000
299.901917	145.540000
299.995117	145.980000
300.088287	146.160000
300.181488	146.520000
300.274658	146.600000
300.367828	146.340000
300.461029	146.080000
300.554199	146.200000
300.647400	146.180000
300.740601	146.540000
300.833771	146.600000
300.926971	146.900000
301.020142	146.260000
301.113342	146.420000
301.206512	146.460000
301.299713	146.880000
301.392914	146.680000
301.486084	147.260000
301.579285	147.160000
301.672516	147.260000
301.765686	146.880000
301.858887	146.780000
301.952057	146.660000
302.045288	146.500000
302.138458	146.300000
302.231659	146.100000
302.324860	145.860000
302.418060	145.240000
302.511261	145.260000
302.604462	145.280000
302.697662	145.420000
302.790863	145.440000
302.884064	145.560000
302.977264	145.780000
303.070465	146.080000
303.163666	146.480000
303.256866	146.920000
303.350067	146.900000
303.443268	146.760000
303.536469	146.540000
303.629669	146.060000
303.722870	145.800000
303.816071	145.940000
303.909271	146.120000
304.002472	145.400000
304.095673	145.600000
304.188934	145.120000
304.282104	145.940000
304.375336	145.580000
304.468506	145.680000
304.561768	145.240000
304.654968	145.980000
304.748169	145.220000
304.841370	145.440000
304.934601	146.220000
305.027802	146.200000
305.121002	145.440000
305.214233	145.580000
305.307434	145.760000
305.400665	146.020000
305.493866	146.220000
305.587097	146.740000
305.680298	146.680000
305.773499	147.120000
305.866730	146.600000
305.959930	147.020000
306.053162	147.440000
306.146393	147.020000
306.239594	146.140000
306.332825	146.040000
306.426025	146.320000
306.519287	145.500000
306.612488	145.900000
306.705719	146.120000
306.798920	145.960000
306.892181	145.140000
306.985352	145.180000
307.078613	144.840000
307.171844	145.060000
307.265045	145.000000
307.358276	144.780000
307.451508	145.060000
307.544739	145.760000
307.637970	145.600000
307.731201	145.780000
307.824402	146.740000
307.917633	147.120000
308.010864	147.180000
308.104095	147.600000
308.197327	147.760000
308.290558	147.540000
308.383789	146.980000
308.477020	146.700000
308.570251	146.080000
308.663483	145.340000
308.756714	145.300000
308.849976	145.300000
308.943176	145.500000
309.036438	145.580000
309.129639	145.640000
309.222900	145.460000
309.316101	145.480000
309.409393	145.120000
309.502625	144.860000
309.595856	145.360000
309.689087	145.540000
309.782318	145.780000
309.875580	145.840000
309.968811	146.140000
310.062042	145.940000
310.155273	145.740000
310.248535	145.940000
310.341766	145.860000
310.434998	145.760000
310.528259	145.680000
310.621490	146.040000
310.714722	145.260000
310.807983	145.380000
310.901215	145.500000
310.994476	145.860000
311.087708	145.580000
311.181000	146.100000
311.274200	145.780000
311.367462	145.980000
311.460693	145.500000
311.553986	146.120000
311.647186	146.360000
311.740479	147.000000
311.833710	146.600000
311.926971	147.040000
312.020203	146.100000
312.113464	145.820000
312.206726	145.020000
312.299957	145.320000
312.393219	145.700000
312.486481	145.920000
312.579712	145.980000
312.672974	146.380000
312.766235	146.400000
312.859497	145.760000
312.952759	145.840000
313.045990	146.300000
313.139252	145.520000
313.232513	145.600000
313.325775	146.060000
313.419037	145.300000
313.512299	144.460000
313.605530	145.880000
313.698822	145.860000
313.792053	145.580000
313.885345	145.940000
313.978577	146.480000
314.071869	145.580000
314.165131	145.780000
314.258392	146.180000
314.351654	146.480000
314.444916	145.600000
314.538177	146.540000
314.631439	146.300000
314.724701	146.000000
314.817993	146.080000
314.911255	146.800000
315.004517	145.920000
315.097778	146.140000
315.191040	146.560000
315.284302	146.580000
315.377594	146.280000
315.470856	146.500000
315.564117	145.940000
315.657379	145.240000
315.750671	144.780000
315.843933	145.280000
315.937195	144.840000
316.030518	144.700000
316.123749	144.860000
316.217041	145.820000
316.310303	145.840000
316.403595	146.140000
316.496857	146.780000
316.590149	147.000000
316.683411	146.240000
316.776703	145.900000
316.869965	146.080000
316.963257	145.580000
317.056519	144.860000
317.149811	144.940000
317.243073	144.860000
317.336365	144.840000
317.429626	145.320000
317.522919	146.060000
317.616180	146.180000
317.709473	145.800000
317.802765	145.560000
317.896027	145.680000
317.989319	145.900000
318.082611	146.000000
318.175873	146.240000
318.269165	146.300000
318.362488	145.940000
318.455750	145.460000
318.549042	145.560000
318.642303	146.400000
318.735626	146.520000
318.828888	146.740000
318.922211	146.600000
319.015472	147.060000
319.108765	146.200000
319.202057	145.680000
319.295349	145.680000
319.388641	145.860000
319.481934	145.240000
319.575226	145.180000
319.668518	145.760000
319.761810	146.060000
319.855103	146.060000
319.948395	146.380000
320.041687	146.940000
320.134979	147.000000
320.228271	146.460000
320.321564	146.540000
320.414856	146.200000
320.508148	145.780000
320.601440	145.360000
320.694763	145.400000
320.788025	145.840000
320.881348	146.240000
320.974640	146.140000
321.067963	145.920000
321.161224	145.920000
321.254547	145.080000
321.347839	145.340000
321.441162	145.380000
321.534454	145.820000
321.627747	145.760000
321.721069	146.740000
321.814362	146.400000
321.907654	146.360000
322.000946	146.420000
322.094269	146.900000
322.187561	146.120000
322.280884	146.660000
322.374176	146.700000
322.467468	146.960000
322.560791	146.940000
322.654083	147.460000
322.747406	147.040000
322.840698	147.360000
322.934021	147.820000
323.027344	147.840000
323.120636	147.460000
323.213959	147.360000
323.307251	146.920000
323.400574	146.060000
323.493866	145.360000
323.587219	145.500000
323.680511	145.720000
323.773834	146.000000
323.867157	145.940000
323.960449	146.240000
324.053772	146.060000
324.147095	145.680000
324.240387	146.240000
324.333710	146.680000
324.427032	146.820000
324.520355	146.880000
324.613647	146.740000
324.706970	146.420000
324.800293	146.280000
324.893616	146.720000
324.986938	147.100000
325.080231	147.100000
325.173553	147.020000
325.266876	147.280000
325.360199	147.040000
325.453522	146.340000
325.546875	146.180000
325.640167	146.540000
325.733521	146.720000
325.826813	146.760000
325.920166	146.960000
326.013489	146.860000
326.106812	145.540000
326.200134	144.640000
326.293457	144.200000
326.386780	144.280000
326.480103	144.620000
326.573425	145.080000
326.666748	145.520000
326.760071	145.820000
326.853424	145.820000
326.946747	145.560000
327.040070	146.580000
327.133392	146.200000
327.226715	145.700000
327.320068	145.460000
327.413391	146.120000
327.506714	145.240000
327.600037	145.440000
327.693390	145.680000
327.786713	145.740000
327.880066	145.320000
327.973358	145.800000
328.066742	146.100000
328.160034	146.460000
328.253418	146.620000
328.346710	146.480000
328.440063	146.080000
328.533417	145.840000
328.626740	145.800000
328.720093	145.700000
328.813416	145.840000
328.906769	146.040000
329.000092	146.200000
329.093445	146.000000
329.186768	145.680000
329.280121	146.140000
329.373444	146.500000
329.466797	146.680000
329.560120	146.500000
329.653473	146.940000
329.746796	146.400000
329.840149	145.920000
329.933502	145.960000
330.026825	146.020000
330.120178	146.020000
330.213562	146.100000
330.306854	146.040000
330.400238	145.680000
330.493561	145.580000
330.586945	146.240000
330.680237	146.340000
330.773621	146.620000
330.866974	146.720000
330.960327	146.920000
331.053680	146.460000
331.147003	146.680000
331.240356	147.080000
331.333710	147.040000
331.427063	146.880000
331.520416	146.560000
331.613770	146.380000
331.707123	146.200000
331.800476	146.560000
331.893829	147.420000
331.987152	147.740000
332.080505	147.780000
332.173859	147.280000
332.267212	146.620000
332.360565	145.980000
332.453918	145.760000
332.547333	145.600000
332.640656	145.920000
332.734039	146.360000
332.827362	146.500000
332.920746	146.840000
333.014069	147.040000
333.107452	147.140000
333.200806	147.300000
333.294159	147.260000
333.387543	146.660000
333.480896	146.160000
333.574249	145.920000
333.667603	145.560000
333.760956	145.720000
333.854340	146.060000
333.947693	146.280000
334.041046	146.080000
334.134430	146.120000
334.227783	145.900000
334.321136	145.640000
334.414520	145.480000
334.507874	146.000000
334.601227	146.180000
334.694611	146.020000
334.787964	146.040000
334.881348	146.400000
334.974701	146.340000
335.068085	145.980000
335.161438	146.380000
335.254822	146.480000
335.348175	146.680000
335.441559	146.300000
335.534943	147.060000
335.628296	146.700000
335.721680	146.920000
335.815033	146.800000
335.908417	146.920000
336.001770	146.680000
336.095154	146.280000
336.188538	145.820000
336.281891	145.240000
336.375275	145.020000
336.468658	144.540000
336.562012	144.980000
336.655396	145.260000
336.748779	145.740000
336.842133	145.860000
336.935516	146.100000
337.028900	146.060000
337.122284	145.920000
337.215637	146.020000
337.309021	145.700000
337.402435	145.320000
337.495789	144.860000
337.589203	144.860000
337.682526	144.580000
337.775940	145.000000
337.869324	145.360000
337.962708	145.300000
338.056091	145.800000
338.149475	145.340000
338.242859	145.440000
338.336243	145.220000
338.429626	145.720000
338.523010	145.420000
338.616394	145.540000
338.709778	145.420000
338.803162	145.680000
338.896545	145.600000
338.989929	145.320000
339.083313	145.600000
339.176697	145.620000
339.270081	145.480000
339.363464	145.840000
339.456848	146.300000
339.550232	145.940000
339.643616	145.780000
339.737030	145.840000
339.830383	145.780000
339.923828	145.640000
340.017181	146.080000
340.110596	146.000000
340.203949	145.780000
340.297363	145.340000
340.390778	145.380000
340.484161	145.400000
340.577545	145.740000
340.670959	146.180000
340.764343	146.160000
340.857727	146.380000
340.951111	145.880000
341.044525	145.880000
341.137909	145.300000
341.231293	145.180000
341.324707	144.640000
341.418091	145.600000
341.511505	145.260000
341.604889	145.820000
341.698303	146.180000
341.791687	146.600000
341.885071	145.840000
341.978485	145.940000
342.071899	145.920000
342.165283	146.140000
342.258698	146.160000
342.352081	146.800000
342.445496	147.380000
342.538879	146.980000
342.632324	146.480000
342.725708	146.340000
342.819122	145.740000
342.912506	145.160000
343.005920	145.420000
343.099335	146.420000
343.192719	146.260000
343.286133	146.440000
343.379547	146.540000
343.472931	146.420000
343.566345	145.540000
343.659760	145.820000
343.753143	145.420000
343.846558	145.160000
343.939972	145.140000
344.033386	146.040000
344.126770	145.660000
344.220184	146.140000
344.313599	146.420000
344.407043	146.620000
344.500427	145.560000
344.593872	146.200000
344.687225	145.700000
344.780670	145.500000
344.874054	145.240000
344.967499	145.800000
345.060913	145.420000
345.154327	145.500000
345.247742	145.420000
345.341156	145.260000
345.434570	144.780000
345.527985	144.820000
345.621399	144.980000
345.714813	144.740000
345.808228	145.080000
345.901642	145.100000
345.995056	144.760000
346.088470	145.240000
346.181885	145.680000
346.275299	145.140000
346.368713	145.140000
346.462128	144.800000
346.555573	144.500000
346.648987	145.080000
346.742401	145.540000
346.835815	146.200000
346.929260	146.560000
347.022644	146.600000
347.116119	146.400000
347.209503	146.720000
347.302948	147.020000
347.396362	147.960000
347.489807	148.200000
347.583221	148.480000
347.676636	148.060000
347.770050	147.300000
347.863495	146.560000
347.956909	146.440000
348.050323	145.840000
348.143768	145.780000
348.237183	145.500000
348.330597	146.120000
348.424042	146.480000
348.517456	146.800000
348.610901	147.100000
348.704315	147.200000
348.797760	146.320000
348.891174	145.380000
348.984619	145.040000
349.078033	145.280000
349.171448	145.740000
349.264923	145.600000
349.358337	146.080000
349.451782	146.140000
349.545197	145.440000
349.638641	144.980000
349.732086	144.980000
349.825500	145.280000
349.918945	144.920000
350.012390	145.540000
350.105804	145.900000
350.199249	146.220000
350.292664	146.360000
350.386108	146.580000
350.479553	146.580000
350.572968	146.420000
350.666412	146.660000
350.759857	146.240000
350.853302	146.600000
350.946716	146.320000
351.040161	146.720000
351.133606	146.540000
351.227081	146.420000
351.320465	147.120000
351.413940	147.360000
351.507355	147.160000
351.600830	147.220000
351.694244	146.860000
351.787720	146.280000
351.881104	146.060000
351.974579	145.600000
352.067993	146.120000
352.161469	146.620000
352.254883	146.060000
352.348358	145.920000
352.441803	145.900000
352.535248	145.200000
352.628693	145.260000
352.722137	145.180000
352.815582	145.560000
352.909027	146.220000
353.002472	146.480000
353.095917	146.400000
353.189362	146.860000
353.282806	146.560000
353.376251	146.200000
353.469696	145.800000
353.563141	146.020000
353.656586	145.720000
353.750061	145.460000
353.843475	145.380000
353.936981	145.900000
354.030396	145.500000
354.123871	145.560000
354.217285	146.260000
354.310760	146.660000
354.404175	146.440000
354.497681	146.260000
354.591095	146.440000
354.684570	145.740000
354.777985	145.320000
354.871490	145.320000
354.964935	145.980000
355.058380	145.800000
355.151855	145.660000
355.245300	146.180000
355.338745	146.440000
355.432220	146.100000
355.525665	145.800000
355.619110	146.600000
355.712585	145.880000
355.806030	145.520000
355.899475	145.320000
355.992950	146.020000
356.086426	146.200000
356.179871	146.620000
356.273346	146.480000
356.366791	146.800000
356.460266	146.800000
356.553711	146.080000
356.647186	146.260000
356.740631	146.280000
356.834106	145.900000
356.927551	145.820000
357.021027	146.020000
357.114471	145.880000
357.207947	145.960000
357.301422	146.760000
357.394867	146.940000
357.488342	147.100000
357.581818	146.840000
357.675262	147.240000
357.768738	146.580000
357.862213	145.820000
357.955658	145.680000
358.049133	145.600000
358.142609	145.660000
358.236053	145.700000
358.329529	146.040000
358.423035	146.360000
358.516449	146.320000
358.609955	146.440000
358.703400	147.120000
358.796906	147.240000
358.890350	146.360000
358.983826	146.900000
359.077271	146.280000
359.170776	145.880000
359.264221	145.500000
359.357727	146.220000
359.451172	146.180000
359.544647	146.400000
359.638123	146.040000
359.731598	146.420000
359.825073	146.800000
359.918549	146.620000
360.012024	146.580000
360.105499	146.000000
360.198975	146.020000
360.292450	145.760000
360.385925	145.800000
360.479401	145.460000
360.572876	146.340000
360.666351	146.320000
360.759857	145.920000
360.853302	145.920000
360.946808	145.560000
361.040253	145.340000
361.133759	145.140000
361.227203	145.460000
361.320709	145.120000
361.414154	145.860000
361.507660	146.360000
361.601105	146.880000
361.694641	147.100000
361.788086	147.140000
361.881592	147.420000
361.975067	146.640000
362.068542	146.740000
362.162018	146.620000
362.255524	146.340000
362.348999	146.080000
362.442474	146.660000
362.535950	146.020000
362.629456	145.800000
362.722931	146.060000
362.816406	146.600000
362.909882	146.900000
363.003387	146.780000
363.096863	147.060000
363.190338	147.160000
363.283875	146.480000
363.377319	146.200000
363.470825	146.740000
363.564301	146.220000
363.657806	146.320000
363.751282	146.460000
363.844788	147.080000
363.938232	146.680000
364.031769	147.480000
364.125214	147.500000
364.218750	147.960000
364.312225	146.780000
364.405731	146.880000
364.499207	146.220000
364.592712	145.820000
364.686188	145.540000
364.779694	145.960000
364.873169	146.160000
364.966675	146.120000
365.060150	146.180000
365.153656	146.180000
365.247131	146.100000
365.340637	146.000000
365.434143	146.600000
365.527618	146.820000
365.621155	146.220000
365.714600	146.020000
365.808136	146.040000
365.901611	145.080000
365.995117	144.980000
366.088593	145.520000
366.182129	145.440000
366.275604	145.260000
366.369110	145.280000
366.462585	145.080000
366.556122	145.400000
366.649567	145.680000
366.743103	146.140000
366.836609	146.140000
366.930115	146.800000
367.023590	146.660000
367.117096	146.460000
367.210602	146.160000
367.304108	146.880000
367.397614	147.040000
367.491119	147.260000
367.584595	147.640000
367.678101	148.040000
367.771606	147.900000
367.865112	147.380000
367.958649	146.500000
368.052124	146.120000
368.145660	145.740000
368.239136	146.160000
368.332672	146.400000
368.426147	146.920000
368.519684	146.760000
368.613159	147.080000
368.706696	146.400000
368.800171	146.360000
368.893707	146.060000
368.987183	146.360000
369.080719	146.140000
369.174225	146.260000
369.267731	146.260000
369.361237	146.520000
369.454742	146.540000
369.548248	146.620000
369.641754	146.180000
369.735260	145.940000
369.828766	145.180000
369.922272	145.620000
370.015808	145.020000
370.109314	145.380000
370.202820	145.460000
370.296356	146.640000
370.389832	146.240000
370.483368	146.320000
370.576874	145.900000
370.670410	146.000000
370.763885	144.740000
370.857422	144.640000
370.950928	144.640000
371.044464	145.400000
371.137939	145.460000
371.231476	146.240000
371.324982	146.900000
371.418518	147.460000
371.512024	147.220000
371.605560	146.840000
371.699066	146.760000
371.792572	146.260000
371.886108	146.140000
371.979614	145.640000
372.073120	146.200000
372.166656	145.940000
372.260162	146.220000
372.353668	145.680000
372.447205	145.980000
372.540710	145.620000
372.634277	145.700000
372.727753	145.660000
372.821320	145.960000
372.914795	146.120000
373.008362	146.160000
373.101837	146.520000
373.195404	146.020000
373.288879	146.060000
373.382446	146.680000
373.475922	146.780000
373.569489	147.040000
373.662964	147.680000
373.756531	147.960000
373.850037	147.440000
373.943573	147.140000
374.037109	145.940000
374.130615	146.020000
374.224152	145.800000
374.317657	145.900000
374.411194	146.920000
374.504730	147.200000
374.598236	146.520000
374.691772	146.180000
374.785309	145.900000
374.878815	144.500000
374.972351	145.280000
375.065887	145.440000
375.159454	146.240000
375.252930	146.140000
375.346497	146.760000
375.440002	146.800000
375.533569	146.640000
375.627045	145.940000
375.720612	145.740000
375.814117	145.980000
375.907684	145.560000
376.001160	145.580000
376.094727	145.240000
376.188232	146.120000
376.281799	146.060000
376.375336	145.980000
376.468872	146.740000
376.562408	147.180000
376.655914	146.460000
376.749451	146.400000
376.842987	146.920000
376.936523	146.340000
377.030060	146.540000
377.123596	147.180000
377.217133	146.760000
377.310669	146.500000
377.404205	146.860000
377.497772	147.120000
377.591278	146.640000
377.684845	147.480000
377.778351	147.360000
377.871918	146.780000
377.965424	145.860000
378.058990	145.960000
378.152496	145.400000
378.246063	145.480000
378.339569	145.840000
378.433136	145.960000
378.526642	145.900000
378.620209	145.820000
378.713745	145.480000
378.807312	145.940000
378.900848	146.340000
378.994385	146.660000
379.087921	146.320000
379.181458	146.600000
379.274994	145.760000
379.368530	145.640000
379.462097	145.580000
379.555634	146.180000
379.649170	145.500000
379.742706	145.540000
379.836273	145.780000
379.929810	145.380000
380.023376	144.980000
380.116882	145.520000
380.210449	145.580000
380.303986	145.140000
380.397552	145.020000
380.491058	145.200000
380.584656	145.040000
380.678162	145.200000
380.771729	145.360000
380.865265	146.120000
380.958832	146.280000
381.052368	146.740000
381.145935	147.140000
381.239471	147.660000
381.333008	147.340000
381.426575	147.260000
381.520111	147.500000
381.613647	147.600000
381.707214	147.260000
381.800751	146.580000
381.894318	146.840000
381.987854	146.320000
382.081421	145.660000
382.174988	145.440000
382.268524	145.620000
382.362091	145.460000
382.455627	146.020000
382.549194	145.980000
382.642731	145.480000
382.736298	145.520000
382.829834	145.280000
382.923401	145.660000
383.016937	146.100000
383.110504	146.820000
383.204041	146.960000
383.297607	147.200000
383.391174	146.240000
383.484741	146.880000
383.578278	146.660000
383.671844	146.460000
383.765411	145.840000
383.858948	146.180000
383.952515	145.620000
384.046051	145.960000
384.139618	146.400000
384.233185	146.900000
384.326721	146.680000
384.420288	146.920000
384.513855	146.720000
384.607422	146.940000
384.700989	146.940000
384.794525	146.540000
384.888123	146.280000
384.981659	146.700000
385.075226	146.300000
385.168762	146.220000
385.262360	146.680000
385.355896	145.760000
385.449463	145.280000
385.542999	144.880000
385.636597	145.600000
385.730164	145.280000
385.823730	145.560000
385.917267	145.420000
386.010834	145.760000
386.104401	145.180000
386.197968	145.940000
386.291534	146.320000
386.385101	146.500000
386.478668	146.780000
386.572235	146.640000
386.665802	145.760000
386.759338	145.240000
386.852905	145.020000
386.946472	144.480000
387.040070	144.780000
387.133606	145.040000
387.227203	145.440000
387.320740	145.900000
387.414337	146.160000
387.507874	145.960000
387.601471	145.940000
387.695007	145.780000
387.788605	145.240000
387.882141	145.460000
387.975739	145.360000
388.069275	145.360000
388.162872	145.560000
388.256439	145.780000
388.350037	145.520000
388.443604	145.700000
388.537170	145.580000
388.630737	145.880000
388.724304	145.900000
388.817871	145.880000
388.911438	145.900000
389.005005	146.100000
389.098602	146.040000
389.192169	145.580000
389.285736	145.940000
389.379333	145.740000
389.472870	145.480000
389.566467	145.500000
389.660034	146.000000
389.753632	145.440000
389.847168	145.660000
389.940765	146.240000
390.034332	146.220000
390.127930	146.020000
390.221466	146.280000
390.315063	145.940000
390.408630	145.180000
390.502228	144.700000
390.595795	144.780000
390.689362	144.860000
390.782959	145.400000
390.876526	145.960000
390.970093	145.840000
391.063690	146.340000
391.157257	146.100000
391.250824	145.980000
391.344421	145.760000
391.437988	146.360000
391.531555	146.300000
391.625153	146.480000
391.718750	146.660000
391.812317	146.500000
391.905914	146.340000
391.999481	146.140000
392.093079	146.400000
392.186615	146.580000
392.280243	146.780000
392.373779	147.040000
392.467407	147.580000
392.560944	147.240000
392.654572	146.620000
392.748108	146.500000
392.841736	146.220000
392.935303	145.600000
393.028900	145.660000
393.122467	145.840000
393.216064	145.680000
393.309631	145.200000
393.403229	145.060000
393.496796	144.900000
393.590393	144.240000
393.683990	144.580000
393.777557	145.360000
393.871155	145.600000
393.964722	146.100000
394.058350	146.860000
394.151917	147.020000
394.245514	146.520000
394.339081	146.860000
394.432678	146.960000
394.526245	146.740000
394.619873	146.020000
394.713409	146.380000
394.807037	146.040000
394.900604	145.720000
394.994202	145.960000
395.087769	146.520000
395.181396	146.100000
395.274994	146.680000
395.368561	146.180000
395.462158	146.040000
395.555756	145.480000
395.649353	145.660000
395.742920	145.020000
395.836517	146.140000
395.930115	145.460000
396.023712	146.140000
396.117279	146.680000
396.210876	146.280000
396.304474	145.940000
396.398071	146.600000
396.491669	146.760000
396.585266	146.420000
396.678833	146.600000
396.772461	146.820000
396.866028	147.060000
396.959656	147.440000
397.053223	148.100000
397.146851	148.960000
397.240417	150.440000
397.334015	152.540000
397.427582	154.460000
397.521210	157.160000
397.614807	161.100000
397.708405	165.040000
397.802002	170.220000
397.895599	177.920000
397.989197	186.960000
398.082794	197.720000
398.176392	211.900000
398.269989	228.120000
398.363586	246.180000
398.457184	267.920000
398.550781	291.180000
398.644379	313.560000
398.737976	337.940000
398.831573	362.140000
398.925201	384.260000
399.018768	406.820000
399.112396	427.660000
399.205963	446.220000
399.299591	462.220000
399.393158	474.180000
399.486786	481.040000
399.580353	485.780000
399.673981	485.520000
399.767578	483.440000
399.861206	480.280000
399.954773	476.560000
400.048401	469.020000
400.141998	461.100000
400.235596	449.240000
400.329193	435.400000
400.422791	418.380000
400.516418	400.380000
400.610016	381.080000
400.703613	363.740000
400.797211	344.400000
400.890808	326.640000
400.984436	310.540000
401.078033	293.740000
401.171631	276.440000
401.265259	260.560000
401.358826	245.200000
401.452484	229.660000
401.546051	216.540000
401.639679	203.640000
401.733246	193.420000
401.826904	183.420000
401.920471	175.180000
402.014099	167.980000
402.107697	162.560000
402.201324	158.120000
402.294891	155.160000
402.388550	153.340000
402.482147	151.900000
402.575745	150.340000
402.669373	148.680000
402.762970	147.380000
402.856567	146.960000
402.950195	146.860000
403.043793	146.980000
403.137390	147.700000
403.231018	147.240000
403.324615	147.520000
403.418243	146.660000
403.511841	146.900000
403.605469	146.520000
403.699066	147.400000
403.792694	147.220000
403.886292	147.820000
403.979919	147.500000
404.073517	146.880000
404.167145	146.920000
404.260712	146.400000
404.354370	145.940000
404.447937	146.080000
404.541595	146.680000
404.635162	146.660000
404.728821	147.180000
404.822418	146.820000
404.916046	146.540000
405.009644	146.780000
405.103271	147.120000
405.196899	146.920000
405.290497	147.320000
405.384125	147.740000
405.477722	147.000000
405.571350	146.100000
405.664948	146.020000
405.758575	145.800000
405.852203	145.120000
405.945801	145.360000
406.039429	145.820000
406.133057	145.840000
406.226654	145.880000
406.320312	146.140000
406.413879	146.460000
406.507538	146.520000
406.601135	146.240000
406.694763	146.880000
406.788361	146.420000
406.882019	146.000000
406.975586	146.580000
407.069244	146.960000
407.162872	146.680000
407.256470	147.100000
407.350098	147.140000
407.443726	146.220000
407.537323	145.760000
407.630951	145.860000
407.724579	145.400000
407.818207	145.940000
407.911804	145.780000
408.005432	146.040000
408.099060	146.160000
408.192688	146.800000
408.286285	146.380000
408.379913	146.280000
408.473572	146.420000
408.567169	145.700000
408.660828	145.600000
408.754395	145.620000
408.848053	145.900000
408.941650	145.780000
409.035309	145.820000
409.128906	145.820000
409.222565	145.880000
409.316132	146.100000
409.409790	145.700000
409.503387	145.800000
409.597046	145.880000
409.690674	145.900000
409.784302	146.040000
409.877930	146.320000
409.971558	146.280000
410.065186	146.120000
410.158783	146.000000
410.252411	145.580000
410.346039	145.800000
410.439667	145.960000
410.533295	146.240000
410.626923	146.460000
410.720551	146.380000
410.814209	146.480000
410.907806	146.780000
411.001465	146.240000
411.095062	146.520000
411.188721	146.880000
411.282318	146.460000
411.375977	146.120000
411.469574	146.600000
411.563232	146.300000
411.656830	146.040000
411.750488	146.160000
411.844086	146.160000
411.937744	146.120000
412.031372	145.640000
412.125000	145.600000
412.218628	145.160000
412.312256	145.560000
412.405884	145.880000
412.499512	145.920000
412.593170	146.220000
412.686798	147.020000
412.780426	146.300000
412.874054	146.360000
412.967682	146.560000
413.061310	147.160000
413.154968	146.960000
413.248566	147.200000
413.342224	146.760000
413.435852	146.980000
413.529510	146.220000
413.623108	145.540000
413.716766	145.700000
413.810364	146.020000
413.904022	145.620000
413.997650	145.380000
414.091309	146.500000
414.184906	146.280000
414.278564	145.760000
414.372192	146.300000
414.465851	146.640000
414.559479	146.060000
414.653107	146.880000
414.746735	147.140000
414.840393	146.780000
414.934021	147.180000
415.027649	146.960000
415.121277	146.640000
415.214935	146.880000
415.308563	147.160000
415.402191	146.300000
415.495850	146.400000
415.589478	146.160000
415.683136	145.480000
415.776733	145.420000
415.870422	146.180000
415.964020	145.940000
416.057678	146.140000
416.151306	146.500000
416.244965	146.400000
416.338562	146.280000
416.432251	146.940000
416.525848	147.720000
416.619507	147.900000
416.713165	148.160000
416.806793	147.840000
416.900421	147.720000
416.994080	146.540000
417.087708	146.440000
417.181366	145.840000
417.274994	145.800000
417.368622	146.020000
417.462280	146.880000
417.555908	146.780000
417.649567	146.940000
417.743195	146.980000
417.836853	146.780000
417.930481	146.640000
418.024170	146.820000
418.117767	147.380000
418.211426	147.940000
418.305054	147.960000
418.398712	147.480000
418.492340	147.300000
418.585999	147.220000
418.679626	146.880000
418.773285	146.980000
418.866913	147.280000
418.960571	147.760000
419.054230	147.980000
419.147858	147.980000
419.241516	147.980000
419.335144	147.560000
419.428802	147.120000
419.522461	146.620000
419.616089	146.400000
419.709747	146.340000
419.803375	146.360000
419.897034	146.160000
419.990662	146.240000
420.084320	146.540000
420.177979	146.700000
420.271606	146.980000
420.365295	147.580000
420.458893	147.700000
420.552582	147.740000
420.646210	147.180000
420.739868	146.860000
420.833496	146.440000
420.927155	145.800000
421.020782	145.500000
421.114471	145.440000
421.208069	145.540000
421.301758	145.920000
421.395386	146.180000
421.489044	146.200000
421.582703	146.460000
421.676361	146.900000
421.769989	146.420000
421.863647	146.840000
421.957306	147.060000
422.050934	147.040000
422.144592	146.960000
422.238251	146.980000
422.331909	146.780000
422.425537	146.640000
422.519196	146.820000
422.612854	146.200000
422.706543	145.820000
422.800140	146.160000
422.893829	145.660000
422.987457	145.420000
423.081146	145.780000
423.174744	146.540000
423.268433	145.780000
423.362061	145.920000
423.455750	145.640000
423.549347	145.540000
423.643036	144.820000
423.736664	145.680000
423.830353	145.980000
423.924011	146.660000
424.017639	146.180000
424.111298	146.380000
424.204956	145.760000
424.298615	145.560000
424.392273	145.180000
424.485931	145.720000
424.579559	146.040000
424.673218	146.060000
424.766876	146.200000
424.860535	145.900000
424.954193	145.580000
425.047882	145.800000
425.141510	145.960000
425.235199	145.960000
425.328796	145.880000
425.422485	145.860000
425.516113	145.060000
425.609802	144.980000
425.703430	145.200000
425.797119	145.240000
425.890747	145.600000
425.984436	146.040000
426.078064	146.180000
426.171753	145.940000
426.265411	145.860000
426.359070	145.920000
426.452728	145.520000
426.546356	145.340000
426.640015	145.440000
426.733673	145.540000
426.827332	145.300000
426.920990	146.400000
427.014648	146.080000
427.108307	145.940000
427.201965	146.520000
427.295624	146.700000
427.389282	145.660000
427.482941	145.820000
427.576630	145.960000
427.670258	145.140000
427.763947	145.040000
427.857574	145.300000
427.951263	145.560000
428.044922	145.120000
428.138611	145.660000
428.232239	146.060000
428.325928	146.160000
428.419556	146.320000
428.513245	146.380000
428.606903	146.400000
428.700562	145.540000
428.794220	145.360000
428.887878	144.840000
428.981537	145.100000
429.075195	145.000000
429.168854	145.760000
429.262512	145.660000
429.356201	146.180000
429.449860	146.000000
429.543518	145.820000
429.637177	145.920000
429.730835	146.200000
429.824493	146.040000
429.918182	146.340000
430.011810	146.000000
430.105530	145.100000
430.199158	145.200000
430.292847	145.140000
430.386475	144.820000
430.480164	144.880000
430.573792	144.980000
430.667511	144.800000
430.761139	144.800000
430.854828	145.320000
430.948456	145.380000
431.042145	145.920000
431.135834	145.720000
431.229492	145.580000
431.323151	145.420000
431.416809	145.560000
431.510468	145.500000
431.604156	145.460000
431.697815	145.900000
431.791473	145.660000
431.885132	145.380000
431.978821	145.440000
432.072479	145.780000
432.166138	145.940000
432.259827	145.780000
432.353485	146.300000
432.447174	146.420000
432.540802	146.200000
432.634491	145.880000
432.728149	146.360000
432.821838	146.980000
432.915466	146.340000
433.009186	146.380000
433.102814	145.740000
433.196503	145.260000
433.290131	144.680000
433.383850	145.220000
433.477509	145.320000
433.571167	146.580000
433.664856	147.280000
433.758514	147.660000
433.852173	147.600000
433.945862	147.380000
434.039520	146.920000
434.133179	146.180000
434.226868	145.700000
434.320526	145.300000
434.414185	146.020000
434.507874	145.440000
434.601562	145.500000
434.695221	145.540000
434.788910	145.920000
434.882538	145.720000
434.976257	145.780000
435.069885	146.140000
435.163574	146.280000
435.257233	146.020000
435.350922	145.880000
435.444580	145.660000
435.538269	145.600000
435.631897	145.640000
435.725616	146.380000
435.819275	146.660000
435.912964	147.440000
436.006622	147.760000
436.100311	147.600000
436.193970	146.520000
436.287628	146.140000
436.381317	145.780000
436.474976	145.200000
436.568665	145.240000
436.662323	145.600000
436.756012	145.700000
436.849670	145.360000
436.943390	145.300000
437.037018	144.960000
437.130737	145.040000
437.224365	144.820000
437.318085	145.160000
437.411713	145.240000
437.505432	145.760000
437.599060	146.060000
437.692780	146.780000
437.786407	146.740000
437.880127	146.860000
437.973755	146.700000
438.067474	146.380000
438.161133	146.060000
438.254822	146.500000
438.348480	146.200000
438.442169	146.860000
438.535828	147.320000
438.629517	146.880000
438.723175	146.080000
438.816864	146.560000
438.910553	145.800000
439.004211	145.380000
439.097900	145.180000
439.191559	145.620000
439.285248	145.160000
439.378906	145.360000
439.472626	145.280000
439.566284	145.360000
439.659973	145.400000
439.753632	145.580000
439.847321	146.080000
439.940979	146.220000
440.034698	146.500000
440.128326	146.120000
440.222046	146.140000
440.315674	145.200000
440.409393	145.200000
440.503082	144.860000
440.596741	145.160000
440.690430	145.200000
440.784088	145.220000
440.877777	144.700000
440.971466	144.760000
441.065125	144.400000
441.158813	144.120000
441.252502	144.220000
441.346161	144.280000
441.439850	144.720000
441.533539	144.700000
441.627197	145.160000
441.720886	145.060000
441.814606	145.980000
441.908234	146.180000
442.001953	146.260000
442.095612	146.320000
442.189301	146.600000
442.282959	146.180000
442.376678	145.360000
442.470306	146.120000
442.564026	145.720000
442.657684	146.060000
442.751404	146.080000
442.845032	147.100000
442.938751	146.420000
443.032440	146.600000
443.126099	145.660000
443.219788	145.820000
443.313477	145.400000
443.407166	145.860000
443.500824	145.920000
443.594513	146.720000
443.688202	146.720000
443.781891	146.300000
443.875549	145.620000
443.969238	145.620000
444.062927	145.440000
444.156647	145.120000
444.250275	145.840000
444.343994	146.440000
444.437653	146.480000
444.531372	146.500000
444.625031	146.520000
444.718719	145.700000
444.812378	145.320000
444.906097	145.160000
444.999756	144.640000
445.093445	144.640000
445.187103	145.060000
445.280823	145.440000
445.374512	145.060000
445.468201	145.600000
445.561859	145.600000
445.655548	145.580000
445.749237	145.280000
445.842926	145.740000
445.936615	146.000000
446.030304	145.720000
446.123962	146.120000
446.217651	146.000000
446.311340	146.140000
446.405029	145.640000
446.498749	145.660000
446.592407	145.180000
446.686096	145.520000
446.779755	145.280000
446.873474	145.380000
446.967133	145.560000
447.060852	145.300000
447.154510	145.500000
447.248230	145.540000
447.341858	145.580000
447.435577	145.340000
447.529236	145.120000
447.622955	144.660000
447.716644	144.800000
447.810333	145.140000
447.904022	145.740000
447.997711	145.740000
448.091400	145.880000
448.185059	145.940000
448.278748	146.020000
448.372437	145.620000
448.466125	145.980000
448.559814	145.900000
448.653503	146.040000
448.747192	145.740000
448.840912	146.040000
448.934570	146.320000
449.028290	146.580000
449.121948	146.220000
449.215637	146.140000
449.309296	145.880000
449.403015	146.120000
449.496674	145.840000
449.590393	145.780000
449.684052	145.600000
449.777771	146.380000
449.871429	145.380000
449.965149	145.680000
450.058838	146.000000
450.152527	146.620000
450.246216	145.880000
450.339905	146.420000
450.433594	145.840000
450.527283	146.380000
450.620972	145.780000
450.714661	146.020000
450.808350	146.280000
450.902039	147.000000
450.995728	146.660000
451.089417	146.320000
451.183105	146.320000
451.276794	146.440000
451.370514	145.720000
451.464172	144.880000
451.557892	145.020000
451.651550	145.120000
451.745270	144.340000
451.838928	144.220000
451.932648	144.640000
452.026306	145.340000
452.120026	144.600000
452.213684	145.300000
452.307404	145.520000
452.401062	145.540000
452.494781	145.620000
452.588470	146.160000
452.682159	145.760000
452.775848	146.020000
452.869537	145.660000
452.963226	144.960000
453.056915	144.620000
453.150604	144.660000
453.244293	144.880000
453.337982	145.560000
453.431671	146.040000
453.525360	146.400000
453.619049	146.460000
453.712769	146.180000
453.806427	145.740000
453.900146	145.320000
453.993805	145.540000
454.087555	145.720000
454.181213	145.900000
454.274933	145.760000
454.368591	145.600000
454.462311	145.120000
454.555969	144.800000
454.649689	145.200000
454.743347	144.980000
454.837067	145.680000
454.930756	146.160000
455.024445	146.420000
455.118134	146.080000
455.211853	146.460000
455.305542	145.960000
455.399231	145.740000
455.492920	145.640000
455.586609	145.600000
455.680298	146.040000
455.773987	146.200000
455.867676	146.120000
455.961365	146.240000
456.055084	145.780000
456.148773	145.480000
456.242493	145.360000
456.336151	145.440000
456.429871	145.500000
456.523529	146.260000
456.617249	145.860000
456.710907	146.660000
456.804626	146.440000
456.898315	145.800000
456.992035	145.520000
457.085693	145.600000
457.179413	144.440000
457.273102	145.280000
457.366791	145.880000
457.460480	146.040000
457.554199	146.480000
457.647888	146.760000
457.741577	146.120000
457.835266	145.980000
457.928955	146.020000
458.022644	146.380000
458.116364	146.880000
458.210052	147.120000
458.303741	147.160000
458.397461	146.500000
458.491119	145.760000
458.584839	145.640000
458.678528	145.140000
458.772247	144.960000
458.865906	145.360000
458.959625	146.380000
459.053284	146.320000
459.147003	146.280000
459.240692	147.060000
459.334412	146.980000
459.428070	146.160000
459.521790	146.040000
459.615479	145.960000
459.709198	145.860000
459.802887	145.560000
459.896576	145.460000
459.990265	145.480000
460.083954	146.080000
460.177673	145.360000
460.271362	145.440000
460.365051	145.340000
460.458740	145.060000
460.552429	144.360000
460.646149	144.580000
460.739838	144.700000
460.833527	144.760000
460.927246	144.440000
461.020905	144.840000
461.114655	144.760000
461.208313	145.180000
461.302032	144.940000
461.395691	145.860000
461.489441	145.800000
461.583099	145.860000
461.676819	145.260000
461.770477	145.680000
461.864197	144.840000
461.957916	144.700000
462.051605	144.140000
462.145294	144.900000
462.238983	144.560000
462.332703	145.440000
462.426392	145.860000
462.520081	146.500000
462.613770	145.800000
462.707489	146.180000
462.801178	145.780000
462.894867	145.720000
462.988556	145.400000
463.082275	145.740000
463.175964	145.280000
463.269684	145.500000
463.363342	145.180000
463.457092	144.920000
463.550751	145.240000
463.644470	145.600000
463.738129	145.360000
463.831879	145.660000
463.925537	146.460000
464.019257	146.220000
464.112946	146.100000
464.206665	146.040000
464.300323	145.840000
464.394043	145.440000
464.487762	145.180000
464.581451	145.700000
464.675140	145.880000
464.768829	146.100000
464.862549	146.240000
464.956238	146.540000
465.049927	146.420000
465.143646	146.600000
465.237335	146.460000
465.331024	146.680000
465.424713	146.840000
465.518433	146.760000
465.612152	146.300000
465.705811	146.100000
465.799561	145.860000
465.893219	145.060000
465.986938	145.140000
466.080597	145.260000
466.174347	145.660000
466.268005	145.660000
466.361725	146.100000
466.455414	145.780000
466.549133	145.440000
466.642792	145.640000
466.736542	145.500000
466.830231	145.480000
466.923920	145.320000
467.017609	145.560000
467.111328	144.860000
467.205017	144.760000
467.298706	144.860000
467.392426	145.100000
467.486115	145.240000
467.579803	144.860000
467.673523	145.240000
467.767212	145.300000
467.860901	145.180000
467.954651	145.260000
468.048309	146.160000
468.142029	145.820000
468.235718	145.720000
468.329437	145.580000
468.423096	145.640000
468.516846	145.300000
468.610504	145.160000
468.704224	144.680000
468.797913	144.920000
468.891632	144.900000
468.985291	144.780000
469.079010	145.040000
469.172729	144.940000
469.266418	145.100000
469.360107	145.020000
469.453827	144.840000
469.547516	144.740000
469.641205	145.560000
469.734924	145.860000
469.828613	146.120000
469.922302	146.480000
470.016022	146.540000
470.109711	146.200000
470.203430	145.360000
470.297150	144.740000
470.390808	145.020000
470.484558	144.960000
470.578217	145.400000
470.671936	146.160000
470.765625	146.880000
470.859344	146.440000
470.953003	146.740000
471.046753	146.360000
471.140411	145.600000
471.234131	145.500000
471.327820	146.080000
471.421539	146.260000
471.515228	145.760000
471.608948	146.140000
471.702637	145.480000
471.796326	145.000000
471.890045	144.800000
471.983734	145.100000
472.077423	144.660000
472.171143	145.160000
472.264832	145.280000
472.358521	144.980000
472.452240	144.820000
472.545929	145.720000
472.639648	145.640000
472.733337	146.000000
472.827057	146.080000
472.920746	146.220000
473.014465	146.020000
473.108124	146.180000
473.201874	145.840000
473.295532	145.940000
473.389252	146.420000
473.482941	146.460000
473.576660	145.840000
473.670319	145.840000
473.764069	145.880000
473.857727	145.840000
473.951477	145.560000
474.045166	146.200000
474.138855	145.980000
474.232574	145.800000
474.326263	145.700000
474.419952	146.060000
474.513672	145.740000
474.607361	145.640000
474.701050	146.000000
474.794769	146.220000
474.888458	146.280000
474.982178	146.500000
475.075867	146.820000
475.169586	146.640000
475.263275	146.180000
475.356995	146.000000
475.450653	145.580000
475.544403	145.300000
475.638062	146.140000
475.731812	145.900000
475.825470	145.500000
475.919189	145.920000
476.012878	146.140000
476.106598	145.260000
476.200256	145.860000
476.294006	146.100000
476.387695	146.140000
476.481384	145.940000
476.575104	145.900000
476.668793	145.660000
476.762512	145.160000
476.856201	145.700000
476.949890	145.600000
477.043610	145.340000
477.137299	145.180000
477.230988	145.880000
477.324707	144.960000
477.418396	145.520000
477.512146	145.660000
477.605804	145.880000
477.699524	145.700000
477.793213	145.820000
477.886932	145.420000
477.980591	145.240000
478.074341	144.940000
478.167999	144.460000
478.261749	144.540000
478.355408	144.740000
478.449127	145.180000
478.542816	145.640000
478.636536	146.380000
478.730225	146.680000
478.823944	147.120000
478.917633	147.380000
479.011322	147.700000
479.105042	147.580000
479.198730	147.720000
479.292450	147.060000
479.386139	147.080000
479.479828	146.860000
479.573547	146.760000
479.667267	146.140000
479.760925	146.320000
479.854675	145.960000
479.948334	145.900000
480.042084	145.520000
480.135742	146.160000
480.229462	146.000000
480.323151	146.300000
480.416870	145.720000
480.510529	146.100000
480.604279	145.460000
480.697937	145.620000
480.791656	144.920000
480.885345	144.800000
480.979065	144.760000
481.072754	145.320000
481.166473	145.740000
481.260132	145.820000
481.353882	145.880000
481.447540	145.620000
481.541260	145.420000
481.635010	144.500000
481.728668	144.760000
481.822388	144.740000
481.916077	145.080000
482.009796	144.860000
482.103485	145.740000
482.197205	145.680000
482.290863	146.140000
482.384613	145.920000
482.478271	145.600000
482.571991	145.120000
482.665680	145.100000
482.759399	145.680000
482.853058	146.080000
482.946808	146.340000
483.040466	146.420000
483.134216	146.320000
483.227875	145.380000
483.321594	145.460000
483.415283	145.540000
483.509003	145.420000
483.602661	145.200000
483.696411	145.840000
483.790070	145.580000
483.883789	145.620000
483.977478	145.960000
484.071198	146.320000
484.164917	145.660000
484.258606	145.260000
484.352325	145.500000
484.445984	145.380000
484.539734	145.260000
484.633392	145.200000
484.727142	145.860000
484.820801	145.700000
484.914520	145.540000
485.008209	145.580000
485.101929	146.140000
485.195587	145.800000
485.289337	145.760000
485.382996	145.920000
485.476715	146.260000
485.570404	146.420000
485.664124	146.060000
485.757782	146.180000
485.851532	145.640000
485.945190	145.300000
486.038910	144.880000
486.132599	145.880000
486.226318	145.620000
486.319977	146.020000
486.413727	146.520000
486.507446	146.440000
486.601105	145.420000
486.694855	145.100000
486.788513	144.780000
486.882233	144.580000
486.975922	144.760000
487.069641	144.880000
487.163300	145.100000
487.257050	146.400000
487.350708	146.160000
487.444427	145.780000
487.538116	146.040000
487.631836	145.840000
487.725494	144.840000
487.819214	144.640000
487.912903	144.700000
488.006622	145.040000
488.100281	145.680000
488.194031	145.940000
488.287689	146.440000
488.381409	147.280000
488.475098	146.720000
488.568817	146.780000
488.662476	146.640000
488.756226	146.160000
488.849945	144.980000
488.943604	144.960000
489.037354	144.860000
489.131012	144.860000
489.224731	144.820000
489.318390	145.060000
489.412140	145.000000
489.505798	144.660000
489.599518	144.240000
489.693207	144.680000
489.786926	144.980000
489.880585	145.040000
489.974335	145.560000
490.067993	146.800000
490.161713	147.040000
490.255371	147.440000
490.349121	147.860000
490.442780	147.200000
490.536499	146.120000
490.630188	145.880000
490.723907	145.440000
490.817566	145.180000
490.911285	145.600000
491.004974	145.560000
491.098694	144.920000
491.192413	145.260000
491.286102	145.200000
491.379822	145.160000
491.473480	145.480000
491.567200	146.020000
491.660889	145.440000
491.754608	145.660000
491.848267	145.420000
491.941986	145.340000
492.035675	145.280000
492.129395	145.720000
492.223053	145.340000
492.316772	145.440000
492.410461	145.460000
492.504181	145.360000
492.597839	145.080000
492.691559	145.300000
492.785248	145.540000
492.878967	145.640000
492.972626	145.360000
493.066345	145.620000
493.160034	145.120000
493.253754	144.960000
493.347412	144.420000
493.441132	144.780000
493.534882	145.260000
493.628540	145.720000
493.722260	145.880000
493.815918	146.280000
493.909668	146.860000
494.003326	146.720000
494.097046	146.480000
494.190704	146.160000
494.284454	146.200000
494.378113	145.800000
494.471832	145.480000
494.565491	145.500000
494.659210	145.860000
494.752899	145.720000
494.846619	145.720000
494.940277	145.700000
495.033997	145.760000
495.127686	145.440000
495.221405	145.360000
495.315063	145.240000
495.408783	145.380000
495.502441	145.580000
495.596191	145.840000
495.689850	145.940000
495.783569	146.260000
495.877228	146.420000
495.970947	146.060000
496.064697	145.940000
496.158356	146.860000
496.252075	146.640000
496.345734	146.320000
496.439453	146.920000
496.533142	147.140000
496.626862	147.060000
496.720520	146.760000
496.814240	146.720000
496.907898	146.460000
497.001617	146.420000
497.095306	145.440000
497.189026	145.640000
497.282684	146.100000
497.376404	146.540000
497.470062	146.020000
497.563782	146.180000
497.657471	146.040000
497.751190	145.360000
497.844849	145.100000
497.938568	145.660000
498.032227	145.720000
498.125946	145.720000
498.219635	145.720000
498.313354	145.860000
498.407074	145.340000
498.500732	145.620000
498.594452	145.960000
498.688110	145.800000
498.781830	145.380000
498.875519	145.500000
498.969238	145.260000
499.062897	145.040000
499.156616	145.440000
499.250275	145.800000
499.343994	145.660000
499.437653	145.760000
499.531372	145.740000
499.625061	146.260000
499.718781	146.360000
499.812439	146.920000
499.906158	146.980000
499.999817	147.040000
500.093536	146.620000
500.187195	146.360000
500.280914	146.100000
500.374573	146.100000
500.468323	146.020000
500.561981	146.180000
500.655701	145.820000
500.749420	145.700000
500.843079	145.800000
500.936798	145.920000
501.030457	146.120000
501.124176	146.540000
501.217834	146.640000
501.311554	146.560000
501.405212	146.420000
501.498962	145.600000
501.592621	145.440000
501.686340	145.760000
501.779999	145.620000
501.873718	145.840000
501.967377	146.160000
502.061096	146.460000
502.154755	145.680000
502.248474	145.920000
502.342133	145.820000
502.435852	145.780000
502.529510	146.460000
502.623230	147.220000
502.716888	146.640000
502.810608	146.620000
502.904266	147.020000
502.997986	145.920000
503.091705	145.340000
503.185364	145.580000
503.279083	145.760000
503.372772	145.660000
503.466492	145.600000
503.560150	145.800000
503.653870	146.340000
503.747528	146.220000
503.841248	146.080000
503.934906	146.380000
504.028625	146.100000
504.122284	146.040000
504.216003	147.020000
504.309662	146.580000
504.403381	146.620000
504.497040	146.780000
504.590759	146.100000
504.684418	145.720000
504.778137	146.540000
504.871796	146.960000
504.965515	146.960000
505.059174	147.300000
505.152893	146.420000
505.246521	145.880000
505.340240	145.380000
505.433899	145.560000
505.527618	145.740000
505.621338	146.040000
505.714996	145.740000
505.808716	145.600000
505.902374	146.180000
505.996094	146.200000
506.089752	145.880000
506.183472	146.200000
506.277130	146.620000
506.370850	146.200000
506.464508	145.680000
506.558228	146.080000
506.651886	145.720000
506.745605	145.800000
506.839264	146.040000
506.932983	146.480000
507.026611	146.180000
507.120331	146.940000
507.213989	146.040000
507.307709	145.660000
507.401367	145.860000
507.495087	146.860000
507.588745	146.320000
507.682465	147.460000
507.776123	147.520000
507.869843	147.160000
507.963531	146.560000
508.057190	147.020000
508.150909	146.260000
508.244568	146.080000
508.338287	145.840000
508.431946	145.620000
508.525665	145.420000
508.619324	145.340000
508.713013	145.820000
508.806671	146.540000
508.900391	147.280000
508.994049	147.240000
509.087769	147.260000
509.181427	147.240000
509.275146	146.500000
509.368774	145.680000
509.462494	145.640000
509.556152	145.520000
509.649872	145.960000
509.743530	146.180000
509.837250	146.420000
509.930878	146.760000
510.024597	146.800000
510.118256	146.100000
510.211975	146.140000
510.305695	145.900000
510.399353	146.040000
510.493042	146.840000
510.586700	146.940000
510.680420	147.540000
510.774078	147.400000
510.867798	147.300000
510.961426	146.400000
511.055145	146.060000
511.148804	145.580000
511.242523	146.180000
511.336151	146.100000
511.429871	146.740000
511.523529	146.820000
511.617249	146.380000
511.710876	146.020000
511.804596	145.580000
511.898254	145.040000
511.991974	145.440000
512.085632	145.560000
512.179321	145.860000
512.272949	146.460000
512.366699	147.060000
512.460327	146.840000
512.554077	147.960000
512.647766	147.900000
512.741394	147.400000
512.835144	147.940000
512.928772	147.900000
513.022461	147.400000
513.116150	146.780000
513.209839	147.220000
513.303467	146.400000
513.397217	146.260000
513.490845	145.920000
513.584595	146.380000
513.678223	145.820000
513.771912	145.400000
513.865601	145.640000
513.959290	145.220000
514.052917	145.040000
514.146667	146.000000
514.240295	146.700000
514.333984	146.720000
514.427673	146.880000
514.521362	147.400000
514.614990	146.340000
514.708740	146.220000
514.802368	146.500000
514.896057	146.960000
514.989746	147.180000
515.083435	147.200000
515.177124	147.320000
515.270752	146.840000
515.364502	146.540000
515.458130	146.260000
515.551819	146.560000
515.645508	146.200000
515.739197	146.240000
515.832825	146.300000
515.926575	145.720000
516.020203	145.940000
516.113892	146.680000
516.207520	146.680000
516.301270	146.560000
516.394897	147.060000
516.488586	147.360000
516.582275	146.720000
516.675964	146.160000
516.769592	146.160000
516.863281	146.620000
516.956970	146.620000
517.050659	146.620000
517.144287	147.040000
517.238037	147.160000
517.331665	146.300000
517.425354	145.840000
517.519043	145.520000
517.612732	146.220000
517.706421	146.120000
517.800049	146.340000
517.893738	146.120000
517.987427	146.160000
518.081116	145.360000
518.174744	144.860000
518.268433	145.040000
518.362122	145.820000
518.455811	145.880000
518.549438	146.840000
518.643127	148.000000
518.736816	147.580000
518.830505	146.760000
518.924133	146.960000
519.017822	146.420000
519.111511	145.920000
519.205200	146.620000
519.298828	146.980000
519.392517	146.720000
519.486206	147.020000
519.579895	147.200000
519.673523	146.900000
519.767212	147.000000
519.860901	147.620000
519.954590	147.240000
520.048279	146.720000
520.141907	146.500000
520.235596	147.100000
520.329224	146.860000
520.422974	146.900000
520.516602	146.860000
520.610291	146.500000
520.703918	145.980000
520.797607	145.840000
520.891296	145.600000
520.984985	146.020000
521.078613	146.920000
521.172302	146.280000
521.265930	147.120000
521.359680	147.840000
521.453308	147.600000
521.546997	147.280000
521.640625	147.820000
521.734314	146.760000
521.827942	146.400000
521.921692	146.640000
522.015320	146.620000
522.109009	146.260000
522.202698	146.580000
522.296326	146.280000
522.390015	146.620000
522.483704	146.660000
522.577393	146.720000
522.671021	146.400000
522.764709	146.260000
522.858337	146.120000
522.952026	145.800000
523.045654	146.420000
523.139404	147.040000
523.233032	147.340000
523.326721	147.220000
523.420349	147.440000
523.514038	146.720000
523.607666	146.900000
523.701355	146.360000
523.795044	146.300000
523.888733	146.460000
523.982361	147.140000
524.076050	146.540000
524.169678	147.340000
524.263367	146.860000
524.356995	146.340000
524.450684	146.040000
524.544373	145.880000
524.638062	145.760000
524.731750	146.280000
524.825378	146.440000
524.919067	146.020000
525.012695	146.140000
525.106384	145.720000
525.200012	145.460000
525.293701	145.420000
525.387329	145.620000
525.481018	145.560000
525.574646	146.080000
525.668396	146.260000
525.762024	146.700000
525.855713	147.120000
525.949341	146.960000
526.043030	146.780000
526.136658	146.320000
526.230347	145.840000
526.323975	145.320000
526.417664	145.340000
526.511292	145.340000
526.604980	145.780000
526.698608	146.000000
526.792297	146.040000
526.885925	146.400000
526.979614	146.540000
527.073303	146.280000
527.166931	146.020000
527.260620	146.480000
527.354309	146.700000
527.447998	146.400000
527.541626	146.440000
527.635315	146.740000
527.728943	147.060000
527.822632	146.660000
527.916260	146.840000
528.009949	147.180000
528.103577	146.880000
528.197266	146.240000
528.290894	146.480000
528.384583	146.260000
528.478210	146.100000
528.571899	146.220000
528.665527	146.560000
528.759216	146.840000
528.852844	147.060000
528.946533	147.060000
529.040161	146.980000
529.133850	146.420000
529.227478	146.160000
529.321167	146.480000
529.414856	146.560000
529.508484	147.220000
529.602173	147.160000
529.695801	146.880000
529.789490	146.500000
529.883057	146.340000
529.976746	146.180000
530.070374	146.600000
530.164062	146.840000
530.257690	146.940000
530.351379	147.320000
530.445007	146.760000
530.538696	146.140000
530.632324	146.200000
530.726013	146.260000
530.819641	145.940000
530.913330	146.180000
531.006958	146.540000
531.100647	146.420000
531.194275	146.220000
531.287964	146.100000
531.381592	146.140000
531.475220	146.340000
531.568848	146.520000
531.662537	146.360000
531.756226	147.160000
531.849854	146.880000
531.943542	146.620000
532.037170	145.980000
532.130859	146.420000
532.224487	145.500000
532.318176	145.400000
532.411804	145.980000
532.505432	146.440000
532.599060	145.960000
532.692749	146.060000
532.786377	146.320000
532.880066	145.620000
532.973694	145.500000
533.067383	145.760000
533.161011	145.760000
533.254639	145.880000
533.348267	145.940000
533.441956	146.180000
533.535583	146.020000
533.629272	146.380000
533.722900	145.980000
533.816589	146.120000
533.910156	146.360000
534.003845	146.260000
534.097534	146.540000
534.191162	147.340000
534.284851	147.480000
534.378479	146.900000
534.472107	146.840000
534.565735	146.020000
534.659424	145.880000
534.753052	145.960000
534.846741	145.820000
534.940369	146.520000
535.033997	146.740000
535.127625	146.540000
535.221313	147.260000
535.314941	147.580000
535.408630	146.940000
535.502197	147.260000
535.595886	147.000000
535.689514	146.320000
535.783203	146.700000
535.876831	147.180000
535.970459	147.260000
536.064087	147.360000
536.157776	147.240000
536.251404	147.040000
536.345093	146.660000
536.438721	146.400000
536.532349	146.720000
536.626038	146.600000
536.719666	146.740000
536.813293	146.580000
536.906921	146.440000
537.000610	146.480000
537.094238	146.600000
537.187866	146.500000
537.281494	146.640000
537.375183	146.800000
537.468811	146.640000
537.562439	146.920000
537.656067	146.740000
537.749756	147.020000
537.843384	147.580000
537.937012	147.560000
538.030640	147.040000
538.124329	147.240000
538.217896	147.360000
538.311584	147.100000
538.405212	146.900000
538.498901	147.380000
538.592468	147.720000
538.686157	147.220000
538.779785	146.580000
538.873413	146.100000
538.967102	145.700000
539.060730	145.240000
539.154358	145.600000
539.247986	146.140000
539.341675	146.640000
539.435242	146.480000
539.528931	146.460000
539.622559	145.900000
539.716187	146.040000
539.809814	146.080000
539.903503	146.160000
539.997070	146.140000
540.090759	146.520000
540.184387	146.460000
540.278015	147.100000
540.371643	147.600000
540.465332	147.500000
540.558899	147.220000
540.652588	146.900000
540.746216	146.240000
540.839844	146.220000
540.933472	146.320000
541.027100	146.480000
541.120728	146.620000
541.214417	146.740000
541.308044	146.620000
541.401672	146.400000
541.495300	146.100000
541.588928	145.900000
541.682617	145.800000
541.776184	145.440000
541.869873	145.820000
541.963440	146.380000
542.057129	146.700000
542.150757	146.500000
542.244385	146.380000
542.338013	145.920000
542.431641	145.580000
542.525269	145.080000
542.618958	145.780000
542.712524	146.360000
542.806213	146.680000
542.899780	146.800000
542.993469	146.620000
543.087036	146.180000
543.180725	145.400000
543.274292	145.400000
543.367981	145.640000
543.461548	146.480000
543.555237	146.220000
543.648926	146.900000
543.742493	147.340000
543.836182	147.240000
543.929749	146.920000
544.023437	146.920000
544.117004	146.880000
544.210693	146.600000
544.304260	146.480000
544.397949	146.480000
544.491516	146.840000
544.585205	146.680000
544.678772	146.200000
544.772461	146.500000
544.866028	146.300000
544.959717	146.300000
545.053284	146.280000
545.146973	146.580000
545.240540	146.420000
545.334229	147.200000
545.427795	147.420000
545.521423	147.440000
545.615051	147.540000
545.708679	148.060000
545.802307	147.560000
545.895935	147.580000
545.989624	148.080000
546.083191	147.780000
546.176880	147.500000
546.270447	146.980000
546.364136	147.220000
546.457703	146.680000
546.551331	146.860000
546.644958	146.860000
546.738586	147.220000
546.832214	146.820000
546.925842	146.740000
547.019409	147.040000
547.113098	146.500000
547.206665	146.380000
547.300354	146.300000
547.393921	146.700000
547.487549	146.600000
547.581177	146.700000
547.674805	146.780000
547.768433	146.080000
547.862061	145.740000
547.955627	145.220000
548.049316	145.820000
548.142883	146.020000
548.236572	146.760000
548.330139	147.220000
548.423767	147.300000
548.517456	147.220000
548.611023	147.280000
548.704651	146.560000
548.798279	146.260000
548.891907	146.720000
548.985474	146.240000
549.079163	146.380000
549.172729	146.740000
549.266357	146.340000
549.359985	146.580000
549.453613	146.020000
549.547180	146.020000
549.640869	146.500000
549.734436	146.520000
549.828064	146.480000
549.921631	146.800000
550.015320	146.040000
550.108887	145.960000
550.202515	146.500000
550.296143	146.100000
550.389771	146.480000
550.483337	146.720000
550.576965	146.380000
550.670593	146.180000
550.764221	146.100000
550.857849	146.040000
550.951477	145.740000
551.045105	145.420000
551.138672	145.480000
551.232300	145.240000
551.325928	145.280000
551.419556	145.840000
551.513123	146.160000
551.606750	145.620000
551.700378	145.760000
551.794006	145.500000
551.887573	145.180000
551.981201	145.660000
552.074768	145.860000
552.168457	145.860000
552.262024	147.000000
552.355652	147.220000
552.449219	147.400000
552.542847	147.320000
552.636475	147.180000
552.730103	146.140000
552.823669	145.960000
552.917297	145.320000
553.010864	145.420000
553.104553	145.680000
553.198181	145.400000
553.291748	145.920000
553.385376	146.220000
553.478943	146.360000
553.572571	146.380000
553.666199	146.840000
553.759827	146.300000
553.853394	146.020000
553.947021	145.920000
554.040588	145.720000
554.134216	145.780000
554.227783	146.480000
554.321411	146.860000
554.415039	146.580000
554.508667	146.980000
554.602234	147.160000
554.695862	146.720000
554.789429	146.640000
554.883057	146.700000
554.976624	146.480000
555.070251	146.320000
555.163818	146.160000
555.257507	146.080000
555.351074	146.240000
555.444702	147.200000
555.538330	147.020000
555.631897	147.260000
555.725525	147.080000
555.819092	147.060000
555.912720	145.900000
556.006287	146.200000
556.099915	145.740000
556.193481	146.000000
556.287109	146.500000
556.380676	146.680000
556.474304	146.780000
556.567871	147.320000
556.661499	146.660000
556.755066	146.400000
556.848694	146.600000
556.942261	146.460000
557.035889	146.580000
557.129517	147.220000
557.223145	147.540000
557.316711	147.600000
557.410339	147.600000
557.503906	147.380000
557.597473	147.560000
557.691040	147.440000
557.784668	147.300000
557.878296	147.080000
557.971863	147.160000
558.065491	147.060000
558.159058	146.620000
558.252686	147.040000
558.346252	147.660000
558.439880	147.060000
558.533447	146.660000
558.627075	146.600000
558.720642	145.840000
558.814270	145.420000
558.907837	145.380000
559.001465	145.140000
559.095032	145.640000
559.188660	146.160000
559.282227	145.700000
559.375854	146.660000
559.469360	146.620000
559.562988	146.980000
559.656555	146.740000
559.750183	146.860000
559.843750	146.640000
559.937378	147.080000
560.030945	146.420000
560.124573	0.000000
560.218140	0.000000
560.311707	0.000000
560.405334	0.000000
560.498901	0.000000
560.592529	0.000000
560.686096	0.000000
560.779724	0.000000
560.873291	0.000000
560.966858	0.000000
561.060425	0.000000
561.154053	0.000000
561.247620	0.000000
561.341248	0.000000
561.434814	0.000000
561.528381	0.000000
561.621948	0.000000
561.715576	0.000000
561.809143	0.000000
561.902771	0.000000
561.996277	0.000000
562.089905	0.000000
562.183472	0.000000
562.277100	0.000000
