Model Number: SPM-002-B   
Serial Number: 70087108
Firmware Version: 004.15.4
Exposure Time: 100000.000000us
Data Taken on: 11-12-2020 18:45:17.126
Wavelength	Amplitude
221.570786	0.000000
221.663406	0.000000
221.756027	0.000000
221.848648	0.000000
221.941269	0.000000
222.033905	0.000000
222.126526	0.000000
222.219162	0.000000
222.311798	0.000000
222.404419	0.000000
222.497055	0.000000
222.589676	0.000000
222.682312	0.000000
222.774933	0.000000
222.867569	0.000000
222.960205	0.000000
223.052841	0.000000
223.145462	0.000000
223.238098	0.000000
223.330734	0.000000
223.423386	0.000000
223.516022	0.000000
223.608658	0.000000
223.701309	0.000000
223.793945	0.000000
223.886581	0.000000
223.979218	0.000000
224.071869	0.000000
224.164505	0.000000
224.257156	0.000000
224.349792	0.000000
224.442444	0.000000
224.535095	0.000000
224.627747	0.000000
224.720398	0.000000
224.813034	0.000000
224.905685	0.000000
224.998337	146.540000
225.090988	146.100000
225.183640	146.120000
225.276291	145.680000
225.368942	146.020000
225.461594	146.140000
225.554245	146.240000
225.646912	145.940000
225.739578	146.540000
225.832230	146.800000
225.924896	145.860000
226.017548	146.300000
226.110199	146.980000
226.202866	146.380000
226.295532	146.180000
226.388184	146.340000
226.480850	145.900000
226.573517	145.640000
226.666168	146.160000
226.758835	146.420000
226.851501	147.180000
226.944183	147.420000
227.036850	146.720000
227.129517	146.340000
227.222183	146.320000
227.314850	146.200000
227.407516	146.260000
227.500198	147.300000
227.592865	146.920000
227.685532	146.440000
227.778214	146.260000
227.870880	146.600000
227.963562	146.940000
228.056229	147.460000
228.148926	147.720000
228.241592	148.320000
228.334274	147.860000
228.426956	147.380000
228.519638	147.760000
228.612305	147.500000
228.704987	147.260000
228.797668	147.460000
228.890350	147.140000
228.983032	146.060000
229.075714	146.800000
229.168396	146.620000
229.261108	145.920000
229.353790	146.120000
229.446472	146.580000
229.539169	146.040000
229.631851	145.500000
229.724533	146.080000
229.817230	146.040000
229.909912	146.900000
230.002609	147.080000
230.095306	147.420000
230.187988	147.420000
230.280685	147.340000
230.373383	146.140000
230.466095	145.960000
230.558792	146.260000
230.651474	146.020000
230.744171	145.860000
230.836868	146.160000
230.929581	146.580000
231.022278	146.320000
231.114975	146.240000
231.207672	146.140000
231.300369	146.480000
231.393082	146.140000
231.485779	146.120000
231.578506	146.060000
231.671204	146.040000
231.763916	146.020000
231.856613	146.160000
231.949326	146.040000
232.042023	146.140000
232.134735	146.320000
232.227448	146.020000
232.320160	146.300000
232.412872	146.560000
232.505585	147.220000
232.598297	147.680000
232.691010	147.680000
232.783722	147.220000
232.876450	147.660000
232.969162	147.320000
233.061874	146.860000
233.154587	146.460000
233.247314	146.700000
233.340027	146.060000
233.432739	146.340000
233.525467	146.160000
233.618179	146.880000
233.710907	146.360000
233.803635	147.020000
233.896347	146.680000
233.989090	147.380000
234.081818	147.240000
234.174545	147.720000
234.267258	147.220000
234.359985	147.520000
234.452713	147.140000
234.545441	146.860000
234.638168	146.780000
234.730896	147.100000
234.823639	146.820000
234.916367	147.460000
235.009094	147.420000
235.101822	147.200000
235.194580	146.860000
235.287308	146.840000
235.380051	145.800000
235.472778	146.360000
235.565521	146.580000
235.658249	146.480000
235.750992	146.640000
235.843719	147.000000
235.936462	147.140000
236.029205	146.780000
236.121948	146.520000
236.214691	146.760000
236.307449	147.300000
236.400192	146.340000
236.492935	146.320000
236.585678	146.680000
236.678421	146.540000
236.771164	146.460000
236.863907	147.540000
236.956665	147.920000
237.049408	149.400000
237.142151	148.980000
237.234909	149.260000
237.327652	148.840000
237.420410	148.620000
237.513153	147.660000
237.605927	147.740000
237.698669	147.220000
237.791428	146.660000
237.884186	147.140000
237.976944	146.460000
238.069702	146.860000
238.162445	146.340000
238.255203	146.520000
238.347961	146.620000
238.440720	146.920000
238.533478	146.440000
238.626266	146.340000
238.719025	146.840000
238.811783	146.540000
238.904541	146.060000
238.997314	146.100000
239.090073	146.260000
239.182831	146.280000
239.275604	146.840000
239.368362	146.660000
239.461136	146.620000
239.553909	146.420000
239.646667	146.340000
239.739441	145.780000
239.832214	146.360000
239.925003	146.820000
240.017761	147.860000
240.110535	148.380000
240.203308	148.060000
240.296082	148.180000
240.388855	147.620000
240.481628	147.200000
240.574417	146.960000
240.667191	147.040000
240.759964	146.680000
240.852737	146.760000
240.945526	146.460000
241.038315	146.180000
241.131088	146.280000
241.223877	146.560000
241.316650	146.260000
241.409439	146.720000
241.502228	146.100000
241.595001	146.720000
241.687790	146.540000
241.780579	146.740000
241.873367	146.580000
241.966141	147.220000
242.058929	146.360000
242.151718	146.580000
242.244507	146.980000
242.337311	146.340000
242.430099	146.640000
242.522903	147.060000
242.615692	146.640000
242.708481	146.600000
242.801270	147.360000
242.894073	147.080000
242.986862	146.940000
243.079651	147.600000
243.172455	147.320000
243.265244	147.440000
243.358063	146.900000
243.450867	147.640000
243.543655	147.420000
243.636459	147.520000
243.729263	147.600000
243.822067	148.160000
243.914856	147.780000
244.007660	147.540000
244.100464	147.560000
244.193268	146.840000
244.286072	146.660000
244.378876	146.320000
244.471680	146.020000
244.564499	146.200000
244.657318	147.200000
244.750122	147.220000
244.842926	146.780000
244.935745	147.320000
245.028549	146.860000
245.121368	146.160000
245.214172	146.080000
245.306992	146.720000
245.399796	146.700000
245.492615	147.100000
245.585434	147.180000
245.678253	147.320000
245.771072	147.000000
245.863892	147.080000
245.956711	147.320000
246.049530	147.080000
246.142349	146.760000
246.235168	146.880000
246.327988	147.420000
246.420807	147.040000
246.513626	147.360000
246.606445	147.400000
246.699280	147.340000
246.792099	146.720000
246.884918	146.480000
246.977753	145.800000
247.070587	146.040000
247.163422	146.340000
247.256241	146.400000
247.349075	146.680000
247.441895	147.240000
247.534729	147.040000
247.627563	146.800000
247.720383	147.380000
247.813217	147.460000
247.906052	147.120000
247.998886	147.000000
248.091736	146.860000
248.184570	146.440000
248.277405	146.500000
248.370239	147.220000
248.463074	148.360000
248.555908	148.700000
248.648743	148.500000
248.741592	148.580000
248.834427	147.860000
248.927261	146.460000
249.020111	146.640000
249.112946	147.200000
249.205795	146.520000
249.298630	147.000000
249.391495	147.340000
249.484344	147.060000
249.577179	146.580000
249.670029	147.300000
249.762878	147.560000
249.855728	147.680000
249.948563	147.580000
250.041412	147.240000
250.134262	147.340000
250.227112	147.220000
250.319962	147.220000
250.412827	147.040000
250.505692	146.800000
250.598541	146.480000
250.691391	145.900000
250.784241	145.860000
250.877106	146.080000
250.969955	145.840000
251.062805	146.420000
251.155670	147.120000
251.248520	147.000000
251.341385	147.420000
251.434235	147.660000
251.527100	146.980000
251.619965	146.480000
251.712814	147.260000
251.805695	146.740000
251.898560	147.280000
251.991425	147.780000
252.084290	147.780000
252.177155	146.860000
252.270020	146.800000
252.362885	146.560000
252.455750	146.300000
252.548615	146.060000
252.641479	146.360000
252.734360	146.460000
252.827240	146.140000
252.920105	146.240000
253.012970	146.340000
253.105850	146.240000
253.198715	146.200000
253.291595	146.720000
253.384460	146.360000
253.477341	146.520000
253.570221	146.520000
253.663086	146.200000
253.755966	146.560000
253.848846	146.640000
253.941727	146.660000
254.034592	146.700000
254.127472	146.160000
254.220367	145.840000
254.313248	145.920000
254.406128	145.880000
254.499008	146.060000
254.591904	147.060000
254.684784	147.500000
254.777664	147.540000
254.870544	147.100000
254.963440	147.080000
255.056335	146.960000
255.149216	146.340000
255.242111	146.900000
255.334991	147.700000
255.427887	147.840000
255.520767	148.000000
255.613663	148.500000
255.706558	147.460000
255.799438	147.160000
255.892334	146.840000
255.985229	146.680000
256.078125	146.200000
256.171021	146.420000
256.263916	146.560000
256.356812	146.720000
256.449707	146.820000
256.542603	146.800000
256.635498	147.460000
256.728394	147.140000
256.821289	146.880000
256.914215	146.900000
257.007080	146.960000
257.100006	146.640000
257.192932	147.140000
257.285828	147.300000
257.378723	146.980000
257.471619	146.900000
257.564545	146.360000
257.657440	146.440000
257.750336	146.920000
257.843262	146.840000
257.936157	147.980000
258.029053	148.560000
258.121979	148.240000
258.214874	147.560000
258.307800	147.820000
258.400696	146.660000
258.493622	146.640000
258.586517	146.040000
258.679443	146.580000
258.772339	146.300000
258.865265	146.160000
258.958160	145.680000
259.051086	146.660000
259.144012	146.380000
259.236938	147.300000
259.329834	147.500000
259.422791	147.540000
259.515717	146.780000
259.608612	146.400000
259.701538	145.980000
259.794464	145.880000
259.887390	146.120000
259.980316	146.020000
260.073212	146.320000
260.166138	145.660000
260.259064	145.920000
260.351990	146.400000
260.444916	146.560000
260.537842	146.800000
260.630768	147.380000
260.723694	147.320000
260.816620	147.060000
260.909546	146.960000
261.002472	146.580000
261.095398	146.340000
261.188354	146.040000
261.281281	145.640000
261.374207	145.940000
261.467133	146.800000
261.560089	147.100000
261.653015	147.040000
261.745972	147.620000
261.838867	148.080000
261.931824	148.200000
262.024780	147.560000
262.117706	148.000000
262.210663	148.000000
262.303589	147.560000
262.396515	147.200000
262.489471	148.140000
262.582397	147.980000
262.675354	147.340000
262.768280	147.640000
262.861237	147.520000
262.954163	147.220000
263.047119	147.520000
263.140045	147.460000
263.233002	147.140000
263.325958	147.100000
263.418884	146.520000
263.511841	146.340000
263.604797	146.320000
263.697723	146.320000
263.790680	145.740000
263.883636	146.360000
263.976593	146.060000
264.069550	146.580000
264.162476	146.460000
264.255463	147.080000
264.348419	146.860000
264.441376	147.180000
264.534332	146.560000
264.627289	146.860000
264.720245	147.260000
264.813202	146.800000
264.906158	146.860000
264.999115	147.600000
265.092072	147.520000
265.185028	147.580000
265.277985	148.040000
265.370941	147.560000
265.463898	146.900000
265.556854	146.520000
265.649811	145.440000
265.742798	145.480000
265.835754	145.980000
265.928711	146.660000
266.021667	146.760000
266.114655	147.320000
266.207611	147.540000
266.300568	146.680000
266.393585	146.060000
266.486511	146.400000
266.579498	145.800000
266.672485	145.600000
266.765442	145.660000
266.858429	146.320000
266.951385	146.000000
267.044342	146.220000
267.137329	146.140000
267.230316	146.760000
267.323273	146.100000
267.416260	146.800000
267.509216	146.740000
267.602203	146.820000
267.695160	147.120000
267.788147	147.180000
267.881134	146.160000
267.974091	146.520000
268.067078	146.340000
268.160065	146.000000
268.253052	146.040000
268.346008	146.460000
268.438995	146.320000
268.531982	146.460000
268.624969	146.340000
268.717987	146.780000
268.810944	146.880000
268.903961	146.920000
268.996948	146.580000
269.089905	147.000000
269.182892	146.820000
269.275879	147.000000
269.368866	146.620000
269.461853	146.860000
269.554871	146.240000
269.647858	146.220000
269.740845	146.340000
269.833832	146.840000
269.926819	146.780000
270.019806	147.380000
270.112793	146.940000
270.205811	146.800000
270.298798	146.560000
270.391785	146.880000
270.484772	146.520000
270.577789	146.780000
270.670776	146.580000
270.763763	146.960000
270.856750	146.960000
270.949768	146.900000
271.042786	147.140000
271.135773	147.180000
271.228790	147.120000
271.321808	146.540000
271.414795	146.120000
271.507782	145.820000
271.600800	145.460000
271.693817	145.580000
271.786804	146.040000
271.879822	146.760000
271.972809	146.680000
272.065826	147.280000
272.158844	146.660000
272.251831	147.100000
272.344849	146.940000
272.437866	147.040000
272.530853	146.820000
272.623871	146.940000
272.716888	145.980000
272.809906	146.320000
272.902893	146.300000
272.995911	145.800000
273.088928	146.020000
273.181946	146.560000
273.274963	146.080000
273.367981	146.100000
273.460999	146.760000
273.554047	147.080000
273.647003	147.580000
273.740051	147.540000
273.833069	147.860000
273.926086	148.240000
274.019135	147.880000
274.112152	147.340000
274.205170	147.600000
274.298187	147.420000
274.391205	146.440000
274.484222	146.540000
274.577240	146.320000
274.670258	146.040000
274.763306	145.920000
274.856323	146.740000
274.949341	146.700000
275.042358	147.420000
275.135406	147.560000
275.228424	147.820000
275.321442	147.680000
275.414490	147.360000
275.507507	147.460000
275.600525	147.880000
275.693573	147.860000
275.786591	147.380000
275.879669	147.940000
275.972656	147.440000
276.065735	147.180000
276.158752	147.580000
276.251801	148.400000
276.344818	148.240000
276.437866	148.280000
276.530884	147.960000
276.623932	147.160000
276.716980	147.140000
276.809998	147.040000
276.903046	147.160000
276.996094	147.940000
277.089111	148.600000
277.182159	148.680000
277.275208	148.480000
277.368256	148.340000
277.461304	147.820000
277.554321	146.980000
277.647369	146.560000
277.740417	146.460000
277.833466	146.400000
277.926514	146.260000
278.019562	147.160000
278.112610	146.600000
278.205688	147.040000
278.298706	147.240000
278.391785	147.180000
278.484833	146.400000
278.577881	146.220000
278.670929	146.260000
278.763977	146.000000
278.857025	146.500000
278.950073	146.780000
279.043121	146.980000
279.136169	146.680000
279.229248	146.640000
279.322296	146.600000
279.415344	146.280000
279.508392	146.300000
279.601440	146.420000
279.694519	146.460000
279.787567	146.240000
279.880615	146.320000
279.973694	146.360000
280.066742	146.400000
280.159790	146.580000
280.252869	146.120000
280.345917	146.300000
280.438995	146.600000
280.532074	146.440000
280.625122	146.660000
280.718201	147.880000
280.811279	147.800000
280.904327	147.660000
280.997406	147.880000
281.090454	147.660000
281.183533	146.900000
281.276581	147.020000
281.369659	146.660000
281.462738	146.620000
281.555786	146.680000
281.648865	146.720000
281.741943	146.620000
281.835022	147.580000
281.928070	147.280000
282.021149	146.960000
282.114227	147.000000
282.207306	147.000000
282.300385	146.960000
282.393433	147.220000
282.486511	147.080000
282.579590	147.520000
282.672668	147.960000
282.765747	147.160000
282.858856	146.940000
282.951904	147.140000
283.045013	147.060000
283.138062	147.100000
283.231171	147.480000
283.324249	147.860000
283.417328	148.200000
283.510406	147.600000
283.603485	147.260000
283.696564	147.140000
283.789642	147.180000
283.882751	146.680000
283.975830	147.420000
284.068909	147.100000
284.161987	147.440000
284.255066	146.800000
284.348175	147.220000
284.441254	146.700000
284.534332	147.300000
284.627441	147.060000
284.720520	147.140000
284.813599	147.140000
284.906708	147.220000
284.999786	146.500000
285.092896	146.260000
285.185974	147.240000
285.279053	146.620000
285.372192	146.640000
285.465240	147.460000
285.558380	147.500000
285.651459	146.800000
285.744568	147.680000
285.837677	147.400000
285.930756	147.340000
286.023865	147.440000
286.116943	147.180000
286.210052	147.240000
286.303162	147.400000
286.396240	147.240000
286.489349	147.060000
286.582458	147.180000
286.675568	146.740000
286.768646	146.620000
286.861755	146.640000
286.954865	147.560000
287.047974	147.760000
287.141083	147.500000
287.234161	147.540000
287.327271	147.380000
287.420380	147.420000
287.513519	147.160000
287.606598	147.200000
287.699738	147.100000
287.792816	146.960000
287.885956	146.440000
287.979034	146.560000
288.072174	146.920000
288.165283	147.180000
288.258392	147.500000
288.351501	146.800000
288.444611	147.100000
288.537720	147.400000
288.630859	147.120000
288.723969	147.300000
288.817078	148.100000
288.910187	147.680000
289.003296	146.860000
289.096436	146.520000
289.189545	146.180000
289.282654	145.700000
289.375763	146.140000
289.468903	146.840000
289.562012	147.280000
289.655121	147.180000
289.748260	147.300000
289.841400	147.660000
289.934509	147.240000
290.027649	147.480000
290.120728	147.420000
290.213898	147.420000
290.306976	147.040000
290.400146	147.280000
290.493256	146.800000
290.586395	147.100000
290.679535	147.240000
290.772644	147.080000
290.865784	146.240000
290.958893	146.440000
291.052032	146.080000
291.145172	146.020000
291.238281	145.680000
291.331421	146.320000
291.424561	146.600000
291.517670	146.620000
291.610809	146.900000
291.703949	146.960000
291.797089	147.020000
291.890228	146.620000
291.983337	146.560000
292.076477	146.240000
292.169617	146.600000
292.262756	146.440000
292.355927	146.540000
292.449036	146.700000
292.542206	146.620000
292.635315	146.720000
292.728485	147.020000
292.821625	146.560000
292.914764	147.360000
293.007904	147.560000
293.101044	147.360000
293.194183	147.320000
293.287323	147.760000
293.380463	146.940000
293.473602	146.580000
293.566742	146.760000
293.659882	146.820000
293.753021	146.980000
293.846191	147.180000
293.939331	146.980000
294.032471	146.840000
294.125610	146.680000
294.218781	146.920000
294.311920	147.360000
294.405060	147.840000
294.498230	147.700000
294.591370	147.900000
294.684540	147.140000
294.777679	146.440000
294.870850	146.600000
294.963959	146.640000
295.057159	146.140000
295.150299	146.540000
295.243469	146.420000
295.336609	145.760000
295.429779	146.060000
295.522919	146.600000
295.616089	146.780000
295.709229	147.580000
295.802399	147.620000
295.895569	147.040000
295.988708	147.040000
296.081879	146.800000
296.175018	146.180000
296.268188	146.340000
296.361359	146.680000
296.454529	146.520000
296.547668	146.500000
296.640839	146.840000
296.734009	146.840000
296.827179	147.040000
296.920319	147.160000
297.013519	147.200000
297.106659	147.160000
297.199860	147.380000
297.292999	147.060000
297.386200	146.740000
297.479309	146.520000
297.572510	146.240000
297.665680	145.860000
297.758850	146.080000
297.852020	146.080000
297.945190	146.280000
298.038361	145.980000
298.131531	146.940000
298.224701	146.820000
298.317871	146.600000
298.411072	146.140000
298.504242	146.380000
298.597412	145.760000
298.690582	145.980000
298.783752	146.080000
298.876923	146.820000
298.970093	146.900000
299.063293	147.180000
299.156464	147.460000
299.249634	147.860000
299.342834	147.920000
299.436005	148.140000
299.529205	147.900000
299.622345	147.880000
299.715576	147.360000
299.808716	147.040000
299.901917	147.100000
299.995117	147.300000
300.088287	147.280000
300.181488	147.200000
300.274658	146.880000
300.367828	146.780000
300.461029	146.960000
300.554199	146.880000
300.647400	147.000000
300.740601	147.660000
300.833771	147.400000
300.926971	147.380000
301.020142	146.840000
301.113342	146.880000
301.206512	146.580000
301.299713	146.980000
301.392914	147.060000
301.486084	147.260000
301.579285	147.100000
301.672516	147.500000
301.765686	147.120000
301.858887	146.740000
301.952057	146.880000
302.045288	146.840000
302.138458	146.300000
302.231659	146.080000
302.324860	145.720000
302.418060	145.560000
302.511261	145.660000
302.604462	145.980000
302.697662	146.040000
302.790863	146.180000
302.884064	145.840000
302.977264	145.960000
303.070465	146.080000
303.163666	147.020000
303.256866	147.400000
303.350067	147.620000
303.443268	147.800000
303.536469	148.040000
303.629669	147.440000
303.722870	147.200000
303.816071	146.980000
303.909271	146.780000
304.002472	145.720000
304.095673	145.340000
304.188934	144.920000
304.282104	145.900000
304.375336	145.900000
304.468506	145.940000
304.561768	145.960000
304.654968	146.840000
304.748169	146.440000
304.841370	146.460000
304.934601	147.160000
305.027802	146.840000
305.121002	146.200000
305.214233	146.160000
305.307434	146.220000
305.400665	146.640000
305.493866	147.040000
305.587097	147.560000
305.680298	147.040000
305.773499	147.420000
305.866730	146.840000
305.959930	147.120000
306.053162	146.920000
306.146393	146.820000
306.239594	145.960000
306.332825	146.260000
306.426025	146.560000
306.519287	145.940000
306.612488	146.220000
306.705719	146.720000
306.798920	146.800000
306.892181	146.280000
306.985352	146.440000
307.078613	146.080000
307.171844	146.240000
307.265045	145.600000
307.358276	145.380000
307.451508	146.020000
307.544739	146.820000
307.637970	146.480000
307.731201	146.600000
307.824402	147.120000
307.917633	147.240000
308.010864	147.440000
308.104095	148.020000
308.197327	148.360000
308.290558	148.400000
308.383789	147.860000
308.477020	147.200000
308.570251	146.800000
308.663483	146.320000
308.756714	146.080000
308.849976	146.160000
308.943176	146.580000
309.036438	146.160000
309.129639	146.180000
309.222900	146.240000
309.316101	146.100000
309.409393	145.660000
309.502625	145.520000
309.595856	145.540000
309.689087	145.480000
309.782318	145.560000
309.875580	145.580000
309.968811	146.200000
310.062042	146.020000
310.155273	146.100000
310.248535	146.480000
310.341766	146.560000
310.434998	146.200000
310.528259	146.200000
310.621490	146.160000
310.714722	145.440000
310.807983	145.700000
310.901215	145.500000
310.994476	145.720000
311.087708	145.380000
311.181000	146.220000
311.274200	145.920000
311.367462	146.340000
311.460693	146.240000
311.553986	147.180000
311.647186	147.000000
311.740479	147.380000
311.833710	147.140000
311.926971	147.080000
312.020203	146.120000
312.113464	145.620000
312.206726	144.980000
312.299957	145.160000
312.393219	145.720000
312.486481	146.020000
312.579712	146.640000
312.672974	146.980000
312.766235	147.160000
312.859497	146.780000
312.952759	146.640000
313.045990	146.860000
313.139252	146.100000
313.232513	146.220000
313.325775	146.260000
313.419037	146.320000
313.512299	145.840000
313.605530	146.880000
313.698822	146.580000
313.792053	146.800000
313.885345	146.520000
313.978577	146.620000
314.071869	146.160000
314.165131	146.520000
314.258392	146.720000
314.351654	147.100000
314.444916	146.440000
314.538177	146.840000
314.631439	147.040000
314.724701	146.540000
314.817993	146.340000
314.911255	146.920000
315.004517	146.480000
315.097778	146.140000
315.191040	146.820000
315.284302	147.400000
315.377594	147.300000
315.470856	147.560000
315.564117	147.020000
315.657379	146.300000
315.750671	145.600000
315.843933	145.580000
315.937195	145.180000
316.030518	145.240000
316.123749	145.320000
316.217041	146.140000
316.310303	146.060000
316.403595	146.340000
316.496857	146.760000
316.590149	147.060000
316.683411	146.500000
316.776703	146.280000
316.869965	146.260000
316.963257	145.940000
317.056519	145.500000
317.149811	145.540000
317.243073	145.640000
317.336365	145.660000
317.429626	145.960000
317.522919	146.440000
317.616180	146.300000
317.709473	146.140000
317.802765	146.180000
317.896027	146.280000
317.989319	146.280000
318.082611	146.360000
318.175873	146.420000
318.269165	146.160000
318.362488	145.920000
318.455750	145.660000
318.549042	146.020000
318.642303	146.980000
318.735626	147.140000
318.828888	147.340000
318.922211	147.300000
319.015472	147.680000
319.108765	146.580000
319.202057	146.240000
319.295349	146.560000
319.388641	146.680000
319.481934	145.960000
319.575226	146.180000
319.668518	146.760000
319.761810	146.840000
319.855103	146.700000
319.948395	146.880000
320.041687	147.220000
320.134979	147.000000
320.228271	146.620000
320.321564	146.720000
320.414856	146.460000
320.508148	145.980000
320.601440	145.940000
320.694763	145.780000
320.788025	146.420000
320.881348	146.680000
320.974640	146.780000
321.067963	146.340000
321.161224	146.520000
321.254547	145.720000
321.347839	146.280000
321.441162	146.140000
321.534454	146.800000
321.627747	146.360000
321.721069	147.000000
321.814362	146.900000
321.907654	147.240000
322.000946	146.920000
322.094269	147.720000
322.187561	147.240000
322.280884	147.360000
322.374176	147.300000
322.467468	147.620000
322.560791	147.360000
322.654083	147.900000
322.747406	147.660000
322.840698	147.940000
322.934021	148.320000
323.027344	148.480000
323.120636	147.920000
323.213959	147.840000
323.307251	147.020000
323.400574	146.500000
323.493866	145.920000
323.587219	146.220000
323.680511	146.380000
323.773834	147.060000
323.867157	146.960000
323.960449	147.240000
324.053772	147.020000
324.147095	146.980000
324.240387	147.220000
324.333710	147.660000
324.427032	147.880000
324.520355	147.740000
324.613647	147.420000
324.706970	147.060000
324.800293	146.780000
324.893616	146.840000
324.986938	146.920000
325.080231	146.780000
325.173553	147.020000
325.266876	147.220000
325.360199	147.080000
325.453522	147.140000
325.546875	147.100000
325.640167	147.320000
325.733521	147.440000
325.826813	147.640000
325.920166	147.140000
326.013489	147.040000
326.106812	146.080000
326.200134	145.640000
326.293457	144.920000
326.386780	145.680000
326.480103	145.600000
326.573425	145.980000
326.666748	146.060000
326.760071	146.620000
326.853424	146.540000
326.946747	146.860000
327.040070	147.480000
327.133392	147.300000
327.226715	146.620000
327.320068	145.840000
327.413391	146.080000
327.506714	145.060000
327.600037	145.020000
327.693390	145.340000
327.786713	145.860000
327.880066	145.860000
327.973358	146.740000
328.066742	147.220000
328.160034	147.440000
328.253418	147.700000
328.346710	147.180000
328.440063	146.760000
328.533417	146.700000
328.626740	147.000000
328.720093	146.960000
328.813416	147.200000
328.906769	147.320000
329.000092	147.580000
329.093445	147.240000
329.186768	146.820000
329.280121	147.200000
329.373444	147.380000
329.466797	146.760000
329.560120	146.660000
329.653473	146.620000
329.746796	145.960000
329.840149	145.520000
329.933502	145.860000
330.026825	145.900000
330.120178	146.020000
330.213562	145.880000
330.306854	146.180000
330.400238	146.220000
330.493561	145.580000
330.586945	146.300000
330.680237	146.960000
330.773621	147.160000
330.866974	147.200000
330.960327	148.060000
331.053680	147.540000
331.147003	147.420000
331.240356	147.380000
331.333710	147.260000
331.427063	146.840000
331.520416	146.640000
331.613770	146.540000
331.707123	146.560000
331.800476	146.620000
331.893829	147.720000
331.987152	147.920000
332.080505	147.980000
332.173859	147.920000
332.267212	147.320000
332.360565	146.560000
332.453918	146.260000
332.547333	145.980000
332.640656	145.720000
332.734039	146.260000
332.827362	146.300000
332.920746	146.880000
333.014069	147.260000
333.107452	147.580000
333.200806	147.700000
333.294159	147.780000
333.387543	147.320000
333.480896	146.720000
333.574249	146.640000
333.667603	146.060000
333.760956	146.080000
333.854340	146.180000
333.947693	146.560000
334.041046	146.680000
334.134430	147.060000
334.227783	146.580000
334.321136	146.500000
334.414520	146.040000
334.507874	145.900000
334.601227	145.820000
334.694611	145.720000
334.787964	145.920000
334.881348	146.760000
334.974701	146.780000
335.068085	146.460000
335.161438	146.940000
335.254822	146.560000
335.348175	146.220000
335.441559	146.040000
335.534943	147.080000
335.628296	146.780000
335.721680	146.960000
335.815033	146.880000
335.908417	146.980000
336.001770	146.560000
336.095154	146.460000
336.188538	145.960000
336.281891	145.660000
336.375275	145.520000
336.468658	145.000000
336.562012	145.120000
336.655396	145.960000
336.748779	146.460000
336.842133	146.740000
336.935516	147.280000
337.028900	147.060000
337.122284	146.720000
337.215637	146.720000
337.309021	146.200000
337.402435	145.820000
337.495789	145.860000
337.589203	145.680000
337.682526	145.440000
337.775940	146.100000
337.869324	146.300000
337.962708	146.200000
338.056091	146.540000
338.149475	146.180000
338.242859	145.980000
338.336243	145.620000
338.429626	145.760000
338.523010	145.820000
338.616394	145.980000
338.709778	145.840000
338.803162	146.300000
338.896545	146.520000
338.989929	146.100000
339.083313	146.380000
339.176697	146.560000
339.270081	146.460000
339.363464	146.820000
339.456848	147.140000
339.550232	146.780000
339.643616	146.460000
339.737030	146.420000
339.830383	145.960000
339.923828	146.040000
340.017181	146.420000
340.110596	146.740000
340.203949	146.320000
340.297363	146.360000
340.390778	146.160000
340.484161	145.920000
340.577545	145.900000
340.670959	146.440000
340.764343	146.560000
340.857727	146.500000
340.951111	145.920000
341.044525	145.860000
341.137909	145.480000
341.231293	145.140000
341.324707	144.520000
341.418091	145.680000
341.511505	145.680000
341.604889	145.840000
341.698303	146.360000
341.791687	147.140000
341.885071	146.660000
341.978485	146.480000
342.071899	146.840000
342.165283	147.040000
342.258698	147.220000
342.352081	147.400000
342.445496	148.060000
342.538879	147.880000
342.632324	147.360000
342.725708	147.140000
342.819122	146.940000
342.912506	146.460000
343.005920	146.200000
343.099335	147.020000
343.192719	146.900000
343.286133	147.040000
343.379547	147.340000
343.472931	147.520000
343.566345	146.620000
343.659760	146.920000
343.753143	146.820000
343.846558	146.160000
343.939972	146.400000
344.033386	147.120000
344.126770	146.980000
344.220184	147.020000
344.313599	147.720000
344.407043	147.440000
344.500427	146.400000
344.593872	146.840000
344.687225	146.880000
344.780670	146.160000
344.874054	145.900000
344.967499	146.980000
345.060913	146.720000
345.154327	146.260000
345.247742	146.080000
345.341156	146.320000
345.434570	145.580000
345.527985	145.480000
345.621399	145.940000
345.714813	146.080000
345.808228	146.220000
345.901642	146.260000
345.995056	145.960000
346.088470	145.980000
346.181885	146.300000
346.275299	146.120000
346.368713	146.000000
346.462128	146.040000
346.555573	146.000000
346.648987	146.120000
346.742401	145.840000
346.835815	146.580000
346.929260	146.440000
347.022644	146.120000
347.116119	146.020000
347.209503	146.280000
347.302948	146.780000
347.396362	147.380000
347.489807	147.800000
347.583221	148.240000
347.676636	148.260000
347.770050	147.060000
347.863495	146.620000
347.956909	146.620000
348.050323	146.120000
348.143768	146.180000
348.237183	146.080000
348.330597	146.480000
348.424042	146.700000
348.517456	147.180000
348.610901	147.200000
348.704315	147.240000
348.797760	146.640000
348.891174	146.020000
348.984619	145.360000
349.078033	145.720000
349.171448	146.560000
349.264923	146.700000
349.358337	146.740000
349.451782	147.100000
349.545197	146.260000
349.638641	145.460000
349.732086	145.100000
349.825500	145.580000
349.918945	145.360000
350.012390	146.180000
350.105804	146.540000
350.199249	146.980000
350.292664	147.060000
350.386108	147.200000
350.479553	147.380000
350.572968	147.440000
350.666412	147.380000
350.759857	147.080000
350.853302	147.580000
350.946716	147.100000
351.040161	147.020000
351.133606	147.360000
351.227081	147.240000
351.320465	147.560000
351.413940	147.660000
351.507355	147.600000
351.600830	147.340000
351.694244	147.300000
351.787720	146.900000
351.881104	146.840000
351.974579	146.740000
352.067993	147.560000
352.161469	147.920000
352.254883	147.460000
352.348358	147.380000
352.441803	147.680000
352.535248	147.220000
352.628693	147.340000
352.722137	147.160000
352.815582	147.480000
352.909027	147.420000
353.002472	146.800000
353.095917	146.480000
353.189362	147.160000
353.282806	147.180000
353.376251	147.180000
353.469696	147.160000
353.563141	147.740000
353.656586	147.180000
353.750061	146.440000
353.843475	146.140000
353.936981	146.920000
354.030396	146.360000
354.123871	146.400000
354.217285	147.380000
354.310760	147.920000
354.404175	147.840000
354.497681	147.520000
354.591095	147.480000
354.684570	146.540000
354.777985	146.020000
354.871490	145.440000
354.964935	146.000000
355.058380	146.280000
355.151855	146.220000
355.245300	146.340000
355.338745	146.500000
355.432220	146.380000
355.525665	146.040000
355.619110	147.040000
355.712585	146.720000
355.806030	146.540000
355.899475	146.180000
355.992950	146.480000
356.086426	146.120000
356.179871	146.500000
356.273346	146.680000
356.366791	147.180000
356.460266	147.640000
356.553711	147.160000
356.647186	146.980000
356.740631	147.080000
356.834106	146.380000
356.927551	145.880000
357.021027	146.140000
357.114471	146.380000
357.207947	146.140000
357.301422	146.840000
357.394867	147.060000
357.488342	147.100000
357.581818	147.060000
357.675262	147.580000
357.768738	147.260000
357.862213	146.460000
357.955658	146.680000
358.049133	146.440000
358.142609	146.340000
358.236053	146.120000
358.329529	146.580000
358.423035	146.620000
358.516449	146.400000
358.609955	146.600000
358.703400	147.380000
358.796906	147.380000
358.890350	146.760000
358.983826	147.340000
359.077271	146.520000
359.170776	146.180000
359.264221	146.120000
359.357727	146.560000
359.451172	146.660000
359.544647	147.100000
359.638123	146.880000
359.731598	147.200000
359.825073	147.520000
359.918549	147.440000
360.012024	147.600000
360.105499	147.180000
360.198975	147.160000
360.292450	146.720000
360.385925	146.720000
360.479401	146.300000
360.572876	147.080000
360.666351	147.440000
360.759857	147.600000
360.853302	147.580000
360.946808	147.300000
361.040253	146.980000
361.133759	146.160000
361.227203	146.240000
361.320709	145.720000
361.414154	146.480000
361.507660	146.880000
361.601105	147.500000
361.694641	148.020000
361.788086	148.140000
361.881592	148.320000
361.975067	147.720000
362.068542	147.820000
362.162018	147.500000
362.255524	147.360000
362.348999	146.980000
362.442474	147.400000
362.535950	146.980000
362.629456	146.660000
362.722931	146.700000
362.816406	147.060000
362.909882	147.300000
363.003387	147.320000
363.096863	147.700000
363.190338	147.720000
363.283875	147.380000
363.377319	147.000000
363.470825	147.380000
363.564301	146.560000
363.657806	146.960000
363.751282	146.780000
363.844788	147.720000
363.938232	146.980000
364.031769	147.820000
364.125214	147.820000
364.218750	148.420000
364.312225	146.880000
364.405731	147.200000
364.499207	146.600000
364.592712	146.240000
364.686188	145.880000
364.779694	146.380000
364.873169	146.420000
364.966675	146.320000
365.060150	146.280000
365.153656	146.480000
365.247131	146.600000
365.340637	146.900000
365.434143	147.420000
365.527618	147.620000
365.621155	146.800000
365.714600	146.600000
365.808136	146.300000
365.901611	145.460000
365.995117	145.440000
366.088593	145.920000
366.182129	145.940000
366.275604	146.200000
366.369110	146.720000
366.462585	146.800000
366.556122	147.400000
366.649567	147.540000
366.743103	147.480000
366.836609	147.300000
366.930115	147.240000
367.023590	147.060000
367.117096	147.240000
367.210602	146.960000
367.304108	147.540000
367.397614	148.400000
367.491119	148.320000
367.584595	147.980000
367.678101	148.740000
367.771606	148.260000
367.865112	147.620000
367.958649	147.320000
368.052124	147.500000
368.145660	146.640000
368.239136	147.180000
368.332672	147.200000
368.426147	147.220000
368.519684	147.180000
368.613159	147.540000
368.706696	147.100000
368.800171	146.880000
368.893707	146.800000
368.987183	146.660000
369.080719	146.720000
369.174225	146.700000
369.267731	147.020000
369.361237	147.200000
369.454742	147.180000
369.548248	147.460000
369.641754	147.400000
369.735260	147.020000
369.828766	145.940000
369.922272	146.720000
370.015808	146.200000
370.109314	145.900000
370.202820	146.040000
370.296356	147.560000
370.389832	146.880000
370.483368	146.580000
370.576874	146.600000
370.670410	146.620000
370.763885	146.000000
370.857422	146.140000
370.950928	146.240000
371.044464	147.000000
371.137939	147.240000
371.231476	147.460000
371.324982	147.920000
371.418518	148.240000
371.512024	147.660000
371.605560	147.160000
371.699066	147.220000
371.792572	146.620000
371.886108	147.100000
371.979614	146.920000
372.073120	147.740000
372.166656	147.800000
372.260162	147.880000
372.353668	147.360000
372.447205	147.440000
372.540710	147.300000
372.634277	147.040000
372.727753	147.420000
372.821320	147.220000
372.914795	147.080000
373.008362	146.340000
373.101837	146.200000
373.195404	145.800000
373.288879	146.100000
373.382446	147.000000
373.475922	147.200000
373.569489	148.020000
373.662964	148.460000
373.756531	148.440000
373.850037	148.460000
373.943573	148.560000
374.037109	147.460000
374.130615	147.600000
374.224152	147.840000
374.317657	147.380000
374.411194	147.960000
374.504730	147.960000
374.598236	147.120000
374.691772	146.620000
374.785309	146.840000
374.878815	146.080000
374.972351	146.660000
375.065887	146.860000
375.159454	147.460000
375.252930	147.200000
375.346497	147.280000
375.440002	147.740000
375.533569	147.680000
375.627045	147.040000
375.720612	147.080000
375.814117	147.340000
375.907684	146.820000
376.001160	146.460000
376.094727	146.000000
376.188232	146.480000
376.281799	146.680000
376.375336	146.880000
376.468872	147.980000
376.562408	148.500000
376.655914	147.960000
376.749451	147.520000
376.842987	147.360000
376.936523	146.900000
377.030060	146.740000
377.123596	147.080000
377.217133	146.820000
377.310669	146.660000
377.404205	146.720000
377.497772	147.380000
377.591278	146.800000
377.684845	147.840000
377.778351	148.140000
377.871918	148.220000
377.965424	147.400000
378.058990	147.440000
378.152496	146.640000
378.246063	146.480000
378.339569	146.520000
378.433136	146.740000
378.526642	146.920000
378.620209	147.140000
378.713745	147.020000
378.807312	147.200000
378.900848	147.240000
378.994385	147.640000
379.087921	147.220000
379.181458	147.660000
379.274994	146.960000
379.368530	146.980000
379.462097	147.040000
379.555634	147.280000
379.649170	146.340000
379.742706	146.260000
379.836273	146.440000
379.929810	146.240000
380.023376	146.040000
380.116882	146.400000
380.210449	146.500000
380.303986	145.880000
380.397552	145.360000
380.491058	145.740000
380.584656	145.740000
380.678162	145.980000
380.771729	146.160000
380.865265	146.880000
380.958832	146.960000
381.052368	147.020000
381.145935	147.400000
381.239471	148.080000
381.333008	147.900000
381.426575	147.720000
381.520111	148.020000
381.613647	148.000000
381.707214	147.340000
381.800751	146.780000
381.894318	146.940000
381.987854	146.480000
382.081421	146.140000
382.174988	146.460000
382.268524	146.540000
382.362091	146.520000
382.455627	147.320000
382.549194	147.240000
382.642731	146.640000
382.736298	146.520000
382.829834	146.240000
382.923401	146.600000
383.016937	147.020000
383.110504	147.720000
383.204041	147.980000
383.297607	148.400000
383.391174	147.560000
383.484741	147.840000
383.578278	147.160000
383.671844	146.720000
383.765411	145.860000
383.858948	146.300000
383.952515	145.900000
384.046051	146.560000
384.139618	146.980000
384.233185	147.460000
384.326721	146.820000
384.420288	147.360000
384.513855	147.300000
384.607422	147.680000
384.700989	148.040000
384.794525	147.780000
384.888123	147.400000
384.981659	147.380000
385.075226	147.080000
385.168762	146.460000
385.262360	146.880000
385.355896	146.080000
385.449463	146.080000
385.542999	145.820000
385.636597	146.860000
385.730164	147.100000
385.823730	146.940000
385.917267	146.580000
386.010834	147.060000
386.104401	146.640000
386.197968	146.600000
386.291534	147.240000
386.385101	147.520000
386.478668	147.600000
386.572235	147.120000
386.665802	146.640000
386.759338	146.300000
386.852905	146.220000
386.946472	145.700000
387.040070	146.160000
387.133606	146.280000
387.227203	146.340000
387.320740	146.620000
387.414337	146.640000
387.507874	146.480000
387.601471	146.700000
387.695007	146.560000
387.788605	146.160000
387.882141	146.360000
387.975739	146.300000
388.069275	146.000000
388.162872	146.520000
388.256439	146.560000
388.350037	146.180000
388.443604	146.360000
388.537170	146.540000
388.630737	146.580000
388.724304	146.920000
388.817871	147.140000
388.911438	146.880000
389.005005	146.980000
389.098602	147.200000
389.192169	146.640000
389.285736	147.380000
389.379333	147.540000
389.472870	147.160000
389.566467	147.000000
389.660034	147.520000
389.753632	146.460000
389.847168	146.880000
389.940765	147.500000
390.034332	147.260000
390.127930	146.900000
390.221466	147.320000
390.315063	146.580000
390.408630	145.860000
390.502228	145.420000
390.595795	145.580000
390.689362	145.760000
390.782959	146.520000
390.876526	147.040000
390.970093	147.320000
391.063690	147.780000
391.157257	147.620000
391.250824	147.740000
391.344421	147.340000
391.437988	147.460000
391.531555	147.200000
391.625153	147.140000
391.718750	146.760000
391.812317	147.040000
391.905914	146.720000
391.999481	146.680000
392.093079	146.720000
392.186615	146.920000
392.280243	146.760000
392.373779	147.000000
392.467407	147.260000
392.560944	147.420000
392.654572	147.180000
392.748108	146.980000
392.841736	147.140000
392.935303	146.900000
393.028900	146.480000
393.122467	146.120000
393.216064	146.000000
393.309631	145.460000
393.403229	145.000000
393.496796	145.180000
393.590393	144.820000
393.683990	145.100000
393.777557	145.520000
393.871155	145.920000
393.964722	146.360000
394.058350	146.720000
394.151917	147.040000
394.245514	146.720000
394.339081	147.040000
394.432678	147.020000
394.526245	147.140000
394.619873	146.720000
394.713409	147.200000
394.807037	146.780000
394.900604	147.060000
394.994202	147.160000
395.087769	147.580000
395.181396	147.000000
395.274994	147.940000
395.368561	146.840000
395.462158	146.900000
395.555756	146.060000
395.649353	146.720000
395.742920	145.900000
395.836517	146.900000
395.930115	146.120000
396.023712	146.960000
396.117279	147.060000
396.210876	146.820000
396.304474	146.540000
396.398071	147.380000
396.491669	147.520000
396.585266	147.340000
396.678833	147.660000
396.772461	148.080000
396.866028	148.360000
396.959656	148.820000
397.053223	150.000000
397.146851	150.920000
397.240417	153.140000
397.334015	156.240000
397.427582	159.260000
397.521210	163.460000
397.614807	170.000000
397.708405	176.760000
397.802002	186.300000
397.895599	198.860000
397.989197	213.380000
398.082794	230.600000
398.176392	252.040000
398.269989	275.280000
398.363586	301.800000
398.457184	330.920000
398.550781	362.860000
398.644379	393.620000
398.737976	425.480000
398.831573	457.180000
398.925201	485.920000
399.018768	512.160000
399.112396	536.300000
399.205963	556.620000
399.299591	572.000000
399.393158	584.040000
399.486786	591.760000
399.580353	595.540000
399.673981	594.100000
399.767578	590.880000
399.861206	585.040000
399.954773	576.980000
400.048401	565.380000
400.141998	551.240000
400.235596	533.580000
400.329193	512.440000
400.422791	487.120000
400.516418	460.560000
400.610016	434.900000
400.703613	409.020000
400.797211	383.340000
400.890808	359.680000
400.984436	338.680000
401.078033	317.380000
401.171631	297.080000
401.265259	278.060000
401.358826	260.340000
401.452484	242.120000
401.546051	225.640000
401.639679	210.280000
401.733246	198.080000
401.826904	186.760000
401.920471	177.400000
402.014099	170.320000
402.107697	164.820000
402.201324	160.260000
402.294891	156.800000
402.388550	154.740000
402.482147	153.100000
402.575745	151.500000
402.669373	150.020000
402.762970	148.960000
402.856567	148.420000
402.950195	148.120000
403.043793	147.520000
403.137390	148.140000
403.231018	147.600000
403.324615	148.020000
403.418243	147.420000
403.511841	147.840000
403.605469	147.540000
403.699066	147.880000
403.792694	147.520000
403.886292	147.820000
403.979919	147.700000
404.073517	147.300000
404.167145	147.800000
404.260712	147.600000
404.354370	147.180000
404.447937	147.560000
404.541595	147.760000
404.635162	147.520000
404.728821	147.740000
404.822418	147.620000
404.916046	146.960000
405.009644	146.920000
405.103271	147.520000
405.196899	147.260000
405.290497	147.320000
405.384125	148.000000
405.477722	147.620000
405.571350	146.760000
405.664948	146.880000
405.758575	146.980000
405.852203	146.560000
405.945801	146.800000
406.039429	147.000000
406.133057	146.680000
406.226654	146.500000
406.320312	146.160000
406.413879	146.180000
406.507538	146.420000
406.601135	146.260000
406.694763	146.720000
406.788361	146.640000
406.882019	146.560000
406.975586	146.860000
407.069244	147.600000
407.162872	147.400000
407.256470	147.560000
407.350098	147.460000
407.443726	146.800000
407.537323	146.000000
407.630951	146.440000
407.724579	146.340000
407.818207	146.980000
407.911804	146.900000
408.005432	146.940000
408.099060	146.920000
408.192688	147.760000
408.286285	147.020000
408.379913	146.820000
408.473572	147.160000
408.567169	146.360000
408.660828	145.780000
408.754395	145.760000
408.848053	146.020000
408.941650	145.980000
409.035309	146.160000
409.128906	146.000000
409.222565	146.000000
409.316132	146.420000
409.409790	146.180000
409.503387	146.200000
409.597046	146.340000
409.690674	146.880000
409.784302	146.700000
409.877930	146.740000
409.971558	146.880000
410.065186	146.720000
410.158783	146.560000
410.252411	146.320000
410.346039	146.640000
410.439667	146.640000
410.533295	146.680000
410.626923	146.840000
410.720551	146.720000
410.814209	147.060000
410.907806	147.120000
411.001465	146.880000
411.095062	146.660000
411.188721	146.880000
411.282318	146.220000
411.375977	146.060000
411.469574	146.560000
411.563232	146.520000
411.656830	146.420000
411.750488	146.540000
411.844086	146.400000
411.937744	146.140000
412.031372	146.020000
412.125000	145.960000
412.218628	145.860000
412.312256	146.800000
412.405884	147.700000
412.499512	147.640000
412.593170	147.980000
412.686798	148.420000
412.780426	147.460000
412.874054	146.820000
412.967682	146.820000
413.061310	147.280000
413.154968	147.100000
413.248566	147.200000
413.342224	147.080000
413.435852	147.300000
413.529510	146.700000
413.623108	146.260000
413.716766	146.580000
413.810364	147.160000
413.904022	146.820000
413.997650	146.560000
414.091309	147.340000
414.184906	147.020000
414.278564	146.620000
414.372192	147.240000
414.465851	147.600000
414.559479	147.320000
414.653107	148.220000
414.746735	148.080000
414.840393	147.680000
414.934021	147.820000
415.027649	147.320000
415.121277	146.900000
415.214935	147.380000
415.308563	147.480000
415.402191	146.940000
415.495850	146.920000
415.589478	146.420000
415.683136	146.000000
415.776733	146.380000
415.870422	146.920000
415.964020	146.900000
416.057678	147.060000
416.151306	147.080000
416.244965	146.700000
416.338562	146.580000
416.432251	147.280000
416.525848	148.100000
416.619507	148.220000
416.713165	148.500000
416.806793	148.340000
416.900421	148.180000
416.994080	147.340000
417.087708	147.240000
417.181366	146.720000
417.274994	146.980000
417.368622	147.080000
417.462280	147.920000
417.555908	147.580000
417.649567	147.500000
417.743195	147.340000
417.836853	147.220000
417.930481	147.000000
418.024170	147.340000
418.117767	148.080000
418.211426	148.420000
418.305054	148.340000
418.398712	147.580000
418.492340	147.680000
418.585999	147.660000
418.679626	147.420000
418.773285	147.560000
418.866913	148.140000
418.960571	148.300000
419.054230	148.280000
419.147858	148.100000
419.241516	148.200000
419.335144	147.720000
419.428802	147.280000
419.522461	146.480000
419.616089	146.120000
419.709747	146.380000
419.803375	146.800000
419.897034	146.540000
419.990662	146.780000
420.084320	147.300000
420.177979	147.400000
420.271606	147.320000
420.365295	148.200000
420.458893	148.520000
420.552582	148.680000
420.646210	148.000000
420.739868	147.540000
420.833496	147.040000
420.927155	146.440000
421.020782	145.960000
421.114471	145.760000
421.208069	146.120000
421.301758	146.260000
421.395386	146.720000
421.489044	147.040000
421.582703	147.560000
421.676361	147.780000
421.769989	147.540000
421.863647	147.980000
421.957306	148.100000
422.050934	148.180000
422.144592	148.160000
422.238251	147.960000
422.331909	147.300000
422.425537	146.860000
422.519196	146.660000
422.612854	146.540000
422.706543	146.820000
422.800140	147.220000
422.893829	147.240000
422.987457	146.840000
423.081146	147.120000
423.174744	147.480000
423.268433	147.000000
423.362061	146.860000
423.455750	147.140000
423.549347	146.760000
423.643036	146.020000
423.736664	146.680000
423.830353	146.780000
423.924011	147.020000
424.017639	146.540000
424.111298	146.480000
424.204956	146.240000
424.298615	146.260000
424.392273	145.980000
424.485931	146.560000
424.579559	146.880000
424.673218	147.000000
424.766876	146.920000
424.860535	146.540000
424.954193	146.100000
425.047882	146.580000
425.141510	146.360000
425.235199	146.700000
425.328796	146.580000
425.422485	146.580000
425.516113	145.800000
425.609802	145.800000
425.703430	145.600000
425.797119	145.680000
425.890747	145.920000
425.984436	146.220000
426.078064	146.240000
426.171753	146.260000
426.265411	146.240000
426.359070	146.240000
426.452728	146.340000
426.546356	146.280000
426.640015	145.980000
426.733673	146.080000
426.827332	145.680000
426.920990	146.320000
427.014648	145.860000
427.108307	145.980000
427.201965	146.660000
427.295624	147.280000
427.389282	146.260000
427.482941	146.880000
427.576630	146.900000
427.670258	146.160000
427.763947	145.800000
427.857574	145.940000
427.951263	145.560000
428.044922	145.480000
428.138611	145.600000
428.232239	146.000000
428.325928	146.520000
428.419556	147.020000
428.513245	146.780000
428.606903	147.060000
428.700562	146.600000
428.794220	145.980000
428.887878	145.560000
428.981537	146.380000
429.075195	146.300000
429.168854	147.060000
429.262512	147.360000
429.356201	147.540000
429.449860	147.000000
429.543518	146.820000
429.637177	146.500000
429.730835	146.300000
429.824493	146.000000
429.918182	146.320000
430.011810	146.000000
430.105530	145.300000
430.199158	145.560000
430.292847	145.780000
430.386475	145.500000
430.480164	145.620000
430.573792	145.560000
430.667511	145.200000
430.761139	145.080000
430.854828	145.440000
430.948456	145.440000
431.042145	146.340000
431.135834	146.140000
431.229492	146.360000
431.323151	146.660000
431.416809	146.880000
431.510468	146.560000
431.604156	147.080000
431.697815	147.020000
431.791473	146.160000
431.885132	145.720000
431.978821	145.960000
432.072479	146.040000
432.166138	146.340000
432.259827	146.220000
432.353485	146.980000
432.447174	147.040000
432.540802	146.920000
432.634491	146.620000
432.728149	147.420000
432.821838	147.700000
432.915466	147.280000
433.009186	147.380000
433.102814	147.180000
433.196503	146.520000
433.290131	146.100000
433.383850	146.000000
433.477509	146.160000
433.571167	147.100000
433.664856	147.860000
433.758514	148.200000
433.852173	148.460000
433.945862	148.040000
434.039520	147.480000
434.133179	146.680000
434.226868	146.260000
434.320526	145.700000
434.414185	146.140000
434.507874	145.940000
434.601562	146.600000
434.695221	146.500000
434.788910	147.240000
434.882538	147.240000
434.976257	146.960000
435.069885	146.780000
435.163574	146.980000
435.257233	146.240000
435.350922	146.300000
435.444580	146.020000
435.538269	145.540000
435.631897	145.480000
435.725616	146.460000
435.819275	146.720000
435.912964	147.700000
436.006622	148.500000
436.100311	148.520000
436.193970	147.640000
436.287628	147.080000
436.381317	146.640000
436.474976	146.120000
436.568665	146.100000
436.662323	146.380000
436.756012	146.320000
436.849670	146.120000
436.943390	145.940000
437.037018	145.860000
437.130737	145.840000
437.224365	145.780000
437.318085	145.800000
437.411713	145.920000
437.505432	146.200000
437.599060	146.460000
437.692780	146.980000
437.786407	147.120000
437.880127	147.220000
437.973755	146.740000
438.067474	146.100000
438.161133	145.920000
438.254822	146.160000
438.348480	145.960000
438.442169	146.560000
438.535828	147.400000
438.629517	147.040000
438.723175	146.380000
438.816864	146.920000
438.910553	146.440000
439.004211	145.900000
439.097900	145.940000
439.191559	146.440000
439.285248	145.460000
439.378906	145.700000
439.472626	145.660000
439.566284	145.620000
439.659973	145.840000
439.753632	146.100000
439.847321	146.440000
439.940979	146.720000
440.034698	146.540000
440.128326	146.080000
440.222046	146.280000
440.315674	145.780000
440.409393	145.840000
440.503082	145.820000
440.596741	146.160000
440.690430	146.360000
440.784088	145.840000
440.877777	145.240000
440.971466	145.580000
441.065125	145.060000
441.158813	144.660000
441.252502	145.080000
441.346161	145.520000
441.439850	145.280000
441.533539	145.360000
441.627197	145.840000
441.720886	145.820000
441.814606	146.180000
441.908234	146.820000
442.001953	146.700000
442.095612	146.640000
442.189301	146.800000
442.282959	146.580000
442.376678	145.880000
442.470306	146.800000
442.564026	146.720000
442.657684	146.860000
442.751404	146.800000
442.845032	147.680000
442.938751	146.900000
443.032440	146.700000
443.126099	146.400000
443.219788	146.780000
443.313477	146.320000
443.407166	146.660000
443.500824	146.920000
443.594513	147.200000
443.688202	146.920000
443.781891	146.400000
443.875549	145.960000
443.969238	146.140000
444.062927	146.060000
444.156647	145.880000
444.250275	146.540000
444.343994	146.900000
444.437653	146.820000
444.531372	146.600000
444.625031	146.560000
444.718719	145.960000
444.812378	145.900000
444.906097	145.380000
444.999756	145.100000
445.093445	145.200000
445.187103	145.480000
445.280823	146.140000
445.374512	145.880000
445.468201	145.980000
445.561859	145.940000
445.655548	145.980000
445.749237	145.240000
445.842926	145.560000
445.936615	146.300000
446.030304	146.120000
446.123962	146.420000
446.217651	146.420000
446.311340	146.700000
446.405029	146.040000
446.498749	145.960000
446.592407	145.480000
446.686096	145.420000
446.779755	145.740000
446.873474	146.020000
446.967133	146.300000
447.060852	146.160000
447.154510	146.180000
447.248230	146.040000
447.341858	146.000000
447.435577	145.680000
447.529236	145.780000
447.622955	145.820000
447.716644	145.760000
447.810333	145.920000
447.904022	146.380000
447.997711	146.220000
448.091400	146.460000
448.185059	146.480000
448.278748	146.540000
448.372437	146.060000
448.466125	146.340000
448.559814	146.000000
448.653503	146.400000
448.747192	146.340000
448.840912	147.120000
448.934570	147.020000
449.028290	147.640000
449.121948	147.040000
449.215637	146.980000
449.309296	146.300000
449.403015	146.580000
449.496674	146.280000
449.590393	146.500000
449.684052	146.160000
449.777771	147.040000
449.871429	146.640000
449.965149	146.400000
450.058838	146.680000
450.152527	147.300000
450.246216	146.720000
450.339905	146.700000
450.433594	146.560000
450.527283	146.860000
450.620972	146.320000
450.714661	146.460000
450.808350	146.560000
450.902039	146.980000
450.995728	146.480000
451.089417	146.200000
451.183105	146.180000
451.276794	146.740000
451.370514	146.180000
451.464172	145.420000
451.557892	145.580000
451.651550	145.560000
451.745270	145.160000
451.838928	145.080000
451.932648	145.520000
452.026306	146.180000
452.120026	145.660000
452.213684	146.080000
452.307404	146.120000
452.401062	146.400000
452.494781	146.160000
452.588470	146.640000
452.682159	146.080000
452.775848	146.480000
452.869537	145.800000
452.963226	145.620000
453.056915	145.720000
453.150604	145.920000
453.244293	146.000000
453.337982	147.040000
453.431671	147.480000
453.525360	147.700000
453.619049	147.860000
453.712769	147.880000
453.806427	147.220000
453.900146	146.640000
453.993805	146.280000
454.087555	146.360000
454.181213	146.380000
454.274933	146.260000
454.368591	146.440000
454.462311	146.280000
454.555969	145.920000
454.649689	146.740000
454.743347	146.740000
454.837067	147.140000
454.930756	147.780000
455.024445	147.760000
455.118134	146.660000
455.211853	147.040000
455.305542	146.580000
455.399231	146.040000
455.492920	146.040000
455.586609	146.400000
455.680298	146.420000
455.773987	146.320000
455.867676	146.420000
455.961365	146.620000
456.055084	146.420000
456.148773	145.840000
456.242493	145.980000
456.336151	145.660000
456.429871	145.920000
456.523529	146.400000
456.617249	146.660000
456.710907	147.200000
456.804626	147.360000
456.898315	146.680000
456.992035	146.460000
457.085693	146.300000
457.179413	145.560000
457.273102	146.360000
457.366791	146.800000
457.460480	147.020000
457.554199	147.860000
457.647888	147.920000
457.741577	147.140000
457.835266	147.220000
457.928955	147.000000
458.022644	146.880000
458.116364	147.440000
458.210052	147.400000
458.303741	147.240000
458.397461	146.620000
458.491119	145.900000
458.584839	145.600000
458.678528	145.680000
458.772247	145.640000
458.865906	146.160000
458.959625	147.460000
459.053284	147.180000
459.147003	147.180000
459.240692	147.540000
459.334412	147.660000
459.428070	146.580000
459.521790	146.720000
459.615479	146.580000
459.709198	146.960000
459.802887	146.500000
459.896576	146.360000
459.990265	146.680000
460.083954	146.880000
460.177673	146.140000
460.271362	146.360000
460.365051	146.620000
460.458740	146.000000
460.552429	145.640000
460.646149	145.820000
460.739838	145.620000
460.833527	145.600000
460.927246	145.500000
461.020905	145.580000
461.114655	145.540000
461.208313	146.080000
461.302032	145.800000
461.395691	146.320000
461.489441	146.580000
461.583099	146.480000
461.676819	145.840000
461.770477	146.280000
461.864197	145.980000
461.957916	145.380000
462.051605	144.940000
462.145294	145.860000
462.238983	145.300000
462.332703	145.880000
462.426392	146.720000
462.520081	146.660000
462.613770	146.020000
462.707489	146.580000
462.801178	146.340000
462.894867	146.060000
462.988556	146.560000
463.082275	146.680000
463.175964	146.120000
463.269684	146.440000
463.363342	146.120000
463.457092	145.480000
463.550751	145.800000
463.644470	146.320000
463.738129	145.800000
463.831879	146.300000
463.925537	147.100000
464.019257	147.080000
464.112946	146.840000
464.206665	146.680000
464.300323	146.520000
464.394043	146.160000
464.487762	145.760000
464.581451	146.240000
464.675140	146.220000
464.768829	146.180000
464.862549	146.440000
464.956238	146.640000
465.049927	146.620000
465.143646	146.840000
465.237335	146.840000
465.331024	147.140000
465.424713	146.740000
465.518433	146.660000
465.612152	146.700000
465.705811	146.700000
465.799561	146.380000
465.893219	146.680000
465.986938	146.360000
466.080597	146.260000
466.174347	146.400000
466.268005	146.460000
466.361725	146.220000
466.455414	146.100000
466.549133	146.040000
466.642792	146.000000
466.736542	145.920000
466.830231	146.220000
466.923920	146.280000
467.017609	146.360000
467.111328	145.920000
467.205017	145.680000
467.298706	145.600000
467.392426	145.980000
467.486115	145.940000
467.579803	145.880000
467.673523	146.300000
467.767212	146.400000
467.860901	146.260000
467.954651	146.740000
468.048309	147.260000
468.142029	146.940000
468.235718	146.700000
468.329437	146.300000
468.423096	145.880000
468.516846	145.600000
468.610504	145.260000
468.704224	145.180000
468.797913	145.260000
468.891632	145.380000
468.985291	145.580000
469.079010	146.000000
469.172729	145.760000
469.266418	146.420000
469.360107	146.440000
469.453827	146.280000
469.547516	146.220000
469.641205	146.800000
469.734924	146.760000
469.828613	147.120000
469.922302	147.320000
470.016022	147.260000
470.109711	146.780000
470.203430	145.920000
470.297150	145.020000
470.390808	145.260000
470.484558	145.220000
470.578217	145.900000
470.671936	146.740000
470.765625	147.680000
470.859344	147.120000
470.953003	147.440000
471.046753	146.960000
471.140411	146.340000
471.234131	146.180000
471.327820	146.680000
471.421539	146.520000
471.515228	146.180000
471.608948	146.440000
471.702637	146.100000
471.796326	145.640000
471.890045	146.020000
471.983734	146.420000
472.077423	146.140000
472.171143	146.220000
472.264832	146.260000
472.358521	145.780000
472.452240	145.380000
472.545929	145.900000
472.639648	146.120000
472.733337	146.460000
472.827057	146.720000
472.920746	147.260000
473.014465	147.560000
473.108124	147.360000
473.201874	147.300000
473.295532	146.800000
473.389252	146.980000
473.482941	146.680000
473.576660	146.480000
473.670319	146.500000
473.764069	146.880000
473.857727	146.900000
473.951477	147.140000
474.045166	147.820000
474.138855	147.580000
474.232574	147.440000
474.326263	147.300000
474.419952	147.060000
474.513672	146.920000
474.607361	146.960000
474.701050	147.300000
474.794769	147.380000
474.888458	147.660000
474.982178	147.440000
475.075867	147.660000
475.169586	147.480000
475.263275	147.280000
475.356995	146.960000
475.450653	146.560000
475.544403	146.200000
475.638062	147.140000
475.731812	146.720000
475.825470	146.580000
475.919189	146.940000
476.012878	147.220000
476.106598	146.280000
476.200256	146.880000
476.294006	146.780000
476.387695	146.820000
476.481384	146.800000
476.575104	146.900000
476.668793	146.580000
476.762512	146.520000
476.856201	146.840000
476.949890	146.620000
477.043610	146.200000
477.137299	146.160000
477.230988	146.520000
477.324707	146.000000
477.418396	146.460000
477.512146	146.780000
477.605804	146.880000
477.699524	146.920000
477.793213	146.700000
477.886932	146.360000
477.980591	146.060000
478.074341	145.980000
478.167999	145.540000
478.261749	146.000000
478.355408	145.880000
478.449127	146.340000
478.542816	147.100000
478.636536	147.900000
478.730225	148.120000
478.823944	148.380000
478.917633	148.120000
479.011322	147.920000
479.105042	147.460000
479.198730	147.140000
479.292450	146.820000
479.386139	146.960000
479.479828	146.800000
479.573547	147.180000
479.667267	147.540000
479.760925	147.880000
479.854675	148.380000
479.948334	148.680000
480.042084	148.040000
480.135742	148.300000
480.229462	148.020000
480.323151	147.820000
480.416870	146.800000
480.510529	146.840000
480.604279	145.980000
480.697937	146.540000
480.791656	145.840000
480.885345	146.000000
480.979065	145.960000
481.072754	146.560000
481.166473	146.600000
481.260132	146.920000
481.353882	147.100000
481.447540	147.080000
481.541260	146.860000
481.635010	146.080000
481.728668	146.120000
481.822388	146.260000
481.916077	146.480000
482.009796	146.340000
482.103485	146.700000
482.197205	146.820000
482.290863	146.820000
482.384613	146.700000
482.478271	146.580000
482.571991	146.760000
482.665680	146.520000
482.759399	147.100000
482.853058	147.440000
482.946808	147.500000
483.040466	147.260000
483.134216	147.060000
483.227875	146.320000
483.321594	146.800000
483.415283	147.060000
483.509003	147.020000
483.602661	147.240000
483.696411	147.740000
483.790070	147.080000
483.883789	146.700000
483.977478	146.860000
484.071198	146.960000
484.164917	146.300000
484.258606	145.820000
484.352325	146.200000
484.445984	146.200000
484.539734	146.140000
484.633392	145.940000
484.727142	146.220000
484.820801	145.820000
484.914520	145.760000
485.008209	145.780000
485.101929	146.560000
485.195587	146.720000
485.289337	146.760000
485.382996	146.720000
485.476715	146.920000
485.570404	147.200000
485.664124	146.860000
485.757782	147.120000
485.851532	147.080000
485.945190	146.820000
486.038910	146.580000
486.132599	147.280000
486.226318	146.820000
486.319977	146.720000
486.413727	147.200000
486.507446	146.560000
486.601105	145.920000
486.694855	146.220000
486.788513	146.020000
486.882233	145.880000
486.975922	145.980000
487.069641	145.960000
487.163300	145.660000
487.257050	146.980000
487.350708	146.380000
487.444427	146.440000
487.538116	146.540000
487.631836	146.520000
487.725494	145.960000
487.819214	146.260000
487.912903	146.100000
488.006622	146.300000
488.100281	146.600000
488.194031	146.380000
488.287689	146.640000
488.381409	147.460000
488.475098	147.260000
488.568817	147.280000
488.662476	146.800000
488.756226	146.120000
488.849945	145.000000
488.943604	145.260000
489.037354	145.400000
489.131012	145.480000
489.224731	145.660000
489.318390	146.140000
489.412140	146.040000
489.505798	145.840000
489.599518	145.900000
489.693207	146.260000
489.786926	146.000000
489.880585	145.980000
489.974335	146.280000
490.067993	147.020000
490.161713	147.280000
490.255371	148.320000
490.349121	148.460000
490.442780	148.300000
490.536499	147.380000
490.630188	147.120000
490.723907	146.360000
490.817566	146.100000
490.911285	146.100000
491.004974	146.340000
491.098694	145.940000
491.192413	146.700000
491.286102	146.960000
491.379822	146.980000
491.473480	147.220000
491.567200	147.620000
491.660889	146.800000
491.754608	146.420000
491.848267	146.500000
491.941986	146.080000
492.035675	145.920000
492.129395	146.160000
492.223053	146.320000
492.316772	146.540000
492.410461	146.740000
492.504181	146.720000
492.597839	146.560000
492.691559	146.680000
492.785248	146.440000
492.878967	146.740000
492.972626	146.620000
493.066345	146.540000
493.160034	146.060000
493.253754	145.800000
493.347412	145.360000
493.441132	145.580000
493.534882	146.080000
493.628540	146.520000
493.722260	146.760000
493.815918	147.140000
493.909668	147.560000
494.003326	147.760000
494.097046	147.600000
494.190704	147.460000
494.284454	147.320000
494.378113	146.960000
494.471832	146.480000
494.565491	146.440000
494.659210	146.220000
494.752899	145.940000
494.846619	145.720000
494.940277	146.060000
495.033997	146.120000
495.127686	146.060000
495.221405	146.100000
495.315063	146.040000
495.408783	145.860000
495.502441	146.020000
495.596191	146.480000
495.689850	146.320000
495.783569	146.720000
495.877228	146.620000
495.970947	146.280000
496.064697	146.200000
496.158356	147.160000
496.252075	147.140000
496.345734	147.000000
496.439453	147.860000
496.533142	147.820000
496.626862	147.780000
496.720520	147.660000
496.814240	147.880000
496.907898	147.500000
497.001617	147.600000
497.095306	147.040000
497.189026	146.860000
497.282684	146.760000
497.376404	146.780000
497.470062	146.520000
497.563782	146.480000
497.657471	146.600000
497.751190	146.300000
497.844849	146.080000
497.938568	146.220000
498.032227	146.400000
498.125946	146.380000
498.219635	146.440000
498.313354	146.400000
498.407074	146.240000
498.500732	146.360000
498.594452	146.420000
498.688110	146.260000
498.781830	146.320000
498.875519	146.320000
498.969238	146.100000
499.062897	145.780000
499.156616	146.720000
499.250275	146.640000
499.343994	146.260000
499.437653	146.220000
499.531372	146.480000
499.625061	146.400000
499.718781	146.400000
499.812439	146.920000
499.906158	146.860000
499.999817	146.660000
500.093536	146.040000
500.187195	146.500000
500.280914	146.620000
500.374573	146.600000
500.468323	146.520000
500.561981	146.920000
500.655701	146.140000
500.749420	145.880000
500.843079	146.300000
500.936798	146.600000
501.030457	146.840000
501.124176	147.080000
501.217834	147.300000
501.311554	147.000000
501.405212	146.540000
501.498962	145.820000
501.592621	145.820000
501.686340	146.080000
501.779999	146.020000
501.873718	146.560000
501.967377	146.880000
502.061096	147.240000
502.154755	146.420000
502.248474	146.660000
502.342133	146.560000
502.435852	146.640000
502.529510	147.160000
502.623230	148.000000
502.716888	147.440000
502.810608	147.640000
502.904266	147.820000
502.997986	147.360000
503.091705	146.700000
503.185364	146.980000
503.279083	146.740000
503.372772	146.600000
503.466492	146.040000
503.560150	146.340000
503.653870	146.520000
503.747528	146.480000
503.841248	146.360000
503.934906	146.680000
504.028625	146.280000
504.122284	146.280000
504.216003	146.980000
504.309662	146.620000
504.403381	146.880000
504.497040	147.000000
504.590759	146.680000
504.684418	146.560000
504.778137	147.280000
504.871796	147.380000
504.965515	147.160000
505.059174	147.320000
505.152893	146.560000
505.246521	145.780000
505.340240	145.460000
505.433899	145.760000
505.527618	145.840000
505.621338	146.220000
505.714996	146.120000
505.808716	146.000000
505.902374	146.460000
505.996094	146.580000
506.089752	146.260000
506.183472	146.540000
506.277130	146.880000
506.370850	146.680000
506.464508	146.620000
506.558228	146.880000
506.651886	146.700000
506.745605	146.560000
506.839264	146.580000
506.932983	146.440000
507.026611	146.400000
507.120331	147.180000
507.213989	146.920000
507.307709	146.840000
507.401367	147.120000
507.495087	147.700000
507.588745	146.860000
507.682465	147.680000
507.776123	147.360000
507.869843	147.140000
507.963531	146.780000
508.057190	147.600000
508.150909	146.720000
508.244568	147.000000
508.338287	146.640000
508.431946	146.360000
508.525665	145.560000
508.619324	145.440000
508.713013	145.700000
508.806671	146.300000
508.900391	147.320000
508.994049	147.580000
509.087769	147.520000
509.181427	147.200000
509.275146	146.600000
509.368774	145.320000
509.462494	145.580000
509.556152	145.660000
509.649872	146.000000
509.743530	146.440000
509.837250	146.960000
509.930878	146.800000
510.024597	146.940000
510.118256	146.520000
510.211975	146.260000
510.305695	145.820000
510.399353	145.940000
510.493042	146.320000
510.586700	146.620000
510.680420	147.260000
510.774078	147.200000
510.867798	147.300000
510.961426	146.860000
511.055145	146.780000
511.148804	146.320000
511.242523	147.200000
511.336151	147.100000
511.429871	147.380000
511.523529	147.560000
511.617249	147.280000
511.710876	146.740000
511.804596	146.480000
511.898254	146.320000
511.991974	146.220000
512.085632	146.260000
512.179321	146.420000
512.272949	146.920000
512.366699	147.220000
512.460327	147.120000
512.554077	147.900000
512.647766	147.620000
512.741394	147.240000
512.835144	147.540000
512.928772	147.560000
513.022461	147.160000
513.116150	146.920000
513.209839	147.420000
513.303467	146.780000
513.397217	146.380000
513.490845	146.040000
513.584595	146.300000
513.678223	145.600000
513.771912	145.260000
513.865601	145.520000
513.959290	145.760000
514.052917	145.860000
514.146667	146.540000
514.240295	147.020000
514.333984	147.680000
514.427673	147.480000
514.521362	147.720000
514.614990	147.180000
514.708740	147.360000
514.802368	147.000000
514.896057	147.400000
514.989746	147.980000
515.083435	148.080000
515.177124	148.220000
515.270752	148.120000
515.364502	147.900000
515.458130	147.420000
515.551819	147.260000
515.645508	146.920000
515.739197	146.800000
515.832825	146.760000
515.926575	146.400000
516.020203	146.460000
516.113892	146.860000
516.207520	146.500000
516.301270	146.580000
516.394897	146.680000
516.488586	147.140000
516.582275	146.880000
516.675964	146.620000
516.769592	146.400000
516.863281	146.940000
516.956970	147.100000
517.050659	146.880000
517.144287	147.360000
517.238037	147.480000
517.331665	146.580000
517.425354	146.040000
517.519043	146.000000
517.612732	146.560000
517.706421	146.400000
517.800049	146.280000
517.893738	146.160000
517.987427	146.240000
518.081116	145.800000
518.174744	145.660000
518.268433	146.300000
518.362122	146.900000
518.455811	146.740000
518.549438	147.420000
518.643127	148.320000
518.736816	147.720000
518.830505	147.220000
518.924133	147.220000
519.017822	146.780000
519.111511	146.420000
519.205200	147.020000
519.298828	146.920000
519.392517	146.760000
519.486206	146.900000
519.579895	146.840000
519.673523	146.760000
519.767212	146.840000
519.860901	147.360000
519.954590	146.860000
520.048279	146.320000
520.141907	145.940000
520.235596	146.900000
520.329224	147.140000
520.422974	147.200000
520.516602	147.640000
520.610291	147.680000
520.703918	147.200000
520.797607	146.740000
520.891296	147.000000
520.984985	147.140000
521.078613	147.580000
521.172302	147.040000
521.265930	147.800000
521.359680	148.200000
521.453308	147.840000
521.546997	147.400000
521.640625	147.560000
521.734314	146.780000
521.827942	146.300000
521.921692	146.740000
522.015320	147.080000
522.109009	146.940000
522.202698	147.280000
522.296326	147.560000
522.390015	147.700000
522.483704	147.640000
522.577393	147.260000
522.671021	146.640000
522.764709	145.880000
522.858337	145.760000
522.952026	145.760000
523.045654	146.540000
523.139404	147.120000
523.233032	147.380000
523.326721	147.100000
523.420349	147.200000
523.514038	146.620000
523.607666	146.820000
523.701355	146.380000
523.795044	146.360000
523.888733	146.620000
523.982361	147.080000
524.076050	146.540000
524.169678	147.300000
524.263367	146.920000
524.356995	146.400000
524.450684	146.200000
524.544373	146.100000
524.638062	146.000000
524.731750	146.220000
524.825378	146.000000
524.919067	145.480000
525.012695	145.800000
525.106384	145.580000
525.200012	145.820000
525.293701	146.080000
525.387329	146.860000
525.481018	146.860000
525.574646	147.200000
525.668396	147.140000
525.762024	147.520000
525.855713	147.560000
525.949341	146.980000
526.043030	146.860000
526.136658	146.720000
526.230347	146.120000
526.323975	145.680000
526.417664	145.920000
526.511292	145.780000
526.604980	146.080000
526.698608	146.020000
526.792297	145.900000
526.885925	146.040000
526.979614	145.980000
527.073303	145.840000
527.166931	146.200000
527.260620	146.700000
527.354309	147.020000
527.447998	147.280000
527.541626	146.960000
527.635315	146.880000
527.728943	147.300000
527.822632	147.240000
527.916260	147.020000
528.009949	147.280000
528.103577	146.980000
528.197266	146.380000
528.290894	146.300000
528.384583	146.380000
528.478210	146.180000
528.571899	146.760000
528.665527	146.860000
528.759216	147.100000
528.852844	147.320000
528.946533	147.880000
529.040161	147.740000
529.133850	147.660000
529.227478	147.580000
529.321167	147.900000
529.414856	147.920000
529.508484	148.460000
529.602173	148.100000
529.695801	147.860000
529.789490	147.640000
529.883057	147.320000
529.976746	146.820000
530.070374	147.600000
530.164062	147.560000
530.257690	147.440000
530.351379	147.660000
530.445007	147.540000
530.538696	146.640000
530.632324	147.180000
530.726013	147.040000
530.819641	147.060000
530.913330	147.300000
531.006958	147.540000
531.100647	147.440000
531.194275	147.280000
531.287964	146.700000
531.381592	146.440000
531.475220	146.620000
531.568848	146.500000
531.662537	146.620000
531.756226	147.280000
531.849854	147.120000
531.943542	146.960000
532.037170	146.060000
532.130859	146.160000
532.224487	145.640000
532.318176	145.320000
532.411804	145.820000
532.505432	146.520000
532.599060	146.280000
532.692749	146.320000
532.786377	147.260000
532.880066	146.660000
532.973694	146.280000
533.067383	146.500000
533.161011	146.740000
533.254639	146.120000
533.348267	146.120000
533.441956	146.380000
533.535583	146.080000
533.629272	145.980000
533.722900	145.740000
533.816589	145.840000
533.910156	146.360000
534.003845	146.180000
534.097534	146.320000
534.191162	147.060000
534.284851	147.300000
534.378479	146.620000
534.472107	146.760000
534.565735	146.440000
534.659424	146.660000
534.753052	146.660000
534.846741	146.480000
534.940369	147.160000
535.033997	147.260000
535.127625	146.980000
535.221313	147.140000
535.314941	147.480000
535.408630	146.720000
535.502197	147.240000
535.595886	146.900000
535.689514	146.600000
535.783203	146.900000
535.876831	147.540000
535.970459	147.360000
536.064087	147.420000
536.157776	147.500000
536.251404	147.540000
536.345093	147.040000
536.438721	147.060000
536.532349	147.200000
536.626038	146.740000
536.719666	146.660000
536.813293	146.680000
536.906921	146.660000
537.000610	147.040000
537.094238	147.500000
537.187866	147.500000
537.281494	147.440000
537.375183	147.560000
537.468811	147.280000
537.562439	147.240000
537.656067	147.040000
537.749756	147.140000
537.843384	147.240000
537.937012	147.020000
538.030640	146.840000
538.124329	147.080000
538.217896	147.420000
538.311584	147.160000
538.405212	146.940000
538.498901	147.380000
538.592468	147.880000
538.686157	147.300000
538.779785	146.660000
538.873413	146.720000
538.967102	146.140000
539.060730	145.260000
539.154358	145.820000
539.247986	146.340000
539.341675	146.600000
539.435242	146.960000
539.528931	147.080000
539.622559	146.760000
539.716187	147.100000
539.809814	146.780000
539.903503	146.720000
539.997070	146.660000
540.090759	146.820000
540.184387	146.800000
540.278015	147.540000
540.371643	147.700000
540.465332	147.980000
540.558899	147.680000
540.652588	147.320000
540.746216	146.860000
540.839844	146.960000
540.933472	146.900000
541.027100	147.000000
541.120728	147.240000
541.214417	147.400000
541.308044	147.720000
541.401672	147.380000
541.495300	147.240000
541.588928	146.960000
541.682617	146.540000
541.776184	146.120000
541.869873	146.820000
541.963440	146.920000
542.057129	147.100000
542.150757	147.320000
542.244385	147.160000
542.338013	146.580000
542.431641	146.660000
542.525269	146.420000
542.618958	146.740000
542.712524	146.860000
542.806213	146.640000
542.899780	146.980000
542.993469	146.780000
543.087036	146.540000
543.180725	146.200000
543.274292	146.840000
543.367981	146.740000
543.461548	147.320000
543.555237	147.080000
543.648926	147.560000
543.742493	147.780000
543.836182	147.780000
543.929749	147.620000
544.023437	147.720000
544.117004	147.420000
544.210693	147.080000
544.304260	146.960000
544.397949	146.740000
544.491516	147.280000
544.585205	147.560000
544.678772	147.180000
544.772461	147.640000
544.866028	147.600000
544.959717	147.580000
545.053284	147.240000
545.146973	147.640000
545.240540	147.420000
545.334229	148.180000
545.427795	147.920000
545.521423	147.940000
545.615051	147.960000
545.708679	148.240000
545.802307	147.920000
545.895935	148.080000
545.989624	148.700000
546.083191	148.360000
546.176880	147.980000
546.270447	147.280000
546.364136	147.620000
546.457703	147.020000
546.551331	146.960000
546.644958	147.460000
546.738586	148.200000
546.832214	147.520000
546.925842	147.440000
547.019409	148.000000
547.113098	147.140000
547.206665	146.480000
547.300354	146.500000
547.393921	146.800000
547.487549	146.800000
547.581177	146.680000
547.674805	146.820000
547.768433	146.380000
547.862061	146.420000
547.955627	145.660000
548.049316	146.380000
548.142883	146.720000
548.236572	147.520000
548.330139	147.640000
548.423767	147.940000
548.517456	147.480000
548.611023	147.620000
548.704651	146.480000
548.798279	146.160000
548.891907	146.720000
548.985474	146.620000
549.079163	146.600000
549.172729	146.880000
549.266357	146.340000
549.359985	146.020000
549.453613	145.480000
549.547180	144.940000
549.640869	145.640000
549.734436	146.080000
549.828064	146.520000
549.921631	146.940000
550.015320	147.080000
550.108887	147.420000
550.202515	147.500000
550.296143	146.800000
550.389771	147.160000
550.483337	147.360000
550.576965	146.860000
550.670593	147.140000
550.764221	147.460000
550.857849	147.260000
550.951477	146.740000
551.045105	146.500000
551.138672	146.500000
551.232300	146.060000
551.325928	146.500000
551.419556	146.960000
551.513123	146.940000
551.606750	146.540000
551.700378	146.780000
551.794006	146.320000
551.887573	146.160000
551.981201	146.900000
552.074768	147.000000
552.168457	146.740000
552.262024	147.360000
552.355652	147.240000
552.449219	147.100000
552.542847	147.000000
552.636475	146.920000
552.730103	146.300000
552.823669	146.180000
552.917297	145.600000
553.010864	145.740000
553.104553	145.920000
553.198181	145.560000
553.291748	146.080000
553.385376	146.340000
553.478943	146.240000
553.572571	146.520000
553.666199	147.020000
553.759827	146.980000
553.853394	146.440000
553.947021	146.580000
554.040588	146.440000
554.134216	146.560000
554.227783	146.900000
554.321411	147.660000
554.415039	147.320000
554.508667	147.400000
554.602234	147.460000
554.695862	146.800000
554.789429	146.820000
554.883057	147.140000
554.976624	146.980000
555.070251	146.580000
555.163818	146.460000
555.257507	146.360000
555.351074	146.280000
555.444702	147.500000
555.538330	147.480000
555.631897	147.880000
555.725525	147.300000
555.819092	147.200000
555.912720	145.920000
556.006287	146.260000
556.099915	145.820000
556.193481	146.200000
556.287109	146.420000
556.380676	146.320000
556.474304	146.340000
556.567871	146.680000
556.661499	146.400000
556.755066	146.380000
556.848694	146.600000
556.942261	146.240000
557.035889	146.520000
557.129517	147.060000
557.223145	147.460000
557.316711	147.700000
557.410339	148.100000
557.503906	147.900000
557.597473	147.880000
557.691040	147.580000
557.784668	147.360000
557.878296	147.480000
557.971863	147.340000
558.065491	147.400000
558.159058	147.040000
558.252686	147.800000
558.346252	148.060000
558.439880	147.780000
558.533447	147.460000
558.627075	147.300000
558.720642	146.440000
558.814270	145.880000
558.907837	146.040000
559.001465	145.660000
559.095032	146.300000
559.188660	146.400000
559.282227	146.200000
559.375854	146.740000
559.469360	146.800000
559.562988	147.000000
559.656555	147.240000
559.750183	147.780000
559.843750	147.720000
559.937378	147.760000
560.030945	147.240000
560.124573	0.000000
560.218140	0.000000
560.311707	0.000000
560.405334	0.000000
560.498901	0.000000
560.592529	0.000000
560.686096	0.000000
560.779724	0.000000
560.873291	0.000000
560.966858	0.000000
561.060425	0.000000
561.154053	0.000000
561.247620	0.000000
561.341248	0.000000
561.434814	0.000000
561.528381	0.000000
561.621948	0.000000
561.715576	0.000000
561.809143	0.000000
561.902771	0.000000
561.996277	0.000000
562.089905	0.000000
562.183472	0.000000
562.277100	0.000000
