Model Number: SPM-002-B   
Serial Number: 70087108
Firmware Version: 004.15.4
Exposure Time: 100000.000000us
Data Taken on: 11-12-2020 18:45:27.852
Wavelength	Amplitude
221.570786	0.000000
221.663406	0.000000
221.756027	0.000000
221.848648	0.000000
221.941269	0.000000
222.033905	0.000000
222.126526	0.000000
222.219162	0.000000
222.311798	0.000000
222.404419	0.000000
222.497055	0.000000
222.589676	0.000000
222.682312	0.000000
222.774933	0.000000
222.867569	0.000000
222.960205	0.000000
223.052841	0.000000
223.145462	0.000000
223.238098	0.000000
223.330734	0.000000
223.423386	0.000000
223.516022	0.000000
223.608658	0.000000
223.701309	0.000000
223.793945	0.000000
223.886581	0.000000
223.979218	0.000000
224.071869	0.000000
224.164505	0.000000
224.257156	0.000000
224.349792	0.000000
224.442444	0.000000
224.535095	0.000000
224.627747	0.000000
224.720398	0.000000
224.813034	0.000000
224.905685	0.000000
224.998337	145.300000
225.090988	145.080000
225.183640	145.120000
225.276291	145.200000
225.368942	145.400000
225.461594	146.100000
225.554245	146.600000
225.646912	146.380000
225.739578	147.000000
225.832230	147.380000
225.924896	146.580000
226.017548	146.840000
226.110199	147.340000
226.202866	146.300000
226.295532	146.260000
226.388184	146.000000
226.480850	145.300000
226.573517	145.020000
226.666168	145.560000
226.758835	145.620000
226.851501	146.420000
226.944183	146.820000
227.036850	146.420000
227.129517	146.340000
227.222183	146.380000
227.314850	146.060000
227.407516	146.400000
227.500198	147.260000
227.592865	146.760000
227.685532	146.380000
227.778214	146.380000
227.870880	146.400000
227.963562	146.700000
228.056229	147.240000
228.148926	147.020000
228.241592	147.740000
228.334274	147.380000
228.426956	146.580000
228.519638	146.560000
228.612305	146.400000
228.704987	145.780000
228.797668	145.860000
228.890350	145.900000
228.983032	145.300000
229.075714	146.220000
229.168396	145.800000
229.261108	145.220000
229.353790	145.440000
229.446472	145.860000
229.539169	145.120000
229.631851	145.340000
229.724533	145.860000
229.817230	145.840000
229.909912	147.020000
230.002609	147.280000
230.095306	147.180000
230.187988	146.940000
230.280685	146.680000
230.373383	145.160000
230.466095	144.940000
230.558792	145.380000
230.651474	145.420000
230.744171	145.620000
230.836868	145.560000
230.929581	146.060000
231.022278	146.120000
231.114975	146.240000
231.207672	145.860000
231.300369	146.280000
231.393082	146.320000
231.485779	145.680000
231.578506	145.520000
231.671204	146.120000
231.763916	146.120000
231.856613	146.160000
231.949326	146.540000
232.042023	146.260000
232.134735	145.840000
232.227448	145.600000
232.320160	145.480000
232.412872	145.500000
232.505585	146.620000
232.598297	146.780000
232.691010	146.680000
232.783722	146.400000
232.876450	146.880000
232.969162	146.200000
233.061874	145.860000
233.154587	145.660000
233.247314	145.800000
233.340027	145.060000
233.432739	144.960000
233.525467	145.020000
233.618179	145.740000
233.710907	145.320000
233.803635	146.040000
233.896347	146.200000
233.989090	146.700000
234.081818	146.100000
234.174545	146.680000
234.267258	145.760000
234.359985	145.900000
234.452713	145.580000
234.545441	145.760000
234.638168	145.400000
234.730896	146.140000
234.823639	146.000000
234.916367	146.760000
235.009094	146.920000
235.101822	147.160000
235.194580	147.180000
235.287308	147.280000
235.380051	146.500000
235.472778	146.320000
235.565521	146.400000
235.658249	145.720000
235.750992	145.740000
235.843719	145.500000
235.936462	146.160000
236.029205	145.940000
236.121948	145.800000
236.214691	145.920000
236.307449	146.640000
236.400192	145.940000
236.492935	145.660000
236.585678	146.280000
236.678421	146.360000
236.771164	145.920000
236.863907	146.760000
236.956665	147.280000
237.049408	148.400000
237.142151	147.740000
237.234909	148.500000
237.327652	148.240000
237.420410	147.880000
237.513153	146.920000
237.605927	146.940000
237.698669	146.380000
237.791428	145.720000
237.884186	146.260000
237.976944	145.660000
238.069702	146.240000
238.162445	145.860000
238.255203	146.040000
238.347961	146.220000
238.440720	146.320000
238.533478	146.200000
238.626266	146.440000
238.719025	146.740000
238.811783	146.640000
238.904541	146.760000
238.997314	146.400000
239.090073	145.840000
239.182831	146.120000
239.275604	146.420000
239.368362	146.240000
239.461136	146.400000
239.553909	146.460000
239.646667	146.260000
239.739441	145.840000
239.832214	146.220000
239.925003	146.300000
240.017761	147.220000
240.110535	147.480000
240.203308	146.920000
240.296082	147.000000
240.388855	147.040000
240.481628	146.980000
240.574417	147.140000
240.667191	147.500000
240.759964	147.100000
240.852737	147.160000
240.945526	146.760000
241.038315	146.180000
241.131088	146.320000
241.223877	146.640000
241.316650	145.980000
241.409439	146.060000
241.502228	145.860000
241.595001	146.180000
241.687790	145.980000
241.780579	146.180000
241.873367	146.500000
241.966141	146.860000
242.058929	146.040000
242.151718	146.400000
242.244507	146.880000
242.337311	146.000000
242.430099	146.400000
242.522903	146.840000
242.615692	146.120000
242.708481	146.240000
242.801270	146.940000
242.894073	146.560000
242.986862	146.540000
243.079651	147.320000
243.172455	146.840000
243.265244	147.020000
243.358063	146.520000
243.450867	146.800000
243.543655	146.580000
243.636459	146.840000
243.729263	146.800000
243.822067	147.380000
243.914856	147.520000
244.007660	147.680000
244.100464	147.740000
244.193268	147.460000
244.286072	147.140000
244.378876	146.680000
244.471680	146.160000
244.564499	146.280000
244.657318	146.860000
244.750122	147.460000
244.842926	147.000000
244.935745	147.600000
245.028549	147.320000
245.121368	146.800000
245.214172	146.380000
245.306992	146.820000
245.399796	146.240000
245.492615	146.120000
245.585434	146.100000
245.678253	145.920000
245.771072	145.680000
245.863892	146.260000
245.956711	146.520000
246.049530	146.240000
246.142349	146.400000
246.235168	146.600000
246.327988	147.040000
246.420807	146.900000
246.513626	147.140000
246.606445	146.740000
246.699280	146.880000
246.792099	146.240000
246.884918	145.720000
246.977753	145.420000
247.070587	145.440000
247.163422	145.340000
247.256241	145.500000
247.349075	145.940000
247.441895	145.880000
247.534729	145.880000
247.627563	145.660000
247.720383	146.100000
247.813217	146.160000
247.906052	146.320000
247.998886	146.620000
248.091736	146.660000
248.184570	145.820000
248.277405	145.920000
248.370239	146.800000
248.463074	147.600000
248.555908	147.980000
248.648743	148.080000
248.741592	147.980000
248.834427	147.360000
248.927261	146.520000
249.020111	146.580000
249.112946	147.200000
249.205795	146.920000
249.298630	146.980000
249.391495	147.240000
249.484344	147.020000
249.577179	146.740000
249.670029	147.080000
249.762878	147.580000
249.855728	147.460000
249.948563	147.680000
250.041412	147.320000
250.134262	147.760000
250.227112	147.580000
250.319962	147.540000
250.412827	147.300000
250.505692	147.080000
250.598541	146.740000
250.691391	146.280000
250.784241	146.160000
250.877106	146.200000
250.969955	146.060000
251.062805	146.360000
251.155670	146.940000
251.248520	146.680000
251.341385	147.120000
251.434235	147.440000
251.527100	146.920000
251.619965	146.300000
251.712814	147.100000
251.805695	146.620000
251.898560	146.780000
251.991425	147.160000
252.084290	147.600000
252.177155	146.760000
252.270020	146.320000
252.362885	146.060000
252.455750	145.800000
252.548615	145.580000
252.641479	145.880000
252.734360	146.000000
252.827240	146.220000
252.920105	146.360000
253.012970	146.160000
253.105850	146.140000
253.198715	146.020000
253.291595	145.900000
253.384460	145.700000
253.477341	145.700000
253.570221	145.800000
253.663086	146.080000
253.755966	146.640000
253.848846	146.900000
253.941727	147.100000
254.034592	147.080000
254.127472	146.540000
254.220367	146.220000
254.313248	145.960000
254.406128	145.420000
254.499008	145.760000
254.591904	146.820000
254.684784	147.080000
254.777664	147.100000
254.870544	147.020000
254.963440	146.680000
255.056335	146.620000
255.149216	146.200000
255.242111	146.560000
255.334991	147.100000
255.427887	147.400000
255.520767	147.200000
255.613663	147.240000
255.706558	146.680000
255.799438	146.460000
255.892334	145.760000
255.985229	145.460000
256.078125	145.700000
256.171021	146.020000
256.263916	146.280000
256.356812	146.660000
256.449707	146.980000
256.542603	146.580000
256.635498	146.780000
256.728394	146.560000
256.821289	146.460000
256.914215	146.200000
257.007080	146.580000
257.100006	146.360000
257.192932	146.880000
257.285828	147.040000
257.378723	147.180000
257.471619	146.960000
257.564545	147.000000
257.657440	146.960000
257.750336	147.440000
257.843262	147.080000
257.936157	148.240000
258.029053	148.520000
258.121979	148.400000
258.214874	147.700000
258.307800	147.860000
258.400696	146.480000
258.493622	146.280000
258.586517	145.560000
258.679443	146.020000
258.772339	145.420000
258.865265	145.440000
258.958160	144.880000
259.051086	145.660000
259.144012	145.240000
259.236938	146.340000
259.329834	146.460000
259.422791	146.820000
259.515717	146.180000
259.608612	146.180000
259.701538	146.180000
259.794464	146.100000
259.887390	145.900000
259.980316	145.960000
260.073212	145.820000
260.166138	144.800000
260.259064	145.460000
260.351990	146.060000
260.444916	145.960000
260.537842	146.620000
260.630768	147.400000
260.723694	146.940000
260.816620	146.780000
260.909546	147.260000
261.002472	146.680000
261.095398	145.980000
261.188354	145.720000
261.281281	145.220000
261.374207	144.840000
261.467133	145.500000
261.560089	146.020000
261.653015	146.080000
261.745972	146.900000
261.838867	147.660000
261.931824	147.160000
262.024780	146.400000
262.117706	146.560000
262.210663	146.440000
262.303589	145.860000
262.396515	146.320000
262.489471	147.660000
262.582397	147.420000
262.675354	146.840000
262.768280	146.780000
262.861237	146.680000
262.954163	146.140000
263.047119	146.420000
263.140045	146.240000
263.233002	146.180000
263.325958	146.120000
263.418884	145.720000
263.511841	145.780000
263.604797	146.120000
263.697723	146.300000
263.790680	146.120000
263.883636	146.820000
263.976593	146.220000
264.069550	146.200000
264.162476	145.820000
264.255463	145.900000
264.348419	145.180000
264.441376	146.120000
264.534332	145.760000
264.627289	146.100000
264.720245	146.460000
264.813202	146.560000
264.906158	146.300000
264.999115	147.020000
265.092072	147.000000
265.185028	147.160000
265.277985	147.100000
265.370941	146.880000
265.463898	146.220000
265.556854	145.820000
265.649811	145.040000
265.742798	145.260000
265.835754	145.440000
265.928711	146.260000
266.021667	146.440000
266.114655	146.540000
266.207611	146.800000
266.300568	146.220000
266.393585	145.580000
266.486511	145.980000
266.579498	145.380000
266.672485	145.260000
266.765442	145.140000
266.858429	145.620000
266.951385	145.060000
267.044342	145.360000
267.137329	145.160000
267.230316	145.860000
267.323273	145.160000
267.416260	146.080000
267.509216	146.240000
267.602203	146.440000
267.695160	146.580000
267.788147	146.840000
267.881134	146.040000
267.974091	146.020000
268.067078	145.680000
268.160065	145.620000
268.253052	145.460000
268.346008	145.920000
268.438995	146.040000
268.531982	146.300000
268.624969	145.900000
268.717987	146.440000
268.810944	146.040000
268.903961	145.960000
268.996948	145.900000
269.089905	146.320000
269.182892	146.220000
269.275879	146.580000
269.368866	146.080000
269.461853	146.200000
269.554871	146.040000
269.647858	145.940000
269.740845	146.140000
269.833832	146.800000
269.926819	146.400000
270.019806	146.520000
270.112793	146.220000
270.205811	146.260000
270.298798	146.040000
270.391785	146.880000
270.484772	146.200000
270.577789	146.360000
270.670776	146.120000
270.763763	146.240000
270.856750	146.160000
270.949768	146.340000
271.042786	146.360000
271.135773	146.240000
271.228790	146.200000
271.321808	145.620000
271.414795	145.440000
271.507782	145.020000
271.600800	144.800000
271.693817	145.020000
271.786804	145.320000
271.879822	145.580000
271.972809	145.840000
272.065826	146.340000
272.158844	145.960000
272.251831	146.260000
272.344849	146.500000
272.437866	146.340000
272.530853	146.220000
272.623871	146.340000
272.716888	145.620000
272.809906	145.960000
272.902893	146.100000
272.995911	145.400000
273.088928	145.460000
273.181946	145.460000
273.274963	144.720000
273.367981	144.800000
273.460999	145.360000
273.554047	145.640000
273.647003	146.300000
273.740051	146.540000
273.833069	146.620000
273.926086	146.880000
274.019135	146.560000
274.112152	146.020000
274.205170	146.260000
274.298187	146.260000
274.391205	145.380000
274.484222	145.400000
274.577240	145.640000
274.670258	145.200000
274.763306	145.360000
274.856323	146.460000
274.949341	146.620000
275.042358	146.940000
275.135406	146.960000
275.228424	146.840000
275.321442	146.420000
275.414490	145.960000
275.507507	146.100000
275.600525	146.780000
275.693573	146.520000
275.786591	146.120000
275.879669	146.560000
275.972656	146.020000
276.065735	145.520000
276.158752	146.260000
276.251801	147.180000
276.344818	147.020000
276.437866	147.160000
276.530884	147.100000
276.623932	146.040000
276.716980	146.160000
276.809998	146.180000
276.903046	146.160000
276.996094	147.020000
277.089111	147.840000
277.182159	147.800000
277.275208	147.820000
277.368256	147.840000
277.461304	147.380000
277.554321	146.680000
277.647369	146.300000
277.740417	146.380000
277.833466	146.180000
277.926514	145.840000
278.019562	146.500000
278.112610	146.000000
278.205688	146.020000
278.298706	146.260000
278.391785	146.060000
278.484833	145.620000
278.577881	145.700000
278.670929	145.880000
278.763977	146.200000
278.857025	146.620000
278.950073	146.500000
279.043121	146.260000
279.136169	145.660000
279.229248	144.880000
279.322296	145.060000
279.415344	145.040000
279.508392	145.080000
279.601440	145.360000
279.694519	145.520000
279.787567	144.860000
279.880615	145.000000
279.973694	144.860000
280.066742	144.960000
280.159790	145.240000
280.252869	145.160000
280.345917	145.360000
280.438995	145.480000
280.532074	145.400000
280.625122	145.540000
280.718201	146.360000
280.811279	146.280000
280.904327	146.480000
280.997406	146.800000
281.090454	146.560000
281.183533	145.860000
281.276581	145.820000
281.369659	145.620000
281.462738	145.500000
281.555786	145.720000
281.648865	145.940000
281.741943	145.740000
281.835022	146.440000
281.928070	146.240000
282.021149	145.900000
282.114227	145.960000
282.207306	146.100000
282.300385	145.900000
282.393433	146.100000
282.486511	146.300000
282.579590	146.780000
282.672668	146.840000
282.765747	146.320000
282.858856	146.220000
282.951904	146.300000
283.045013	145.980000
283.138062	146.520000
283.231171	147.060000
283.324249	147.080000
283.417328	147.140000
283.510406	146.760000
283.603485	146.120000
283.696564	145.900000
283.789642	145.760000
283.882751	145.300000
283.975830	145.980000
284.068909	145.840000
284.161987	146.360000
284.255066	146.080000
284.348175	146.420000
284.441254	146.140000
284.534332	146.800000
284.627441	146.560000
284.720520	146.460000
284.813599	146.660000
284.906708	146.920000
284.999786	145.940000
285.092896	145.160000
285.185974	146.460000
285.279053	145.860000
285.372192	145.440000
285.465240	146.460000
285.558380	146.800000
285.651459	145.920000
285.744568	146.740000
285.837677	146.640000
285.930756	146.480000
286.023865	146.380000
286.116943	146.140000
286.210052	146.140000
286.303162	146.300000
286.396240	146.060000
286.489349	146.080000
286.582458	146.760000
286.675568	146.280000
286.768646	146.360000
286.861755	146.540000
286.954865	147.300000
287.047974	146.420000
287.141083	146.320000
287.234161	146.040000
287.327271	146.140000
287.420380	146.140000
287.513519	146.080000
287.606598	146.100000
287.699738	146.400000
287.792816	145.980000
287.885956	145.780000
287.979034	146.120000
288.072174	146.140000
288.165283	145.800000
288.258392	146.080000
288.351501	145.400000
288.444611	145.820000
288.537720	146.040000
288.630859	145.900000
288.723969	145.980000
288.817078	146.440000
288.910187	146.340000
289.003296	145.980000
289.096436	145.900000
289.189545	145.580000
289.282654	145.280000
289.375763	145.600000
289.468903	146.060000
289.562012	146.460000
289.655121	146.720000
289.748260	146.940000
289.841400	147.020000
289.934509	146.940000
290.027649	146.820000
290.120728	146.420000
290.213898	146.420000
290.306976	145.860000
290.400146	145.940000
290.493256	146.100000
290.586395	146.320000
290.679535	146.800000
290.772644	146.740000
290.865784	145.800000
290.958893	145.460000
291.052032	145.460000
291.145172	144.960000
291.238281	144.920000
291.331421	145.480000
291.424561	145.940000
291.517670	145.720000
291.610809	146.000000
291.703949	145.620000
291.797089	145.880000
291.890228	145.340000
291.983337	145.240000
292.076477	144.920000
292.169617	145.380000
292.262756	145.500000
292.355927	145.740000
292.449036	145.780000
292.542206	146.420000
292.635315	146.660000
292.728485	146.620000
292.821625	146.200000
292.914764	147.500000
293.007904	147.080000
293.101044	147.120000
293.194183	146.880000
293.287323	147.480000
293.380463	146.620000
293.473602	146.600000
293.566742	146.780000
293.659882	147.320000
293.753021	147.340000
293.846191	147.180000
293.939331	146.640000
294.032471	146.180000
294.125610	145.540000
294.218781	145.820000
294.311920	146.220000
294.405060	146.840000
294.498230	146.860000
294.591370	147.100000
294.684540	146.560000
294.777679	146.240000
294.870850	146.020000
294.963959	145.840000
295.057159	145.420000
295.150299	145.720000
295.243469	145.580000
295.336609	145.060000
295.429779	145.340000
295.522919	146.040000
295.616089	145.980000
295.709229	146.640000
295.802399	147.140000
295.895569	146.780000
295.988708	146.480000
296.081879	146.500000
296.175018	145.820000
296.268188	145.760000
296.361359	146.540000
296.454529	146.420000
296.547668	146.140000
296.640839	146.560000
296.734009	146.520000
296.827179	146.280000
296.920319	146.540000
297.013519	146.520000
297.106659	146.060000
297.199860	145.780000
297.292999	145.640000
297.386200	145.400000
297.479309	145.280000
297.572510	145.340000
297.665680	145.340000
297.758850	145.500000
297.852020	145.420000
297.945190	145.500000
298.038361	145.320000
298.131531	146.180000
298.224701	145.900000
298.317871	145.800000
298.411072	145.320000
298.504242	145.440000
298.597412	145.100000
298.690582	145.300000
298.783752	145.320000
298.876923	146.080000
298.970093	145.960000
299.063293	145.880000
299.156464	146.160000
299.249634	146.260000
299.342834	146.220000
299.436005	146.760000
299.529205	146.740000
299.622345	146.720000
299.715576	146.520000
299.808716	146.460000
299.901917	146.140000
299.995117	146.180000
300.088287	146.100000
300.181488	146.080000
300.274658	145.840000
300.367828	145.840000
300.461029	145.960000
300.554199	146.180000
300.647400	146.300000
300.740601	147.000000
300.833771	147.220000
300.926971	147.340000
301.020142	146.560000
301.113342	146.500000
301.206512	146.140000
301.299713	146.060000
301.392914	145.800000
301.486084	146.140000
301.579285	146.180000
301.672516	146.580000
301.765686	146.520000
301.858887	146.460000
301.952057	146.360000
302.045288	146.460000
302.138458	146.200000
302.231659	145.800000
302.324860	145.900000
302.418060	145.680000
302.511261	145.420000
302.604462	145.380000
302.697662	145.620000
302.790863	145.620000
302.884064	145.660000
302.977264	145.660000
303.070465	145.740000
303.163666	146.240000
303.256866	146.360000
303.350067	146.420000
303.443268	146.560000
303.536469	146.960000
303.629669	146.460000
303.722870	146.600000
303.816071	146.540000
303.909271	146.680000
304.002472	145.840000
304.095673	145.920000
304.188934	145.280000
304.282104	146.020000
304.375336	146.160000
304.468506	146.140000
304.561768	146.060000
304.654968	146.680000
304.748169	146.060000
304.841370	145.860000
304.934601	146.300000
305.027802	146.180000
305.121002	145.700000
305.214233	145.840000
305.307434	145.920000
305.400665	146.180000
305.493866	146.160000
305.587097	146.500000
305.680298	146.400000
305.773499	146.880000
305.866730	146.640000
305.959930	147.100000
306.053162	147.080000
306.146393	146.720000
306.239594	145.800000
306.332825	145.840000
306.426025	145.920000
306.519287	145.740000
306.612488	146.460000
306.705719	146.680000
306.798920	146.520000
306.892181	146.020000
306.985352	145.600000
307.078613	144.680000
307.171844	145.020000
307.265045	144.700000
307.358276	144.260000
307.451508	144.920000
307.544739	145.320000
307.637970	144.860000
307.731201	144.920000
307.824402	145.980000
307.917633	145.960000
308.010864	146.340000
308.104095	146.960000
308.197327	147.180000
308.290558	146.760000
308.383789	146.400000
308.477020	146.180000
308.570251	145.400000
308.663483	145.100000
308.756714	145.080000
308.849976	145.240000
308.943176	145.640000
309.036438	145.620000
309.129639	145.780000
309.222900	146.000000
309.316101	145.720000
309.409393	145.220000
309.502625	145.160000
309.595856	145.240000
309.689087	144.960000
309.782318	145.080000
309.875580	145.160000
309.968811	145.260000
310.062042	145.080000
310.155273	145.020000
310.248535	145.540000
310.341766	145.660000
310.434998	145.480000
310.528259	145.300000
310.621490	145.720000
310.714722	144.960000
310.807983	144.840000
310.901215	145.200000
310.994476	145.720000
311.087708	145.420000
311.181000	146.000000
311.274200	145.880000
311.367462	146.080000
311.460693	145.640000
311.553986	145.980000
311.647186	146.200000
311.740479	146.780000
311.833710	146.060000
311.926971	145.980000
312.020203	145.540000
312.113464	145.140000
312.206726	144.240000
312.299957	144.960000
312.393219	145.380000
312.486481	145.740000
312.579712	145.820000
312.672974	146.140000
312.766235	146.000000
312.859497	146.020000
312.952759	145.700000
313.045990	146.500000
313.139252	146.120000
313.232513	146.500000
313.325775	146.560000
313.419037	146.500000
313.512299	145.400000
313.605530	146.000000
313.698822	145.820000
313.792053	145.780000
313.885345	145.480000
313.978577	145.440000
314.071869	144.820000
314.165131	145.080000
314.258392	145.400000
314.351654	145.840000
314.444916	145.380000
314.538177	146.380000
314.631439	146.220000
314.724701	145.640000
314.817993	145.500000
314.911255	146.280000
315.004517	145.520000
315.097778	145.640000
315.191040	145.960000
315.284302	146.360000
315.377594	145.960000
315.470856	146.140000
315.564117	145.480000
315.657379	145.000000
315.750671	144.420000
315.843933	145.160000
315.937195	144.960000
316.030518	144.900000
316.123749	145.000000
316.217041	145.860000
316.310303	145.340000
316.403595	145.260000
316.496857	145.480000
316.590149	145.800000
316.683411	145.100000
316.776703	145.020000
316.869965	145.340000
316.963257	145.340000
317.056519	145.020000
317.149811	144.860000
317.243073	145.000000
317.336365	145.200000
317.429626	145.640000
317.522919	146.060000
317.616180	146.340000
317.709473	145.720000
317.802765	145.480000
317.896027	145.220000
317.989319	145.480000
318.082611	145.300000
318.175873	145.680000
318.269165	145.940000
318.362488	146.060000
318.455750	145.420000
318.549042	145.920000
318.642303	146.640000
318.735626	146.340000
318.828888	146.240000
318.922211	145.960000
319.015472	146.300000
319.108765	145.320000
319.202057	145.060000
319.295349	145.160000
319.388641	145.440000
319.481934	145.040000
319.575226	145.480000
319.668518	145.880000
319.761810	146.220000
319.855103	146.340000
319.948395	146.360000
320.041687	146.480000
320.134979	146.320000
320.228271	145.720000
320.321564	145.620000
320.414856	145.520000
320.508148	145.020000
320.601440	145.120000
320.694763	145.200000
320.788025	145.880000
320.881348	145.620000
320.974640	145.840000
321.067963	145.260000
321.161224	145.280000
321.254547	144.440000
321.347839	144.920000
321.441162	144.740000
321.534454	145.420000
321.627747	145.120000
321.721069	145.700000
321.814362	146.020000
321.907654	146.020000
322.000946	145.880000
322.094269	146.640000
322.187561	146.140000
322.280884	145.740000
322.374176	146.020000
322.467468	146.260000
322.560791	146.300000
322.654083	146.920000
322.747406	147.020000
322.840698	147.440000
322.934021	147.320000
323.027344	147.400000
323.120636	147.100000
323.213959	146.900000
323.307251	146.220000
323.400574	146.280000
323.493866	145.460000
323.587219	145.540000
323.680511	145.820000
323.773834	146.020000
323.867157	145.920000
323.960449	146.480000
324.053772	146.320000
324.147095	146.160000
324.240387	146.800000
324.333710	146.940000
324.427032	146.780000
324.520355	146.860000
324.613647	146.680000
324.706970	146.120000
324.800293	146.260000
324.893616	146.400000
324.986938	146.500000
325.080231	146.380000
325.173553	146.820000
325.266876	147.140000
325.360199	147.140000
325.453522	146.640000
325.546875	146.420000
325.640167	146.400000
325.733521	146.140000
325.826813	146.240000
325.920166	146.240000
326.013489	146.380000
326.106812	145.400000
326.200134	145.080000
326.293457	144.380000
326.386780	144.600000
326.480103	144.460000
326.573425	144.660000
326.666748	144.760000
326.760071	145.480000
326.853424	145.720000
326.946747	146.080000
327.040070	147.000000
327.133392	146.660000
327.226715	146.060000
327.320068	145.480000
327.413391	145.760000
327.506714	144.800000
327.600037	144.800000
327.693390	145.260000
327.786713	145.340000
327.880066	145.040000
327.973358	145.700000
328.066742	146.220000
328.160034	146.340000
328.253418	146.860000
328.346710	146.580000
328.440063	146.080000
328.533417	145.540000
328.626740	145.200000
328.720093	144.880000
328.813416	144.840000
328.906769	144.960000
329.000092	145.300000
329.093445	145.400000
329.186768	145.240000
329.280121	145.920000
329.373444	146.420000
329.466797	146.240000
329.560120	146.360000
329.653473	147.000000
329.746796	146.740000
329.840149	146.260000
329.933502	146.440000
330.026825	146.080000
330.120178	145.580000
330.213562	145.380000
330.306854	145.440000
330.400238	145.440000
330.493561	145.520000
330.586945	146.180000
330.680237	146.680000
330.773621	146.820000
330.866974	146.520000
330.960327	146.900000
331.053680	146.320000
331.147003	146.000000
331.240356	146.180000
331.333710	146.520000
331.427063	146.040000
331.520416	146.020000
331.613770	146.000000
331.707123	146.040000
331.800476	146.160000
331.893829	147.140000
331.987152	147.380000
332.080505	147.320000
332.173859	147.240000
332.267212	146.660000
332.360565	146.060000
332.453918	145.800000
332.547333	145.580000
332.640656	145.420000
332.734039	145.720000
332.827362	145.480000
332.920746	145.820000
333.014069	146.000000
333.107452	146.440000
333.200806	146.760000
333.294159	147.100000
333.387543	146.560000
333.480896	146.260000
333.574249	145.900000
333.667603	145.360000
333.760956	145.160000
333.854340	145.540000
333.947693	145.720000
334.041046	145.900000
334.134430	146.200000
334.227783	146.100000
334.321136	145.860000
334.414520	145.540000
334.507874	145.400000
334.601227	145.340000
334.694611	145.360000
334.787964	145.500000
334.881348	146.180000
334.974701	146.320000
335.068085	146.240000
335.161438	146.520000
335.254822	146.260000
335.348175	146.160000
335.441559	145.660000
335.534943	146.260000
335.628296	145.800000
335.721680	145.900000
335.815033	146.120000
335.908417	146.600000
336.001770	146.300000
336.095154	146.500000
336.188538	146.480000
336.281891	145.700000
336.375275	145.440000
336.468658	145.120000
336.562012	145.360000
336.655396	145.680000
336.748779	146.200000
336.842133	146.300000
336.935516	146.780000
337.028900	146.380000
337.122284	146.540000
337.215637	146.840000
337.309021	146.640000
337.402435	146.040000
337.495789	145.920000
337.589203	145.260000
337.682526	144.660000
337.775940	145.120000
337.869324	145.540000
337.962708	145.620000
338.056091	146.480000
338.149475	146.520000
338.242859	146.400000
338.336243	146.200000
338.429626	146.460000
338.523010	146.040000
338.616394	145.860000
338.709778	145.680000
338.803162	146.000000
338.896545	145.860000
338.989929	145.460000
339.083313	145.680000
339.176697	145.480000
339.270081	144.960000
339.363464	145.300000
339.456848	145.880000
339.550232	145.480000
339.643616	145.400000
339.737030	145.740000
339.830383	145.340000
339.923828	145.160000
340.017181	145.620000
340.110596	145.900000
340.203949	145.560000
340.297363	145.160000
340.390778	145.220000
340.484161	145.000000
340.577545	144.860000
340.670959	145.120000
340.764343	145.460000
340.857727	145.180000
340.951111	144.860000
341.044525	145.340000
341.137909	145.200000
341.231293	145.280000
341.324707	144.920000
341.418091	145.780000
341.511505	145.380000
341.604889	145.680000
341.698303	145.660000
341.791687	146.020000
341.885071	145.620000
341.978485	145.400000
342.071899	145.360000
342.165283	146.020000
342.258698	146.200000
342.352081	146.400000
342.445496	147.200000
342.538879	147.220000
342.632324	146.720000
342.725708	146.660000
342.819122	146.520000
342.912506	146.020000
343.005920	145.880000
343.099335	146.160000
343.192719	145.960000
343.286133	145.660000
343.379547	146.040000
343.472931	145.900000
343.566345	145.480000
343.659760	146.020000
343.753143	145.880000
343.846558	145.540000
343.939972	145.580000
344.033386	146.260000
344.126770	146.280000
344.220184	146.780000
344.313599	146.920000
344.407043	147.260000
344.500427	146.360000
344.593872	146.580000
344.687225	146.400000
344.780670	146.060000
344.874054	145.580000
344.967499	146.460000
345.060913	146.160000
345.154327	146.080000
345.247742	146.040000
345.341156	146.020000
345.434570	145.320000
345.527985	145.080000
345.621399	145.320000
345.714813	145.100000
345.808228	145.400000
345.901642	145.300000
345.995056	145.200000
346.088470	145.240000
346.181885	145.740000
346.275299	145.400000
346.368713	145.580000
346.462128	145.260000
346.555573	144.900000
346.648987	144.940000
346.742401	145.140000
346.835815	145.380000
346.929260	145.580000
347.022644	146.000000
347.116119	146.040000
347.209503	146.520000
347.302948	147.260000
347.396362	147.800000
347.489807	147.660000
347.583221	148.160000
347.676636	147.480000
347.770050	146.440000
347.863495	145.640000
347.956909	145.740000
348.050323	144.940000
348.143768	145.340000
348.237183	145.040000
348.330597	145.980000
348.424042	146.000000
348.517456	146.500000
348.610901	146.560000
348.704315	146.760000
348.797760	145.700000
348.891174	145.140000
348.984619	144.560000
349.078033	144.480000
349.171448	145.060000
349.264923	145.500000
349.358337	145.540000
349.451782	145.780000
349.545197	145.320000
349.638641	144.720000
349.732086	144.200000
349.825500	144.860000
349.918945	144.480000
350.012390	144.920000
350.105804	145.640000
350.199249	146.360000
350.292664	146.680000
350.386108	146.860000
350.479553	147.480000
350.572968	147.300000
350.666412	147.160000
350.759857	146.760000
350.853302	147.460000
350.946716	146.440000
351.040161	146.240000
351.133606	146.160000
351.227081	145.900000
351.320465	146.160000
351.413940	146.440000
351.507355	146.740000
351.600830	147.040000
351.694244	146.940000
351.787720	146.380000
351.881104	146.480000
351.974579	146.140000
352.067993	146.860000
352.161469	146.800000
352.254883	146.420000
352.348358	146.360000
352.441803	146.240000
352.535248	145.920000
352.628693	146.420000
352.722137	146.440000
352.815582	146.800000
352.909027	147.200000
353.002472	146.740000
353.095917	146.860000
353.189362	147.180000
353.282806	146.640000
353.376251	146.540000
353.469696	146.300000
353.563141	146.300000
353.656586	146.280000
353.750061	146.240000
353.843475	145.700000
353.936981	146.040000
354.030396	145.280000
354.123871	145.040000
354.217285	145.880000
354.310760	146.660000
354.404175	146.440000
354.497681	146.900000
354.591095	146.740000
354.684570	145.480000
354.777985	144.880000
354.871490	144.760000
354.964935	144.820000
355.058380	145.220000
355.151855	145.480000
355.245300	145.660000
355.338745	146.100000
355.432220	146.220000
355.525665	145.820000
355.619110	146.580000
355.712585	146.440000
355.806030	146.040000
355.899475	145.820000
355.992950	146.360000
356.086426	146.360000
356.179871	146.620000
356.273346	146.660000
356.366791	146.540000
356.460266	146.460000
356.553711	145.880000
356.647186	145.900000
356.740631	145.940000
356.834106	145.840000
356.927551	145.780000
357.021027	146.020000
357.114471	146.040000
357.207947	146.300000
357.301422	146.860000
357.394867	146.820000
357.488342	147.140000
357.581818	146.920000
357.675262	146.900000
357.768738	146.220000
357.862213	145.420000
357.955658	145.120000
358.049133	144.880000
358.142609	145.060000
358.236053	145.000000
358.329529	145.500000
358.423035	145.740000
358.516449	145.580000
358.609955	145.900000
358.703400	146.580000
358.796906	146.920000
358.890350	146.200000
358.983826	146.800000
359.077271	146.060000
359.170776	145.640000
359.264221	145.360000
359.357727	146.020000
359.451172	146.220000
359.544647	146.400000
359.638123	146.300000
359.731598	146.800000
359.825073	146.800000
359.918549	146.340000
360.012024	146.180000
360.105499	145.960000
360.198975	145.740000
360.292450	145.440000
360.385925	145.680000
360.479401	145.720000
360.572876	146.240000
360.666351	146.400000
360.759857	146.620000
360.853302	146.620000
360.946808	146.220000
361.040253	146.380000
361.133759	145.880000
361.227203	145.940000
361.320709	145.680000
361.414154	146.380000
361.507660	146.480000
361.601105	147.240000
361.694641	147.740000
361.788086	147.900000
361.881592	148.020000
361.975067	147.760000
362.068542	147.860000
362.162018	147.340000
362.255524	146.820000
362.348999	146.480000
362.442474	146.680000
362.535950	145.940000
362.629456	145.860000
362.722931	146.040000
362.816406	146.320000
362.909882	146.360000
363.003387	146.200000
363.096863	146.600000
363.190338	146.660000
363.283875	146.240000
363.377319	146.020000
363.470825	146.640000
363.564301	145.940000
363.657806	146.280000
363.751282	146.200000
363.844788	147.120000
363.938232	146.340000
364.031769	147.040000
364.125214	146.880000
364.218750	147.020000
364.312225	145.620000
364.405731	146.260000
364.499207	145.600000
364.592712	145.500000
364.686188	145.600000
364.779694	145.960000
364.873169	145.680000
364.966675	145.680000
365.060150	145.720000
365.153656	146.320000
365.247131	146.300000
365.340637	146.480000
365.434143	147.160000
365.527618	147.380000
365.621155	146.300000
365.714600	146.320000
365.808136	146.680000
365.901611	145.760000
365.995117	145.420000
366.088593	145.600000
366.182129	145.400000
366.275604	145.080000
366.369110	145.280000
366.462585	145.000000
366.556122	145.980000
366.649567	146.360000
366.743103	146.420000
366.836609	146.380000
366.930115	147.200000
367.023590	146.640000
367.117096	146.420000
367.210602	146.200000
367.304108	147.060000
367.397614	147.440000
367.491119	147.680000
367.584595	147.980000
367.678101	148.360000
367.771606	147.660000
367.865112	146.780000
367.958649	146.220000
368.052124	145.900000
368.145660	145.560000
368.239136	145.900000
368.332672	146.440000
368.426147	146.680000
368.519684	146.540000
368.613159	147.000000
368.706696	146.560000
368.800171	146.420000
368.893707	146.560000
368.987183	147.160000
369.080719	146.920000
369.174225	146.840000
369.267731	146.900000
369.361237	146.860000
369.454742	146.360000
369.548248	146.560000
369.641754	146.640000
369.735260	146.500000
369.828766	145.800000
369.922272	146.560000
370.015808	146.220000
370.109314	146.020000
370.202820	145.720000
370.296356	146.920000
370.389832	146.420000
370.483368	146.060000
370.576874	146.340000
370.670410	146.640000
370.763885	145.500000
370.857422	145.440000
370.950928	145.560000
371.044464	146.260000
371.137939	146.420000
371.231476	146.860000
371.324982	147.460000
371.418518	147.800000
371.512024	147.580000
371.605560	147.160000
371.699066	147.280000
371.792572	146.480000
371.886108	146.680000
371.979614	146.120000
372.073120	146.600000
372.166656	146.340000
372.260162	146.560000
372.353668	146.120000
372.447205	146.340000
372.540710	146.000000
372.634277	145.820000
372.727753	146.020000
372.821320	146.140000
372.914795	146.220000
373.008362	146.320000
373.101837	146.660000
373.195404	146.480000
373.288879	146.540000
373.382446	146.880000
373.475922	146.880000
373.569489	147.480000
373.662964	147.700000
373.756531	147.480000
373.850037	147.280000
373.943573	147.220000
374.037109	146.020000
374.130615	146.080000
374.224152	146.380000
374.317657	146.020000
374.411194	146.760000
374.504730	146.980000
374.598236	146.320000
374.691772	145.880000
374.785309	146.300000
374.878815	145.020000
374.972351	145.360000
375.065887	145.580000
375.159454	146.300000
375.252930	145.740000
375.346497	146.540000
375.440002	147.020000
375.533569	147.140000
375.627045	146.360000
375.720612	146.660000
375.814117	146.480000
375.907684	145.980000
376.001160	145.560000
376.094727	145.380000
376.188232	145.780000
376.281799	145.900000
376.375336	145.900000
376.468872	146.860000
376.562408	147.420000
376.655914	147.140000
376.749451	146.980000
376.842987	147.240000
376.936523	146.380000
377.030060	146.240000
377.123596	146.280000
377.217133	145.880000
377.310669	145.860000
377.404205	146.540000
377.497772	146.920000
377.591278	146.600000
377.684845	147.520000
377.778351	147.620000
377.871918	147.200000
377.965424	146.420000
378.058990	146.520000
378.152496	145.900000
378.246063	145.980000
378.339569	146.140000
378.433136	146.240000
378.526642	146.360000
378.620209	146.260000
378.713745	145.860000
378.807312	146.600000
378.900848	146.640000
378.994385	146.720000
379.087921	146.220000
379.181458	146.460000
379.274994	145.260000
379.368530	145.360000
379.462097	145.400000
379.555634	146.280000
379.649170	145.680000
379.742706	145.780000
379.836273	146.300000
379.929810	145.740000
380.023376	145.360000
380.116882	145.480000
380.210449	146.000000
380.303986	145.440000
380.397552	145.520000
380.491058	146.060000
380.584656	146.080000
380.678162	146.100000
380.771729	146.240000
380.865265	147.200000
380.958832	146.800000
381.052368	146.980000
381.145935	147.040000
381.239471	147.400000
381.333008	146.800000
381.426575	147.140000
381.520111	147.540000
381.613647	147.540000
381.707214	147.120000
381.800751	146.700000
381.894318	146.380000
381.987854	145.680000
382.081421	145.440000
382.174988	145.540000
382.268524	145.460000
382.362091	145.620000
382.455627	146.460000
382.549194	146.320000
382.642731	145.720000
382.736298	145.580000
382.829834	145.420000
382.923401	145.620000
383.016937	145.700000
383.110504	146.580000
383.204041	146.880000
383.297607	147.360000
383.391174	146.580000
383.484741	147.360000
383.578278	146.580000
383.671844	146.460000
383.765411	145.640000
383.858948	145.980000
383.952515	145.440000
384.046051	145.900000
384.139618	146.020000
384.233185	146.320000
384.326721	146.140000
384.420288	146.620000
384.513855	146.660000
384.607422	146.860000
384.700989	147.180000
384.794525	146.840000
384.888123	146.260000
384.981659	146.300000
385.075226	146.020000
385.168762	145.420000
385.262360	145.640000
385.355896	145.060000
385.449463	145.040000
385.542999	145.040000
385.636597	145.940000
385.730164	146.640000
385.823730	146.260000
385.917267	146.020000
386.010834	146.880000
386.104401	146.640000
386.197968	146.300000
386.291534	147.220000
386.385101	147.340000
386.478668	147.120000
386.572235	146.920000
386.665802	146.400000
386.759338	146.080000
386.852905	145.620000
386.946472	145.220000
387.040070	145.320000
387.133606	145.660000
387.227203	145.580000
387.320740	146.400000
387.414337	146.260000
387.507874	145.900000
387.601471	146.000000
387.695007	145.920000
387.788605	145.200000
387.882141	145.440000
387.975739	145.600000
388.069275	145.080000
388.162872	145.380000
388.256439	145.700000
388.350037	145.400000
388.443604	145.320000
388.537170	145.700000
388.630737	146.280000
388.724304	146.580000
388.817871	146.720000
388.911438	146.660000
389.005005	146.940000
389.098602	147.220000
389.192169	146.900000
389.285736	147.340000
389.379333	147.420000
389.472870	146.700000
389.566467	146.100000
389.660034	146.160000
389.753632	145.500000
389.847168	145.660000
389.940765	145.980000
390.034332	146.000000
390.127930	145.500000
390.221466	145.460000
390.315063	145.100000
390.408630	144.620000
390.502228	143.760000
390.595795	144.160000
390.689362	144.480000
390.782959	145.100000
390.876526	145.580000
390.970093	146.320000
391.063690	146.900000
391.157257	146.620000
391.250824	146.480000
391.344421	146.400000
391.437988	146.580000
391.531555	146.480000
391.625153	146.840000
391.718750	147.080000
391.812317	147.220000
391.905914	146.720000
391.999481	146.700000
392.093079	146.800000
392.186615	146.640000
392.280243	146.680000
392.373779	146.860000
392.467407	147.080000
392.560944	146.760000
392.654572	146.280000
392.748108	146.080000
392.841736	146.280000
392.935303	145.880000
393.028900	145.960000
393.122467	145.960000
393.216064	145.740000
393.309631	145.200000
393.403229	144.780000
393.496796	144.820000
393.590393	144.340000
393.683990	144.720000
393.777557	145.480000
393.871155	145.800000
393.964722	146.160000
394.058350	146.700000
394.151917	146.740000
394.245514	146.040000
394.339081	146.540000
394.432678	146.720000
394.526245	146.760000
394.619873	146.240000
394.713409	146.480000
394.807037	146.060000
394.900604	145.780000
394.994202	145.820000
395.087769	146.160000
395.181396	145.780000
395.274994	146.460000
395.368561	145.980000
395.462158	146.060000
395.555756	145.760000
395.649353	146.220000
395.742920	145.580000
395.836517	146.300000
395.930115	145.580000
396.023712	146.000000
396.117279	146.300000
396.210876	146.080000
396.304474	145.720000
396.398071	146.620000
396.491669	147.040000
396.585266	146.460000
396.678833	146.440000
396.772461	146.840000
396.866028	146.700000
396.959656	147.100000
397.053223	148.020000
397.146851	148.560000
397.240417	149.880000
397.334015	151.780000
397.427582	153.040000
397.521210	155.440000
397.614807	158.800000
397.708405	162.280000
397.802002	166.800000
397.895599	173.240000
397.989197	180.920000
398.082794	190.740000
398.176392	203.400000
398.269989	218.660000
398.363586	237.060000
398.457184	257.220000
398.550781	279.720000
398.644379	301.360000
398.737976	324.240000
398.831573	346.580000
398.925201	368.440000
399.018768	388.860000
399.112396	408.600000
399.205963	426.100000
399.299591	440.620000
399.393158	452.120000
399.486786	461.260000
399.580353	467.300000
399.673981	470.020000
399.767578	470.720000
399.861206	470.520000
399.954773	467.780000
400.048401	462.880000
400.141998	455.180000
400.235596	446.020000
400.329193	433.800000
400.422791	418.540000
400.516418	401.340000
400.610016	384.700000
400.703613	367.240000
400.797211	348.420000
400.890808	330.420000
400.984436	314.420000
401.078033	297.200000
401.171631	279.500000
401.265259	263.280000
401.358826	248.020000
401.452484	232.100000
401.546051	218.060000
401.639679	205.000000
401.733246	193.940000
401.826904	184.040000
401.920471	175.700000
402.014099	168.700000
402.107697	163.240000
402.201324	158.820000
402.294891	155.500000
402.388550	153.160000
402.482147	151.400000
402.575745	150.040000
402.669373	148.720000
402.762970	147.860000
402.856567	147.380000
402.950195	147.580000
403.043793	147.260000
403.137390	147.760000
403.231018	146.880000
403.324615	147.260000
403.418243	146.560000
403.511841	147.160000
403.605469	146.960000
403.699066	147.680000
403.792694	147.300000
403.886292	147.540000
403.979919	146.980000
404.073517	146.500000
404.167145	146.840000
404.260712	147.100000
404.354370	146.980000
404.447937	147.220000
404.541595	147.640000
404.635162	147.360000
404.728821	147.400000
404.822418	146.880000
404.916046	146.580000
405.009644	146.580000
405.103271	147.040000
405.196899	146.740000
405.290497	147.100000
405.384125	147.280000
405.477722	146.560000
405.571350	145.640000
405.664948	145.440000
405.758575	145.260000
405.852203	144.940000
405.945801	145.400000
406.039429	145.760000
406.133057	145.920000
406.226654	145.760000
406.320312	145.900000
406.413879	145.880000
406.507538	146.220000
406.601135	145.580000
406.694763	146.380000
406.788361	146.340000
406.882019	146.020000
406.975586	146.220000
407.069244	147.120000
407.162872	146.320000
407.256470	146.180000
407.350098	146.020000
407.443726	145.160000
407.537323	144.660000
407.630951	145.220000
407.724579	145.060000
407.818207	146.100000
407.911804	146.080000
408.005432	146.140000
408.099060	146.180000
408.192688	146.740000
408.286285	146.020000
408.379913	146.020000
408.473572	146.040000
408.567169	145.380000
408.660828	144.860000
408.754395	144.880000
408.848053	144.920000
408.941650	145.200000
409.035309	145.080000
409.128906	145.420000
409.222565	145.820000
409.316132	146.020000
409.409790	145.620000
409.503387	146.080000
409.597046	146.280000
409.690674	145.880000
409.784302	146.120000
409.877930	146.300000
409.971558	146.320000
410.065186	146.040000
410.158783	146.140000
410.252411	145.780000
410.346039	146.120000
410.439667	145.900000
410.533295	146.080000
410.626923	146.300000
410.720551	146.080000
410.814209	146.100000
410.907806	146.400000
411.001465	146.020000
411.095062	145.940000
411.188721	146.560000
411.282318	146.140000
411.375977	145.760000
411.469574	146.060000
411.563232	145.700000
411.656830	145.540000
411.750488	145.420000
411.844086	145.020000
411.937744	145.160000
412.031372	145.420000
412.125000	145.160000
412.218628	145.200000
412.312256	146.340000
412.405884	146.520000
412.499512	146.160000
412.593170	146.580000
412.686798	147.120000
412.780426	146.380000
412.874054	146.440000
412.967682	146.620000
413.061310	146.980000
413.154968	146.840000
413.248566	147.040000
413.342224	146.540000
413.435852	146.840000
413.529510	146.000000
413.623108	145.320000
413.716766	145.380000
413.810364	145.980000
413.904022	145.400000
413.997650	145.320000
414.091309	146.300000
414.184906	145.920000
414.278564	145.500000
414.372192	146.300000
414.465851	146.780000
414.559479	146.200000
414.653107	147.320000
414.746735	147.140000
414.840393	146.960000
414.934021	147.020000
415.027649	146.660000
415.121277	146.360000
415.214935	146.840000
415.308563	146.660000
415.402191	146.120000
415.495850	146.160000
415.589478	145.600000
415.683136	145.380000
415.776733	145.760000
415.870422	146.260000
415.964020	146.200000
416.057678	146.460000
416.151306	146.180000
416.244965	145.760000
416.338562	145.720000
416.432251	146.440000
416.525848	146.900000
416.619507	147.260000
416.713165	147.720000
416.806793	147.840000
416.900421	147.660000
416.994080	146.740000
417.087708	146.560000
417.181366	146.140000
417.274994	145.900000
417.368622	146.040000
417.462280	146.780000
417.555908	146.780000
417.649567	146.640000
417.743195	146.900000
417.836853	146.620000
417.930481	146.760000
418.024170	146.920000
418.117767	147.400000
418.211426	147.260000
418.305054	147.840000
418.398712	146.960000
418.492340	146.800000
418.585999	146.860000
418.679626	146.720000
418.773285	146.600000
418.866913	147.540000
418.960571	147.680000
419.054230	147.600000
419.147858	147.960000
419.241516	147.680000
419.335144	146.800000
419.428802	146.640000
419.522461	146.140000
419.616089	145.400000
419.709747	145.700000
419.803375	146.380000
419.897034	146.340000
419.990662	146.640000
420.084320	147.280000
420.177979	147.200000
420.271606	147.080000
420.365295	147.480000
420.458893	147.440000
420.552582	147.540000
420.646210	147.160000
420.739868	146.820000
420.833496	146.580000
420.927155	146.280000
421.020782	146.000000
421.114471	145.740000
421.208069	145.900000
421.301758	146.100000
421.395386	146.300000
421.489044	146.040000
421.582703	146.260000
421.676361	146.700000
421.769989	146.180000
421.863647	146.680000
421.957306	146.940000
422.050934	147.240000
422.144592	146.720000
422.238251	146.900000
422.331909	146.300000
422.425537	146.140000
422.519196	146.140000
422.612854	145.660000
422.706543	145.220000
422.800140	145.680000
422.893829	145.600000
422.987457	145.300000
423.081146	146.060000
423.174744	146.980000
423.268433	146.520000
423.362061	146.300000
423.455750	146.000000
423.549347	145.960000
423.643036	144.980000
423.736664	145.540000
423.830353	146.020000
423.924011	146.820000
424.017639	146.100000
424.111298	146.380000
424.204956	146.100000
424.298615	145.860000
424.392273	145.580000
424.485931	145.880000
424.579559	145.880000
424.673218	145.960000
424.766876	146.180000
424.860535	145.380000
424.954193	145.600000
425.047882	146.120000
425.141510	145.880000
425.235199	145.880000
425.328796	146.340000
425.422485	145.980000
425.516113	145.280000
425.609802	145.260000
425.703430	145.260000
425.797119	145.240000
425.890747	145.520000
425.984436	145.780000
426.078064	145.920000
426.171753	145.720000
426.265411	145.520000
426.359070	145.840000
426.452728	145.640000
426.546356	145.220000
426.640015	145.040000
426.733673	145.320000
426.827332	144.560000
426.920990	145.480000
427.014648	145.680000
427.108307	146.120000
427.201965	146.480000
427.295624	147.160000
427.389282	146.420000
427.482941	146.520000
427.576630	146.180000
427.670258	145.400000
427.763947	145.300000
427.857574	145.340000
427.951263	145.400000
428.044922	145.480000
428.138611	146.020000
428.232239	145.900000
428.325928	146.200000
428.419556	146.880000
428.513245	146.600000
428.606903	146.440000
428.700562	146.020000
428.794220	145.180000
428.887878	144.320000
428.981537	144.620000
429.075195	144.820000
429.168854	145.600000
429.262512	146.320000
429.356201	146.240000
429.449860	146.260000
429.543518	146.020000
429.637177	145.880000
429.730835	145.580000
429.824493	145.700000
429.918182	145.880000
430.011810	145.500000
430.105530	145.040000
430.199158	145.320000
430.292847	145.340000
430.386475	144.980000
430.480164	145.140000
430.573792	144.900000
430.667511	144.560000
430.761139	144.700000
430.854828	145.360000
430.948456	145.480000
431.042145	146.020000
431.135834	146.040000
431.229492	146.100000
431.323151	145.980000
431.416809	146.080000
431.510468	145.800000
431.604156	145.780000
431.697815	145.820000
431.791473	145.380000
431.885132	144.920000
431.978821	145.520000
432.072479	145.640000
432.166138	145.860000
432.259827	145.680000
432.353485	146.300000
432.447174	146.140000
432.540802	146.100000
432.634491	146.040000
432.728149	146.360000
432.821838	146.720000
432.915466	146.500000
433.009186	146.480000
433.102814	145.900000
433.196503	145.760000
433.290131	145.300000
433.383850	145.580000
433.477509	145.900000
433.571167	146.840000
433.664856	147.180000
433.758514	147.900000
433.852173	147.380000
433.945862	147.180000
434.039520	146.620000
434.133179	145.940000
434.226868	145.320000
434.320526	145.020000
434.414185	145.520000
434.507874	145.400000
434.601562	146.280000
434.695221	145.900000
434.788910	146.560000
434.882538	146.140000
434.976257	145.800000
435.069885	145.280000
435.163574	145.680000
435.257233	145.260000
435.350922	145.580000
435.444580	145.380000
435.538269	145.180000
435.631897	145.480000
435.725616	146.100000
435.819275	146.260000
435.912964	146.900000
436.006622	147.760000
436.100311	147.520000
436.193970	146.680000
436.287628	146.340000
436.381317	146.280000
436.474976	145.480000
436.568665	145.380000
436.662323	145.840000
436.756012	145.660000
436.849670	145.480000
436.943390	145.520000
437.037018	145.340000
437.130737	145.600000
437.224365	145.440000
437.318085	145.760000
437.411713	146.260000
437.505432	146.760000
437.599060	146.960000
437.692780	147.860000
437.786407	147.460000
437.880127	147.000000
437.973755	146.540000
438.067474	145.940000
438.161133	145.520000
438.254822	146.160000
438.348480	146.020000
438.442169	146.720000
438.535828	147.200000
438.629517	146.860000
438.723175	146.040000
438.816864	146.820000
438.910553	145.900000
439.004211	145.460000
439.097900	145.300000
439.191559	145.620000
439.285248	144.820000
439.378906	145.420000
439.472626	145.420000
439.566284	145.420000
439.659973	145.780000
439.753632	145.760000
439.847321	146.000000
439.940979	146.000000
440.034698	146.320000
440.128326	145.900000
440.222046	145.920000
440.315674	144.940000
440.409393	145.180000
440.503082	145.180000
440.596741	145.100000
440.690430	145.480000
440.784088	145.560000
440.877777	144.920000
440.971466	144.920000
441.065125	144.920000
441.158813	144.280000
441.252502	144.640000
441.346161	145.480000
441.439850	145.500000
441.533539	145.540000
441.627197	146.320000
441.720886	146.180000
441.814606	146.340000
441.908234	146.340000
442.001953	146.300000
442.095612	146.100000
442.189301	146.300000
442.282959	145.940000
442.376678	145.480000
442.470306	146.300000
442.564026	146.200000
442.657684	146.180000
442.751404	146.100000
442.845032	147.080000
442.938751	146.440000
443.032440	146.520000
443.126099	146.260000
443.219788	146.620000
443.313477	146.320000
443.407166	146.400000
443.500824	146.500000
443.594513	147.040000
443.688202	146.840000
443.781891	145.740000
443.875549	145.560000
443.969238	145.200000
444.062927	145.120000
444.156647	145.000000
444.250275	146.100000
444.343994	146.260000
444.437653	146.740000
444.531372	146.160000
444.625031	146.140000
444.718719	145.640000
444.812378	145.260000
444.906097	144.760000
444.999756	144.660000
445.093445	144.400000
445.187103	144.380000
445.280823	145.180000
445.374512	145.100000
445.468201	145.580000
445.561859	145.640000
445.655548	145.920000
445.749237	145.120000
445.842926	145.320000
445.936615	145.560000
446.030304	145.560000
446.123962	145.700000
446.217651	145.840000
446.311340	146.100000
446.405029	145.600000
446.498749	145.180000
446.592407	144.840000
446.686096	145.100000
446.779755	144.780000
446.873474	145.160000
446.967133	145.600000
447.060852	145.460000
447.154510	145.320000
447.248230	145.420000
447.341858	145.300000
447.435577	145.020000
447.529236	144.980000
447.622955	144.740000
447.716644	144.880000
447.810333	144.840000
447.904022	145.340000
447.997711	145.400000
448.091400	145.900000
448.185059	145.740000
448.278748	146.200000
448.372437	145.900000
448.466125	146.100000
448.559814	145.860000
448.653503	146.020000
448.747192	145.760000
448.840912	146.340000
448.934570	146.340000
449.028290	146.780000
449.121948	146.640000
449.215637	146.220000
449.309296	145.580000
449.403015	145.800000
449.496674	145.560000
449.590393	145.600000
449.684052	145.460000
449.777771	146.300000
449.871429	145.620000
449.965149	145.500000
450.058838	145.520000
450.152527	146.180000
450.246216	145.640000
450.339905	146.000000
450.433594	145.680000
450.527283	146.420000
450.620972	146.160000
450.714661	146.340000
450.808350	146.520000
450.902039	147.240000
450.995728	146.560000
451.089417	146.180000
451.183105	146.300000
451.276794	146.640000
451.370514	145.600000
451.464172	144.720000
451.557892	144.880000
451.651550	144.700000
451.745270	144.140000
451.838928	144.220000
451.932648	145.160000
452.026306	145.900000
452.120026	145.640000
452.213684	145.900000
452.307404	146.220000
452.401062	146.320000
452.494781	146.020000
452.588470	146.020000
452.682159	145.500000
452.775848	145.940000
452.869537	145.480000
452.963226	144.980000
453.056915	144.900000
453.150604	145.280000
453.244293	145.260000
453.337982	145.920000
453.431671	146.520000
453.525360	147.040000
453.619049	147.120000
453.712769	146.780000
453.806427	145.960000
453.900146	145.260000
453.993805	144.900000
454.087555	144.940000
454.181213	144.820000
454.274933	145.040000
454.368591	145.080000
454.462311	144.960000
454.555969	144.660000
454.649689	145.480000
454.743347	145.380000
454.837067	146.340000
454.930756	146.660000
455.024445	146.700000
455.118134	146.520000
455.211853	146.620000
455.305542	145.920000
455.399231	145.920000
455.492920	145.980000
455.586609	145.740000
455.680298	146.280000
455.773987	145.880000
455.867676	145.800000
455.961365	146.260000
456.055084	145.880000
456.148773	145.400000
456.242493	145.800000
456.336151	145.800000
456.429871	145.680000
456.523529	146.340000
456.617249	145.900000
456.710907	146.480000
456.804626	146.240000
456.898315	145.740000
456.992035	145.220000
457.085693	145.420000
457.179413	144.480000
457.273102	145.360000
457.366791	145.460000
457.460480	145.960000
457.554199	146.500000
457.647888	146.860000
457.741577	146.300000
457.835266	146.500000
457.928955	146.440000
458.022644	146.700000
458.116364	146.860000
458.210052	146.940000
458.303741	146.900000
458.397461	146.320000
458.491119	145.640000
458.584839	145.680000
458.678528	145.160000
458.772247	144.800000
458.865906	145.080000
458.959625	145.800000
459.053284	145.620000
459.147003	145.800000
459.240692	146.640000
459.334412	146.680000
459.428070	146.320000
459.521790	146.420000
459.615479	146.280000
459.709198	146.300000
459.802887	146.140000
459.896576	145.820000
459.990265	145.720000
460.083954	146.000000
460.177673	145.280000
460.271362	145.020000
460.365051	145.180000
460.458740	145.060000
460.552429	144.480000
460.646149	144.560000
460.739838	144.420000
460.833527	144.320000
460.927246	144.220000
461.020905	144.480000
461.114655	144.440000
461.208313	145.040000
461.302032	144.860000
461.395691	145.320000
461.489441	145.400000
461.583099	145.480000
461.676819	144.860000
461.770477	145.500000
461.864197	144.740000
461.957916	144.780000
462.051605	144.360000
462.145294	145.660000
462.238983	145.120000
462.332703	146.020000
462.426392	146.500000
462.520081	146.660000
462.613770	145.740000
462.707489	146.020000
462.801178	145.460000
462.894867	145.020000
462.988556	145.540000
463.082275	145.860000
463.175964	145.560000
463.269684	146.040000
463.363342	145.880000
463.457092	145.060000
463.550751	145.300000
463.644470	145.720000
463.738129	145.340000
463.831879	145.640000
463.925537	146.500000
464.019257	146.140000
464.112946	146.020000
464.206665	145.920000
464.300323	145.900000
464.394043	145.440000
464.487762	145.380000
464.581451	145.600000
464.675140	145.780000
464.768829	146.100000
464.862549	146.420000
464.956238	146.560000
465.049927	146.220000
465.143646	146.280000
465.237335	146.080000
465.331024	146.400000
465.424713	146.540000
465.518433	146.600000
465.612152	146.480000
465.705811	146.280000
465.799561	145.860000
465.893219	145.260000
465.986938	145.260000
466.080597	145.040000
466.174347	145.240000
466.268005	145.320000
466.361725	145.740000
466.455414	145.640000
466.549133	145.700000
466.642792	145.820000
466.736542	145.420000
466.830231	145.580000
466.923920	145.400000
467.017609	145.300000
467.111328	144.720000
467.205017	144.940000
467.298706	144.780000
467.392426	145.260000
467.486115	145.880000
467.579803	145.820000
467.673523	146.200000
467.767212	146.180000
467.860901	145.900000
467.954651	145.780000
468.048309	146.200000
468.142029	145.940000
468.235718	146.100000
468.329437	145.960000
468.423096	145.760000
468.516846	145.660000
468.610504	145.400000
468.704224	144.820000
468.797913	144.940000
468.891632	145.120000
468.985291	144.920000
469.079010	145.020000
469.172729	145.060000
469.266418	145.580000
469.360107	145.440000
469.453827	145.560000
469.547516	145.700000
469.641205	146.320000
469.734924	146.420000
469.828613	146.780000
469.922302	147.060000
470.016022	146.840000
470.109711	146.500000
470.203430	145.640000
470.297150	145.040000
470.390808	145.120000
470.484558	145.080000
470.578217	145.580000
470.671936	146.160000
470.765625	146.640000
470.859344	146.140000
470.953003	146.220000
471.046753	145.520000
471.140411	144.760000
471.234131	144.720000
471.327820	145.560000
471.421539	145.880000
471.515228	145.820000
471.608948	146.260000
471.702637	145.900000
471.796326	144.980000
471.890045	145.200000
471.983734	145.500000
472.077423	145.260000
472.171143	145.420000
472.264832	145.700000
472.358521	145.180000
472.452240	144.880000
472.545929	145.500000
472.639648	145.720000
472.733337	145.880000
472.827057	146.280000
472.920746	146.240000
473.014465	146.480000
473.108124	146.360000
473.201874	146.600000
473.295532	146.440000
473.389252	147.040000
473.482941	146.940000
473.576660	146.820000
473.670319	146.340000
473.764069	146.560000
473.857727	146.600000
473.951477	146.500000
474.045166	146.800000
474.138855	146.940000
474.232574	146.660000
474.326263	146.340000
474.419952	146.280000
474.513672	146.300000
474.607361	146.100000
474.701050	146.100000
474.794769	146.480000
474.888458	146.640000
474.982178	146.580000
475.075867	146.820000
475.169586	146.780000
475.263275	146.600000
475.356995	146.540000
475.450653	146.120000
475.544403	145.700000
475.638062	146.540000
475.731812	146.060000
475.825470	145.760000
475.919189	146.180000
476.012878	146.460000
476.106598	145.820000
476.200256	146.340000
476.294006	146.180000
476.387695	145.960000
476.481384	145.940000
476.575104	145.900000
476.668793	145.640000
476.762512	145.520000
476.856201	145.940000
476.949890	145.840000
477.043610	145.200000
477.137299	144.940000
477.230988	145.380000
477.324707	144.860000
477.418396	145.440000
477.512146	145.900000
477.605804	146.040000
477.699524	146.080000
477.793213	146.120000
477.886932	145.600000
477.980591	145.280000
478.074341	145.180000
478.167999	144.800000
478.261749	144.680000
478.355408	144.820000
478.449127	145.460000
478.542816	146.600000
478.636536	147.360000
478.730225	147.760000
478.823944	148.020000
478.917633	148.120000
479.011322	147.640000
479.105042	147.240000
479.198730	147.180000
479.292450	147.040000
479.386139	146.820000
479.479828	146.580000
479.573547	146.780000
479.667267	146.580000
479.760925	146.380000
479.854675	146.440000
479.948334	146.500000
480.042084	145.900000
480.135742	146.220000
480.229462	145.860000
480.323151	145.760000
480.416870	145.200000
480.510529	145.560000
480.604279	145.040000
480.697937	145.980000
480.791656	145.400000
480.885345	145.600000
480.979065	145.260000
481.072754	145.840000
481.166473	145.820000
481.260132	145.800000
481.353882	145.720000
481.447540	145.840000
481.541260	145.800000
481.635010	145.160000
481.728668	145.660000
481.822388	145.520000
481.916077	145.600000
482.009796	145.120000
482.103485	145.580000
482.197205	145.360000
482.290863	145.680000
482.384613	145.640000
482.478271	145.620000
482.571991	145.380000
482.665680	145.540000
482.759399	146.200000
482.853058	146.460000
482.946808	146.600000
483.040466	146.220000
483.134216	146.080000
483.227875	145.340000
483.321594	145.680000
483.415283	145.640000
483.509003	145.680000
483.602661	145.560000
483.696411	145.880000
483.790070	145.420000
483.883789	145.340000
483.977478	145.800000
484.071198	145.840000
484.164917	145.440000
484.258606	145.020000
484.352325	145.440000
484.445984	145.600000
484.539734	145.360000
484.633392	145.120000
484.727142	145.660000
484.820801	145.180000
484.914520	145.100000
485.008209	145.620000
485.101929	146.140000
485.195587	145.880000
485.289337	146.100000
485.382996	146.040000
485.476715	145.960000
485.570404	146.060000
485.664124	146.040000
485.757782	146.660000
485.851532	146.040000
485.945190	146.020000
486.038910	146.100000
486.132599	146.460000
486.226318	145.440000
486.319977	145.580000
486.413727	145.940000
486.507446	145.460000
486.601105	144.600000
486.694855	145.020000
486.788513	145.280000
486.882233	145.100000
486.975922	145.120000
487.069641	145.280000
487.163300	145.260000
487.257050	146.200000
487.350708	145.800000
487.444427	145.540000
487.538116	145.580000
487.631836	145.160000
487.725494	144.500000
487.819214	144.540000
487.912903	144.620000
488.006622	145.320000
488.100281	145.800000
488.194031	145.720000
488.287689	146.300000
488.381409	147.080000
488.475098	146.480000
488.568817	146.460000
488.662476	146.060000
488.756226	145.560000
488.849945	144.560000
488.943604	144.720000
489.037354	144.900000
489.131012	145.000000
489.224731	144.880000
489.318390	145.400000
489.412140	145.640000
489.505798	145.380000
489.599518	145.300000
489.693207	145.680000
489.786926	145.240000
489.880585	144.940000
489.974335	145.360000
490.067993	146.220000
490.161713	146.220000
490.255371	147.240000
490.349121	147.280000
490.442780	146.920000
490.536499	145.960000
490.630188	145.860000
490.723907	145.340000
490.817566	145.540000
490.911285	145.240000
491.004974	145.240000
491.098694	145.060000
491.192413	145.560000
491.286102	145.620000
491.379822	146.040000
491.473480	146.340000
491.567200	146.340000
491.660889	145.460000
491.754608	145.360000
491.848267	145.160000
491.941986	144.880000
492.035675	144.960000
492.129395	145.500000
492.223053	145.500000
492.316772	145.760000
492.410461	145.880000
492.504181	145.700000
492.597839	145.340000
492.691559	145.320000
492.785248	145.160000
492.878967	145.080000
492.972626	145.020000
493.066345	145.100000
493.160034	144.580000
493.253754	144.700000
493.347412	144.360000
493.441132	144.480000
493.534882	145.000000
493.628540	145.360000
493.722260	145.460000
493.815918	146.220000
493.909668	147.080000
494.003326	147.040000
494.097046	147.140000
494.190704	147.040000
494.284454	146.840000
494.378113	146.700000
494.471832	146.340000
494.565491	146.140000
494.659210	146.220000
494.752899	146.180000
494.846619	145.620000
494.940277	145.980000
495.033997	145.880000
495.127686	145.120000
495.221405	145.100000
495.315063	145.360000
495.408783	145.040000
495.502441	145.360000
495.596191	146.000000
495.689850	145.800000
495.783569	145.920000
495.877228	145.960000
495.970947	145.600000
496.064697	145.260000
496.158356	145.920000
496.252075	145.620000
496.345734	145.440000
496.439453	146.600000
496.533142	146.820000
496.626862	147.140000
496.720520	147.260000
496.814240	147.500000
496.907898	146.860000
497.001617	146.940000
497.095306	145.940000
497.189026	146.020000
497.282684	146.080000
497.376404	146.280000
497.470062	146.000000
497.563782	146.420000
497.657471	146.080000
497.751190	145.700000
497.844849	145.380000
497.938568	145.800000
498.032227	145.820000
498.125946	146.120000
498.219635	145.960000
498.313354	146.040000
498.407074	145.980000
498.500732	146.060000
498.594452	145.960000
498.688110	146.000000
498.781830	145.720000
498.875519	145.500000
498.969238	145.160000
499.062897	144.920000
499.156616	145.380000
499.250275	145.560000
499.343994	144.880000
499.437653	145.000000
499.531372	145.100000
499.625061	145.480000
499.718781	145.480000
499.812439	146.480000
499.906158	146.360000
499.999817	146.080000
500.093536	145.660000
500.187195	145.820000
500.280914	145.660000
500.374573	145.680000
500.468323	145.720000
500.561981	145.720000
500.655701	145.420000
500.749420	145.340000
500.843079	145.820000
500.936798	146.340000
501.030457	146.440000
501.124176	146.500000
501.217834	146.440000
501.311554	146.160000
501.405212	145.640000
501.498962	145.200000
501.592621	145.260000
501.686340	145.540000
501.779999	145.820000
501.873718	146.020000
501.967377	146.460000
502.061096	146.760000
502.154755	146.080000
502.248474	145.900000
502.342133	146.040000
502.435852	145.840000
502.529510	146.300000
502.623230	147.300000
502.716888	146.660000
502.810608	146.700000
502.904266	147.340000
502.997986	146.240000
503.091705	145.400000
503.185364	145.860000
503.279083	145.660000
503.372772	145.020000
503.466492	145.020000
503.560150	145.320000
503.653870	145.200000
503.747528	145.300000
503.841248	145.160000
503.934906	145.420000
504.028625	145.140000
504.122284	145.460000
504.216003	146.320000
504.309662	145.960000
504.403381	146.180000
504.497040	146.280000
504.590759	145.980000
504.684418	145.560000
504.778137	146.480000
504.871796	146.820000
504.965515	146.740000
505.059174	147.040000
505.152893	146.500000
505.246521	145.680000
505.340240	145.400000
505.433899	145.460000
505.527618	145.340000
505.621338	146.000000
505.714996	146.360000
505.808716	145.940000
505.902374	146.480000
505.996094	146.740000
506.089752	146.180000
506.183472	146.160000
506.277130	146.480000
506.370850	146.280000
506.464508	145.940000
506.558228	146.240000
506.651886	145.960000
506.745605	146.120000
506.839264	146.200000
506.932983	146.120000
507.026611	145.800000
507.120331	146.480000
507.213989	145.700000
507.307709	145.480000
507.401367	145.860000
507.495087	146.580000
507.588745	146.020000
507.682465	147.100000
507.776123	147.180000
507.869843	147.040000
507.963531	146.740000
508.057190	147.380000
508.150909	146.780000
508.244568	146.720000
508.338287	146.220000
508.431946	145.540000
508.525665	144.780000
508.619324	144.440000
508.713013	144.920000
508.806671	145.560000
508.900391	146.680000
508.994049	147.040000
509.087769	147.380000
509.181427	146.960000
509.275146	146.640000
509.368774	145.800000
509.462494	145.820000
509.556152	145.520000
509.649872	145.800000
509.743530	145.920000
509.837250	146.100000
509.930878	145.960000
510.024597	145.940000
510.118256	145.640000
510.211975	145.600000
510.305695	145.140000
510.399353	145.480000
510.493042	146.000000
510.586700	146.040000
510.680420	146.640000
510.774078	147.000000
510.867798	147.020000
510.961426	146.420000
511.055145	146.400000
511.148804	145.840000
511.242523	146.000000
511.336151	146.160000
511.429871	146.780000
511.523529	146.840000
511.617249	146.500000
511.710876	146.520000
511.804596	145.960000
511.898254	145.780000
511.991974	145.940000
512.085632	146.000000
512.179321	145.880000
512.272949	146.460000
512.366699	146.640000
512.460327	146.400000
512.554077	147.300000
512.647766	147.180000
512.741394	146.820000
512.835144	147.040000
512.928772	146.960000
513.022461	146.760000
513.116150	146.520000
513.209839	147.100000
513.303467	146.560000
513.397217	146.220000
513.490845	145.620000
513.584595	145.640000
513.678223	144.620000
513.771912	144.400000
513.865601	144.660000
513.959290	144.880000
514.052917	145.120000
514.146667	146.060000
514.240295	146.460000
514.333984	146.900000
514.427673	146.640000
514.521362	147.120000
514.614990	146.380000
514.708740	146.360000
514.802368	146.180000
514.896057	146.540000
514.989746	147.060000
515.083435	147.140000
515.177124	147.460000
515.270752	147.040000
515.364502	146.820000
515.458130	146.220000
515.551819	146.260000
515.645508	145.940000
515.739197	146.240000
515.832825	146.260000
515.926575	145.900000
516.020203	145.900000
516.113892	146.400000
516.207520	146.420000
516.301270	146.620000
516.394897	146.920000
516.488586	147.240000
516.582275	146.860000
516.675964	146.460000
516.769592	145.820000
516.863281	146.080000
516.956970	146.280000
517.050659	145.960000
517.144287	146.340000
517.238037	147.060000
517.331665	146.260000
517.425354	145.800000
517.519043	145.820000
517.612732	146.020000
517.706421	145.500000
517.800049	145.520000
517.893738	145.300000
517.987427	145.420000
518.081116	145.060000
518.174744	144.740000
518.268433	145.360000
518.362122	146.220000
518.455811	145.980000
518.549438	146.680000
518.643127	148.100000
518.736816	147.460000
518.830505	146.720000
518.924133	146.980000
519.017822	146.900000
519.111511	146.020000
519.205200	146.640000
519.298828	146.880000
519.392517	146.460000
519.486206	146.340000
519.579895	146.420000
519.673523	146.100000
519.767212	145.820000
519.860901	146.500000
519.954590	145.960000
520.048279	145.620000
520.141907	145.640000
520.235596	146.760000
520.329224	146.620000
520.422974	146.900000
520.516602	146.920000
520.610291	146.720000
520.703918	145.900000
520.797607	145.640000
520.891296	145.760000
520.984985	146.120000
521.078613	146.520000
521.172302	146.260000
521.265930	147.160000
521.359680	147.480000
521.453308	147.380000
521.546997	147.160000
521.640625	147.280000
521.734314	146.320000
521.827942	145.800000
521.921692	146.000000
522.015320	146.120000
522.109009	145.700000
522.202698	146.000000
522.296326	146.140000
522.390015	146.300000
522.483704	146.500000
522.577393	146.760000
522.671021	146.660000
522.764709	146.360000
522.858337	146.640000
522.952026	146.340000
523.045654	146.960000
523.139404	147.360000
523.233032	147.460000
523.326721	147.020000
523.420349	147.120000
523.514038	146.320000
523.607666	146.580000
523.701355	146.260000
523.795044	146.280000
523.888733	146.340000
523.982361	146.940000
524.076050	146.360000
524.169678	147.080000
524.263367	146.620000
524.356995	146.120000
524.450684	145.880000
524.544373	145.640000
524.638062	145.280000
524.731750	145.900000
524.825378	146.160000
524.919067	145.760000
525.012695	146.020000
525.106384	145.700000
525.200012	145.580000
525.293701	145.420000
525.387329	145.900000
525.481018	146.140000
525.574646	146.760000
525.668396	146.380000
525.762024	146.800000
525.855713	146.900000
525.949341	146.320000
526.043030	146.060000
526.136658	145.880000
526.230347	145.540000
526.323975	145.220000
526.417664	145.420000
526.511292	145.500000
526.604980	145.660000
526.698608	145.760000
526.792297	145.740000
526.885925	145.800000
526.979614	145.960000
527.073303	145.840000
527.166931	145.680000
527.260620	145.780000
527.354309	146.260000
527.447998	145.980000
527.541626	145.820000
527.635315	146.260000
527.728943	146.820000
527.822632	146.660000
527.916260	146.520000
528.009949	146.640000
528.103577	146.160000
528.197266	145.580000
528.290894	145.380000
528.384583	145.500000
528.478210	145.780000
528.571899	146.180000
528.665527	146.740000
528.759216	146.780000
528.852844	147.220000
528.946533	147.340000
529.040161	147.280000
529.133850	146.500000
529.227478	146.700000
529.321167	146.880000
529.414856	147.240000
529.508484	147.340000
529.602173	147.420000
529.695801	146.940000
529.789490	146.500000
529.883057	146.120000
529.976746	146.140000
530.070374	146.520000
530.164062	146.940000
530.257690	147.060000
530.351379	146.900000
530.445007	146.740000
530.538696	145.840000
530.632324	146.080000
530.726013	146.260000
530.819641	146.420000
530.913330	146.460000
531.006958	146.920000
531.100647	146.660000
531.194275	146.300000
531.287964	146.000000
531.381592	145.600000
531.475220	145.860000
531.568848	145.740000
531.662537	145.560000
531.756226	146.420000
531.849854	146.900000
531.943542	146.760000
532.037170	146.220000
532.130859	146.960000
532.224487	146.160000
532.318176	145.620000
532.411804	146.320000
532.505432	146.660000
532.599060	145.920000
532.692749	145.920000
532.786377	146.720000
532.880066	145.600000
532.973694	145.420000
533.067383	145.440000
533.161011	145.520000
533.254639	145.000000
533.348267	145.040000
533.441956	145.480000
533.535583	145.360000
533.629272	145.420000
533.722900	144.940000
533.816589	145.420000
533.910156	145.560000
534.003845	145.500000
534.097534	145.980000
534.191162	146.600000
534.284851	146.760000
534.378479	146.400000
534.472107	146.580000
534.565735	146.020000
534.659424	146.160000
534.753052	145.980000
534.846741	145.760000
534.940369	146.320000
535.033997	146.320000
535.127625	146.260000
535.221313	146.800000
535.314941	146.880000
535.408630	145.840000
535.502197	146.320000
535.595886	146.080000
535.689514	145.500000
535.783203	146.080000
535.876831	146.840000
535.970459	146.920000
536.064087	147.000000
536.157776	147.020000
536.251404	146.640000
536.345093	146.140000
536.438721	145.820000
536.532349	146.180000
536.626038	146.260000
536.719666	146.840000
536.813293	147.000000
536.906921	146.900000
537.000610	146.780000
537.094238	146.640000
537.187866	146.140000
537.281494	145.840000
537.375183	146.020000
537.468811	145.720000
537.562439	145.640000
537.656067	145.520000
537.749756	146.160000
537.843384	146.180000
537.937012	146.560000
538.030640	146.600000
538.124329	146.760000
538.217896	146.800000
538.311584	146.920000
538.405212	146.620000
538.498901	146.980000
538.592468	147.520000
538.686157	146.940000
538.779785	146.160000
538.873413	145.960000
538.967102	145.500000
539.060730	144.920000
539.154358	145.740000
539.247986	146.400000
539.341675	146.580000
539.435242	146.620000
539.528931	146.500000
539.622559	145.560000
539.716187	146.040000
539.809814	146.120000
539.903503	145.980000
539.997070	145.920000
540.090759	146.340000
540.184387	145.940000
540.278015	146.240000
540.371643	146.560000
540.465332	146.980000
540.558899	146.840000
540.652588	146.860000
540.746216	146.560000
540.839844	146.980000
540.933472	146.620000
541.027100	146.820000
541.120728	146.800000
541.214417	146.920000
541.308044	146.940000
541.401672	147.060000
541.495300	146.660000
541.588928	146.420000
541.682617	146.280000
541.776184	145.740000
541.869873	145.900000
541.963440	146.400000
542.057129	146.540000
542.150757	146.460000
542.244385	146.540000
542.338013	146.140000
542.431641	145.940000
542.525269	145.820000
542.618958	146.260000
542.712524	146.420000
542.806213	146.460000
542.899780	146.780000
542.993469	146.500000
543.087036	145.980000
543.180725	145.440000
543.274292	145.840000
543.367981	145.700000
543.461548	146.040000
543.555237	146.040000
543.648926	146.820000
543.742493	147.160000
543.836182	146.880000
543.929749	146.940000
544.023437	147.180000
544.117004	146.900000
544.210693	146.700000
544.304260	147.020000
544.397949	146.740000
544.491516	146.680000
544.585205	146.420000
544.678772	145.980000
544.772461	146.200000
544.866028	146.260000
544.959717	146.480000
545.053284	146.700000
545.146973	146.960000
545.240540	146.920000
545.334229	147.520000
545.427795	147.440000
545.521423	147.520000
545.615051	147.360000
545.708679	147.300000
545.802307	147.020000
545.895935	147.100000
545.989624	147.740000
546.083191	147.820000
546.176880	147.820000
546.270447	147.340000
546.364136	147.760000
546.457703	147.240000
546.551331	147.180000
546.644958	147.360000
546.738586	147.620000
546.832214	147.020000
546.925842	146.480000
547.019409	146.700000
547.113098	146.140000
547.206665	145.960000
547.300354	146.000000
547.393921	146.740000
547.487549	146.660000
547.581177	146.500000
547.674805	146.460000
547.768433	146.020000
547.862061	145.780000
547.955627	145.200000
548.049316	146.160000
548.142883	146.540000
548.236572	147.340000
548.330139	147.460000
548.423767	147.460000
548.517456	146.940000
548.611023	147.140000
548.704651	146.160000
548.798279	145.960000
548.891907	146.520000
548.985474	146.300000
549.079163	146.400000
549.172729	146.580000
549.266357	146.120000
549.359985	146.080000
549.453613	145.800000
549.547180	145.340000
549.640869	145.640000
549.734436	145.880000
549.828064	146.260000
549.921631	146.440000
550.015320	146.120000
550.108887	146.620000
550.202515	146.560000
550.296143	145.920000
550.389771	146.460000
550.483337	146.560000
550.576965	146.280000
550.670593	146.680000
550.764221	146.980000
550.857849	146.620000
550.951477	146.560000
551.045105	145.840000
551.138672	146.040000
551.232300	145.620000
551.325928	145.860000
551.419556	146.400000
551.513123	146.720000
551.606750	146.100000
551.700378	146.280000
551.794006	146.220000
551.887573	145.800000
551.981201	146.320000
552.074768	146.200000
552.168457	145.620000
552.262024	146.340000
552.355652	146.320000
552.449219	146.600000
552.542847	147.100000
552.636475	147.320000
552.730103	146.220000
552.823669	146.180000
552.917297	145.400000
553.010864	145.080000
553.104553	145.380000
553.198181	145.240000
553.291748	145.640000
553.385376	145.980000
553.478943	146.140000
553.572571	146.320000
553.666199	146.700000
553.759827	146.360000
553.853394	145.900000
553.947021	145.880000
554.040588	145.720000
554.134216	145.500000
554.227783	146.140000
554.321411	147.060000
554.415039	146.700000
554.508667	146.860000
554.602234	147.180000
554.695862	146.420000
554.789429	145.880000
554.883057	145.920000
554.976624	145.820000
555.070251	145.640000
555.163818	145.860000
555.257507	145.720000
555.351074	145.860000
555.444702	146.880000
555.538330	146.820000
555.631897	147.100000
555.725525	147.300000
555.819092	147.160000
555.912720	145.900000
556.006287	146.340000
556.099915	146.040000
556.193481	145.960000
556.287109	146.280000
556.380676	146.560000
556.474304	146.500000
556.567871	146.520000
556.661499	145.980000
556.755066	146.140000
556.848694	146.400000
556.942261	145.680000
557.035889	145.920000
557.129517	146.620000
557.223145	146.540000
557.316711	146.080000
557.410339	146.660000
557.503906	146.200000
557.597473	146.320000
557.691040	146.340000
557.784668	146.360000
557.878296	146.740000
557.971863	147.200000
558.065491	147.140000
558.159058	146.940000
558.252686	148.040000
558.346252	148.220000
558.439880	147.680000
558.533447	147.480000
558.627075	146.940000
558.720642	146.020000
558.814270	145.620000
558.907837	145.620000
559.001465	145.140000
559.095032	146.040000
559.188660	145.920000
559.282227	145.260000
559.375854	145.980000
559.469360	145.840000
559.562988	145.860000
559.656555	146.140000
559.750183	146.520000
559.843750	146.360000
559.937378	146.740000
560.030945	146.440000
560.124573	0.000000
560.218140	0.000000
560.311707	0.000000
560.405334	0.000000
560.498901	0.000000
560.592529	0.000000
560.686096	0.000000
560.779724	0.000000
560.873291	0.000000
560.966858	0.000000
561.060425	0.000000
561.154053	0.000000
561.247620	0.000000
561.341248	0.000000
561.434814	0.000000
561.528381	0.000000
561.621948	0.000000
561.715576	0.000000
561.809143	0.000000
561.902771	0.000000
561.996277	0.000000
562.089905	0.000000
562.183472	0.000000
562.277100	0.000000
