Model Number: SPM-002-B   
Serial Number: 70087108
Firmware Version: 004.15.4
Exposure Time: 100000.000000us
Data Taken on: 11-12-2020 18:45:33.943
Wavelength	Amplitude
221.570786	0.000000
221.663406	0.000000
221.756027	0.000000
221.848648	0.000000
221.941269	0.000000
222.033905	0.000000
222.126526	0.000000
222.219162	0.000000
222.311798	0.000000
222.404419	0.000000
222.497055	0.000000
222.589676	0.000000
222.682312	0.000000
222.774933	0.000000
222.867569	0.000000
222.960205	0.000000
223.052841	0.000000
223.145462	0.000000
223.238098	0.000000
223.330734	0.000000
223.423386	0.000000
223.516022	0.000000
223.608658	0.000000
223.701309	0.000000
223.793945	0.000000
223.886581	0.000000
223.979218	0.000000
224.071869	0.000000
224.164505	0.000000
224.257156	0.000000
224.349792	0.000000
224.442444	0.000000
224.535095	0.000000
224.627747	0.000000
224.720398	0.000000
224.813034	0.000000
224.905685	0.000000
224.998337	145.400000
225.090988	144.940000
225.183640	144.800000
225.276291	144.380000
225.368942	144.580000
225.461594	145.020000
225.554245	145.400000
225.646912	145.320000
225.739578	146.380000
225.832230	146.740000
225.924896	145.860000
226.017548	146.240000
226.110199	146.900000
226.202866	145.940000
226.295532	145.840000
226.388184	145.600000
226.480850	145.060000
226.573517	144.440000
226.666168	144.700000
226.758835	144.900000
226.851501	145.840000
226.944183	146.040000
227.036850	145.960000
227.129517	146.060000
227.222183	145.860000
227.314850	145.520000
227.407516	146.020000
227.500198	146.540000
227.592865	146.120000
227.685532	145.960000
227.778214	145.580000
227.870880	145.480000
227.963562	145.600000
228.056229	146.020000
228.148926	145.900000
228.241592	146.960000
228.334274	146.760000
228.426956	146.560000
228.519638	146.780000
228.612305	146.660000
228.704987	145.920000
228.797668	145.940000
228.890350	145.700000
228.983032	144.820000
229.075714	145.440000
229.168396	145.320000
229.261108	144.660000
229.353790	144.760000
229.446472	145.160000
229.539169	144.680000
229.631851	144.560000
229.724533	145.120000
229.817230	145.080000
229.909912	146.200000
230.002609	146.440000
230.095306	146.360000
230.187988	146.380000
230.280685	146.480000
230.373383	144.980000
230.466095	144.840000
230.558792	145.400000
230.651474	145.280000
230.744171	145.040000
230.836868	145.160000
230.929581	145.380000
231.022278	145.360000
231.114975	145.600000
231.207672	145.500000
231.300369	146.160000
231.393082	146.020000
231.485779	145.740000
231.578506	145.460000
231.671204	145.640000
231.763916	145.720000
231.856613	145.720000
231.949326	145.740000
232.042023	145.780000
232.134735	145.780000
232.227448	145.200000
232.320160	145.080000
232.412872	145.360000
232.505585	145.880000
232.598297	146.360000
232.691010	146.560000
232.783722	146.480000
232.876450	146.900000
232.969162	146.440000
233.061874	145.620000
233.154587	145.200000
233.247314	145.400000
233.340027	144.820000
233.432739	145.400000
233.525467	145.600000
233.618179	146.180000
233.710907	145.840000
233.803635	146.420000
233.896347	146.040000
233.989090	146.680000
234.081818	146.460000
234.174545	147.120000
234.267258	146.360000
234.359985	146.240000
234.452713	145.980000
234.545441	145.900000
234.638168	145.400000
234.730896	146.040000
234.823639	146.100000
234.916367	146.360000
235.009094	146.500000
235.101822	146.400000
235.194580	146.240000
235.287308	146.060000
235.380051	145.500000
235.472778	145.720000
235.565521	145.980000
235.658249	145.280000
235.750992	145.440000
235.843719	145.420000
235.936462	145.520000
236.029205	145.380000
236.121948	145.580000
236.214691	145.720000
236.307449	146.280000
236.400192	145.800000
236.492935	145.680000
236.585678	146.060000
236.678421	146.040000
236.771164	145.940000
236.863907	146.940000
236.956665	147.400000
237.049408	148.720000
237.142151	148.220000
237.234909	148.560000
237.327652	147.860000
237.420410	147.440000
237.513153	146.320000
237.605927	146.440000
237.698669	146.120000
237.791428	145.460000
237.884186	145.700000
237.976944	145.160000
238.069702	145.500000
238.162445	144.960000
238.255203	145.480000
238.347961	145.680000
238.440720	145.820000
238.533478	145.580000
238.626266	145.560000
238.719025	145.680000
238.811783	145.520000
238.904541	145.380000
238.997314	145.420000
239.090073	145.160000
239.182831	145.420000
239.275604	146.040000
239.368362	146.060000
239.461136	146.160000
239.553909	146.300000
239.646667	145.840000
239.739441	145.320000
239.832214	145.700000
239.925003	145.700000
240.017761	146.340000
240.110535	146.840000
240.203308	146.220000
240.296082	146.080000
240.388855	146.160000
240.481628	146.160000
240.574417	146.220000
240.667191	146.800000
240.759964	146.540000
240.852737	146.500000
240.945526	146.140000
241.038315	146.080000
241.131088	145.980000
241.223877	146.580000
241.316650	146.100000
241.409439	146.320000
241.502228	145.700000
241.595001	146.240000
241.687790	145.780000
241.780579	145.840000
241.873367	145.780000
241.966141	146.540000
242.058929	145.840000
242.151718	146.020000
242.244507	146.620000
242.337311	146.120000
242.430099	146.200000
242.522903	146.380000
242.615692	145.820000
242.708481	145.660000
242.801270	145.960000
242.894073	145.540000
242.986862	145.840000
243.079651	146.720000
243.172455	146.320000
243.265244	146.820000
243.358063	146.360000
243.450867	146.420000
243.543655	146.300000
243.636459	146.440000
243.729263	146.560000
243.822067	147.060000
243.914856	147.180000
244.007660	147.200000
244.100464	147.300000
244.193268	146.640000
244.286072	146.440000
244.378876	145.780000
244.471680	145.260000
244.564499	145.700000
244.657318	146.600000
244.750122	146.540000
244.842926	146.340000
244.935745	146.700000
245.028549	146.160000
245.121368	145.440000
245.214172	145.460000
245.306992	145.820000
245.399796	145.500000
245.492615	145.560000
245.585434	145.460000
245.678253	145.500000
245.771072	145.440000
245.863892	145.860000
245.956711	146.180000
246.049530	146.220000
246.142349	146.140000
246.235168	146.000000
246.327988	146.600000
246.420807	146.140000
246.513626	146.220000
246.606445	146.220000
246.699280	146.260000
246.792099	145.520000
246.884918	145.340000
246.977753	144.800000
247.070587	145.060000
247.163422	145.340000
247.256241	145.340000
247.349075	146.100000
247.441895	146.460000
247.534729	146.260000
247.627563	145.940000
247.720383	146.660000
247.813217	145.900000
247.906052	145.720000
247.998886	145.820000
248.091736	146.020000
248.184570	145.120000
248.277405	145.600000
248.370239	146.680000
248.463074	147.620000
248.555908	147.540000
248.648743	147.820000
248.741592	147.920000
248.834427	147.180000
248.927261	145.660000
249.020111	146.400000
249.112946	146.900000
249.205795	146.440000
249.298630	146.160000
249.391495	146.760000
249.484344	145.820000
249.577179	145.300000
249.670029	145.640000
249.762878	146.520000
249.855728	146.460000
249.948563	146.880000
250.041412	146.520000
250.134262	146.700000
250.227112	146.300000
250.319962	146.380000
250.412827	146.240000
250.505692	146.080000
250.598541	146.000000
250.691391	145.600000
250.784241	145.620000
250.877106	145.620000
250.969955	145.680000
251.062805	146.020000
251.155670	146.640000
251.248520	146.360000
251.341385	146.560000
251.434235	146.480000
251.527100	146.160000
251.619965	145.720000
251.712814	146.520000
251.805695	146.420000
251.898560	146.800000
251.991425	146.780000
252.084290	146.580000
252.177155	145.980000
252.270020	145.820000
252.362885	145.680000
252.455750	145.480000
252.548615	145.500000
252.641479	145.280000
252.734360	145.340000
252.827240	145.280000
252.920105	145.600000
253.012970	145.560000
253.105850	145.380000
253.198715	145.300000
253.291595	145.440000
253.384460	144.800000
253.477341	144.900000
253.570221	145.320000
253.663086	144.940000
253.755966	145.240000
253.848846	145.560000
253.941727	145.700000
254.034592	145.700000
254.127472	145.680000
254.220367	145.640000
254.313248	145.740000
254.406128	145.380000
254.499008	145.360000
254.591904	146.280000
254.684784	146.560000
254.777664	146.640000
254.870544	146.740000
254.963440	146.800000
255.056335	146.560000
255.149216	146.100000
255.242111	146.680000
255.334991	146.880000
255.427887	146.980000
255.520767	147.040000
255.613663	147.240000
255.706558	146.360000
255.799438	146.240000
255.892334	145.820000
255.985229	145.580000
256.078125	145.440000
256.171021	145.780000
256.263916	146.340000
256.356812	146.740000
256.449707	146.980000
256.542603	146.620000
256.635498	147.040000
256.728394	146.620000
256.821289	146.360000
256.914215	146.380000
257.007080	146.720000
257.100006	146.480000
257.192932	146.860000
257.285828	147.240000
257.378723	147.220000
257.471619	147.080000
257.564545	146.420000
257.657440	146.180000
257.750336	146.360000
257.843262	145.680000
257.936157	146.760000
258.029053	147.420000
258.121979	147.180000
258.214874	146.380000
258.307800	146.360000
258.400696	144.960000
258.493622	144.660000
258.586517	144.260000
258.679443	145.060000
258.772339	145.160000
258.865265	145.220000
258.958160	144.780000
259.051086	145.800000
259.144012	145.400000
259.236938	145.940000
259.329834	146.440000
259.422791	146.600000
259.515717	146.080000
259.608612	146.060000
259.701538	146.060000
259.794464	145.720000
259.887390	145.960000
259.980316	145.900000
260.073212	145.600000
260.166138	144.560000
260.259064	144.960000
260.351990	145.160000
260.444916	145.100000
260.537842	145.720000
260.630768	146.760000
260.723694	146.500000
260.816620	146.540000
260.909546	146.420000
261.002472	145.540000
261.095398	145.080000
261.188354	145.160000
261.281281	144.420000
261.374207	144.660000
261.467133	145.620000
261.560089	145.980000
261.653015	145.500000
261.745972	146.240000
261.838867	146.520000
261.931824	146.660000
262.024780	145.860000
262.117706	146.520000
262.210663	146.220000
262.303589	145.940000
262.396515	145.520000
262.489471	146.780000
262.582397	146.420000
262.675354	146.300000
262.768280	146.560000
262.861237	146.760000
262.954163	146.440000
263.047119	146.480000
263.140045	146.340000
263.233002	146.120000
263.325958	145.900000
263.418884	145.260000
263.511841	145.540000
263.604797	145.640000
263.697723	145.520000
263.790680	145.400000
263.883636	146.260000
263.976593	145.660000
264.069550	145.880000
264.162476	145.840000
264.255463	145.780000
264.348419	145.220000
264.441376	145.960000
264.534332	145.440000
264.627289	145.440000
264.720245	146.080000
264.813202	145.620000
264.906158	145.620000
264.999115	146.520000
265.092072	146.660000
265.185028	146.940000
265.277985	147.620000
265.370941	147.260000
265.463898	146.680000
265.556854	146.160000
265.649811	145.260000
265.742798	144.900000
265.835754	145.200000
265.928711	145.680000
266.021667	145.900000
266.114655	146.300000
266.207611	146.820000
266.300568	146.180000
266.393585	145.840000
266.486511	146.440000
266.579498	145.780000
266.672485	145.500000
266.765442	145.560000
266.858429	145.860000
266.951385	145.460000
267.044342	145.440000
267.137329	145.420000
267.230316	145.980000
267.323273	145.300000
267.416260	145.920000
267.509216	146.320000
267.602203	146.080000
267.695160	146.200000
267.788147	146.420000
267.881134	145.520000
267.974091	145.260000
268.067078	145.280000
268.160065	144.920000
268.253052	145.060000
268.346008	145.500000
268.438995	145.600000
268.531982	146.080000
268.624969	146.100000
268.717987	146.320000
268.810944	146.180000
268.903961	146.280000
268.996948	145.720000
269.089905	146.220000
269.182892	146.320000
269.275879	146.620000
269.368866	146.240000
269.461853	146.600000
269.554871	146.320000
269.647858	146.040000
269.740845	146.280000
269.833832	146.560000
269.926819	146.300000
270.019806	146.200000
270.112793	145.840000
270.205811	145.740000
270.298798	145.460000
270.391785	145.880000
270.484772	145.600000
270.577789	145.960000
270.670776	145.320000
270.763763	145.480000
270.856750	145.600000
270.949768	145.500000
271.042786	145.540000
271.135773	145.780000
271.228790	145.800000
271.321808	145.300000
271.414795	145.260000
271.507782	145.140000
271.600800	144.980000
271.693817	145.220000
271.786804	145.460000
271.879822	145.700000
271.972809	145.940000
272.065826	146.460000
272.158844	146.320000
272.251831	146.800000
272.344849	146.880000
272.437866	146.220000
272.530853	146.000000
272.623871	146.140000
272.716888	144.780000
272.809906	144.900000
272.902893	145.160000
272.995911	144.500000
273.088928	144.260000
273.181946	145.160000
273.274963	144.680000
273.367981	144.980000
273.460999	145.520000
273.554047	146.140000
273.647003	146.680000
273.740051	146.640000
273.833069	146.880000
273.926086	147.120000
274.019135	146.460000
274.112152	146.020000
274.205170	146.300000
274.298187	146.040000
274.391205	145.440000
274.484222	145.720000
274.577240	145.720000
274.670258	145.420000
274.763306	145.420000
274.856323	145.780000
274.949341	145.780000
275.042358	145.820000
275.135406	146.080000
275.228424	146.140000
275.321442	146.420000
275.414490	145.940000
275.507507	146.200000
275.600525	146.500000
275.693573	146.300000
275.786591	145.400000
275.879669	146.060000
275.972656	145.580000
276.065735	145.220000
276.158752	145.880000
276.251801	146.700000
276.344818	146.540000
276.437866	146.720000
276.530884	146.620000
276.623932	145.640000
276.716980	145.780000
276.809998	145.920000
276.903046	145.820000
276.996094	146.960000
277.089111	147.780000
277.182159	148.080000
277.275208	147.420000
277.368256	147.260000
277.461304	146.640000
277.554321	145.960000
277.647369	145.440000
277.740417	145.860000
277.833466	146.060000
277.926514	145.720000
278.019562	146.260000
278.112610	146.280000
278.205688	146.580000
278.298706	146.580000
278.391785	146.620000
278.484833	146.320000
278.577881	145.880000
278.670929	145.820000
278.763977	146.220000
278.857025	146.480000
278.950073	146.640000
279.043121	146.780000
279.136169	146.700000
279.229248	146.020000
279.322296	146.100000
279.415344	145.940000
279.508392	146.080000
279.601440	146.060000
279.694519	146.100000
279.787567	145.700000
279.880615	145.560000
279.973694	145.380000
280.066742	145.200000
280.159790	145.260000
280.252869	145.020000
280.345917	145.320000
280.438995	145.260000
280.532074	145.420000
280.625122	145.900000
280.718201	147.020000
280.811279	146.660000
280.904327	146.880000
280.997406	146.920000
281.090454	146.700000
281.183533	145.900000
281.276581	145.620000
281.369659	145.380000
281.462738	145.100000
281.555786	144.960000
281.648865	145.140000
281.741943	145.600000
281.835022	146.180000
281.928070	146.100000
282.021149	145.840000
282.114227	145.300000
282.207306	145.240000
282.300385	145.420000
282.393433	145.800000
282.486511	146.080000
282.579590	146.940000
282.672668	147.240000
282.765747	146.580000
282.858856	146.320000
282.951904	146.380000
283.045013	146.140000
283.138062	146.160000
283.231171	146.320000
283.324249	146.580000
283.417328	146.780000
283.510406	146.320000
283.603485	146.080000
283.696564	146.300000
283.789642	146.220000
283.882751	145.920000
283.975830	146.740000
284.068909	146.340000
284.161987	146.840000
284.255066	146.300000
284.348175	146.440000
284.441254	146.160000
284.534332	146.760000
284.627441	145.980000
284.720520	146.040000
284.813599	145.960000
284.906708	146.060000
284.999786	145.260000
285.092896	145.140000
285.185974	146.020000
285.279053	145.440000
285.372192	145.380000
285.465240	146.480000
285.558380	146.420000
285.651459	145.920000
285.744568	146.820000
285.837677	146.340000
285.930756	146.080000
286.023865	146.280000
286.116943	145.980000
286.210052	145.980000
286.303162	146.020000
286.396240	145.680000
286.489349	145.220000
286.582458	145.600000
286.675568	145.240000
286.768646	145.140000
286.861755	145.480000
286.954865	146.140000
287.047974	145.700000
287.141083	145.400000
287.234161	145.320000
287.327271	145.040000
287.420380	145.780000
287.513519	145.960000
287.606598	146.260000
287.699738	146.520000
287.792816	146.400000
287.885956	145.660000
287.979034	145.660000
288.072174	145.760000
288.165283	145.840000
288.258392	146.200000
288.351501	145.740000
288.444611	146.080000
288.537720	145.980000
288.630859	145.780000
288.723969	145.880000
288.817078	146.100000
288.910187	145.980000
289.003296	145.800000
289.096436	145.500000
289.189545	145.100000
289.282654	145.040000
289.375763	145.340000
289.468903	145.940000
289.562012	146.520000
289.655121	146.840000
289.748260	146.940000
289.841400	147.080000
289.934509	146.620000
290.027649	146.660000
290.120728	146.300000
290.213898	146.340000
290.306976	145.840000
290.400146	145.900000
290.493256	145.500000
290.586395	145.740000
290.679535	145.840000
290.772644	145.720000
290.865784	145.160000
290.958893	145.220000
291.052032	144.960000
291.145172	145.140000
291.238281	145.000000
291.331421	145.260000
291.424561	145.700000
291.517670	145.700000
291.610809	145.760000
291.703949	145.840000
291.797089	146.100000
291.890228	145.560000
291.983337	145.380000
292.076477	144.980000
292.169617	145.240000
292.262756	145.080000
292.355927	145.180000
292.449036	145.100000
292.542206	145.280000
292.635315	145.300000
292.728485	145.560000
292.821625	145.240000
292.914764	146.560000
293.007904	146.640000
293.101044	146.760000
293.194183	146.580000
293.287323	147.080000
293.380463	145.980000
293.473602	145.840000
293.566742	145.880000
293.659882	146.640000
293.753021	146.740000
293.846191	146.920000
293.939331	146.580000
294.032471	146.400000
294.125610	145.780000
294.218781	145.780000
294.311920	146.160000
294.405060	146.320000
294.498230	146.320000
294.591370	146.400000
294.684540	145.800000
294.777679	145.440000
294.870850	145.820000
294.963959	145.720000
295.057159	145.600000
295.150299	146.260000
295.243469	146.200000
295.336609	145.660000
295.429779	145.700000
295.522919	145.620000
295.616089	145.460000
295.709229	146.040000
295.802399	146.540000
295.895569	146.360000
295.988708	146.540000
296.081879	146.620000
296.175018	146.040000
296.268188	145.980000
296.361359	146.400000
296.454529	146.420000
296.547668	146.240000
296.640839	146.400000
296.734009	145.900000
296.827179	145.840000
296.920319	146.040000
297.013519	145.800000
297.106659	145.820000
297.199860	146.020000
297.292999	145.540000
297.386200	145.120000
297.479309	145.100000
297.572510	145.220000
297.665680	144.960000
297.758850	145.380000
297.852020	145.380000
297.945190	145.740000
298.038361	145.260000
298.131531	146.400000
298.224701	146.420000
298.317871	146.300000
298.411072	145.820000
298.504242	145.760000
298.597412	144.980000
298.690582	145.100000
298.783752	145.300000
298.876923	145.980000
298.970093	146.320000
299.063293	146.720000
299.156464	146.720000
299.249634	146.840000
299.342834	146.620000
299.436005	146.740000
299.529205	146.600000
299.622345	146.500000
299.715576	145.960000
299.808716	145.640000
299.901917	145.700000
299.995117	145.920000
300.088287	146.180000
300.181488	146.320000
300.274658	146.420000
300.367828	146.420000
300.461029	146.060000
300.554199	146.140000
300.647400	146.300000
300.740601	147.000000
300.833771	146.660000
300.926971	146.980000
301.020142	146.420000
301.113342	146.520000
301.206512	145.760000
301.299713	146.200000
301.392914	145.760000
301.486084	146.240000
301.579285	146.360000
301.672516	147.100000
301.765686	146.820000
301.858887	147.040000
301.952057	146.640000
302.045288	146.400000
302.138458	145.960000
302.231659	145.620000
302.324860	145.420000
302.418060	145.320000
302.511261	145.140000
302.604462	145.340000
302.697662	145.500000
302.790863	145.340000
302.884064	145.200000
302.977264	145.240000
303.070465	145.320000
303.163666	146.100000
303.256866	146.460000
303.350067	146.560000
303.443268	146.860000
303.536469	146.960000
303.629669	146.140000
303.722870	146.080000
303.816071	145.920000
303.909271	145.800000
304.002472	144.980000
304.095673	144.880000
304.188934	144.360000
304.282104	145.420000
304.375336	145.340000
304.468506	145.660000
304.561768	145.700000
304.654968	146.140000
304.748169	145.300000
304.841370	145.100000
304.934601	145.360000
305.027802	145.040000
305.121002	144.940000
305.214233	145.100000
305.307434	145.220000
305.400665	145.680000
305.493866	145.680000
305.587097	145.920000
305.680298	145.620000
305.773499	146.300000
305.866730	145.600000
305.959930	146.480000
306.053162	146.800000
306.146393	146.500000
306.239594	145.620000
306.332825	145.800000
306.426025	145.820000
306.519287	145.080000
306.612488	145.960000
306.705719	146.160000
306.798920	146.320000
306.892181	145.780000
306.985352	145.840000
307.078613	145.140000
307.171844	145.380000
307.265045	144.640000
307.358276	144.300000
307.451508	144.840000
307.544739	145.480000
307.637970	145.200000
307.731201	145.500000
307.824402	146.200000
307.917633	146.300000
308.010864	146.420000
308.104095	146.840000
308.197327	147.260000
308.290558	147.100000
308.383789	146.380000
308.477020	145.880000
308.570251	145.180000
308.663483	144.400000
308.756714	144.380000
308.849976	144.740000
308.943176	145.300000
309.036438	145.320000
309.129639	145.400000
309.222900	145.140000
309.316101	145.040000
309.409393	144.460000
309.502625	144.280000
309.595856	144.600000
309.689087	144.860000
309.782318	144.800000
309.875580	144.960000
309.968811	145.340000
310.062042	145.320000
310.155273	145.220000
310.248535	145.620000
310.341766	145.440000
310.434998	145.460000
310.528259	145.260000
310.621490	145.540000
310.714722	144.840000
310.807983	145.060000
310.901215	144.920000
310.994476	145.240000
311.087708	144.920000
311.181000	145.400000
311.274200	144.680000
311.367462	144.820000
311.460693	144.600000
311.553986	145.320000
311.647186	145.480000
311.740479	146.560000
311.833710	146.240000
311.926971	146.280000
312.020203	145.100000
312.113464	144.720000
312.206726	144.000000
312.299957	144.560000
312.393219	145.040000
312.486481	145.900000
312.579712	146.260000
312.672974	146.560000
312.766235	146.360000
312.859497	145.920000
312.952759	145.460000
313.045990	146.020000
313.139252	145.380000
313.232513	145.520000
313.325775	145.700000
313.419037	145.500000
313.512299	144.340000
313.605530	145.000000
313.698822	145.180000
313.792053	145.240000
313.885345	145.520000
313.978577	145.940000
314.071869	145.540000
314.165131	145.620000
314.258392	145.900000
314.351654	145.920000
314.444916	145.340000
314.538177	146.020000
314.631439	146.140000
314.724701	145.660000
314.817993	145.560000
314.911255	146.320000
315.004517	145.480000
315.097778	145.260000
315.191040	146.000000
315.284302	146.400000
315.377594	145.960000
315.470856	146.220000
315.564117	145.600000
315.657379	144.900000
315.750671	144.260000
315.843933	144.720000
315.937195	144.700000
316.030518	144.980000
316.123749	144.920000
316.217041	145.920000
316.310303	145.580000
316.403595	145.640000
316.496857	145.800000
316.590149	146.280000
316.683411	145.460000
316.776703	145.220000
316.869965	145.540000
316.963257	145.140000
317.056519	144.340000
317.149811	144.460000
317.243073	144.780000
317.336365	144.540000
317.429626	145.140000
317.522919	145.800000
317.616180	145.760000
317.709473	145.600000
317.802765	145.420000
317.896027	144.940000
317.989319	144.860000
318.082611	144.920000
318.175873	144.540000
318.269165	144.700000
318.362488	144.880000
318.455750	144.640000
318.549042	144.840000
318.642303	145.780000
318.735626	145.640000
318.828888	145.720000
318.922211	145.540000
319.015472	146.320000
319.108765	145.580000
319.202057	145.220000
319.295349	145.520000
319.388641	145.500000
319.481934	144.820000
319.575226	145.140000
319.668518	145.940000
319.761810	146.080000
319.855103	146.300000
319.948395	146.320000
320.041687	146.340000
320.134979	145.780000
320.228271	145.260000
320.321564	144.980000
320.414856	144.600000
320.508148	144.140000
320.601440	144.260000
320.694763	144.040000
320.788025	145.040000
320.881348	145.520000
320.974640	145.680000
321.067963	145.340000
321.161224	145.700000
321.254547	144.820000
321.347839	145.100000
321.441162	145.160000
321.534454	145.460000
321.627747	145.160000
321.721069	146.120000
321.814362	146.120000
321.907654	146.180000
322.000946	146.100000
322.094269	147.040000
322.187561	146.400000
322.280884	146.420000
322.374176	146.460000
322.467468	147.140000
322.560791	146.720000
322.654083	147.040000
322.747406	147.000000
322.840698	147.180000
322.934021	147.100000
323.027344	147.280000
323.120636	146.780000
323.213959	146.640000
323.307251	146.060000
323.400574	145.800000
323.493866	145.160000
323.587219	145.500000
323.680511	145.560000
323.773834	145.760000
323.867157	145.980000
323.960449	146.180000
324.053772	145.940000
324.147095	145.700000
324.240387	146.260000
324.333710	146.040000
324.427032	146.220000
324.520355	146.240000
324.613647	146.040000
324.706970	145.420000
324.800293	145.520000
324.893616	145.660000
324.986938	145.920000
325.080231	145.680000
325.173553	146.260000
325.266876	146.420000
325.360199	146.300000
325.453522	145.460000
325.546875	145.560000
325.640167	145.700000
325.733521	145.820000
325.826813	146.120000
325.920166	146.580000
326.013489	146.500000
326.106812	145.540000
326.200134	144.980000
326.293457	144.080000
326.386780	144.040000
326.480103	144.140000
326.573425	144.220000
326.666748	144.480000
326.760071	145.040000
326.853424	145.200000
326.946747	145.180000
327.040070	146.220000
327.133392	145.620000
327.226715	145.060000
327.320068	144.680000
327.413391	145.240000
327.506714	144.320000
327.600037	144.740000
327.693390	145.320000
327.786713	145.520000
327.880066	144.940000
327.973358	145.400000
328.066742	145.720000
328.160034	145.660000
328.253418	145.940000
328.346710	145.980000
328.440063	145.560000
328.533417	145.300000
328.626740	145.540000
328.720093	145.160000
328.813416	145.120000
328.906769	145.060000
329.000092	145.340000
329.093445	145.060000
329.186768	145.320000
329.280121	145.820000
329.373444	146.340000
329.466797	146.140000
329.560120	146.280000
329.653473	146.180000
329.746796	145.540000
329.840149	145.360000
329.933502	145.160000
330.026825	144.720000
330.120178	144.380000
330.213562	144.680000
330.306854	144.700000
330.400238	145.180000
330.493561	145.260000
330.586945	146.160000
330.680237	146.380000
330.773621	146.460000
330.866974	146.280000
330.960327	146.640000
331.053680	146.100000
331.147003	146.280000
331.240356	146.380000
331.333710	146.480000
331.427063	146.060000
331.520416	146.120000
331.613770	145.780000
331.707123	145.820000
331.800476	145.780000
331.893829	146.920000
331.987152	147.180000
332.080505	147.160000
332.173859	147.000000
332.267212	146.360000
332.360565	145.640000
332.453918	145.120000
332.547333	145.100000
332.640656	145.140000
332.734039	145.620000
332.827362	145.460000
332.920746	146.180000
333.014069	146.380000
333.107452	146.600000
333.200806	146.900000
333.294159	147.040000
333.387543	146.220000
333.480896	145.760000
333.574249	145.480000
333.667603	145.060000
333.760956	145.180000
333.854340	145.600000
333.947693	145.880000
334.041046	145.900000
334.134430	146.040000
334.227783	145.800000
334.321136	145.780000
334.414520	145.580000
334.507874	145.580000
334.601227	145.540000
334.694611	145.420000
334.787964	145.260000
334.881348	145.660000
334.974701	145.680000
335.068085	145.260000
335.161438	145.780000
335.254822	145.540000
335.348175	145.320000
335.441559	144.840000
335.534943	145.540000
335.628296	145.160000
335.721680	145.320000
335.815033	145.360000
335.908417	145.980000
336.001770	145.640000
336.095154	145.460000
336.188538	145.380000
336.281891	145.060000
336.375275	144.720000
336.468658	144.740000
336.562012	145.140000
336.655396	145.440000
336.748779	146.000000
336.842133	146.180000
336.935516	146.600000
337.028900	146.100000
337.122284	145.980000
337.215637	145.820000
337.309021	145.540000
337.402435	144.980000
337.495789	145.180000
337.589203	145.100000
337.682526	144.940000
337.775940	145.380000
337.869324	145.500000
337.962708	145.000000
338.056091	145.620000
338.149475	145.520000
338.242859	145.580000
338.336243	145.480000
338.429626	145.960000
338.523010	145.560000
338.616394	145.560000
338.709778	145.400000
338.803162	145.500000
338.896545	145.740000
338.989929	145.520000
339.083313	145.740000
339.176697	145.320000
339.270081	145.080000
339.363464	145.020000
339.456848	145.040000
339.550232	144.520000
339.643616	144.820000
339.737030	144.940000
339.830383	144.680000
339.923828	144.900000
340.017181	145.480000
340.110596	145.320000
340.203949	145.420000
340.297363	145.260000
340.390778	145.140000
340.484161	144.840000
340.577545	144.820000
340.670959	144.700000
340.764343	144.660000
340.857727	144.680000
340.951111	144.180000
341.044525	144.600000
341.137909	144.260000
341.231293	144.380000
341.324707	144.000000
341.418091	145.240000
341.511505	145.020000
341.604889	145.680000
341.698303	145.700000
341.791687	146.020000
341.885071	145.140000
341.978485	144.880000
342.071899	144.680000
342.165283	145.080000
342.258698	145.160000
342.352081	145.820000
342.445496	146.560000
342.538879	146.540000
342.632324	146.340000
342.725708	146.560000
342.819122	145.640000
342.912506	145.360000
343.005920	145.520000
343.099335	146.100000
343.192719	145.840000
343.286133	146.080000
343.379547	146.220000
343.472931	146.360000
343.566345	145.620000
343.659760	145.880000
343.753143	146.100000
343.846558	145.520000
343.939972	145.420000
344.033386	146.180000
344.126770	145.980000
344.220184	145.820000
344.313599	146.400000
344.407043	146.320000
344.500427	145.280000
344.593872	145.680000
344.687225	145.340000
344.780670	144.920000
344.874054	144.800000
344.967499	145.400000
345.060913	145.400000
345.154327	145.580000
345.247742	145.080000
345.341156	144.880000
345.434570	144.540000
345.527985	144.300000
345.621399	144.620000
345.714813	144.740000
345.808228	145.120000
345.901642	145.020000
345.995056	144.480000
346.088470	144.720000
346.181885	145.100000
346.275299	144.980000
346.368713	145.340000
346.462128	145.380000
346.555573	145.220000
346.648987	145.280000
346.742401	144.940000
346.835815	145.100000
346.929260	144.940000
347.022644	145.000000
347.116119	145.060000
347.209503	145.540000
347.302948	146.160000
347.396362	146.980000
347.489807	146.960000
347.583221	147.640000
347.676636	147.060000
347.770050	145.880000
347.863495	145.420000
347.956909	145.140000
348.050323	144.460000
348.143768	144.680000
348.237183	144.700000
348.330597	145.120000
348.424042	145.480000
348.517456	145.540000
348.610901	145.900000
348.704315	145.760000
348.797760	144.920000
348.891174	144.220000
348.984619	143.720000
349.078033	143.840000
349.171448	144.540000
349.264923	144.780000
349.358337	144.820000
349.451782	145.180000
349.545197	144.420000
349.638641	143.780000
349.732086	143.500000
349.825500	144.360000
349.918945	144.060000
350.012390	144.820000
350.105804	145.340000
350.199249	145.840000
350.292664	145.820000
350.386108	146.160000
350.479553	146.620000
350.572968	146.660000
350.666412	146.600000
350.759857	146.240000
350.853302	146.660000
350.946716	145.640000
351.040161	145.200000
351.133606	145.220000
351.227081	145.080000
351.320465	145.520000
351.413940	145.960000
351.507355	146.260000
351.600830	146.380000
351.694244	146.100000
351.787720	145.720000
351.881104	145.680000
351.974579	145.760000
352.067993	146.360000
352.161469	146.500000
352.254883	145.800000
352.348358	145.660000
352.441803	145.340000
352.535248	144.880000
352.628693	145.480000
352.722137	145.500000
352.815582	145.760000
352.909027	145.900000
353.002472	145.680000
353.095917	145.680000
353.189362	146.180000
353.282806	146.320000
353.376251	146.360000
353.469696	145.800000
353.563141	146.200000
353.656586	146.040000
353.750061	145.260000
353.843475	145.160000
353.936981	146.040000
354.030396	144.960000
354.123871	144.900000
354.217285	146.020000
354.310760	146.400000
354.404175	146.360000
354.497681	146.380000
354.591095	146.300000
354.684570	145.440000
354.777985	144.980000
354.871490	144.560000
354.964935	145.120000
355.058380	145.440000
355.151855	145.240000
355.245300	145.860000
355.338745	146.200000
355.432220	146.140000
355.525665	145.480000
355.619110	146.000000
355.712585	145.820000
355.806030	145.400000
355.899475	145.100000
355.992950	145.660000
356.086426	146.040000
356.179871	145.740000
356.273346	146.040000
356.366791	146.140000
356.460266	146.240000
356.553711	145.560000
356.647186	145.620000
356.740631	145.200000
356.834106	145.040000
356.927551	144.800000
357.021027	144.880000
357.114471	145.160000
357.207947	145.460000
357.301422	145.880000
357.394867	146.060000
357.488342	146.160000
357.581818	145.960000
357.675262	146.160000
357.768738	145.940000
357.862213	145.320000
357.955658	145.360000
358.049133	145.300000
358.142609	145.480000
358.236053	144.780000
358.329529	145.060000
358.423035	144.960000
358.516449	144.440000
358.609955	144.760000
358.703400	145.920000
358.796906	145.980000
358.890350	145.720000
358.983826	146.320000
359.077271	145.520000
359.170776	145.040000
359.264221	144.880000
359.357727	145.080000
359.451172	145.240000
359.544647	145.440000
359.638123	145.240000
359.731598	145.640000
359.825073	146.140000
359.918549	145.760000
360.012024	145.680000
360.105499	145.880000
360.198975	145.880000
360.292450	145.640000
360.385925	145.860000
360.479401	145.500000
360.572876	145.620000
360.666351	145.640000
360.759857	145.240000
360.853302	145.300000
360.946808	145.440000
361.040253	145.060000
361.133759	144.580000
361.227203	144.960000
361.320709	144.400000
361.414154	144.740000
361.507660	145.080000
361.601105	145.560000
361.694641	145.980000
361.788086	146.240000
361.881592	146.420000
361.975067	146.140000
362.068542	146.400000
362.162018	146.060000
362.255524	145.780000
362.348999	145.820000
362.442474	146.360000
362.535950	145.880000
362.629456	145.460000
362.722931	145.580000
362.816406	145.820000
362.909882	145.660000
363.003387	145.360000
363.096863	146.000000
363.190338	146.360000
363.283875	145.800000
363.377319	145.840000
363.470825	146.560000
363.564301	145.760000
363.657806	145.600000
363.751282	145.420000
363.844788	145.920000
363.938232	145.180000
364.031769	146.140000
364.125214	146.420000
364.218750	147.080000
364.312225	145.860000
364.405731	146.120000
364.499207	145.360000
364.592712	144.860000
364.686188	144.460000
364.779694	145.080000
364.873169	145.140000
364.966675	145.220000
365.060150	145.700000
365.153656	146.000000
365.247131	145.920000
365.340637	146.260000
365.434143	147.020000
365.527618	146.700000
365.621155	145.980000
365.714600	146.120000
365.808136	146.140000
365.901611	145.060000
365.995117	145.020000
366.088593	145.180000
366.182129	145.120000
366.275604	144.940000
366.369110	145.080000
366.462585	145.120000
366.556122	146.120000
366.649567	145.860000
366.743103	145.960000
366.836609	145.860000
366.930115	146.100000
367.023590	145.680000
367.117096	145.980000
367.210602	145.760000
367.304108	146.620000
367.397614	147.060000
367.491119	146.860000
367.584595	146.860000
367.678101	147.500000
367.771606	146.760000
367.865112	146.200000
367.958649	145.880000
368.052124	145.600000
368.145660	144.900000
368.239136	145.780000
368.332672	145.940000
368.426147	146.080000
368.519684	145.940000
368.613159	146.320000
368.706696	145.640000
368.800171	145.380000
368.893707	145.520000
368.987183	145.820000
369.080719	145.720000
369.174225	145.520000
369.267731	145.900000
369.361237	146.040000
369.454742	146.020000
369.548248	146.060000
369.641754	146.120000
369.735260	145.660000
369.828766	144.840000
369.922272	145.480000
370.015808	145.160000
370.109314	144.940000
370.202820	144.780000
370.296356	145.980000
370.389832	145.200000
370.483368	145.080000
370.576874	145.200000
370.670410	145.420000
370.763885	144.440000
370.857422	144.520000
370.950928	144.500000
371.044464	145.160000
371.137939	145.380000
371.231476	145.800000
371.324982	146.500000
371.418518	146.620000
371.512024	146.360000
371.605560	146.240000
371.699066	146.240000
371.792572	145.520000
371.886108	145.880000
371.979614	145.480000
372.073120	145.780000
372.166656	145.520000
372.260162	145.840000
372.353668	145.440000
372.447205	145.340000
372.540710	144.940000
372.634277	144.860000
372.727753	145.160000
372.821320	145.280000
372.914795	145.620000
373.008362	145.720000
373.101837	146.200000
373.195404	145.380000
373.288879	145.360000
373.382446	145.900000
373.475922	145.800000
373.569489	146.280000
373.662964	146.740000
373.756531	146.760000
373.850037	146.700000
373.943573	146.500000
374.037109	145.360000
374.130615	145.640000
374.224152	145.720000
374.317657	145.540000
374.411194	146.640000
374.504730	146.620000
374.598236	146.180000
374.691772	146.000000
374.785309	145.900000
374.878815	144.980000
374.972351	145.600000
375.065887	145.380000
375.159454	146.100000
375.252930	145.800000
375.346497	146.200000
375.440002	146.660000
375.533569	146.880000
375.627045	146.040000
375.720612	145.920000
375.814117	146.020000
375.907684	145.140000
376.001160	144.940000
376.094727	144.800000
376.188232	145.560000
376.281799	145.540000
376.375336	145.740000
376.468872	146.340000
376.562408	146.720000
376.655914	146.180000
376.749451	145.980000
376.842987	146.220000
376.936523	145.800000
377.030060	145.840000
377.123596	145.920000
377.217133	145.500000
377.310669	145.100000
377.404205	145.480000
377.497772	145.820000
377.591278	145.740000
377.684845	146.660000
377.778351	147.220000
377.871918	146.740000
377.965424	145.780000
378.058990	145.700000
378.152496	144.820000
378.246063	144.780000
378.339569	145.200000
378.433136	145.540000
378.526642	145.800000
378.620209	146.280000
378.713745	146.040000
378.807312	146.180000
378.900848	146.600000
378.994385	146.620000
379.087921	145.780000
379.181458	145.960000
379.274994	145.280000
379.368530	144.880000
379.462097	144.800000
379.555634	145.360000
379.649170	144.600000
379.742706	144.680000
379.836273	144.920000
379.929810	144.940000
380.023376	144.860000
380.116882	145.300000
380.210449	145.640000
380.303986	145.360000
380.397552	144.900000
380.491058	144.920000
380.584656	144.820000
380.678162	144.660000
380.771729	144.600000
380.865265	145.720000
380.958832	146.020000
381.052368	146.200000
381.145935	146.620000
381.239471	147.020000
381.333008	146.340000
381.426575	146.120000
381.520111	146.340000
381.613647	145.980000
381.707214	145.480000
381.800751	145.000000
381.894318	145.060000
381.987854	144.500000
382.081421	144.400000
382.174988	144.540000
382.268524	144.560000
382.362091	144.480000
382.455627	145.520000
382.549194	145.400000
382.642731	145.040000
382.736298	144.940000
382.829834	144.960000
382.923401	144.780000
383.016937	144.740000
383.110504	145.220000
383.204041	145.540000
383.297607	145.880000
383.391174	145.280000
383.484741	146.000000
383.578278	145.560000
383.671844	145.440000
383.765411	144.680000
383.858948	145.180000
383.952515	144.860000
384.046051	145.480000
384.139618	145.840000
384.233185	146.420000
384.326721	146.360000
384.420288	146.800000
384.513855	146.740000
384.607422	146.960000
384.700989	146.980000
384.794525	146.460000
384.888123	146.060000
384.981659	146.160000
385.075226	145.600000
385.168762	145.320000
385.262360	145.280000
385.355896	144.640000
385.449463	144.400000
385.542999	144.540000
385.636597	145.400000
385.730164	145.600000
385.823730	145.760000
385.917267	145.720000
386.010834	145.860000
386.104401	145.520000
386.197968	145.880000
386.291534	146.100000
386.385101	146.100000
386.478668	146.140000
386.572235	145.580000
386.665802	144.960000
386.759338	144.520000
386.852905	144.080000
386.946472	143.700000
387.040070	144.180000
387.133606	144.300000
387.227203	144.320000
387.320740	144.920000
387.414337	144.920000
387.507874	144.800000
387.601471	145.020000
387.695007	144.960000
387.788605	144.700000
387.882141	144.800000
387.975739	144.840000
388.069275	144.540000
388.162872	145.040000
388.256439	145.000000
388.350037	144.960000
388.443604	144.460000
388.537170	144.560000
388.630737	145.100000
388.724304	145.300000
388.817871	145.320000
388.911438	145.420000
389.005005	145.980000
389.098602	145.880000
389.192169	145.700000
389.285736	146.100000
389.379333	146.400000
389.472870	145.560000
389.566467	145.340000
389.660034	145.340000
389.753632	144.920000
389.847168	145.180000
389.940765	145.780000
390.034332	145.720000
390.127930	145.460000
390.221466	145.340000
390.315063	144.620000
390.408630	143.700000
390.502228	142.960000
390.595795	143.280000
390.689362	143.540000
390.782959	144.460000
390.876526	145.300000
390.970093	145.800000
391.063690	146.560000
391.157257	146.560000
391.250824	146.180000
391.344421	145.840000
391.437988	146.000000
391.531555	145.600000
391.625153	145.620000
391.718750	145.780000
391.812317	145.820000
391.905914	145.220000
391.999481	145.160000
392.093079	145.340000
392.186615	145.680000
392.280243	145.740000
392.373779	146.440000
392.467407	146.700000
392.560944	146.540000
392.654572	145.820000
392.748108	146.020000
392.841736	145.940000
392.935303	145.420000
393.028900	145.200000
393.122467	145.200000
393.216064	144.820000
393.309631	144.240000
393.403229	144.040000
393.496796	143.960000
393.590393	143.680000
393.683990	144.000000
393.777557	144.660000
393.871155	144.980000
393.964722	145.520000
394.058350	145.960000
394.151917	145.960000
394.245514	145.620000
394.339081	146.220000
394.432678	146.280000
394.526245	146.260000
394.619873	145.820000
394.713409	146.000000
394.807037	145.460000
394.900604	145.360000
394.994202	145.560000
395.087769	146.080000
395.181396	145.800000
395.274994	146.580000
395.368561	146.260000
395.462158	146.420000
395.555756	145.940000
395.649353	146.420000
395.742920	145.600000
395.836517	146.280000
395.930115	145.220000
396.023712	145.520000
396.117279	145.440000
396.210876	145.360000
396.304474	145.120000
396.398071	145.820000
396.491669	146.280000
396.585266	146.320000
396.678833	146.180000
396.772461	146.560000
396.866028	146.840000
396.959656	147.280000
397.053223	148.000000
397.146851	149.220000
397.240417	150.360000
397.334015	153.200000
397.427582	155.460000
397.521210	159.000000
397.614807	163.940000
397.708405	169.760000
397.802002	176.720000
397.895599	186.520000
397.989197	198.080000
398.082794	211.460000
398.176392	228.180000
398.269989	246.780000
398.363586	268.400000
398.457184	292.620000
398.550781	318.700000
398.644379	344.060000
398.737976	369.520000
398.831573	394.300000
398.925201	416.080000
399.018768	436.660000
399.112396	455.280000
399.205963	472.180000
399.299591	485.280000
399.393158	495.980000
399.486786	503.920000
399.580353	508.040000
399.673981	507.620000
399.767578	505.080000
399.861206	500.100000
399.954773	491.040000
400.048401	478.460000
400.141998	463.560000
400.235596	446.300000
400.329193	425.940000
400.422791	404.560000
400.516418	383.100000
400.610016	362.380000
400.703613	341.640000
400.797211	321.620000
400.890808	302.360000
400.984436	285.620000
401.078033	269.100000
401.171631	253.980000
401.265259	239.820000
401.358826	227.400000
401.452484	214.720000
401.546051	203.720000
401.639679	192.860000
401.733246	184.840000
401.826904	176.940000
401.920471	170.520000
402.014099	165.100000
402.107697	161.080000
402.201324	157.520000
402.294891	154.560000
402.388550	152.740000
402.482147	151.460000
402.575745	149.900000
402.669373	148.440000
402.762970	147.800000
402.856567	147.180000
402.950195	146.720000
403.043793	146.520000
403.137390	147.080000
403.231018	146.180000
403.324615	146.580000
403.418243	146.200000
403.511841	146.600000
403.605469	146.320000
403.699066	147.400000
403.792694	147.400000
403.886292	147.580000
403.979919	147.360000
404.073517	146.680000
404.167145	146.420000
404.260712	146.020000
404.354370	145.860000
404.447937	145.780000
404.541595	146.100000
404.635162	146.320000
404.728821	146.820000
404.822418	146.200000
404.916046	145.840000
405.009644	145.920000
405.103271	146.040000
405.196899	145.420000
405.290497	145.680000
405.384125	146.320000
405.477722	145.820000
405.571350	145.520000
405.664948	145.800000
405.758575	145.780000
405.852203	145.160000
405.945801	145.560000
406.039429	145.240000
406.133057	145.100000
406.226654	144.920000
406.320312	145.080000
406.413879	145.200000
406.507538	145.660000
406.601135	145.060000
406.694763	146.020000
406.788361	145.960000
406.882019	145.480000
406.975586	145.660000
407.069244	146.440000
407.162872	146.160000
407.256470	146.240000
407.350098	146.240000
407.443726	145.680000
407.537323	145.400000
407.630951	145.640000
407.724579	145.260000
407.818207	145.640000
407.911804	145.400000
408.005432	145.300000
408.099060	145.180000
408.192688	145.480000
408.286285	145.180000
408.379913	145.260000
408.473572	145.420000
408.567169	144.860000
408.660828	144.840000
408.754395	144.940000
408.848053	144.980000
408.941650	144.900000
409.035309	144.400000
409.128906	144.600000
409.222565	144.740000
409.316132	144.800000
409.409790	144.440000
409.503387	144.900000
409.597046	144.800000
409.690674	145.080000
409.784302	145.340000
409.877930	145.420000
409.971558	145.560000
410.065186	145.540000
410.158783	144.980000
410.252411	144.760000
410.346039	144.920000
410.439667	144.960000
410.533295	144.960000
410.626923	145.240000
410.720551	145.100000
410.814209	145.680000
410.907806	146.000000
411.001465	145.820000
411.095062	145.960000
411.188721	146.280000
411.282318	145.700000
411.375977	145.200000
411.469574	145.180000
411.563232	144.700000
411.656830	144.420000
411.750488	144.240000
411.844086	144.100000
411.937744	144.420000
412.031372	144.580000
412.125000	144.580000
412.218628	144.840000
412.312256	145.760000
412.405884	145.920000
412.499512	146.040000
412.593170	146.080000
412.686798	146.340000
412.780426	145.540000
412.874054	145.740000
412.967682	145.480000
413.061310	146.260000
413.154968	146.460000
413.248566	146.860000
413.342224	146.580000
413.435852	146.920000
413.529510	146.160000
413.623108	145.360000
413.716766	145.260000
413.810364	145.400000
413.904022	144.980000
413.997650	144.640000
414.091309	145.500000
414.184906	145.140000
414.278564	144.780000
414.372192	145.520000
414.465851	145.980000
414.559479	145.480000
414.653107	146.300000
414.746735	146.300000
414.840393	146.160000
414.934021	146.420000
415.027649	146.320000
415.121277	146.040000
415.214935	146.520000
415.308563	146.300000
415.402191	145.800000
415.495850	145.860000
415.589478	145.600000
415.683136	145.120000
415.776733	145.160000
415.870422	145.640000
415.964020	145.180000
416.057678	145.140000
416.151306	145.360000
416.244965	145.380000
416.338562	145.380000
416.432251	146.080000
416.525848	147.040000
416.619507	147.260000
416.713165	147.600000
416.806793	147.480000
416.900421	147.560000
416.994080	146.540000
417.087708	146.220000
417.181366	145.680000
417.274994	145.760000
417.368622	145.960000
417.462280	146.440000
417.555908	146.440000
417.649567	146.340000
417.743195	146.060000
417.836853	145.580000
417.930481	145.840000
418.024170	146.040000
418.117767	147.120000
418.211426	147.460000
418.305054	147.960000
418.398712	147.340000
418.492340	147.020000
418.585999	146.580000
418.679626	146.500000
418.773285	146.240000
418.866913	146.460000
418.960571	146.740000
419.054230	146.460000
419.147858	146.280000
419.241516	146.260000
419.335144	145.860000
419.428802	145.680000
419.522461	145.600000
419.616089	145.260000
419.709747	145.360000
419.803375	145.520000
419.897034	145.340000
419.990662	145.000000
420.084320	145.700000
420.177979	145.900000
420.271606	146.540000
420.365295	146.860000
420.458893	147.380000
420.552582	147.380000
420.646210	147.340000
420.739868	146.620000
420.833496	146.440000
420.927155	146.140000
421.020782	145.560000
421.114471	145.000000
421.208069	145.320000
421.301758	145.820000
421.395386	145.980000
421.489044	146.200000
421.582703	146.280000
421.676361	146.780000
421.769989	146.000000
421.863647	146.340000
421.957306	146.500000
422.050934	146.860000
422.144592	146.360000
422.238251	146.500000
422.331909	145.840000
422.425537	145.740000
422.519196	145.440000
422.612854	145.020000
422.706543	144.740000
422.800140	145.320000
422.893829	144.800000
422.987457	144.540000
423.081146	144.680000
423.174744	145.560000
423.268433	145.160000
423.362061	145.320000
423.455750	145.400000
423.549347	145.740000
423.643036	144.680000
423.736664	145.200000
423.830353	145.520000
423.924011	145.900000
424.017639	145.480000
424.111298	145.920000
424.204956	145.640000
424.298615	145.560000
424.392273	145.280000
424.485931	145.340000
424.579559	145.440000
424.673218	145.220000
424.766876	145.380000
424.860535	145.180000
424.954193	145.300000
425.047882	145.580000
425.141510	145.660000
425.235199	145.380000
425.328796	145.360000
425.422485	145.220000
425.516113	144.860000
425.609802	144.680000
425.703430	145.040000
425.797119	145.140000
425.890747	145.220000
425.984436	145.320000
426.078064	145.620000
426.171753	145.200000
426.265411	145.080000
426.359070	145.580000
426.452728	145.460000
426.546356	145.140000
426.640015	145.160000
426.733673	145.120000
426.827332	144.520000
426.920990	145.420000
427.014648	145.080000
427.108307	145.480000
427.201965	146.040000
427.295624	146.360000
427.389282	145.180000
427.482941	145.780000
427.576630	145.500000
427.670258	144.700000
427.763947	144.360000
427.857574	144.760000
427.951263	144.620000
428.044922	144.520000
428.138611	144.960000
428.232239	145.760000
428.325928	145.900000
428.419556	146.360000
428.513245	146.160000
428.606903	146.420000
428.700562	145.480000
428.794220	145.040000
428.887878	144.240000
428.981537	144.720000
429.075195	144.740000
429.168854	145.360000
429.262512	145.680000
429.356201	145.980000
429.449860	145.860000
429.543518	145.440000
429.637177	145.380000
429.730835	145.360000
429.824493	145.440000
429.918182	145.860000
430.011810	145.560000
430.105530	144.860000
430.199158	145.080000
430.292847	144.980000
430.386475	144.320000
430.480164	144.540000
430.573792	144.340000
430.667511	143.860000
430.761139	143.800000
430.854828	144.280000
430.948456	144.420000
431.042145	145.340000
431.135834	145.240000
431.229492	145.480000
431.323151	145.480000
431.416809	145.680000
431.510468	145.300000
431.604156	145.360000
431.697815	145.500000
431.791473	145.000000
431.885132	144.320000
431.978821	144.660000
432.072479	144.880000
432.166138	145.040000
432.259827	144.940000
432.353485	145.880000
432.447174	146.020000
432.540802	146.000000
432.634491	145.880000
432.728149	146.480000
432.821838	146.620000
432.915466	146.180000
433.009186	146.240000
433.102814	145.660000
433.196503	145.380000
433.290131	145.120000
433.383850	145.660000
433.477509	145.680000
433.571167	146.520000
433.664856	146.940000
433.758514	147.140000
433.852173	146.680000
433.945862	146.780000
434.039520	146.440000
434.133179	145.880000
434.226868	145.560000
434.320526	144.840000
434.414185	145.220000
434.507874	145.120000
434.601562	145.380000
434.695221	145.320000
434.788910	145.960000
434.882538	145.660000
434.976257	145.300000
435.069885	145.200000
435.163574	145.280000
435.257233	144.940000
435.350922	145.040000
435.444580	144.800000
435.538269	144.440000
435.631897	144.600000
435.725616	145.200000
435.819275	145.380000
435.912964	146.280000
436.006622	147.160000
436.100311	147.060000
436.193970	146.280000
436.287628	145.940000
436.381317	145.520000
436.474976	144.980000
436.568665	144.480000
436.662323	144.880000
436.756012	144.900000
436.849670	144.400000
436.943390	144.380000
437.037018	144.520000
437.130737	144.580000
437.224365	144.100000
437.318085	144.660000
437.411713	144.700000
437.505432	145.000000
437.599060	145.420000
437.692780	146.200000
437.786407	146.020000
437.880127	145.880000
437.973755	145.840000
438.067474	145.240000
438.161133	145.080000
438.254822	145.600000
438.348480	145.800000
438.442169	146.480000
438.535828	146.980000
438.629517	146.700000
438.723175	146.060000
438.816864	146.380000
438.910553	145.560000
439.004211	145.520000
439.097900	145.140000
439.191559	145.460000
439.285248	144.720000
439.378906	144.940000
439.472626	144.560000
439.566284	144.940000
439.659973	145.080000
439.753632	145.180000
439.847321	145.800000
439.940979	146.140000
440.034698	146.180000
440.128326	145.660000
440.222046	145.560000
440.315674	144.300000
440.409393	144.360000
440.503082	144.040000
440.596741	144.640000
440.690430	144.900000
440.784088	145.060000
440.877777	144.280000
440.971466	144.700000
441.065125	144.160000
441.158813	144.180000
441.252502	144.720000
441.346161	145.600000
441.439850	145.880000
441.533539	145.860000
441.627197	146.060000
441.720886	145.680000
441.814606	145.640000
441.908234	145.620000
442.001953	145.720000
442.095612	145.640000
442.189301	146.100000
442.282959	146.120000
442.376678	145.520000
442.470306	146.320000
442.564026	146.160000
442.657684	146.280000
442.751404	146.140000
442.845032	147.020000
442.938751	146.340000
443.032440	146.400000
443.126099	145.800000
443.219788	146.180000
443.313477	145.740000
443.407166	146.080000
443.500824	145.920000
443.594513	146.280000
443.688202	146.020000
443.781891	145.440000
443.875549	145.000000
443.969238	145.240000
444.062927	145.360000
444.156647	144.960000
444.250275	145.700000
444.343994	146.260000
444.437653	146.260000
444.531372	146.140000
444.625031	146.120000
444.718719	145.560000
444.812378	145.180000
444.906097	145.260000
444.999756	144.720000
445.093445	144.840000
445.187103	144.920000
445.280823	145.360000
445.374512	144.780000
445.468201	145.220000
445.561859	145.120000
445.655548	145.260000
445.749237	144.740000
445.842926	145.020000
445.936615	145.080000
446.030304	144.980000
446.123962	145.200000
446.217651	145.180000
446.311340	145.440000
446.405029	145.080000
446.498749	144.740000
446.592407	144.220000
446.686096	144.500000
446.779755	144.480000
446.873474	144.940000
446.967133	145.560000
447.060852	145.560000
447.154510	145.380000
447.248230	145.120000
447.341858	144.840000
447.435577	144.340000
447.529236	144.140000
447.622955	143.680000
447.716644	143.980000
447.810333	144.400000
447.904022	144.920000
447.997711	145.320000
448.091400	145.740000
448.185059	145.540000
448.278748	145.740000
448.372437	145.420000
448.466125	145.380000
448.559814	145.320000
448.653503	145.920000
448.747192	145.720000
448.840912	146.160000
448.934570	146.440000
449.028290	146.740000
449.121948	146.180000
449.215637	145.960000
449.309296	145.660000
449.403015	145.440000
449.496674	145.160000
449.590393	145.400000
449.684052	145.160000
449.777771	145.980000
449.871429	145.400000
449.965149	145.380000
450.058838	145.380000
450.152527	145.700000
450.246216	145.240000
450.339905	145.780000
450.433594	145.700000
450.527283	146.620000
450.620972	146.320000
450.714661	146.240000
450.808350	146.120000
450.902039	146.420000
450.995728	145.560000
451.089417	145.420000
451.183105	145.300000
451.276794	145.880000
451.370514	145.220000
451.464172	144.260000
451.557892	144.400000
451.651550	144.820000
451.745270	144.300000
451.838928	144.520000
451.932648	145.180000
452.026306	145.440000
452.120026	144.800000
452.213684	145.000000
452.307404	145.360000
452.401062	145.340000
452.494781	145.440000
452.588470	145.680000
452.682159	145.440000
452.775848	145.080000
452.869537	144.740000
452.963226	144.400000
453.056915	144.300000
453.150604	144.740000
453.244293	145.080000
453.337982	145.920000
453.431671	146.220000
453.525360	146.500000
453.619049	146.340000
453.712769	146.180000
453.806427	145.440000
453.900146	145.220000
453.993805	145.100000
454.087555	145.280000
454.181213	145.440000
454.274933	145.380000
454.368591	145.340000
454.462311	145.020000
454.555969	144.540000
454.649689	145.420000
454.743347	145.540000
454.837067	146.060000
454.930756	146.940000
455.024445	147.100000
455.118134	146.080000
455.211853	146.320000
455.305542	145.880000
455.399231	145.320000
455.492920	145.480000
455.586609	145.600000
455.680298	145.500000
455.773987	145.080000
455.867676	145.120000
455.961365	144.960000
456.055084	144.800000
456.148773	144.560000
456.242493	144.800000
456.336151	144.900000
456.429871	145.200000
456.523529	145.840000
456.617249	145.820000
456.710907	146.500000
456.804626	146.280000
456.898315	145.600000
456.992035	145.060000
457.085693	144.960000
457.179413	144.140000
457.273102	144.920000
457.366791	145.400000
457.460480	146.200000
457.554199	146.720000
457.647888	147.120000
457.741577	146.440000
457.835266	146.440000
457.928955	146.100000
458.022644	146.580000
458.116364	146.940000
458.210052	146.740000
458.303741	146.900000
458.397461	146.040000
458.491119	145.300000
458.584839	144.980000
458.678528	144.820000
458.772247	144.520000
458.865906	144.880000
458.959625	146.000000
459.053284	145.860000
459.147003	145.880000
459.240692	146.440000
459.334412	146.520000
459.428070	145.800000
459.521790	146.000000
459.615479	146.160000
459.709198	146.340000
459.802887	145.820000
459.896576	145.520000
459.990265	145.860000
460.083954	145.900000
460.177673	145.060000
460.271362	145.560000
460.365051	145.440000
460.458740	144.960000
460.552429	144.800000
460.646149	144.980000
460.739838	144.720000
460.833527	145.100000
460.927246	144.620000
461.020905	144.660000
461.114655	144.480000
461.208313	144.840000
461.302032	144.200000
461.395691	144.560000
461.489441	144.600000
461.583099	145.180000
461.676819	144.840000
461.770477	145.420000
461.864197	145.060000
461.957916	144.940000
462.051605	144.080000
462.145294	144.960000
462.238983	144.600000
462.332703	145.280000
462.426392	146.120000
462.520081	146.400000
462.613770	145.760000
462.707489	146.120000
462.801178	145.660000
462.894867	145.140000
462.988556	145.220000
463.082275	145.740000
463.175964	145.260000
463.269684	145.540000
463.363342	145.460000
463.457092	145.000000
463.550751	144.620000
463.644470	145.080000
463.738129	145.000000
463.831879	144.860000
463.925537	145.600000
464.019257	145.800000
464.112946	145.560000
464.206665	145.500000
464.300323	145.600000
464.394043	145.440000
464.487762	145.180000
464.581451	145.700000
464.675140	145.640000
464.768829	146.160000
464.862549	146.140000
464.956238	146.100000
465.049927	145.860000
465.143646	146.080000
465.237335	145.400000
465.331024	145.880000
465.424713	145.940000
465.518433	145.680000
465.612152	145.300000
465.705811	145.340000
465.799561	144.940000
465.893219	144.800000
465.986938	144.840000
466.080597	145.040000
466.174347	145.340000
466.268005	145.540000
466.361725	145.400000
466.455414	145.640000
466.549133	145.500000
466.642792	145.840000
466.736542	145.300000
466.830231	145.820000
466.923920	145.660000
467.017609	145.940000
467.111328	145.440000
467.205017	145.560000
467.298706	145.180000
467.392426	145.220000
467.486115	145.200000
467.579803	145.180000
467.673523	145.620000
467.767212	145.840000
467.860901	145.640000
467.954651	145.800000
468.048309	146.080000
468.142029	145.880000
468.235718	145.760000
468.329437	145.820000
468.423096	145.800000
468.516846	145.200000
468.610504	144.680000
468.704224	144.320000
468.797913	144.240000
468.891632	144.060000
468.985291	144.420000
469.079010	144.700000
469.172729	144.780000
469.266418	145.400000
469.360107	145.580000
469.453827	145.400000
469.547516	145.600000
469.641205	146.020000
469.734924	145.760000
469.828613	146.100000
469.922302	146.500000
470.016022	146.420000
470.109711	146.200000
470.203430	145.740000
470.297150	144.480000
470.390808	144.500000
470.484558	144.400000
470.578217	145.120000
470.671936	145.960000
470.765625	147.000000
470.859344	146.720000
470.953003	147.040000
471.046753	146.240000
471.140411	145.520000
471.234131	145.740000
471.327820	146.140000
471.421539	146.000000
471.515228	145.860000
471.608948	146.180000
471.702637	145.360000
471.796326	145.100000
471.890045	145.120000
471.983734	145.660000
472.077423	145.320000
472.171143	145.780000
472.264832	145.540000
472.358521	145.520000
472.452240	144.880000
472.545929	145.420000
472.639648	145.520000
472.733337	145.780000
472.827057	145.560000
472.920746	145.580000
473.014465	145.720000
473.108124	145.860000
473.201874	146.080000
473.295532	146.300000
473.389252	146.940000
473.482941	146.840000
473.576660	146.080000
473.670319	145.420000
473.764069	145.620000
473.857727	145.840000
473.951477	145.840000
474.045166	146.780000
474.138855	147.020000
474.232574	146.700000
474.326263	146.420000
474.419952	146.340000
474.513672	146.220000
474.607361	146.400000
474.701050	146.380000
474.794769	146.500000
474.888458	146.720000
474.982178	146.620000
475.075867	146.500000
475.169586	146.660000
475.263275	146.580000
475.356995	146.060000
475.450653	145.400000
475.544403	145.220000
475.638062	145.880000
475.731812	145.480000
475.825470	145.420000
475.919189	145.820000
476.012878	145.940000
476.106598	144.960000
476.200256	145.460000
476.294006	145.540000
476.387695	145.640000
476.481384	145.380000
476.575104	145.840000
476.668793	145.480000
476.762512	145.300000
476.856201	145.600000
476.949890	145.620000
477.043610	144.920000
477.137299	144.920000
477.230988	145.400000
477.324707	144.840000
477.418396	145.480000
477.512146	145.820000
477.605804	145.620000
477.699524	145.560000
477.793213	145.800000
477.886932	145.380000
477.980591	145.260000
478.074341	145.580000
478.167999	145.280000
478.261749	145.380000
478.355408	145.520000
478.449127	145.940000
478.542816	146.480000
478.636536	146.960000
478.730225	146.940000
478.823944	147.200000
478.917633	147.320000
479.011322	146.960000
479.105042	146.960000
479.198730	147.220000
479.292450	146.920000
479.386139	146.680000
479.479828	146.620000
479.573547	146.800000
479.667267	146.240000
479.760925	146.000000
479.854675	146.280000
479.948334	146.240000
480.042084	145.380000
480.135742	145.940000
480.229462	145.660000
480.323151	145.320000
480.416870	144.860000
480.510529	145.080000
480.604279	144.400000
480.697937	145.140000
480.791656	144.800000
480.885345	144.660000
480.979065	144.660000
481.072754	145.140000
481.166473	145.380000
481.260132	145.600000
481.353882	146.080000
481.447540	146.120000
481.541260	146.220000
481.635010	145.500000
481.728668	145.660000
481.822388	145.520000
481.916077	145.640000
482.009796	145.220000
482.103485	145.940000
482.197205	146.060000
482.290863	146.260000
482.384613	145.980000
482.478271	145.740000
482.571991	145.320000
482.665680	145.100000
482.759399	145.440000
482.853058	145.840000
482.946808	145.920000
483.040466	145.700000
483.134216	145.360000
483.227875	144.880000
483.321594	145.120000
483.415283	145.420000
483.509003	145.560000
483.602661	145.760000
483.696411	146.000000
483.790070	145.600000
483.883789	145.340000
483.977478	145.440000
484.071198	145.500000
484.164917	145.080000
484.258606	144.640000
484.352325	145.080000
484.445984	145.040000
484.539734	145.000000
484.633392	144.700000
484.727142	145.480000
484.820801	145.120000
484.914520	145.400000
485.008209	145.640000
485.101929	146.320000
485.195587	145.700000
485.289337	145.820000
485.382996	145.540000
485.476715	145.540000
485.570404	145.400000
485.664124	145.820000
485.757782	146.120000
485.851532	145.920000
485.945190	145.740000
486.038910	145.740000
486.132599	146.160000
486.226318	145.620000
486.319977	145.420000
486.413727	145.940000
486.507446	145.760000
486.601105	145.000000
486.694855	145.120000
486.788513	145.260000
486.882233	144.940000
486.975922	144.880000
487.069641	145.020000
487.163300	144.860000
487.257050	146.020000
487.350708	145.620000
487.444427	145.520000
487.538116	145.320000
487.631836	145.400000
487.725494	144.380000
487.819214	144.660000
487.912903	144.660000
488.006622	144.940000
488.100281	145.220000
488.194031	145.360000
488.287689	145.600000
488.381409	146.560000
488.475098	146.600000
488.568817	146.160000
488.662476	145.920000
488.756226	145.400000
488.849945	144.180000
488.943604	144.160000
489.037354	144.520000
489.131012	144.720000
489.224731	144.600000
489.318390	144.860000
489.412140	144.760000
489.505798	144.620000
489.599518	144.040000
489.693207	144.680000
489.786926	145.020000
489.880585	145.060000
489.974335	145.240000
490.067993	146.420000
490.161713	146.500000
490.255371	146.900000
490.349121	146.960000
490.442780	146.700000
490.536499	145.980000
490.630188	145.760000
490.723907	145.040000
490.817566	144.920000
490.911285	145.120000
491.004974	144.960000
491.098694	144.660000
491.192413	145.660000
491.286102	145.440000
491.379822	145.520000
491.473480	145.900000
491.567200	146.220000
491.660889	145.300000
491.754608	145.240000
491.848267	145.280000
491.941986	145.140000
492.035675	145.080000
492.129395	145.700000
492.223053	145.920000
492.316772	146.080000
492.410461	146.040000
492.504181	146.060000
492.597839	145.440000
492.691559	145.580000
492.785248	145.480000
492.878967	145.560000
492.972626	145.180000
493.066345	145.480000
493.160034	144.960000
493.253754	144.900000
493.347412	144.420000
493.441132	144.540000
493.534882	144.820000
493.628540	145.460000
493.722260	145.720000
493.815918	146.140000
493.909668	146.880000
494.003326	146.880000
494.097046	146.760000
494.190704	146.220000
494.284454	146.480000
494.378113	146.340000
494.471832	145.900000
494.565491	145.700000
494.659210	146.320000
494.752899	145.900000
494.846619	145.580000
494.940277	145.960000
495.033997	145.920000
495.127686	145.280000
495.221405	145.220000
495.315063	145.360000
495.408783	145.060000
495.502441	145.340000
495.596191	145.500000
495.689850	145.600000
495.783569	145.860000
495.877228	146.160000
495.970947	145.840000
496.064697	146.140000
496.158356	146.880000
496.252075	146.360000
496.345734	145.960000
496.439453	146.820000
496.533142	146.640000
496.626862	146.580000
496.720520	146.520000
496.814240	146.800000
496.907898	146.280000
497.001617	146.320000
497.095306	145.620000
497.189026	145.720000
497.282684	145.720000
497.376404	145.780000
497.470062	145.720000
497.563782	145.860000
497.657471	146.000000
497.751190	145.800000
497.844849	145.520000
497.938568	145.940000
498.032227	146.040000
498.125946	145.960000
498.219635	145.920000
498.313354	146.400000
498.407074	145.880000
498.500732	145.960000
498.594452	146.280000
498.688110	145.940000
498.781830	145.480000
498.875519	145.520000
498.969238	145.340000
499.062897	144.820000
499.156616	145.480000
499.250275	145.620000
499.343994	145.260000
499.437653	145.380000
499.531372	145.620000
499.625061	146.060000
499.718781	146.180000
499.812439	146.460000
499.906158	146.300000
499.999817	146.160000
500.093536	145.300000
500.187195	145.300000
500.280914	145.540000
500.374573	145.700000
500.468323	145.300000
500.561981	145.860000
500.655701	145.440000
500.749420	145.440000
500.843079	145.460000
500.936798	145.620000
501.030457	145.860000
501.124176	146.160000
501.217834	146.000000
501.311554	145.780000
501.405212	145.720000
501.498962	144.560000
501.592621	144.520000
501.686340	144.740000
501.779999	145.060000
501.873718	145.440000
501.967377	146.240000
502.061096	146.340000
502.154755	145.820000
502.248474	145.680000
502.342133	145.600000
502.435852	145.360000
502.529510	146.040000
502.623230	146.500000
502.716888	145.980000
502.810608	146.420000
502.904266	146.840000
502.997986	145.860000
503.091705	145.620000
503.185364	145.800000
503.279083	145.360000
503.372772	144.820000
503.466492	144.860000
503.560150	144.600000
503.653870	145.020000
503.747528	144.820000
503.841248	144.900000
503.934906	144.920000
504.028625	144.960000
504.122284	145.180000
504.216003	146.160000
504.309662	145.540000
504.403381	145.860000
504.497040	146.020000
504.590759	145.260000
504.684418	145.100000
504.778137	146.220000
504.871796	146.280000
504.965515	146.040000
505.059174	146.700000
505.152893	146.080000
505.246521	145.440000
505.340240	144.920000
505.433899	145.060000
505.527618	145.340000
505.621338	145.480000
505.714996	145.380000
505.808716	145.500000
505.902374	146.000000
505.996094	145.640000
506.089752	145.660000
506.183472	145.900000
506.277130	145.980000
506.370850	145.680000
506.464508	145.540000
506.558228	145.540000
506.651886	145.220000
506.745605	145.500000
506.839264	145.700000
506.932983	145.820000
507.026611	145.780000
507.120331	146.160000
507.213989	145.600000
507.307709	145.460000
507.401367	145.580000
507.495087	146.300000
507.588745	146.060000
507.682465	146.960000
507.776123	146.860000
507.869843	146.720000
507.963531	146.220000
508.057190	146.700000
508.150909	146.020000
508.244568	146.240000
508.338287	146.000000
508.431946	145.620000
508.525665	145.460000
508.619324	145.280000
508.713013	145.400000
508.806671	145.620000
508.900391	146.560000
508.994049	146.600000
509.087769	146.440000
509.181427	146.360000
509.275146	146.160000
509.368774	145.220000
509.462494	145.080000
509.556152	145.440000
509.649872	145.580000
509.743530	145.760000
509.837250	146.020000
509.930878	145.800000
510.024597	145.460000
510.118256	145.200000
510.211975	145.300000
510.305695	144.880000
510.399353	144.960000
510.493042	145.760000
510.586700	145.700000
510.680420	146.020000
510.774078	146.080000
510.867798	146.440000
510.961426	145.640000
511.055145	145.420000
511.148804	144.700000
511.242523	145.360000
511.336151	145.120000
511.429871	145.820000
511.523529	146.240000
511.617249	146.340000
511.710876	145.720000
511.804596	145.700000
511.898254	145.460000
511.991974	145.560000
512.085632	145.420000
512.179321	145.660000
512.272949	146.020000
512.366699	146.240000
512.460327	145.840000
512.554077	146.900000
512.647766	146.880000
512.741394	146.600000
512.835144	146.700000
512.928772	146.680000
513.022461	146.060000
513.116150	145.680000
513.209839	145.960000
513.303467	145.460000
513.397217	145.120000
513.490845	144.880000
513.584595	144.860000
513.678223	144.360000
513.771912	143.760000
513.865601	144.320000
513.959290	144.160000
514.052917	144.480000
514.146667	145.180000
514.240295	145.980000
514.333984	146.080000
514.427673	146.180000
514.521362	146.540000
514.614990	145.760000
514.708740	145.680000
514.802368	145.680000
514.896057	145.780000
514.989746	146.100000
515.083435	146.300000
515.177124	146.620000
515.270752	146.140000
515.364502	146.060000
515.458130	145.800000
515.551819	145.720000
515.645508	145.300000
515.739197	145.620000
515.832825	145.740000
515.926575	145.280000
516.020203	145.380000
516.113892	145.920000
516.207520	145.640000
516.301270	145.460000
516.394897	145.740000
516.488586	146.360000
516.582275	146.040000
516.675964	145.700000
516.769592	145.540000
516.863281	146.100000
516.956970	145.800000
517.050659	145.800000
517.144287	146.000000
517.238037	146.320000
517.331665	145.340000
517.425354	144.960000
517.519043	144.700000
517.612732	145.280000
517.706421	145.220000
517.800049	145.200000
517.893738	145.260000
517.987427	145.560000
518.081116	145.480000
518.174744	145.000000
518.268433	145.580000
518.362122	145.960000
518.455811	145.560000
518.549438	145.820000
518.643127	146.920000
518.736816	146.420000
518.830505	145.680000
518.924133	145.680000
519.017822	145.620000
519.111511	145.220000
519.205200	145.760000
519.298828	145.900000
519.392517	145.920000
519.486206	145.980000
519.579895	146.000000
519.673523	145.600000
519.767212	145.580000
519.860901	146.240000
519.954590	146.080000
520.048279	145.740000
520.141907	145.580000
520.235596	146.500000
520.329224	146.460000
520.422974	146.200000
520.516602	146.180000
520.610291	146.040000
520.703918	145.820000
520.797607	145.520000
520.891296	145.600000
520.984985	145.840000
521.078613	146.680000
521.172302	146.060000
521.265930	146.860000
521.359680	147.420000
521.453308	147.360000
521.546997	146.900000
521.640625	147.120000
521.734314	146.180000
521.827942	145.740000
521.921692	146.000000
522.015320	146.100000
522.109009	145.980000
522.202698	145.980000
522.296326	145.920000
522.390015	145.880000
522.483704	145.840000
522.577393	145.560000
522.671021	145.460000
522.764709	145.080000
522.858337	145.100000
522.952026	145.140000
523.045654	145.780000
523.139404	146.420000
523.233032	147.040000
523.326721	146.920000
523.420349	146.840000
523.514038	146.460000
523.607666	146.780000
523.701355	146.200000
523.795044	146.140000
523.888733	146.440000
523.982361	146.660000
524.076050	145.860000
524.169678	146.460000
524.263367	146.120000
524.356995	145.540000
524.450684	145.380000
524.544373	145.100000
524.638062	145.020000
524.731750	145.200000
524.825378	145.400000
524.919067	145.080000
525.012695	145.360000
525.106384	145.020000
525.200012	145.100000
525.293701	145.000000
525.387329	145.420000
525.481018	145.660000
525.574646	145.640000
525.668396	145.400000
525.762024	145.600000
525.855713	145.640000
525.949341	144.920000
526.043030	145.040000
526.136658	145.060000
526.230347	144.820000
526.323975	144.240000
526.417664	144.500000
526.511292	144.740000
526.604980	145.260000
526.698608	145.420000
526.792297	145.840000
526.885925	146.260000
526.979614	146.280000
527.073303	145.820000
527.166931	145.600000
527.260620	145.980000
527.354309	146.040000
527.447998	145.720000
527.541626	145.760000
527.635315	146.200000
527.728943	146.640000
527.822632	146.640000
527.916260	146.580000
528.009949	146.900000
528.103577	146.420000
528.197266	145.660000
528.290894	145.780000
528.384583	145.820000
528.478210	145.860000
528.571899	146.340000
528.665527	146.440000
528.759216	146.200000
528.852844	146.740000
528.946533	146.460000
529.040161	146.280000
529.133850	145.880000
529.227478	146.020000
529.321167	145.800000
529.414856	146.000000
529.508484	146.520000
529.602173	146.300000
529.695801	146.220000
529.789490	145.860000
529.883057	145.820000
529.976746	145.640000
530.070374	146.520000
530.164062	146.320000
530.257690	146.680000
530.351379	146.720000
530.445007	146.560000
530.538696	145.660000
530.632324	146.140000
530.726013	145.800000
530.819641	145.520000
530.913330	145.240000
531.006958	145.440000
531.100647	145.320000
531.194275	145.620000
531.287964	145.460000
531.381592	145.320000
531.475220	145.640000
531.568848	145.260000
531.662537	145.140000
531.756226	145.900000
531.849854	146.220000
531.943542	146.200000
532.037170	145.820000
532.130859	146.300000
532.224487	145.760000
532.318176	145.460000
532.411804	145.960000
532.505432	146.240000
532.599060	145.440000
532.692749	145.300000
532.786377	145.600000
532.880066	144.780000
532.973694	144.480000
533.067383	144.500000
533.161011	144.300000
533.254639	144.460000
533.348267	144.140000
533.441956	144.680000
533.535583	144.680000
533.629272	144.900000
533.722900	144.300000
533.816589	144.940000
533.910156	145.120000
534.003845	145.100000
534.097534	145.660000
534.191162	146.320000
534.284851	146.360000
534.378479	146.140000
534.472107	146.060000
534.565735	145.440000
534.659424	145.580000
534.753052	145.680000
534.846741	145.200000
534.940369	145.840000
535.033997	146.180000
535.127625	145.980000
535.221313	146.240000
535.314941	146.420000
535.408630	145.940000
535.502197	146.080000
535.595886	145.580000
535.689514	144.860000
535.783203	145.340000
535.876831	145.860000
535.970459	145.700000
536.064087	145.660000
536.157776	146.060000
536.251404	145.880000
536.345093	144.920000
536.438721	144.920000
536.532349	145.220000
536.626038	144.980000
536.719666	145.340000
536.813293	145.600000
536.906921	145.340000
537.000610	145.460000
537.094238	145.880000
537.187866	145.400000
537.281494	145.600000
537.375183	145.940000
537.468811	145.740000
537.562439	145.440000
537.656067	145.540000
537.749756	145.500000
537.843384	146.180000
537.937012	146.300000
538.030640	145.960000
538.124329	146.200000
538.217896	146.520000
538.311584	146.120000
538.405212	146.140000
538.498901	146.920000
538.592468	147.280000
538.686157	146.900000
538.779785	146.180000
538.873413	146.080000
538.967102	145.720000
539.060730	144.940000
539.154358	145.480000
539.247986	145.940000
539.341675	146.200000
539.435242	146.060000
539.528931	146.300000
539.622559	145.740000
539.716187	146.240000
539.809814	145.900000
539.903503	146.060000
539.997070	146.140000
540.090759	146.060000
540.184387	145.540000
540.278015	145.880000
540.371643	146.120000
540.465332	146.280000
540.558899	146.300000
540.652588	146.400000
540.746216	146.140000
540.839844	146.380000
540.933472	145.700000
541.027100	145.980000
541.120728	146.020000
541.214417	146.220000
541.308044	146.140000
541.401672	146.340000
541.495300	145.800000
541.588928	145.520000
541.682617	145.320000
541.776184	144.840000
541.869873	145.160000
541.963440	145.520000
542.057129	145.540000
542.150757	145.660000
542.244385	145.380000
542.338013	144.900000
542.431641	144.880000
542.525269	144.880000
542.618958	145.280000
542.712524	145.600000
542.806213	145.620000
542.899780	145.860000
542.993469	145.500000
543.087036	144.960000
543.180725	144.860000
543.274292	145.240000
543.367981	145.500000
543.461548	146.000000
543.555237	146.260000
543.648926	146.560000
543.742493	147.180000
543.836182	146.860000
543.929749	146.900000
544.023437	146.720000
544.117004	146.560000
544.210693	146.080000
544.304260	146.040000
544.397949	145.860000
544.491516	146.360000
544.585205	146.260000
544.678772	145.760000
544.772461	146.100000
544.866028	146.060000
544.959717	145.700000
545.053284	145.820000
545.146973	146.340000
545.240540	146.260000
545.334229	146.780000
545.427795	146.540000
545.521423	146.160000
545.615051	146.100000
545.708679	146.320000
545.802307	145.980000
545.895935	146.460000
545.989624	147.540000
546.083191	147.440000
546.176880	147.140000
546.270447	146.900000
546.364136	147.440000
546.457703	146.820000
546.551331	146.700000
546.644958	147.040000
546.738586	147.300000
546.832214	146.800000
546.925842	146.700000
547.019409	146.980000
547.113098	146.340000
547.206665	145.880000
547.300354	145.660000
547.393921	145.620000
547.487549	146.040000
547.581177	145.980000
547.674805	146.420000
547.768433	145.800000
547.862061	145.860000
547.955627	144.960000
548.049316	145.560000
548.142883	145.660000
548.236572	146.600000
548.330139	146.860000
548.423767	146.980000
548.517456	146.800000
548.611023	146.940000
548.704651	146.120000
548.798279	145.860000
548.891907	146.440000
548.985474	146.380000
549.079163	146.260000
549.172729	146.360000
549.266357	146.140000
549.359985	145.760000
549.453613	145.120000
549.547180	144.960000
549.640869	145.440000
549.734436	145.500000
549.828064	145.780000
549.921631	146.080000
550.015320	145.660000
550.108887	145.800000
550.202515	146.000000
550.296143	145.700000
550.389771	145.820000
550.483337	146.140000
550.576965	145.900000
550.670593	146.180000
550.764221	146.460000
550.857849	146.320000
550.951477	145.800000
551.045105	145.440000
551.138672	145.320000
551.232300	144.960000
551.325928	145.240000
551.419556	145.820000
551.513123	146.020000
551.606750	145.640000
551.700378	145.680000
551.794006	145.600000
551.887573	145.580000
551.981201	145.820000
552.074768	145.940000
552.168457	145.660000
552.262024	146.320000
552.355652	146.280000
552.449219	146.760000
552.542847	146.960000
552.636475	146.900000
552.730103	145.820000
552.823669	145.600000
552.917297	144.860000
553.010864	144.800000
553.104553	145.420000
553.198181	145.620000
553.291748	146.100000
553.385376	146.420000
553.478943	146.400000
553.572571	146.260000
553.666199	146.540000
553.759827	146.060000
553.853394	145.440000
553.947021	145.320000
554.040588	145.260000
554.134216	145.280000
554.227783	146.020000
554.321411	146.700000
554.415039	146.220000
554.508667	146.300000
554.602234	146.600000
554.695862	146.060000
554.789429	145.980000
554.883057	146.280000
554.976624	145.980000
555.070251	145.520000
555.163818	145.280000
555.257507	145.140000
555.351074	145.240000
555.444702	146.280000
555.538330	146.040000
555.631897	146.560000
555.725525	146.680000
555.819092	146.460000
555.912720	145.460000
556.006287	145.980000
556.099915	145.540000
556.193481	145.560000
556.287109	145.780000
556.380676	145.640000
556.474304	145.720000
556.567871	146.280000
556.661499	145.500000
556.755066	145.600000
556.848694	145.860000
556.942261	145.760000
557.035889	145.620000
557.129517	146.300000
557.223145	146.740000
557.316711	146.820000
557.410339	146.740000
557.503906	146.560000
557.597473	146.660000
557.691040	146.000000
557.784668	146.140000
557.878296	146.260000
557.971863	146.360000
558.065491	146.500000
558.159058	146.360000
558.252686	146.840000
558.346252	147.160000
558.439880	146.720000
558.533447	146.280000
558.627075	146.340000
558.720642	145.660000
558.814270	145.580000
558.907837	145.760000
559.001465	145.660000
559.095032	146.520000
559.188660	147.160000
559.282227	146.340000
559.375854	147.140000
559.469360	147.080000
559.562988	147.200000
559.656555	146.600000
559.750183	147.260000
559.843750	147.040000
559.937378	146.980000
560.030945	146.340000
560.124573	0.000000
560.218140	0.000000
560.311707	0.000000
560.405334	0.000000
560.498901	0.000000
560.592529	0.000000
560.686096	0.000000
560.779724	0.000000
560.873291	0.000000
560.966858	0.000000
561.060425	0.000000
561.154053	0.000000
561.247620	0.000000
561.341248	0.000000
561.434814	0.000000
561.528381	0.000000
561.621948	0.000000
561.715576	0.000000
561.809143	0.000000
561.902771	0.000000
561.996277	0.000000
562.089905	0.000000
562.183472	0.000000
562.277100	0.000000
