Model Number: SPM-002-B   
Serial Number: 70087108
Firmware Version: 004.15.4
Exposure Time: 100000.000000us
Data Taken on: 11-12-2020 18:45:42.322
Wavelength	Amplitude
221.570786	0.000000
221.663406	0.000000
221.756027	0.000000
221.848648	0.000000
221.941269	0.000000
222.033905	0.000000
222.126526	0.000000
222.219162	0.000000
222.311798	0.000000
222.404419	0.000000
222.497055	0.000000
222.589676	0.000000
222.682312	0.000000
222.774933	0.000000
222.867569	0.000000
222.960205	0.000000
223.052841	0.000000
223.145462	0.000000
223.238098	0.000000
223.330734	0.000000
223.423386	0.000000
223.516022	0.000000
223.608658	0.000000
223.701309	0.000000
223.793945	0.000000
223.886581	0.000000
223.979218	0.000000
224.071869	0.000000
224.164505	0.000000
224.257156	0.000000
224.349792	0.000000
224.442444	0.000000
224.535095	0.000000
224.627747	0.000000
224.720398	0.000000
224.813034	0.000000
224.905685	0.000000
224.998337	145.000000
225.090988	145.120000
225.183640	145.140000
225.276291	145.280000
225.368942	145.640000
225.461594	146.140000
225.554245	146.540000
225.646912	146.200000
225.739578	146.600000
225.832230	147.180000
225.924896	146.300000
226.017548	146.400000
226.110199	147.280000
226.202866	146.520000
226.295532	145.940000
226.388184	146.380000
226.480850	145.980000
226.573517	145.360000
226.666168	145.820000
226.758835	146.340000
226.851501	146.660000
226.944183	146.620000
227.036850	146.060000
227.129517	146.040000
227.222183	146.020000
227.314850	145.920000
227.407516	146.280000
227.500198	147.400000
227.592865	146.580000
227.685532	146.140000
227.778214	145.940000
227.870880	146.080000
227.963562	146.240000
228.056229	146.960000
228.148926	146.860000
228.241592	147.600000
228.334274	147.020000
228.426956	146.580000
228.519638	146.620000
228.612305	146.440000
228.704987	146.060000
228.797668	146.340000
228.890350	145.920000
228.983032	145.500000
229.075714	146.080000
229.168396	145.800000
229.261108	145.460000
229.353790	145.540000
229.446472	145.580000
229.539169	145.220000
229.631851	144.880000
229.724533	145.020000
229.817230	145.300000
229.909912	146.460000
230.002609	146.580000
230.095306	146.780000
230.187988	146.880000
230.280685	146.760000
230.373383	145.460000
230.466095	145.400000
230.558792	145.640000
230.651474	145.480000
230.744171	145.320000
230.836868	145.600000
230.929581	145.660000
231.022278	145.780000
231.114975	146.040000
231.207672	145.780000
231.300369	146.040000
231.393082	146.080000
231.485779	145.480000
231.578506	145.200000
231.671204	145.820000
231.763916	145.860000
231.856613	145.840000
231.949326	146.520000
232.042023	146.660000
232.134735	146.180000
232.227448	145.660000
232.320160	145.620000
232.412872	145.740000
232.505585	146.420000
232.598297	146.840000
232.691010	146.800000
232.783722	146.580000
232.876450	146.840000
232.969162	146.260000
233.061874	145.680000
233.154587	145.560000
233.247314	145.840000
233.340027	145.120000
233.432739	145.560000
233.525467	145.620000
233.618179	146.160000
233.710907	145.800000
233.803635	146.140000
233.896347	145.720000
233.989090	146.420000
234.081818	146.080000
234.174545	146.360000
234.267258	145.760000
234.359985	145.820000
234.452713	145.660000
234.545441	145.300000
234.638168	145.120000
234.730896	145.660000
234.823639	145.600000
234.916367	145.920000
235.009094	146.320000
235.101822	146.540000
235.194580	146.420000
235.287308	146.240000
235.380051	145.660000
235.472778	145.800000
235.565521	145.840000
235.658249	145.560000
235.750992	145.660000
235.843719	145.740000
235.936462	146.060000
236.029205	145.440000
236.121948	145.340000
236.214691	145.800000
236.307449	146.440000
236.400192	145.580000
236.492935	145.660000
236.585678	146.040000
236.678421	146.080000
236.771164	145.420000
236.863907	146.260000
236.956665	146.640000
237.049408	148.160000
237.142151	147.380000
237.234909	148.280000
237.327652	148.140000
237.420410	147.760000
237.513153	146.420000
237.605927	146.560000
237.698669	145.720000
237.791428	145.220000
237.884186	145.820000
237.976944	145.480000
238.069702	146.060000
238.162445	145.600000
238.255203	145.980000
238.347961	146.020000
238.440720	145.820000
238.533478	145.220000
238.626266	145.120000
238.719025	145.260000
238.811783	145.120000
238.904541	145.100000
238.997314	145.420000
239.090073	145.540000
239.182831	145.640000
239.275604	146.400000
239.368362	146.520000
239.461136	146.360000
239.553909	146.580000
239.646667	145.940000
239.739441	145.380000
239.832214	145.820000
239.925003	145.840000
240.017761	146.440000
240.110535	147.120000
240.203308	146.840000
240.296082	146.720000
240.388855	146.760000
240.481628	146.660000
240.574417	146.820000
240.667191	146.560000
240.759964	146.260000
240.852737	146.480000
240.945526	146.200000
241.038315	145.860000
241.131088	146.240000
241.223877	146.280000
241.316650	145.440000
241.409439	145.560000
241.502228	145.220000
241.595001	145.740000
241.687790	145.920000
241.780579	146.400000
241.873367	146.300000
241.966141	146.460000
242.058929	145.560000
242.151718	145.540000
242.244507	145.800000
242.337311	145.300000
242.430099	145.960000
242.522903	146.500000
242.615692	146.420000
242.708481	146.260000
242.801270	146.920000
242.894073	146.440000
242.986862	146.480000
243.079651	147.040000
243.172455	146.980000
243.265244	146.820000
243.358063	146.180000
243.450867	146.180000
243.543655	145.560000
243.636459	145.900000
243.729263	146.240000
243.822067	146.640000
243.914856	147.120000
244.007660	147.360000
244.100464	147.020000
244.193268	146.540000
244.286072	146.660000
244.378876	145.780000
244.471680	145.260000
244.564499	145.660000
244.657318	146.080000
244.750122	146.300000
244.842926	145.820000
244.935745	146.500000
245.028549	146.300000
245.121368	146.220000
245.214172	146.140000
245.306992	146.760000
245.399796	146.280000
245.492615	145.960000
245.585434	145.780000
245.678253	145.560000
245.771072	145.440000
245.863892	145.940000
245.956711	146.260000
246.049530	146.200000
246.142349	146.120000
246.235168	146.260000
246.327988	146.520000
246.420807	146.540000
246.513626	146.680000
246.606445	146.460000
246.699280	146.080000
246.792099	145.720000
246.884918	145.120000
246.977753	144.580000
247.070587	145.060000
247.163422	145.460000
247.256241	145.320000
247.349075	146.040000
247.441895	146.300000
247.534729	146.260000
247.627563	145.660000
247.720383	146.280000
247.813217	146.000000
247.906052	145.720000
247.998886	145.740000
248.091736	146.140000
248.184570	145.520000
248.277405	145.620000
248.370239	146.440000
248.463074	147.100000
248.555908	147.220000
248.648743	147.240000
248.741592	147.320000
248.834427	146.660000
248.927261	145.700000
249.020111	146.240000
249.112946	146.740000
249.205795	146.020000
249.298630	146.100000
249.391495	146.120000
249.484344	145.540000
249.577179	145.240000
249.670029	145.900000
249.762878	146.560000
249.855728	146.640000
249.948563	146.960000
250.041412	146.580000
250.134262	146.800000
250.227112	146.720000
250.319962	146.640000
250.412827	146.460000
250.505692	146.320000
250.598541	145.920000
250.691391	145.420000
250.784241	145.600000
250.877106	145.820000
250.969955	145.660000
251.062805	146.260000
251.155670	146.920000
251.248520	146.760000
251.341385	146.780000
251.434235	146.900000
251.527100	146.420000
251.619965	145.800000
251.712814	146.340000
251.805695	146.100000
251.898560	146.480000
251.991425	146.680000
252.084290	146.940000
252.177155	146.480000
252.270020	146.860000
252.362885	146.740000
252.455750	146.880000
252.548615	146.500000
252.641479	146.360000
252.734360	145.740000
252.827240	145.660000
252.920105	145.340000
253.012970	145.280000
253.105850	145.280000
253.198715	145.240000
253.291595	145.280000
253.384460	145.060000
253.477341	144.920000
253.570221	145.220000
253.663086	145.040000
253.755966	145.620000
253.848846	145.700000
253.941727	146.200000
254.034592	146.020000
254.127472	145.680000
254.220367	145.300000
254.313248	145.600000
254.406128	145.100000
254.499008	145.420000
254.591904	146.560000
254.684784	147.100000
254.777664	146.740000
254.870544	146.600000
254.963440	146.380000
255.056335	146.100000
255.149216	145.140000
255.242111	145.800000
255.334991	146.720000
255.427887	146.660000
255.520767	146.580000
255.613663	146.980000
255.706558	146.440000
255.799438	145.700000
255.892334	145.480000
255.985229	145.380000
256.078125	145.340000
256.171021	145.420000
256.263916	145.800000
256.356812	146.080000
256.449707	146.480000
256.542603	146.060000
256.635498	146.460000
256.728394	146.420000
256.821289	146.260000
256.914215	146.120000
257.007080	146.780000
257.100006	146.600000
257.192932	146.980000
257.285828	147.040000
257.378723	146.580000
257.471619	146.360000
257.564545	146.080000
257.657440	145.600000
257.750336	146.080000
257.843262	146.000000
257.936157	147.000000
258.029053	147.320000
258.121979	147.660000
258.214874	147.220000
258.307800	147.080000
258.400696	145.840000
258.493622	145.380000
258.586517	144.580000
258.679443	145.060000
258.772339	145.100000
258.865265	144.880000
258.958160	144.800000
259.051086	145.740000
259.144012	145.380000
259.236938	146.360000
259.329834	146.740000
259.422791	146.820000
259.515717	146.260000
259.608612	145.900000
259.701538	145.480000
259.794464	145.240000
259.887390	145.120000
259.980316	144.780000
260.073212	145.040000
260.166138	144.400000
260.259064	144.940000
260.351990	145.760000
260.444916	146.120000
260.537842	146.380000
260.630768	147.100000
260.723694	146.940000
260.816620	146.320000
260.909546	146.180000
261.002472	145.740000
261.095398	145.040000
261.188354	144.880000
261.281281	144.780000
261.374207	145.200000
261.467133	145.820000
261.560089	146.380000
261.653015	146.300000
261.745972	147.160000
261.838867	147.300000
261.931824	147.540000
262.024780	147.340000
262.117706	147.380000
262.210663	147.080000
262.303589	146.820000
262.396515	146.380000
262.489471	147.000000
262.582397	147.060000
262.675354	146.420000
262.768280	146.620000
262.861237	146.860000
262.954163	146.140000
263.047119	146.180000
263.140045	146.240000
263.233002	145.960000
263.325958	145.520000
263.418884	145.540000
263.511841	145.580000
263.604797	145.600000
263.697723	145.600000
263.790680	145.980000
263.883636	146.560000
263.976593	146.400000
264.069550	146.580000
264.162476	146.160000
264.255463	145.820000
264.348419	145.080000
264.441376	145.480000
264.534332	145.300000
264.627289	145.680000
264.720245	146.240000
264.813202	146.060000
264.906158	145.880000
264.999115	146.380000
265.092072	146.300000
265.185028	146.640000
265.277985	147.080000
265.370941	147.220000
265.463898	146.860000
265.556854	146.980000
265.649811	145.720000
265.742798	145.980000
265.835754	145.940000
265.928711	146.300000
266.021667	146.260000
266.114655	146.800000
266.207611	146.680000
266.300568	145.960000
266.393585	145.480000
266.486511	145.920000
266.579498	145.140000
266.672485	145.100000
266.765442	145.420000
266.858429	145.700000
266.951385	145.080000
267.044342	145.380000
267.137329	144.980000
267.230316	145.060000
267.323273	144.560000
267.416260	145.200000
267.509216	145.260000
267.602203	145.660000
267.695160	146.280000
267.788147	146.460000
267.881134	145.840000
267.974091	146.080000
268.067078	145.960000
268.160065	145.440000
268.253052	145.360000
268.346008	145.660000
268.438995	145.400000
268.531982	145.520000
268.624969	145.600000
268.717987	146.220000
268.810944	145.880000
268.903961	146.020000
268.996948	145.680000
269.089905	146.160000
269.182892	145.860000
269.275879	146.160000
269.368866	145.800000
269.461853	146.080000
269.554871	145.720000
269.647858	145.520000
269.740845	145.660000
269.833832	146.000000
269.926819	145.600000
270.019806	145.560000
270.112793	145.360000
270.205811	145.640000
270.298798	145.620000
270.391785	146.320000
270.484772	146.020000
270.577789	146.340000
270.670776	145.580000
270.763763	145.500000
270.856750	145.420000
270.949768	145.440000
271.042786	145.620000
271.135773	146.180000
271.228790	146.740000
271.321808	146.180000
271.414795	145.860000
271.507782	145.560000
271.600800	145.200000
271.693817	144.960000
271.786804	145.480000
271.879822	145.740000
271.972809	145.840000
272.065826	146.000000
272.158844	145.440000
272.251831	145.840000
272.344849	145.980000
272.437866	145.580000
272.530853	145.780000
272.623871	146.340000
272.716888	145.440000
272.809906	145.940000
272.902893	146.400000
272.995911	145.840000
273.088928	145.400000
273.181946	145.700000
273.274963	144.900000
273.367981	144.640000
273.460999	144.520000
273.554047	145.440000
273.647003	145.820000
273.740051	146.340000
273.833069	146.680000
273.926086	147.280000
274.019135	146.740000
274.112152	146.500000
274.205170	146.140000
274.298187	146.320000
274.391205	145.880000
274.484222	145.940000
274.577240	145.720000
274.670258	145.780000
274.763306	145.340000
274.856323	145.520000
274.949341	145.520000
275.042358	146.120000
275.135406	146.080000
275.228424	146.200000
275.321442	146.240000
275.414490	145.800000
275.507507	145.900000
275.600525	146.200000
275.693573	146.020000
275.786591	145.760000
275.879669	146.160000
275.972656	145.640000
276.065735	145.440000
276.158752	145.840000
276.251801	146.420000
276.344818	146.700000
276.437866	146.740000
276.530884	146.720000
276.623932	145.940000
276.716980	146.240000
276.809998	145.940000
276.903046	146.120000
276.996094	146.800000
277.089111	147.660000
277.182159	147.760000
277.275208	147.500000
277.368256	147.240000
277.461304	146.660000
277.554321	145.920000
277.647369	145.840000
277.740417	146.080000
277.833466	146.380000
277.926514	146.320000
278.019562	147.080000
278.112610	146.180000
278.205688	146.500000
278.298706	146.280000
278.391785	146.340000
278.484833	145.860000
278.577881	145.860000
278.670929	145.800000
278.763977	145.860000
278.857025	146.400000
278.950073	146.400000
279.043121	146.640000
279.136169	146.520000
279.229248	146.140000
279.322296	145.800000
279.415344	145.600000
279.508392	145.700000
279.601440	145.620000
279.694519	145.680000
279.787567	145.560000
279.880615	145.580000
279.973694	145.420000
280.066742	145.300000
280.159790	145.640000
280.252869	145.340000
280.345917	145.520000
280.438995	145.500000
280.532074	145.440000
280.625122	145.740000
280.718201	146.740000
280.811279	146.860000
280.904327	146.860000
280.997406	147.140000
281.090454	147.040000
281.183533	145.980000
281.276581	145.740000
281.369659	145.400000
281.462738	145.440000
281.555786	145.320000
281.648865	145.360000
281.741943	145.640000
281.835022	146.360000
281.928070	146.020000
282.021149	145.640000
282.114227	145.720000
282.207306	145.580000
282.300385	145.520000
282.393433	145.600000
282.486511	145.460000
282.579590	145.860000
282.672668	146.160000
282.765747	145.640000
282.858856	145.460000
282.951904	146.160000
283.045013	146.460000
283.138062	146.640000
283.231171	147.400000
283.324249	147.860000
283.417328	147.600000
283.510406	147.080000
283.603485	146.840000
283.696564	146.460000
283.789642	146.240000
283.882751	145.800000
283.975830	146.280000
284.068909	145.740000
284.161987	146.200000
284.255066	145.780000
284.348175	146.400000
284.441254	146.060000
284.534332	146.680000
284.627441	146.100000
284.720520	146.100000
284.813599	145.760000
284.906708	145.760000
284.999786	145.140000
285.092896	144.780000
285.185974	145.620000
285.279053	145.560000
285.372192	145.820000
285.465240	146.900000
285.558380	147.160000
285.651459	146.800000
285.744568	147.520000
285.837677	146.860000
285.930756	146.440000
286.023865	146.720000
286.116943	146.360000
286.210052	145.960000
286.303162	146.500000
286.396240	146.180000
286.489349	145.800000
286.582458	146.320000
286.675568	146.240000
286.768646	146.220000
286.861755	146.780000
286.954865	147.640000
287.047974	147.000000
287.141083	146.920000
287.234161	146.600000
287.327271	146.380000
287.420380	146.540000
287.513519	146.700000
287.606598	146.600000
287.699738	146.900000
287.792816	146.600000
287.885956	146.280000
287.979034	146.400000
288.072174	146.560000
288.165283	146.180000
288.258392	146.520000
288.351501	145.760000
288.444611	145.880000
288.537720	146.320000
288.630859	146.300000
288.723969	146.160000
288.817078	146.740000
288.910187	146.620000
289.003296	145.840000
289.096436	145.800000
289.189545	145.620000
289.282654	145.000000
289.375763	145.480000
289.468903	146.040000
289.562012	146.160000
289.655121	146.240000
289.748260	146.460000
289.841400	146.560000
289.934509	146.460000
290.027649	146.580000
290.120728	146.560000
290.213898	146.760000
290.306976	146.340000
290.400146	146.480000
290.493256	146.240000
290.586395	146.420000
290.679535	146.640000
290.772644	146.500000
290.865784	145.780000
290.958893	145.720000
291.052032	145.360000
291.145172	145.080000
291.238281	145.080000
291.331421	145.000000
291.424561	145.560000
291.517670	145.360000
291.610809	145.700000
291.703949	145.540000
291.797089	146.020000
291.890228	145.500000
291.983337	145.800000
292.076477	145.580000
292.169617	145.980000
292.262756	145.880000
292.355927	145.720000
292.449036	145.600000
292.542206	145.460000
292.635315	145.380000
292.728485	145.720000
292.821625	145.780000
292.914764	146.860000
293.007904	147.260000
293.101044	147.100000
293.194183	146.780000
293.287323	146.980000
293.380463	146.240000
293.473602	146.020000
293.566742	146.280000
293.659882	146.920000
293.753021	147.000000
293.846191	146.660000
293.939331	146.140000
294.032471	145.780000
294.125610	145.020000
294.218781	145.480000
294.311920	145.960000
294.405060	146.440000
294.498230	146.660000
294.591370	146.680000
294.684540	145.720000
294.777679	145.140000
294.870850	145.340000
294.963959	145.220000
295.057159	145.480000
295.150299	145.980000
295.243469	145.920000
295.336609	145.120000
295.429779	144.920000
295.522919	145.140000
295.616089	144.900000
295.709229	145.880000
295.802399	146.320000
295.895569	146.500000
295.988708	146.120000
296.081879	146.460000
296.175018	145.520000
296.268188	145.540000
296.361359	145.780000
296.454529	145.960000
296.547668	145.940000
296.640839	146.420000
296.734009	146.180000
296.827179	146.280000
296.920319	146.340000
297.013519	146.120000
297.106659	146.280000
297.199860	146.420000
297.292999	146.140000
297.386200	145.780000
297.479309	145.660000
297.572510	145.300000
297.665680	144.920000
297.758850	145.240000
297.852020	145.260000
297.945190	145.200000
298.038361	145.140000
298.131531	146.260000
298.224701	145.920000
298.317871	145.620000
298.411072	145.420000
298.504242	145.300000
298.597412	144.840000
298.690582	145.300000
298.783752	145.640000
298.876923	146.200000
298.970093	146.260000
299.063293	146.240000
299.156464	146.100000
299.249634	146.440000
299.342834	146.600000
299.436005	147.120000
299.529205	147.160000
299.622345	147.220000
299.715576	146.480000
299.808716	146.180000
299.901917	145.860000
299.995117	146.320000
300.088287	146.340000
300.181488	146.380000
300.274658	146.400000
300.367828	146.460000
300.461029	145.960000
300.554199	146.020000
300.647400	146.280000
300.740601	146.600000
300.833771	146.780000
300.926971	146.840000
301.020142	146.220000
301.113342	146.080000
301.206512	145.680000
301.299713	145.700000
301.392914	145.740000
301.486084	146.280000
301.579285	146.560000
301.672516	147.300000
301.765686	146.820000
301.858887	146.560000
301.952057	146.280000
302.045288	146.060000
302.138458	145.620000
302.231659	145.480000
302.324860	145.740000
302.418060	145.540000
302.511261	145.660000
302.604462	145.840000
302.697662	146.060000
302.790863	145.980000
302.884064	145.820000
302.977264	145.900000
303.070465	145.820000
303.163666	146.100000
303.256866	146.080000
303.350067	146.360000
303.443268	146.460000
303.536469	146.160000
303.629669	145.700000
303.722870	145.720000
303.816071	145.500000
303.909271	145.320000
304.002472	144.800000
304.095673	144.840000
304.188934	144.120000
304.282104	145.000000
304.375336	145.280000
304.468506	145.680000
304.561768	145.600000
304.654968	146.600000
304.748169	145.920000
304.841370	145.400000
304.934601	145.700000
305.027802	145.520000
305.121002	144.840000
305.214233	145.140000
305.307434	145.180000
305.400665	145.440000
305.493866	145.400000
305.587097	145.980000
305.680298	145.480000
305.773499	146.160000
305.866730	145.880000
305.959930	146.760000
306.053162	146.560000
306.146393	146.440000
306.239594	145.500000
306.332825	145.440000
306.426025	145.500000
306.519287	145.200000
306.612488	145.520000
306.705719	146.040000
306.798920	146.160000
306.892181	145.560000
306.985352	145.160000
307.078613	144.780000
307.171844	145.200000
307.265045	144.600000
307.358276	144.480000
307.451508	145.160000
307.544739	145.840000
307.637970	145.280000
307.731201	145.500000
307.824402	146.060000
307.917633	146.180000
308.010864	146.420000
308.104095	146.760000
308.197327	146.980000
308.290558	146.780000
308.383789	146.420000
308.477020	145.920000
308.570251	145.140000
308.663483	144.900000
308.756714	144.720000
308.849976	144.900000
308.943176	145.320000
309.036438	145.340000
309.129639	145.180000
309.222900	145.180000
309.316101	144.920000
309.409393	144.380000
309.502625	144.620000
309.595856	144.680000
309.689087	144.640000
309.782318	144.700000
309.875580	144.820000
309.968811	144.820000
310.062042	144.680000
310.155273	144.640000
310.248535	145.320000
310.341766	145.120000
310.434998	145.060000
310.528259	145.220000
310.621490	145.920000
310.714722	145.060000
310.807983	145.180000
310.901215	145.360000
310.994476	145.400000
311.087708	144.660000
311.181000	145.140000
311.274200	145.000000
311.367462	145.120000
311.460693	145.100000
311.553986	145.780000
311.647186	145.760000
311.740479	146.500000
311.833710	146.100000
311.926971	145.960000
312.020203	145.140000
312.113464	144.940000
312.206726	143.900000
312.299957	144.300000
312.393219	144.860000
312.486481	145.040000
312.579712	145.300000
312.672974	145.800000
312.766235	145.640000
312.859497	145.560000
312.952759	145.600000
313.045990	145.980000
313.139252	145.620000
313.232513	146.000000
313.325775	145.780000
313.419037	145.680000
313.512299	144.740000
313.605530	145.260000
313.698822	145.400000
313.792053	145.580000
313.885345	145.340000
313.978577	146.020000
314.071869	145.520000
314.165131	145.300000
314.258392	145.640000
314.351654	145.960000
314.444916	145.120000
314.538177	145.700000
314.631439	145.900000
314.724701	145.420000
314.817993	145.260000
314.911255	145.780000
315.004517	145.220000
315.097778	144.940000
315.191040	145.320000
315.284302	145.540000
315.377594	145.280000
315.470856	145.480000
315.564117	145.100000
315.657379	144.500000
315.750671	144.280000
315.843933	144.740000
315.937195	144.420000
316.030518	143.960000
316.123749	144.180000
316.217041	144.920000
316.310303	144.620000
316.403595	144.940000
316.496857	145.760000
316.590149	146.000000
316.683411	145.120000
316.776703	144.820000
316.869965	144.680000
316.963257	144.260000
317.056519	143.560000
317.149811	143.820000
317.243073	143.980000
317.336365	144.060000
317.429626	144.420000
317.522919	145.240000
317.616180	145.040000
317.709473	144.920000
317.802765	144.920000
317.896027	144.740000
317.989319	144.640000
318.082611	144.800000
318.175873	144.460000
318.269165	144.540000
318.362488	144.680000
318.455750	144.340000
318.549042	144.520000
318.642303	145.720000
318.735626	145.420000
318.828888	145.500000
318.922211	145.220000
319.015472	146.000000
319.108765	144.960000
319.202057	145.020000
319.295349	144.960000
319.388641	145.080000
319.481934	144.360000
319.575226	144.620000
319.668518	144.840000
319.761810	145.260000
319.855103	145.520000
319.948395	145.400000
320.041687	145.620000
320.134979	145.600000
320.228271	145.180000
320.321564	145.040000
320.414856	145.060000
320.508148	144.600000
320.601440	144.720000
320.694763	144.620000
320.788025	145.160000
320.881348	144.960000
320.974640	145.320000
321.067963	144.980000
321.161224	145.220000
321.254547	144.540000
321.347839	145.280000
321.441162	144.880000
321.534454	145.180000
321.627747	144.620000
321.721069	145.380000
321.814362	145.180000
321.907654	145.440000
322.000946	145.040000
322.094269	145.960000
322.187561	145.360000
322.280884	145.620000
322.374176	145.760000
322.467468	146.500000
322.560791	146.200000
322.654083	146.600000
322.747406	146.580000
322.840698	147.020000
322.934021	147.080000
323.027344	147.020000
323.120636	146.700000
323.213959	146.400000
323.307251	145.660000
323.400574	145.060000
323.493866	144.780000
323.587219	145.040000
323.680511	145.400000
323.773834	145.920000
323.867157	146.420000
323.960449	146.780000
324.053772	146.900000
324.147095	146.280000
324.240387	146.220000
324.333710	146.140000
324.427032	146.100000
324.520355	145.700000
324.613647	145.760000
324.706970	145.700000
324.800293	145.400000
324.893616	145.640000
324.986938	146.000000
325.080231	145.660000
325.173553	146.120000
325.266876	146.600000
325.360199	146.300000
325.453522	145.780000
325.546875	145.980000
325.640167	145.940000
325.733521	145.860000
325.826813	146.340000
325.920166	146.240000
326.013489	146.300000
326.106812	145.320000
326.200134	144.700000
326.293457	144.080000
326.386780	144.180000
326.480103	144.140000
326.573425	144.500000
326.666748	145.020000
326.760071	145.640000
326.853424	145.940000
326.946747	146.160000
327.040070	146.720000
327.133392	146.320000
327.226715	145.280000
327.320068	144.860000
327.413391	145.400000
327.506714	144.720000
327.600037	144.520000
327.693390	145.220000
327.786713	145.340000
327.880066	144.760000
327.973358	145.080000
328.066742	145.380000
328.160034	145.500000
328.253418	146.200000
328.346710	146.040000
328.440063	145.460000
328.533417	145.580000
328.626740	145.460000
328.720093	144.680000
328.813416	144.760000
328.906769	145.120000
329.000092	145.180000
329.093445	144.700000
329.186768	144.960000
329.280121	145.360000
329.373444	145.740000
329.466797	145.620000
329.560120	146.000000
329.653473	145.860000
329.746796	145.500000
329.840149	145.000000
329.933502	145.180000
330.026825	144.720000
330.120178	144.860000
330.213562	144.620000
330.306854	145.060000
330.400238	144.860000
330.493561	144.860000
330.586945	145.560000
330.680237	146.100000
330.773621	146.080000
330.866974	146.160000
330.960327	146.680000
331.053680	146.140000
331.147003	146.020000
331.240356	146.180000
331.333710	146.320000
331.427063	145.700000
331.520416	145.640000
331.613770	145.800000
331.707123	145.640000
331.800476	145.660000
331.893829	147.020000
331.987152	147.180000
332.080505	146.840000
332.173859	146.920000
332.267212	146.360000
332.360565	145.480000
332.453918	145.200000
332.547333	145.020000
332.640656	144.920000
332.734039	145.220000
332.827362	145.100000
332.920746	145.260000
333.014069	145.480000
333.107452	145.960000
333.200806	146.260000
333.294159	146.740000
333.387543	146.440000
333.480896	146.160000
333.574249	145.800000
333.667603	145.180000
333.760956	144.940000
333.854340	145.280000
333.947693	145.380000
334.041046	145.340000
334.134430	146.100000
334.227783	145.580000
334.321136	145.300000
334.414520	145.060000
334.507874	145.160000
334.601227	144.840000
334.694611	145.200000
334.787964	145.440000
334.881348	145.820000
334.974701	145.760000
335.068085	145.300000
335.161438	145.660000
335.254822	145.100000
335.348175	145.320000
335.441559	144.600000
335.534943	145.920000
335.628296	145.640000
335.721680	145.900000
335.815033	146.080000
335.908417	146.740000
336.001770	146.060000
336.095154	145.940000
336.188538	145.900000
336.281891	145.100000
336.375275	144.760000
336.468658	144.180000
336.562012	144.220000
336.655396	144.620000
336.748779	145.200000
336.842133	145.300000
336.935516	146.040000
337.028900	145.700000
337.122284	145.360000
337.215637	145.320000
337.309021	145.420000
337.402435	144.900000
337.495789	145.200000
337.589203	145.280000
337.682526	145.160000
337.775940	145.120000
337.869324	145.280000
337.962708	145.180000
338.056091	145.740000
338.149475	145.380000
338.242859	145.460000
338.336243	145.160000
338.429626	145.580000
338.523010	145.100000
338.616394	145.300000
338.709778	145.340000
338.803162	145.860000
338.896545	145.940000
338.989929	145.620000
339.083313	145.860000
339.176697	145.780000
339.270081	145.460000
339.363464	145.700000
339.456848	146.440000
339.550232	145.680000
339.643616	145.580000
339.737030	145.760000
339.830383	144.960000
339.923828	144.680000
340.017181	145.380000
340.110596	145.360000
340.203949	145.100000
340.297363	145.140000
340.390778	145.240000
340.484161	144.820000
340.577545	144.740000
340.670959	145.000000
340.764343	145.000000
340.857727	144.860000
340.951111	144.720000
341.044525	145.100000
341.137909	144.900000
341.231293	144.920000
341.324707	144.500000
341.418091	145.580000
341.511505	145.220000
341.604889	145.620000
341.698303	146.200000
341.791687	146.360000
341.885071	145.440000
341.978485	145.480000
342.071899	145.240000
342.165283	145.080000
342.258698	145.740000
342.352081	146.420000
342.445496	147.020000
342.538879	146.960000
342.632324	146.520000
342.725708	146.180000
342.819122	145.540000
342.912506	144.920000
343.005920	144.820000
343.099335	145.940000
343.192719	145.700000
343.286133	145.780000
343.379547	146.160000
343.472931	146.360000
343.566345	145.280000
343.659760	145.660000
343.753143	145.440000
343.846558	144.840000
343.939972	144.820000
344.033386	145.380000
344.126770	145.220000
344.220184	145.580000
344.313599	146.060000
344.407043	146.120000
344.500427	145.660000
344.593872	145.780000
344.687225	145.380000
344.780670	145.260000
344.874054	145.280000
344.967499	145.920000
345.060913	146.080000
345.154327	146.440000
345.247742	146.420000
345.341156	146.420000
345.434570	145.700000
345.527985	145.420000
345.621399	145.360000
345.714813	145.200000
345.808228	145.200000
345.901642	145.060000
345.995056	144.640000
346.088470	144.780000
346.181885	145.160000
346.275299	144.800000
346.368713	144.820000
346.462128	144.860000
346.555573	144.800000
346.648987	144.880000
346.742401	145.040000
346.835815	145.600000
346.929260	145.580000
347.022644	145.620000
347.116119	145.400000
347.209503	145.760000
347.302948	146.560000
347.396362	147.180000
347.489807	147.480000
347.583221	148.160000
347.676636	147.520000
347.770050	146.280000
347.863495	145.640000
347.956909	145.260000
348.050323	144.480000
348.143768	144.880000
348.237183	144.680000
348.330597	145.180000
348.424042	145.780000
348.517456	146.200000
348.610901	146.260000
348.704315	146.380000
348.797760	145.880000
348.891174	144.980000
348.984619	144.360000
349.078033	144.280000
349.171448	144.840000
349.264923	145.180000
349.358337	145.340000
349.451782	145.420000
349.545197	145.020000
349.638641	144.300000
349.732086	143.820000
349.825500	144.040000
349.918945	143.820000
350.012390	144.540000
350.105804	145.080000
350.199249	145.560000
350.292664	145.920000
350.386108	146.220000
350.479553	146.400000
350.572968	146.420000
350.666412	146.660000
350.759857	146.360000
350.853302	146.820000
350.946716	146.240000
351.040161	146.120000
351.133606	145.800000
351.227081	145.820000
351.320465	146.100000
351.413940	146.380000
351.507355	146.660000
351.600830	147.060000
351.694244	147.000000
351.787720	146.660000
351.881104	146.480000
351.974579	145.940000
352.067993	146.120000
352.161469	146.040000
352.254883	145.540000
352.348358	145.460000
352.441803	145.500000
352.535248	145.020000
352.628693	145.400000
352.722137	145.360000
352.815582	145.480000
352.909027	145.880000
353.002472	145.760000
353.095917	145.500000
353.189362	146.220000
353.282806	146.160000
353.376251	146.000000
353.469696	145.760000
353.563141	146.440000
353.656586	145.880000
353.750061	145.420000
353.843475	145.260000
353.936981	145.900000
354.030396	145.040000
354.123871	145.280000
354.217285	146.420000
354.310760	146.680000
354.404175	146.400000
354.497681	146.260000
354.591095	146.420000
354.684570	145.400000
354.777985	145.060000
354.871490	145.060000
354.964935	145.380000
355.058380	145.060000
355.151855	145.140000
355.245300	145.720000
355.338745	145.940000
355.432220	145.860000
355.525665	145.620000
355.619110	146.000000
355.712585	145.800000
355.806030	145.400000
355.899475	145.180000
355.992950	145.900000
356.086426	146.180000
356.179871	145.820000
356.273346	146.060000
356.366791	146.380000
356.460266	146.120000
356.553711	145.600000
356.647186	146.040000
356.740631	145.640000
356.834106	145.500000
356.927551	145.380000
357.021027	145.640000
357.114471	145.580000
357.207947	145.880000
357.301422	146.100000
357.394867	146.120000
357.488342	146.200000
357.581818	145.920000
357.675262	146.120000
357.768738	145.880000
357.862213	145.280000
357.955658	145.400000
358.049133	145.160000
358.142609	145.120000
358.236053	144.960000
358.329529	145.460000
358.423035	145.660000
358.516449	145.560000
358.609955	146.000000
358.703400	147.040000
358.796906	147.380000
358.890350	146.500000
358.983826	147.000000
359.077271	146.220000
359.170776	145.280000
359.264221	144.680000
359.357727	144.960000
359.451172	145.220000
359.544647	145.440000
359.638123	145.480000
359.731598	145.940000
359.825073	146.480000
359.918549	146.320000
360.012024	146.440000
360.105499	145.960000
360.198975	145.900000
360.292450	145.420000
360.385925	145.340000
360.479401	144.800000
360.572876	145.460000
360.666351	145.380000
360.759857	145.340000
360.853302	145.340000
360.946808	145.340000
361.040253	145.500000
361.133759	145.400000
361.227203	145.900000
361.320709	145.440000
361.414154	145.940000
361.507660	145.820000
361.601105	146.220000
361.694641	146.240000
361.788086	146.360000
361.881592	146.640000
361.975067	146.500000
362.068542	146.640000
362.162018	146.340000
362.255524	146.200000
362.348999	145.780000
362.442474	145.880000
362.535950	145.340000
362.629456	145.060000
362.722931	145.080000
362.816406	145.460000
362.909882	145.860000
363.003387	145.700000
363.096863	146.180000
363.190338	146.340000
363.283875	145.980000
363.377319	145.320000
363.470825	146.060000
363.564301	145.520000
363.657806	145.720000
363.751282	145.220000
363.844788	146.360000
363.938232	145.620000
364.031769	146.400000
364.125214	146.580000
364.218750	147.200000
364.312225	145.820000
364.405731	146.040000
364.499207	145.320000
364.592712	145.020000
364.686188	144.900000
364.779694	145.400000
364.873169	145.280000
364.966675	145.440000
365.060150	145.360000
365.153656	146.060000
365.247131	145.880000
365.340637	146.400000
365.434143	146.960000
365.527618	147.020000
365.621155	145.800000
365.714600	145.720000
365.808136	145.340000
365.901611	144.020000
365.995117	143.580000
366.088593	143.980000
366.182129	144.020000
366.275604	144.120000
366.369110	144.640000
366.462585	144.900000
366.556122	145.640000
366.649567	146.000000
366.743103	145.780000
366.836609	145.780000
366.930115	146.140000
367.023590	145.880000
367.117096	145.500000
367.210602	145.500000
367.304108	145.860000
367.397614	146.380000
367.491119	146.340000
367.584595	146.240000
367.678101	146.420000
367.771606	145.980000
367.865112	145.120000
367.958649	144.320000
368.052124	144.500000
368.145660	144.600000
368.239136	145.460000
368.332672	145.900000
368.426147	146.160000
368.519684	146.000000
368.613159	146.220000
368.706696	145.260000
368.800171	145.280000
368.893707	145.500000
368.987183	145.500000
369.080719	145.240000
369.174225	145.280000
369.267731	145.320000
369.361237	145.580000
369.454742	145.900000
369.548248	146.200000
369.641754	146.180000
369.735260	145.840000
369.828766	145.000000
369.922272	145.600000
370.015808	145.180000
370.109314	145.080000
370.202820	145.000000
370.296356	146.320000
370.389832	145.560000
370.483368	145.280000
370.576874	145.620000
370.670410	145.720000
370.763885	144.540000
370.857422	144.600000
370.950928	144.680000
371.044464	145.420000
371.137939	145.840000
371.231476	146.260000
371.324982	146.920000
371.418518	146.980000
371.512024	146.420000
371.605560	145.840000
371.699066	146.200000
371.792572	145.480000
371.886108	146.080000
371.979614	145.900000
372.073120	146.560000
372.166656	146.000000
372.260162	146.420000
372.353668	145.780000
372.447205	145.640000
372.540710	145.420000
372.634277	145.460000
372.727753	145.320000
372.821320	145.820000
372.914795	146.120000
373.008362	146.020000
373.101837	146.140000
373.195404	145.780000
373.288879	145.120000
373.382446	145.440000
373.475922	145.400000
373.569489	145.980000
373.662964	146.560000
373.756531	147.100000
373.850037	146.800000
373.943573	146.780000
374.037109	145.760000
374.130615	145.840000
374.224152	146.040000
374.317657	146.140000
374.411194	147.020000
374.504730	147.080000
374.598236	146.520000
374.691772	145.920000
374.785309	145.800000
374.878815	144.600000
374.972351	144.880000
375.065887	145.120000
375.159454	145.720000
375.252930	145.480000
375.346497	145.760000
375.440002	146.320000
375.533569	146.140000
375.627045	145.500000
375.720612	145.700000
375.814117	146.120000
375.907684	145.840000
376.001160	145.680000
376.094727	145.580000
376.188232	146.100000
376.281799	145.960000
376.375336	145.860000
376.468872	146.680000
376.562408	147.100000
376.655914	146.520000
376.749451	146.260000
376.842987	146.280000
376.936523	145.620000
377.030060	145.480000
377.123596	145.740000
377.217133	145.580000
377.310669	145.700000
377.404205	146.200000
377.497772	146.800000
377.591278	146.780000
377.684845	147.500000
377.778351	147.500000
377.871918	146.900000
377.965424	145.800000
378.058990	145.380000
378.152496	145.180000
378.246063	145.420000
378.339569	145.940000
378.433136	146.640000
378.526642	147.040000
378.620209	146.940000
378.713745	146.400000
378.807312	146.560000
378.900848	146.180000
378.994385	146.280000
379.087921	145.720000
379.181458	146.140000
379.274994	145.400000
379.368530	145.360000
379.462097	145.380000
379.555634	145.880000
379.649170	145.320000
379.742706	145.340000
379.836273	145.900000
379.929810	145.660000
380.023376	144.960000
380.116882	144.980000
380.210449	145.000000
380.303986	144.380000
380.397552	144.200000
380.491058	144.640000
380.584656	144.620000
380.678162	144.900000
380.771729	145.080000
380.865265	145.660000
380.958832	145.640000
381.052368	146.060000
381.145935	146.240000
381.239471	146.860000
381.333008	146.440000
381.426575	146.680000
381.520111	146.900000
381.613647	146.980000
381.707214	146.380000
381.800751	145.800000
381.894318	146.000000
381.987854	145.160000
382.081421	145.060000
382.174988	145.060000
382.268524	145.100000
382.362091	145.000000
382.455627	145.900000
382.549194	145.680000
382.642731	145.260000
382.736298	145.560000
382.829834	145.100000
382.923401	145.620000
383.016937	145.760000
383.110504	146.120000
383.204041	146.420000
383.297607	146.860000
383.391174	145.840000
383.484741	146.540000
383.578278	146.440000
383.671844	146.000000
383.765411	145.520000
383.858948	145.840000
383.952515	145.280000
384.046051	146.020000
384.139618	146.560000
384.233185	146.940000
384.326721	146.800000
384.420288	147.180000
384.513855	146.780000
384.607422	146.820000
384.700989	147.000000
384.794525	146.600000
384.888123	146.240000
384.981659	146.460000
385.075226	146.040000
385.168762	145.820000
385.262360	146.140000
385.355896	145.480000
385.449463	145.240000
385.542999	145.280000
385.636597	145.700000
385.730164	145.900000
385.823730	145.700000
385.917267	145.140000
386.010834	145.260000
386.104401	145.100000
386.197968	145.240000
386.291534	145.960000
386.385101	146.420000
386.478668	146.840000
386.572235	146.380000
386.665802	146.100000
386.759338	145.600000
386.852905	145.420000
386.946472	144.820000
387.040070	145.320000
387.133606	145.200000
387.227203	145.100000
387.320740	145.480000
387.414337	145.220000
387.507874	144.800000
387.601471	144.940000
387.695007	145.060000
387.788605	145.000000
387.882141	145.620000
387.975739	145.840000
388.069275	145.500000
388.162872	145.760000
388.256439	145.660000
388.350037	145.160000
388.443604	145.020000
388.537170	145.340000
388.630737	146.000000
388.724304	146.000000
388.817871	145.840000
388.911438	145.900000
389.005005	146.060000
389.098602	145.940000
389.192169	145.380000
389.285736	146.620000
389.379333	146.940000
389.472870	146.380000
389.566467	146.040000
389.660034	146.520000
389.753632	145.500000
389.847168	145.300000
389.940765	145.900000
390.034332	146.180000
390.127930	145.620000
390.221466	145.620000
390.315063	145.120000
390.408630	144.220000
390.502228	143.500000
390.595795	144.280000
390.689362	144.500000
390.782959	145.120000
390.876526	145.680000
390.970093	145.840000
391.063690	146.180000
391.157257	146.200000
391.250824	146.220000
391.344421	146.040000
391.437988	146.180000
391.531555	145.980000
391.625153	146.300000
391.718750	146.380000
391.812317	146.360000
391.905914	146.220000
391.999481	146.260000
392.093079	145.960000
392.186615	146.120000
392.280243	146.220000
392.373779	146.380000
392.467407	146.600000
392.560944	146.700000
392.654572	145.980000
392.748108	146.060000
392.841736	146.420000
392.935303	145.760000
393.028900	145.600000
393.122467	145.920000
393.216064	145.620000
393.309631	144.540000
393.403229	144.440000
393.496796	144.280000
393.590393	143.720000
393.683990	144.260000
393.777557	145.200000
393.871155	145.460000
393.964722	146.160000
394.058350	146.540000
394.151917	146.360000
394.245514	146.120000
394.339081	146.540000
394.432678	146.420000
394.526245	146.480000
394.619873	146.240000
394.713409	146.060000
394.807037	145.340000
394.900604	145.380000
394.994202	145.580000
395.087769	145.820000
395.181396	145.660000
395.274994	146.700000
395.368561	145.920000
395.462158	145.840000
395.555756	145.200000
395.649353	145.720000
395.742920	144.740000
395.836517	145.380000
395.930115	144.920000
396.023712	145.400000
396.117279	145.580000
396.210876	145.400000
396.304474	145.380000
396.398071	145.540000
396.491669	146.040000
396.585266	145.840000
396.678833	145.880000
396.772461	146.000000
396.866028	146.480000
396.959656	146.980000
397.053223	147.780000
397.146851	148.760000
397.240417	149.780000
397.334015	151.780000
397.427582	153.360000
397.521210	156.000000
397.614807	159.780000
397.708405	164.280000
397.802002	169.660000
397.895599	177.800000
397.989197	187.480000
398.082794	199.280000
398.176392	214.100000
398.269989	231.420000
398.363586	251.300000
398.457184	274.640000
398.550781	300.220000
398.644379	326.420000
398.737976	353.640000
398.831573	380.340000
398.925201	404.740000
399.018768	427.920000
399.112396	449.020000
399.205963	467.760000
399.299591	484.020000
399.393158	498.520000
399.486786	511.160000
399.580353	521.640000
399.673981	527.900000
399.767578	532.360000
399.861206	533.640000
399.954773	530.980000
400.048401	523.780000
400.141998	513.900000
400.235596	500.940000
400.329193	484.220000
400.422791	465.360000
400.516418	444.860000
400.610016	424.860000
400.703613	404.140000
400.797211	382.980000
400.890808	361.700000
400.984436	342.380000
401.078033	321.960000
401.171631	301.680000
401.265259	282.360000
401.358826	264.220000
401.452484	245.480000
401.546051	229.220000
401.639679	213.480000
401.733246	200.860000
401.826904	189.460000
401.920471	180.000000
402.014099	172.180000
402.107697	166.220000
402.201324	160.820000
402.294891	156.760000
402.388550	154.220000
402.482147	152.040000
402.575745	149.940000
402.669373	148.220000
402.762970	147.520000
402.856567	147.320000
402.950195	147.060000
403.043793	146.840000
403.137390	147.600000
403.231018	146.480000
403.324615	146.740000
403.418243	146.440000
403.511841	146.980000
403.605469	146.400000
403.699066	147.240000
403.792694	146.720000
403.886292	146.800000
403.979919	146.640000
404.073517	146.280000
404.167145	146.180000
404.260712	146.240000
404.354370	145.780000
404.447937	145.640000
404.541595	146.280000
404.635162	146.680000
404.728821	146.960000
404.822418	146.900000
404.916046	146.780000
405.009644	146.700000
405.103271	147.060000
405.196899	146.660000
405.290497	146.740000
405.384125	147.220000
405.477722	146.740000
405.571350	145.580000
405.664948	145.740000
405.758575	145.640000
405.852203	145.020000
405.945801	145.360000
406.039429	145.620000
406.133057	145.280000
406.226654	145.640000
406.320312	145.520000
406.413879	145.640000
406.507538	146.100000
406.601135	145.780000
406.694763	146.260000
406.788361	146.260000
406.882019	145.680000
406.975586	145.860000
407.069244	146.500000
407.162872	145.780000
407.256470	145.940000
407.350098	146.140000
407.443726	145.780000
407.537323	145.340000
407.630951	145.680000
407.724579	145.600000
407.818207	146.260000
407.911804	145.820000
408.005432	145.980000
408.099060	146.000000
408.192688	146.440000
408.286285	146.080000
408.379913	145.920000
408.473572	146.020000
408.567169	145.520000
408.660828	145.100000
408.754395	144.760000
408.848053	144.700000
408.941650	144.800000
409.035309	144.600000
409.128906	144.740000
409.222565	144.900000
409.316132	145.460000
409.409790	145.180000
409.503387	145.840000
409.597046	145.840000
409.690674	146.000000
409.784302	145.780000
409.877930	145.500000
409.971558	145.380000
410.065186	145.300000
410.158783	144.960000
410.252411	145.100000
410.346039	145.620000
410.439667	145.660000
410.533295	145.760000
410.626923	146.080000
410.720551	145.780000
410.814209	145.920000
410.907806	146.080000
411.001465	145.760000
411.095062	145.700000
411.188721	145.880000
411.282318	145.600000
411.375977	145.100000
411.469574	145.320000
411.563232	145.180000
411.656830	145.020000
411.750488	144.820000
411.844086	144.780000
411.937744	144.920000
412.031372	144.820000
412.125000	145.040000
412.218628	145.440000
412.312256	146.220000
412.405884	146.620000
412.499512	146.640000
412.593170	146.780000
412.686798	146.880000
412.780426	145.920000
412.874054	146.100000
412.967682	146.080000
413.061310	146.480000
413.154968	146.260000
413.248566	146.760000
413.342224	146.080000
413.435852	146.320000
413.529510	146.220000
413.623108	145.540000
413.716766	145.580000
413.810364	145.940000
413.904022	145.300000
413.997650	144.480000
414.091309	145.540000
414.184906	145.360000
414.278564	144.800000
414.372192	145.740000
414.465851	146.220000
414.559479	145.740000
414.653107	146.420000
414.746735	146.620000
414.840393	146.480000
414.934021	146.980000
415.027649	146.700000
415.121277	146.120000
415.214935	146.420000
415.308563	146.440000
415.402191	145.440000
415.495850	145.940000
415.589478	145.800000
415.683136	145.280000
415.776733	144.880000
415.870422	145.720000
415.964020	145.040000
416.057678	145.220000
416.151306	145.460000
416.244965	145.360000
416.338562	145.120000
416.432251	145.980000
416.525848	146.460000
416.619507	147.140000
416.713165	147.580000
416.806793	147.300000
416.900421	147.140000
416.994080	146.300000
417.087708	145.740000
417.181366	145.140000
417.274994	145.260000
417.368622	145.440000
417.462280	146.240000
417.555908	146.420000
417.649567	146.700000
417.743195	146.720000
417.836853	146.360000
417.930481	146.440000
418.024170	146.360000
418.117767	146.700000
418.211426	147.140000
418.305054	147.480000
418.398712	146.860000
418.492340	146.780000
418.585999	147.180000
418.679626	147.200000
418.773285	146.900000
418.866913	147.160000
418.960571	147.220000
419.054230	146.880000
419.147858	146.440000
419.241516	146.660000
419.335144	146.460000
419.428802	146.580000
419.522461	146.180000
419.616089	145.920000
419.709747	145.980000
419.803375	146.060000
419.897034	145.640000
419.990662	145.660000
420.084320	146.320000
420.177979	146.340000
420.271606	146.620000
420.365295	147.140000
420.458893	147.280000
420.552582	147.120000
420.646210	147.200000
420.739868	146.720000
420.833496	146.380000
420.927155	146.400000
421.020782	146.080000
421.114471	145.660000
421.208069	145.740000
421.301758	145.920000
421.395386	145.920000
421.489044	145.720000
421.582703	145.800000
421.676361	146.560000
421.769989	146.660000
421.863647	147.000000
421.957306	147.260000
422.050934	147.340000
422.144592	146.880000
422.238251	146.320000
422.331909	145.800000
422.425537	145.620000
422.519196	145.520000
422.612854	144.960000
422.706543	144.920000
422.800140	145.440000
422.893829	145.460000
422.987457	145.320000
423.081146	145.840000
423.174744	146.500000
423.268433	145.780000
423.362061	145.520000
423.455750	145.100000
423.549347	145.200000
423.643036	144.500000
423.736664	145.280000
423.830353	145.740000
423.924011	146.820000
424.017639	146.120000
424.111298	146.260000
424.204956	146.100000
424.298615	145.780000
424.392273	145.180000
424.485931	145.440000
424.579559	145.680000
424.673218	145.540000
424.766876	145.760000
424.860535	145.460000
424.954193	145.360000
425.047882	145.840000
425.141510	145.760000
425.235199	145.780000
425.328796	145.560000
425.422485	145.440000
425.516113	144.540000
425.609802	144.640000
425.703430	144.660000
425.797119	144.940000
425.890747	145.340000
425.984436	145.420000
426.078064	145.320000
426.171753	145.340000
426.265411	145.160000
426.359070	145.080000
426.452728	145.040000
426.546356	144.940000
426.640015	144.560000
426.733673	144.640000
426.827332	144.400000
426.920990	145.380000
427.014648	145.300000
427.108307	145.580000
427.201965	146.140000
427.295624	146.320000
427.389282	145.420000
427.482941	145.680000
427.576630	145.700000
427.670258	144.960000
427.763947	144.720000
427.857574	144.780000
427.951263	144.640000
428.044922	144.400000
428.138611	144.720000
428.232239	145.440000
428.325928	146.060000
428.419556	146.440000
428.513245	146.180000
428.606903	146.400000
428.700562	145.900000
428.794220	145.040000
428.887878	144.360000
428.981537	144.980000
429.075195	144.920000
429.168854	145.260000
429.262512	145.680000
429.356201	146.100000
429.449860	145.800000
429.543518	145.760000
429.637177	145.820000
429.730835	145.620000
429.824493	145.320000
429.918182	145.540000
430.011810	144.860000
430.105530	144.200000
430.199158	144.460000
430.292847	144.500000
430.386475	144.640000
430.480164	144.760000
430.573792	144.520000
430.667511	144.320000
430.761139	144.100000
430.854828	144.020000
430.948456	144.600000
431.042145	145.380000
431.135834	145.260000
431.229492	145.720000
431.323151	146.060000
431.416809	145.740000
431.510468	145.400000
431.604156	145.300000
431.697815	145.300000
431.791473	144.440000
431.885132	144.220000
431.978821	144.500000
432.072479	144.840000
432.166138	145.200000
432.259827	145.220000
432.353485	145.960000
432.447174	146.180000
432.540802	145.920000
432.634491	145.980000
432.728149	146.260000
432.821838	146.660000
432.915466	146.000000
433.009186	145.960000
433.102814	144.760000
433.196503	144.780000
433.290131	144.320000
433.383850	144.700000
433.477509	145.380000
433.571167	146.700000
433.664856	146.740000
433.758514	147.140000
433.852173	147.000000
433.945862	146.360000
434.039520	146.040000
434.133179	145.760000
434.226868	145.220000
434.320526	145.100000
434.414185	145.840000
434.507874	145.340000
434.601562	145.860000
434.695221	145.660000
434.788910	146.000000
434.882538	146.040000
434.976257	146.000000
435.069885	145.960000
435.163574	146.140000
435.257233	145.680000
435.350922	145.340000
435.444580	145.360000
435.538269	145.120000
435.631897	145.420000
435.725616	145.960000
435.819275	146.080000
435.912964	146.580000
436.006622	146.880000
436.100311	146.740000
436.193970	145.960000
436.287628	145.780000
436.381317	145.320000
436.474976	144.920000
436.568665	144.580000
436.662323	144.920000
436.756012	144.780000
436.849670	144.560000
436.943390	144.740000
437.037018	144.720000
437.130737	144.920000
437.224365	144.800000
437.318085	145.300000
437.411713	145.300000
437.505432	145.660000
437.599060	145.880000
437.692780	146.520000
437.786407	146.260000
437.880127	146.080000
437.973755	145.820000
438.067474	145.200000
438.161133	145.020000
438.254822	145.420000
438.348480	145.460000
438.442169	146.140000
438.535828	146.740000
438.629517	146.140000
438.723175	145.580000
438.816864	146.140000
438.910553	145.340000
439.004211	144.700000
439.097900	145.040000
439.191559	145.300000
439.285248	144.400000
439.378906	145.020000
439.472626	145.180000
439.566284	144.980000
439.659973	145.180000
439.753632	145.580000
439.847321	145.380000
439.940979	145.880000
440.034698	145.860000
440.128326	145.200000
440.222046	144.940000
440.315674	144.640000
440.409393	144.380000
440.503082	144.240000
440.596741	144.720000
440.690430	144.800000
440.784088	144.640000
440.877777	144.100000
440.971466	144.120000
441.065125	143.860000
441.158813	143.500000
441.252502	143.340000
441.346161	143.840000
441.439850	144.300000
441.533539	144.180000
441.627197	144.820000
441.720886	144.880000
441.814606	145.160000
441.908234	145.340000
442.001953	145.540000
442.095612	145.500000
442.189301	145.880000
442.282959	146.000000
442.376678	145.260000
442.470306	145.800000
442.564026	145.740000
442.657684	145.800000
442.751404	145.600000
442.845032	146.660000
442.938751	145.900000
443.032440	146.060000
443.126099	145.640000
443.219788	145.800000
443.313477	145.500000
443.407166	146.140000
443.500824	146.080000
443.594513	146.480000
443.688202	146.220000
443.781891	145.460000
443.875549	144.900000
443.969238	144.720000
444.062927	144.620000
444.156647	144.780000
444.250275	145.380000
444.343994	145.800000
444.437653	146.120000
444.531372	146.200000
444.625031	145.780000
444.718719	145.540000
444.812378	145.300000
444.906097	145.000000
444.999756	144.500000
445.093445	144.660000
445.187103	144.640000
445.280823	145.240000
445.374512	144.800000
445.468201	145.140000
445.561859	144.960000
445.655548	144.960000
445.749237	144.100000
445.842926	144.560000
445.936615	144.740000
446.030304	144.620000
446.123962	144.880000
446.217651	144.800000
446.311340	145.040000
446.405029	144.860000
446.498749	144.860000
446.592407	144.660000
446.686096	144.960000
446.779755	144.900000
446.873474	145.140000
446.967133	145.540000
447.060852	145.240000
447.154510	145.300000
447.248230	145.200000
447.341858	145.240000
447.435577	144.900000
447.529236	144.740000
447.622955	144.520000
447.716644	144.360000
447.810333	144.420000
447.904022	145.000000
447.997711	145.220000
448.091400	145.700000
448.185059	145.580000
448.278748	145.580000
448.372437	144.920000
448.466125	145.220000
448.559814	144.820000
448.653503	145.600000
448.747192	145.600000
448.840912	146.440000
448.934570	146.540000
449.028290	147.120000
449.121948	146.640000
449.215637	146.260000
449.309296	145.420000
449.403015	145.420000
449.496674	145.180000
449.590393	144.960000
449.684052	144.900000
449.777771	145.940000
449.871429	145.280000
449.965149	144.980000
450.058838	145.540000
450.152527	145.960000
450.246216	145.480000
450.339905	145.660000
450.433594	145.620000
450.527283	145.920000
450.620972	145.760000
450.714661	145.560000
450.808350	146.080000
450.902039	146.260000
450.995728	145.580000
451.089417	145.140000
451.183105	145.520000
451.276794	145.600000
451.370514	145.200000
451.464172	144.880000
451.557892	145.300000
451.651550	145.400000
451.745270	144.980000
451.838928	144.760000
451.932648	145.300000
452.026306	145.380000
452.120026	144.500000
452.213684	145.100000
452.307404	145.420000
452.401062	145.200000
452.494781	145.320000
452.588470	145.960000
452.682159	145.180000
452.775848	145.400000
452.869537	145.020000
452.963226	144.680000
453.056915	144.320000
453.150604	144.560000
453.244293	144.860000
453.337982	145.640000
453.431671	145.880000
453.525360	146.460000
453.619049	146.360000
453.712769	146.220000
453.806427	145.620000
453.900146	145.140000
453.993805	144.560000
454.087555	144.940000
454.181213	144.900000
454.274933	144.620000
454.368591	144.960000
454.462311	145.060000
454.555969	144.640000
454.649689	145.180000
454.743347	145.400000
454.837067	146.220000
454.930756	146.800000
455.024445	147.000000
455.118134	146.440000
455.211853	146.780000
455.305542	145.720000
455.399231	145.380000
455.492920	145.220000
455.586609	145.140000
455.680298	145.160000
455.773987	145.300000
455.867676	145.120000
455.961365	145.360000
456.055084	145.320000
456.148773	144.960000
456.242493	144.840000
456.336151	144.860000
456.429871	145.000000
456.523529	145.280000
456.617249	145.220000
456.710907	146.020000
456.804626	145.780000
456.898315	145.240000
456.992035	145.100000
457.085693	145.160000
457.179413	144.120000
457.273102	145.240000
457.366791	145.360000
457.460480	145.660000
457.554199	146.280000
457.647888	146.680000
457.741577	145.800000
457.835266	146.040000
457.928955	146.080000
458.022644	146.020000
458.116364	146.220000
458.210052	146.340000
458.303741	146.240000
458.397461	145.700000
458.491119	145.000000
458.584839	144.940000
458.678528	144.480000
458.772247	144.280000
458.865906	144.460000
458.959625	145.420000
459.053284	145.400000
459.147003	145.340000
459.240692	145.900000
459.334412	145.960000
459.428070	145.420000
459.521790	145.180000
459.615479	145.540000
459.709198	145.840000
459.802887	145.340000
459.896576	145.240000
459.990265	145.520000
460.083954	145.740000
460.177673	145.060000
460.271362	145.460000
460.365051	145.460000
460.458740	145.260000
460.552429	144.580000
460.646149	144.520000
460.739838	144.000000
460.833527	144.080000
460.927246	143.900000
461.020905	144.140000
461.114655	144.380000
461.208313	144.820000
461.302032	144.480000
461.395691	144.900000
461.489441	144.700000
461.583099	144.560000
461.676819	144.580000
461.770477	145.100000
461.864197	144.440000
461.957916	144.720000
462.051605	144.040000
462.145294	144.800000
462.238983	144.320000
462.332703	145.020000
462.426392	145.420000
462.520081	145.840000
462.613770	144.920000
462.707489	145.240000
462.801178	144.780000
462.894867	144.080000
462.988556	144.100000
463.082275	144.400000
463.175964	144.040000
463.269684	144.660000
463.363342	144.920000
463.457092	144.680000
463.550751	145.000000
463.644470	145.100000
463.738129	144.900000
463.831879	145.060000
463.925537	145.780000
464.019257	145.740000
464.112946	145.620000
464.206665	145.300000
464.300323	145.500000
464.394043	145.280000
464.487762	145.060000
464.581451	145.700000
464.675140	145.700000
464.768829	145.720000
464.862549	145.680000
464.956238	146.100000
465.049927	145.880000
465.143646	145.840000
465.237335	145.600000
465.331024	146.080000
465.424713	145.760000
465.518433	145.860000
465.612152	145.960000
465.705811	146.100000
465.799561	145.720000
465.893219	145.320000
465.986938	145.180000
466.080597	145.220000
466.174347	145.160000
466.268005	145.280000
466.361725	145.240000
466.455414	145.180000
466.549133	144.760000
466.642792	144.900000
466.736542	144.280000
466.830231	144.680000
466.923920	144.840000
467.017609	145.200000
467.111328	144.760000
467.205017	144.960000
467.298706	144.880000
467.392426	144.840000
467.486115	145.060000
467.579803	144.860000
467.673523	145.320000
467.767212	145.460000
467.860901	145.420000
467.954651	145.600000
468.048309	146.380000
468.142029	145.900000
468.235718	145.620000
468.329437	145.320000
468.423096	144.960000
468.516846	144.400000
468.610504	144.560000
468.704224	144.400000
468.797913	144.420000
468.891632	144.480000
468.985291	144.600000
469.079010	144.500000
469.172729	144.240000
469.266418	144.980000
469.360107	144.960000
469.453827	144.840000
469.547516	144.820000
469.641205	145.640000
469.734924	145.420000
469.828613	145.980000
469.922302	146.280000
470.016022	146.580000
470.109711	146.180000
470.203430	145.500000
470.297150	144.480000
470.390808	144.680000
470.484558	144.380000
470.578217	144.880000
470.671936	145.620000
470.765625	146.720000
470.859344	146.240000
470.953003	146.480000
471.046753	145.960000
471.140411	145.340000
471.234131	145.300000
471.327820	145.660000
471.421539	145.980000
471.515228	145.760000
471.608948	145.900000
471.702637	145.180000
471.796326	144.840000
471.890045	144.840000
471.983734	145.220000
472.077423	145.100000
472.171143	145.080000
472.264832	145.220000
472.358521	144.560000
472.452240	144.300000
472.545929	145.100000
472.639648	145.500000
472.733337	146.080000
472.827057	146.260000
472.920746	146.480000
473.014465	146.480000
473.108124	146.360000
473.201874	146.080000
473.295532	146.100000
473.389252	146.420000
473.482941	146.420000
473.576660	146.060000
473.670319	146.040000
473.764069	146.360000
473.857727	146.320000
473.951477	146.360000
474.045166	147.020000
474.138855	146.700000
474.232574	146.140000
474.326263	145.780000
474.419952	145.600000
474.513672	145.220000
474.607361	145.340000
474.701050	145.720000
474.794769	146.280000
474.888458	146.380000
474.982178	146.620000
475.075867	146.760000
475.169586	146.800000
475.263275	146.640000
475.356995	146.520000
475.450653	146.100000
475.544403	145.540000
475.638062	146.240000
475.731812	145.580000
475.825470	145.040000
475.919189	145.640000
476.012878	146.260000
476.106598	145.300000
476.200256	145.980000
476.294006	146.220000
476.387695	146.040000
476.481384	145.780000
476.575104	146.140000
476.668793	145.600000
476.762512	145.400000
476.856201	145.640000
476.949890	145.220000
477.043610	144.720000
477.137299	144.760000
477.230988	145.140000
477.324707	144.580000
477.418396	145.320000
477.512146	145.560000
477.605804	145.480000
477.699524	145.360000
477.793213	145.160000
477.886932	144.820000
477.980591	144.440000
478.074341	144.300000
478.167999	144.120000
478.261749	144.220000
478.355408	144.160000
478.449127	144.800000
478.542816	145.880000
478.636536	146.300000
478.730225	146.560000
478.823944	146.720000
478.917633	146.760000
479.011322	146.180000
479.105042	146.200000
479.198730	146.500000
479.292450	146.220000
479.386139	146.180000
479.479828	146.480000
479.573547	146.640000
479.667267	146.140000
479.760925	146.460000
479.854675	146.600000
479.948334	146.680000
480.042084	145.860000
480.135742	146.320000
480.229462	146.040000
480.323151	145.820000
480.416870	144.940000
480.510529	145.200000
480.604279	144.440000
480.697937	145.040000
480.791656	144.680000
480.885345	144.620000
480.979065	144.540000
481.072754	145.220000
481.166473	145.200000
481.260132	145.460000
481.353882	145.760000
481.447540	146.020000
481.541260	145.960000
481.635010	145.140000
481.728668	145.100000
481.822388	145.060000
481.916077	144.800000
482.009796	144.720000
482.103485	145.300000
482.197205	145.260000
482.290863	145.260000
482.384613	145.180000
482.478271	144.620000
482.571991	144.640000
482.665680	144.420000
482.759399	145.180000
482.853058	145.560000
482.946808	145.980000
483.040466	145.760000
483.134216	145.860000
483.227875	145.180000
483.321594	145.500000
483.415283	145.480000
483.509003	145.120000
483.602661	144.700000
483.696411	145.000000
483.790070	144.620000
483.883789	144.780000
483.977478	145.300000
484.071198	145.780000
484.164917	145.360000
484.258606	145.040000
484.352325	145.120000
484.445984	145.020000
484.539734	144.720000
484.633392	144.260000
484.727142	144.880000
484.820801	144.660000
484.914520	144.760000
485.008209	145.360000
485.101929	146.240000
485.195587	145.880000
485.289337	145.640000
485.382996	145.580000
485.476715	145.360000
485.570404	145.560000
485.664124	145.540000
485.757782	146.120000
485.851532	145.680000
485.945190	145.600000
486.038910	145.500000
486.132599	145.680000
486.226318	145.100000
486.319977	145.180000
486.413727	145.660000
486.507446	145.220000
486.601105	144.520000
486.694855	144.360000
486.788513	144.340000
486.882233	143.800000
486.975922	143.800000
487.069641	143.860000
487.163300	144.100000
487.257050	145.460000
487.350708	145.640000
487.444427	145.360000
487.538116	145.660000
487.631836	145.660000
487.725494	145.040000
487.819214	144.980000
487.912903	145.040000
488.006622	145.540000
488.100281	145.680000
488.194031	145.340000
488.287689	145.600000
488.381409	146.460000
488.475098	145.920000
488.568817	145.940000
488.662476	145.740000
488.756226	145.320000
488.849945	144.140000
488.943604	144.280000
489.037354	144.440000
489.131012	144.520000
489.224731	144.500000
489.318390	144.900000
489.412140	144.940000
489.505798	144.880000
489.599518	144.380000
489.693207	144.840000
489.786926	144.660000
489.880585	144.260000
489.974335	144.640000
490.067993	145.880000
490.161713	145.860000
490.255371	146.680000
490.349121	147.080000
490.442780	146.500000
490.536499	145.460000
490.630188	145.140000
490.723907	144.420000
490.817566	144.580000
490.911285	144.740000
491.004974	144.840000
491.098694	144.720000
491.192413	145.360000
491.286102	145.020000
491.379822	145.100000
491.473480	145.600000
491.567200	145.640000
491.660889	144.920000
491.754608	145.220000
491.848267	145.220000
491.941986	144.880000
492.035675	145.060000
492.129395	145.660000
492.223053	145.440000
492.316772	145.560000
492.410461	145.340000
492.504181	145.360000
492.597839	144.720000
492.691559	144.840000
492.785248	144.540000
492.878967	144.880000
492.972626	144.340000
493.066345	144.800000
493.160034	144.360000
493.253754	144.780000
493.347412	144.140000
493.441132	144.640000
493.534882	145.120000
493.628540	145.680000
493.722260	145.440000
493.815918	146.260000
493.909668	146.820000
494.003326	147.040000
494.097046	146.600000
494.190704	146.320000
494.284454	146.220000
494.378113	145.940000
494.471832	145.360000
494.565491	145.340000
494.659210	145.560000
494.752899	145.340000
494.846619	145.040000
494.940277	145.080000
495.033997	145.080000
495.127686	144.920000
495.221405	144.580000
495.315063	144.440000
495.408783	144.400000
495.502441	144.740000
495.596191	144.980000
495.689850	145.160000
495.783569	145.640000
495.877228	145.860000
495.970947	145.420000
496.064697	144.980000
496.158356	145.940000
496.252075	145.920000
496.345734	145.600000
496.439453	146.580000
496.533142	146.980000
496.626862	146.940000
496.720520	146.860000
496.814240	147.000000
496.907898	146.160000
497.001617	146.020000
497.095306	145.100000
497.189026	144.940000
497.282684	145.080000
497.376404	145.640000
497.470062	145.640000
497.563782	146.080000
497.657471	146.200000
497.751190	145.680000
497.844849	145.480000
497.938568	145.720000
498.032227	145.480000
498.125946	145.400000
498.219635	145.560000
498.313354	145.560000
498.407074	145.260000
498.500732	145.480000
498.594452	145.480000
498.688110	145.180000
498.781830	144.700000
498.875519	144.560000
498.969238	144.340000
499.062897	144.220000
499.156616	144.800000
499.250275	145.260000
499.343994	144.880000
499.437653	145.240000
499.531372	145.420000
499.625061	146.000000
499.718781	146.060000
499.812439	146.620000
499.906158	146.440000
499.999817	146.360000
500.093536	145.680000
500.187195	145.700000
500.280914	145.780000
500.374573	145.820000
500.468323	145.300000
500.561981	145.420000
500.655701	145.080000
500.749420	144.940000
500.843079	144.960000
500.936798	145.660000
501.030457	146.060000
501.124176	146.180000
501.217834	146.420000
501.311554	146.360000
501.405212	146.040000
501.498962	145.020000
501.592621	144.940000
501.686340	145.020000
501.779999	145.060000
501.873718	145.220000
501.967377	145.700000
502.061096	146.120000
502.154755	145.600000
502.248474	145.760000
502.342133	145.860000
502.435852	145.620000
502.529510	145.920000
502.623230	146.480000
502.716888	145.740000
502.810608	145.560000
502.904266	146.260000
502.997986	145.680000
503.091705	145.020000
503.185364	145.160000
503.279083	145.100000
503.372772	144.500000
503.466492	144.160000
503.560150	144.460000
503.653870	144.860000
503.747528	144.880000
503.841248	144.920000
503.934906	145.380000
504.028625	145.080000
504.122284	145.040000
504.216003	145.900000
504.309662	145.540000
504.403381	145.480000
504.497040	145.800000
504.590759	145.560000
504.684418	145.180000
504.778137	146.120000
504.871796	146.560000
504.965515	146.320000
505.059174	146.360000
505.152893	145.720000
505.246521	144.640000
505.340240	143.960000
505.433899	144.440000
505.527618	144.600000
505.621338	145.140000
505.714996	145.560000
505.808716	145.440000
505.902374	145.620000
505.996094	145.620000
506.089752	145.280000
506.183472	145.280000
506.277130	145.860000
506.370850	145.400000
506.464508	145.380000
506.558228	145.400000
506.651886	145.060000
506.745605	145.200000
506.839264	145.580000
506.932983	145.340000
507.026611	145.260000
507.120331	145.980000
507.213989	145.140000
507.307709	145.100000
507.401367	145.820000
507.495087	146.620000
507.588745	146.060000
507.682465	147.180000
507.776123	147.100000
507.869843	146.940000
507.963531	146.480000
508.057190	147.280000
508.150909	146.580000
508.244568	146.740000
508.338287	146.520000
508.431946	146.160000
508.525665	145.580000
508.619324	145.360000
508.713013	145.340000
508.806671	145.500000
508.900391	146.400000
508.994049	146.580000
509.087769	146.380000
509.181427	146.000000
509.275146	145.520000
509.368774	144.520000
509.462494	144.380000
509.556152	144.440000
509.649872	144.940000
509.743530	145.000000
509.837250	145.560000
509.930878	145.860000
510.024597	146.240000
510.118256	145.680000
510.211975	145.640000
510.305695	145.120000
510.399353	145.220000
510.493042	145.580000
510.586700	145.960000
510.680420	146.680000
510.774078	146.680000
510.867798	146.440000
510.961426	145.780000
511.055145	145.980000
511.148804	145.620000
511.242523	146.400000
511.336151	146.540000
511.429871	146.800000
511.523529	146.260000
511.617249	146.080000
511.710876	145.160000
511.804596	144.820000
511.898254	144.500000
511.991974	144.640000
512.085632	144.220000
512.179321	144.800000
512.272949	145.140000
512.366699	145.660000
512.460327	145.620000
512.554077	146.740000
512.647766	146.440000
512.741394	146.340000
512.835144	146.420000
512.928772	146.260000
513.022461	145.720000
513.116150	145.680000
513.209839	145.920000
513.303467	145.400000
513.397217	145.160000
513.490845	144.980000
513.584595	145.140000
513.678223	144.560000
513.771912	143.960000
513.865601	144.480000
513.959290	144.120000
514.052917	143.860000
514.146667	144.860000
514.240295	145.800000
514.333984	145.700000
514.427673	145.920000
514.521362	146.620000
514.614990	145.600000
514.708740	145.800000
514.802368	145.880000
514.896057	146.120000
514.989746	146.060000
515.083435	146.060000
515.177124	145.740000
515.270752	145.500000
515.364502	145.220000
515.458130	145.180000
515.551819	145.340000
515.645508	145.420000
515.739197	145.800000
515.832825	146.040000
515.926575	145.680000
516.020203	145.920000
516.113892	146.420000
516.207520	146.100000
516.301270	145.960000
516.394897	146.260000
516.488586	146.580000
516.582275	146.020000
516.675964	145.260000
516.769592	145.040000
516.863281	145.220000
516.956970	145.280000
517.050659	145.240000
517.144287	145.960000
517.238037	146.120000
517.331665	145.220000
517.425354	144.760000
517.519043	144.780000
517.612732	145.120000
517.706421	145.140000
517.800049	145.280000
517.893738	144.920000
517.987427	144.980000
518.081116	144.860000
518.174744	144.580000
518.268433	144.980000
518.362122	145.980000
518.455811	145.860000
518.549438	146.120000
518.643127	147.100000
518.736816	146.620000
518.830505	145.320000
518.924133	145.180000
519.017822	145.140000
519.111511	144.560000
519.205200	145.260000
519.298828	145.940000
519.392517	145.600000
519.486206	145.600000
519.579895	145.540000
519.673523	145.480000
519.767212	145.200000
519.860901	146.160000
519.954590	145.980000
520.048279	145.700000
520.141907	145.180000
520.235596	146.340000
520.329224	146.180000
520.422974	146.060000
520.516602	145.980000
520.610291	145.820000
520.703918	145.100000
520.797607	144.700000
520.891296	144.580000
520.984985	144.900000
521.078613	145.580000
521.172302	145.160000
521.265930	146.040000
521.359680	146.480000
521.453308	146.620000
521.546997	146.140000
521.640625	146.300000
521.734314	145.480000
521.827942	145.200000
521.921692	145.180000
522.015320	145.520000
522.109009	145.180000
522.202698	145.340000
522.296326	145.480000
522.390015	145.700000
522.483704	145.620000
522.577393	145.880000
522.671021	145.680000
522.764709	145.200000
522.858337	145.500000
522.952026	145.200000
523.045654	145.560000
523.139404	146.160000
523.233032	146.660000
523.326721	146.280000
523.420349	146.440000
523.514038	145.860000
523.607666	145.920000
523.701355	145.300000
523.795044	145.240000
523.888733	145.500000
523.982361	146.020000
524.076050	145.380000
524.169678	145.800000
524.263367	145.600000
524.356995	145.160000
524.450684	144.980000
524.544373	144.860000
524.638062	144.800000
524.731750	144.960000
524.825378	145.080000
524.919067	144.660000
525.012695	144.880000
525.106384	144.960000
525.200012	145.040000
525.293701	144.820000
525.387329	145.520000
525.481018	145.760000
525.574646	145.760000
525.668396	145.880000
525.762024	146.540000
525.855713	146.480000
525.949341	145.840000
526.043030	145.760000
526.136658	145.360000
526.230347	145.060000
526.323975	144.680000
526.417664	144.840000
526.511292	145.300000
526.604980	145.600000
526.698608	145.660000
526.792297	146.060000
526.885925	146.560000
526.979614	146.340000
527.073303	146.220000
527.166931	146.220000
527.260620	146.120000
527.354309	146.120000
527.447998	146.280000
527.541626	145.940000
527.635315	145.660000
527.728943	146.220000
527.822632	146.420000
527.916260	146.160000
528.009949	146.680000
528.103577	146.740000
528.197266	145.920000
528.290894	145.680000
528.384583	145.480000
528.478210	145.520000
528.571899	145.960000
528.665527	146.440000
528.759216	146.260000
528.852844	146.780000
528.946533	146.460000
529.040161	146.060000
529.133850	145.500000
529.227478	146.180000
529.321167	146.320000
529.414856	146.940000
529.508484	147.660000
529.602173	147.680000
529.695801	146.920000
529.789490	146.520000
529.883057	145.860000
529.976746	145.620000
530.070374	146.100000
530.164062	146.280000
530.257690	146.520000
530.351379	146.660000
530.445007	146.420000
530.538696	145.320000
530.632324	145.400000
530.726013	145.340000
530.819641	145.520000
530.913330	145.580000
531.006958	146.180000
531.100647	146.320000
531.194275	146.120000
531.287964	145.980000
531.381592	145.880000
531.475220	146.140000
531.568848	146.020000
531.662537	146.020000
531.756226	146.180000
531.849854	146.100000
531.943542	145.840000
532.037170	145.060000
532.130859	145.600000
532.224487	145.080000
532.318176	144.720000
532.411804	145.380000
532.505432	146.080000
532.599060	145.340000
532.692749	145.580000
532.786377	146.200000
532.880066	145.220000
532.973694	144.900000
533.067383	144.960000
533.161011	145.200000
533.254639	145.100000
533.348267	145.080000
533.441956	145.120000
533.535583	145.160000
533.629272	145.200000
533.722900	144.640000
533.816589	145.200000
533.910156	145.600000
534.003845	145.320000
534.097534	145.420000
534.191162	146.280000
534.284851	146.160000
534.378479	146.000000
534.472107	146.360000
534.565735	146.200000
534.659424	146.160000
534.753052	146.420000
534.846741	146.140000
534.940369	146.560000
535.033997	146.340000
535.127625	146.100000
535.221313	146.520000
535.314941	146.520000
535.408630	145.720000
535.502197	146.160000
535.595886	145.800000
535.689514	145.260000
535.783203	145.840000
535.876831	146.640000
535.970459	146.120000
536.064087	145.880000
536.157776	145.960000
536.251404	145.860000
536.345093	145.420000
536.438721	145.620000
536.532349	146.100000
536.626038	146.060000
536.719666	145.940000
536.813293	145.800000
536.906921	145.680000
537.000610	145.940000
537.094238	145.620000
537.187866	145.540000
537.281494	145.560000
537.375183	145.820000
537.468811	145.340000
537.562439	145.500000
537.656067	145.260000
537.749756	145.360000
537.843384	145.540000
537.937012	145.860000
538.030640	145.720000
538.124329	146.060000
538.217896	146.460000
538.311584	146.200000
538.405212	146.020000
538.498901	146.080000
538.592468	146.500000
538.686157	145.700000
538.779785	145.220000
538.873413	144.880000
538.967102	144.700000
539.060730	144.220000
539.154358	145.080000
539.247986	145.780000
539.341675	146.260000
539.435242	146.400000
539.528931	146.560000
539.622559	145.880000
539.716187	146.280000
539.809814	146.480000
539.903503	146.480000
539.997070	146.380000
540.090759	146.420000
540.184387	145.780000
540.278015	145.920000
540.371643	146.160000
540.465332	146.160000
540.558899	146.040000
540.652588	146.240000
540.746216	145.620000
540.839844	145.820000
540.933472	145.620000
541.027100	145.600000
541.120728	145.660000
541.214417	146.120000
541.308044	146.240000
541.401672	146.120000
541.495300	145.980000
541.588928	145.620000
541.682617	145.180000
541.776184	144.760000
541.869873	145.280000
541.963440	145.720000
542.057129	145.820000
542.150757	146.080000
542.244385	145.780000
542.338013	145.300000
542.431641	145.120000
542.525269	145.220000
542.618958	145.620000
542.712524	145.920000
542.806213	145.900000
542.899780	146.100000
542.993469	145.700000
543.087036	145.060000
543.180725	144.520000
543.274292	144.720000
543.367981	144.960000
543.461548	145.640000
543.555237	145.720000
543.648926	146.540000
543.742493	147.240000
543.836182	146.960000
543.929749	146.700000
544.023437	146.780000
544.117004	146.440000
544.210693	146.140000
544.304260	146.160000
544.397949	145.720000
544.491516	146.140000
544.585205	146.120000
544.678772	145.560000
544.772461	146.080000
544.866028	145.960000
544.959717	145.760000
545.053284	145.580000
545.146973	145.760000
545.240540	145.260000
545.334229	146.220000
545.427795	146.480000
545.521423	146.600000
545.615051	146.620000
545.708679	146.840000
545.802307	146.420000
545.895935	146.380000
545.989624	147.340000
546.083191	147.200000
546.176880	147.200000
546.270447	146.840000
546.364136	147.040000
546.457703	146.380000
546.551331	146.580000
546.644958	146.680000
546.738586	147.100000
546.832214	146.300000
546.925842	145.840000
547.019409	146.020000
547.113098	145.440000
547.206665	145.040000
547.300354	145.280000
547.393921	145.600000
547.487549	145.680000
547.581177	145.580000
547.674805	145.780000
547.768433	145.280000
547.862061	145.140000
547.955627	144.400000
548.049316	145.240000
548.142883	145.340000
548.236572	146.080000
548.330139	146.340000
548.423767	146.440000
548.517456	145.840000
548.611023	146.140000
548.704651	145.420000
548.798279	145.260000
548.891907	145.880000
548.985474	146.040000
549.079163	145.760000
549.172729	146.020000
549.266357	145.580000
549.359985	145.280000
549.453613	144.660000
549.547180	144.720000
549.640869	144.900000
549.734436	145.320000
549.828064	145.760000
549.921631	145.920000
550.015320	145.220000
550.108887	145.460000
550.202515	145.220000
550.296143	144.780000
550.389771	145.260000
550.483337	145.680000
550.576965	145.400000
550.670593	146.020000
550.764221	146.100000
550.857849	145.880000
550.951477	145.500000
551.045105	145.280000
551.138672	145.140000
551.232300	144.800000
551.325928	145.240000
551.419556	145.680000
551.513123	145.860000
551.606750	145.540000
551.700378	145.580000
551.794006	145.300000
551.887573	145.200000
551.981201	145.760000
552.074768	145.400000
552.168457	145.320000
552.262024	146.060000
552.355652	145.920000
552.449219	145.960000
552.542847	146.340000
552.636475	146.240000
552.730103	145.180000
552.823669	145.160000
552.917297	144.640000
553.010864	144.660000
553.104553	144.920000
553.198181	144.880000
553.291748	145.460000
553.385376	145.880000
553.478943	145.720000
553.572571	145.780000
553.666199	146.380000
553.759827	145.800000
553.853394	144.840000
553.947021	144.980000
554.040588	145.140000
554.134216	144.780000
554.227783	145.540000
554.321411	146.600000
554.415039	146.360000
554.508667	145.820000
554.602234	146.160000
554.695862	145.240000
554.789429	144.880000
554.883057	145.040000
554.976624	145.680000
555.070251	145.500000
555.163818	145.740000
555.257507	145.760000
555.351074	145.760000
555.444702	146.440000
555.538330	146.120000
555.631897	146.580000
555.725525	146.760000
555.819092	146.720000
555.912720	145.640000
556.006287	146.100000
556.099915	145.820000
556.193481	145.700000
556.287109	146.180000
556.380676	146.040000
556.474304	146.080000
556.567871	146.520000
556.661499	145.760000
556.755066	145.440000
556.848694	145.840000
556.942261	145.380000
557.035889	145.220000
557.129517	145.780000
557.223145	146.200000
557.316711	146.200000
557.410339	146.700000
557.503906	146.620000
557.597473	146.860000
557.691040	146.160000
557.784668	146.160000
557.878296	145.960000
557.971863	146.060000
558.065491	146.220000
558.159058	146.400000
558.252686	147.020000
558.346252	147.540000
558.439880	146.880000
558.533447	146.240000
558.627075	145.920000
558.720642	145.060000
558.814270	144.580000
558.907837	145.000000
559.001465	144.840000
559.095032	145.840000
559.188660	146.040000
559.282227	145.400000
559.375854	145.800000
559.469360	145.740000
559.562988	145.500000
559.656555	145.380000
559.750183	146.200000
559.843750	146.260000
559.937378	146.460000
560.030945	146.280000
560.124573	0.000000
560.218140	0.000000
560.311707	0.000000
560.405334	0.000000
560.498901	0.000000
560.592529	0.000000
560.686096	0.000000
560.779724	0.000000
560.873291	0.000000
560.966858	0.000000
561.060425	0.000000
561.154053	0.000000
561.247620	0.000000
561.341248	0.000000
561.434814	0.000000
561.528381	0.000000
561.621948	0.000000
561.715576	0.000000
561.809143	0.000000
561.902771	0.000000
561.996277	0.000000
562.089905	0.000000
562.183472	0.000000
562.277100	0.000000
