Model Number: SPM-002-B   
Serial Number: 70087108
Firmware Version: 004.15.4
Exposure Time: 100000.000000us
Data Taken on: 11-12-2020 18:46:10.726
Wavelength	Amplitude
221.570786	0.000000
221.663406	0.000000
221.756027	0.000000
221.848648	0.000000
221.941269	0.000000
222.033905	0.000000
222.126526	0.000000
222.219162	0.000000
222.311798	0.000000
222.404419	0.000000
222.497055	0.000000
222.589676	0.000000
222.682312	0.000000
222.774933	0.000000
222.867569	0.000000
222.960205	0.000000
223.052841	0.000000
223.145462	0.000000
223.238098	0.000000
223.330734	0.000000
223.423386	0.000000
223.516022	0.000000
223.608658	0.000000
223.701309	0.000000
223.793945	0.000000
223.886581	0.000000
223.979218	0.000000
224.071869	0.000000
224.164505	0.000000
224.257156	0.000000
224.349792	0.000000
224.442444	0.000000
224.535095	0.000000
224.627747	0.000000
224.720398	0.000000
224.813034	0.000000
224.905685	0.000000
224.998337	145.460000
225.090988	145.200000
225.183640	145.020000
225.276291	144.560000
225.368942	145.000000
225.461594	145.340000
225.554245	145.900000
225.646912	146.240000
225.739578	146.900000
225.832230	147.040000
225.924896	146.060000
226.017548	146.160000
226.110199	146.500000
226.202866	145.720000
226.295532	145.680000
226.388184	145.820000
226.480850	145.080000
226.573517	144.880000
226.666168	145.260000
226.758835	145.460000
226.851501	146.220000
226.944183	146.800000
227.036850	146.300000
227.129517	146.440000
227.222183	146.580000
227.314850	146.360000
227.407516	146.640000
227.500198	147.520000
227.592865	147.300000
227.685532	146.760000
227.778214	146.480000
227.870880	146.320000
227.963562	146.140000
228.056229	146.680000
228.148926	146.900000
228.241592	147.600000
228.334274	147.260000
228.426956	146.940000
228.519638	146.620000
228.612305	146.160000
228.704987	146.040000
228.797668	146.320000
228.890350	146.300000
228.983032	145.800000
229.075714	146.480000
229.168396	145.920000
229.261108	145.520000
229.353790	145.540000
229.446472	145.720000
229.539169	145.360000
229.631851	145.280000
229.724533	145.340000
229.817230	145.580000
229.909912	146.760000
230.002609	146.960000
230.095306	146.960000
230.187988	147.300000
230.280685	147.160000
230.373383	146.100000
230.466095	145.760000
230.558792	146.000000
230.651474	145.780000
230.744171	145.680000
230.836868	145.840000
230.929581	146.260000
231.022278	146.280000
231.114975	146.380000
231.207672	146.340000
231.300369	146.500000
231.393082	146.560000
231.485779	146.080000
231.578506	146.040000
231.671204	146.080000
231.763916	145.940000
231.856613	145.620000
231.949326	146.200000
232.042023	146.020000
232.134735	145.700000
232.227448	145.500000
232.320160	145.720000
232.412872	145.460000
232.505585	146.120000
232.598297	146.660000
232.691010	146.660000
232.783722	146.360000
232.876450	147.000000
232.969162	146.560000
233.061874	146.080000
233.154587	145.640000
233.247314	145.860000
233.340027	145.260000
233.432739	145.720000
233.525467	145.640000
233.618179	146.580000
233.710907	146.220000
233.803635	146.620000
233.896347	146.060000
233.989090	147.000000
234.081818	146.540000
234.174545	147.200000
234.267258	146.360000
234.359985	146.820000
234.452713	146.300000
234.545441	146.240000
234.638168	145.620000
234.730896	146.460000
234.823639	146.020000
234.916367	146.460000
235.009094	146.560000
235.101822	146.780000
235.194580	146.700000
235.287308	146.600000
235.380051	145.920000
235.472778	146.160000
235.565521	146.380000
235.658249	145.980000
235.750992	146.220000
235.843719	146.440000
235.936462	146.380000
236.029205	146.100000
236.121948	145.820000
236.214691	146.040000
236.307449	146.520000
236.400192	146.220000
236.492935	145.940000
236.585678	146.380000
236.678421	146.280000
236.771164	145.880000
236.863907	146.340000
236.956665	146.700000
237.049408	148.020000
237.142151	147.660000
237.234909	148.320000
237.327652	148.220000
237.420410	148.000000
237.513153	146.920000
237.605927	146.640000
237.698669	145.760000
237.791428	145.120000
237.884186	145.660000
237.976944	145.300000
238.069702	145.920000
238.162445	146.000000
238.255203	146.520000
238.347961	146.440000
238.440720	146.700000
238.533478	146.400000
238.626266	146.180000
238.719025	145.980000
238.811783	145.860000
238.904541	145.580000
238.997314	145.480000
239.090073	145.340000
239.182831	145.720000
239.275604	146.380000
239.368362	146.180000
239.461136	146.320000
239.553909	146.480000
239.646667	146.400000
239.739441	146.020000
239.832214	146.720000
239.925003	147.020000
240.017761	147.560000
240.110535	147.740000
240.203308	147.140000
240.296082	146.820000
240.388855	146.620000
240.481628	146.300000
240.574417	146.280000
240.667191	146.520000
240.759964	146.220000
240.852737	145.920000
240.945526	145.640000
241.038315	145.380000
241.131088	145.260000
241.223877	145.820000
241.316650	145.680000
241.409439	146.320000
241.502228	146.200000
241.595001	146.520000
241.687790	146.180000
241.780579	146.480000
241.873367	146.560000
241.966141	146.720000
242.058929	146.280000
242.151718	146.600000
242.244507	147.080000
242.337311	146.200000
242.430099	146.900000
242.522903	147.160000
242.615692	146.700000
242.708481	146.740000
242.801270	147.420000
242.894073	146.680000
242.986862	146.820000
243.079651	147.580000
243.172455	147.000000
243.265244	147.060000
243.358063	146.800000
243.450867	147.180000
243.543655	146.660000
243.636459	146.880000
243.729263	146.880000
243.822067	147.360000
243.914856	147.360000
244.007660	147.380000
244.100464	147.240000
244.193268	147.120000
244.286072	146.700000
244.378876	146.200000
244.471680	146.040000
244.564499	146.480000
244.657318	146.900000
244.750122	147.140000
244.842926	146.740000
244.935745	147.160000
245.028549	146.700000
245.121368	146.160000
245.214172	146.120000
245.306992	146.840000
245.399796	146.620000
245.492615	146.700000
245.585434	146.340000
245.678253	146.600000
245.771072	146.520000
245.863892	146.800000
245.956711	147.020000
246.049530	147.360000
246.142349	146.940000
246.235168	146.720000
246.327988	146.940000
246.420807	146.900000
246.513626	146.980000
246.606445	147.100000
246.699280	147.180000
246.792099	146.820000
246.884918	146.220000
246.977753	145.720000
247.070587	145.780000
247.163422	145.960000
247.256241	145.940000
247.349075	146.480000
247.441895	146.740000
247.534729	146.560000
247.627563	146.060000
247.720383	146.420000
247.813217	146.340000
247.906052	146.240000
247.998886	146.620000
248.091736	146.820000
248.184570	146.660000
248.277405	146.760000
248.370239	147.780000
248.463074	148.380000
248.555908	148.460000
248.648743	148.100000
248.741592	148.140000
248.834427	147.200000
248.927261	145.960000
249.020111	146.440000
249.112946	147.100000
249.205795	146.780000
249.298630	147.040000
249.391495	147.260000
249.484344	146.660000
249.577179	146.500000
249.670029	146.660000
249.762878	147.020000
249.855728	147.080000
249.948563	147.000000
250.041412	146.180000
250.134262	146.560000
250.227112	146.320000
250.319962	146.560000
250.412827	146.740000
250.505692	146.780000
250.598541	146.680000
250.691391	146.540000
250.784241	146.580000
250.877106	146.740000
250.969955	146.640000
251.062805	147.040000
251.155670	147.760000
251.248520	147.360000
251.341385	147.640000
251.434235	147.840000
251.527100	147.280000
251.619965	146.360000
251.712814	147.120000
251.805695	146.800000
251.898560	146.860000
251.991425	146.920000
252.084290	147.280000
252.177155	146.540000
252.270020	146.340000
252.362885	146.420000
252.455750	146.280000
252.548615	145.900000
252.641479	145.840000
252.734360	145.760000
252.827240	145.540000
252.920105	145.580000
253.012970	145.580000
253.105850	145.580000
253.198715	145.480000
253.291595	145.600000
253.384460	145.240000
253.477341	145.300000
253.570221	145.780000
253.663086	145.860000
253.755966	146.600000
253.848846	146.980000
253.941727	147.360000
254.034592	147.160000
254.127472	146.780000
254.220367	146.380000
254.313248	146.600000
254.406128	146.060000
254.499008	146.220000
254.591904	147.340000
254.684784	147.500000
254.777664	147.040000
254.870544	146.780000
254.963440	146.680000
255.056335	146.420000
255.149216	146.180000
255.242111	146.660000
255.334991	147.320000
255.427887	147.340000
255.520767	147.120000
255.613663	147.120000
255.706558	146.560000
255.799438	146.000000
255.892334	145.760000
255.985229	145.440000
256.078125	145.220000
256.171021	145.640000
256.263916	146.420000
256.356812	146.620000
256.449707	146.900000
256.542603	146.920000
256.635498	147.300000
256.728394	146.960000
256.821289	146.840000
256.914215	147.020000
257.007080	147.020000
257.100006	146.780000
257.192932	147.300000
257.285828	147.560000
257.378723	147.100000
257.471619	147.160000
257.564545	146.800000
257.657440	146.500000
257.750336	146.780000
257.843262	146.720000
257.936157	147.860000
258.029053	147.940000
258.121979	147.760000
258.214874	147.280000
258.307800	147.400000
258.400696	146.080000
258.493622	146.260000
258.586517	145.640000
258.679443	146.200000
258.772339	145.940000
258.865265	145.840000
258.958160	145.680000
259.051086	146.700000
259.144012	146.120000
259.236938	147.040000
259.329834	147.240000
259.422791	146.740000
259.515717	145.840000
259.608612	145.720000
259.701538	145.480000
259.794464	145.280000
259.887390	145.520000
259.980316	145.540000
260.073212	145.740000
260.166138	144.820000
260.259064	145.620000
260.351990	146.400000
260.444916	146.820000
260.537842	146.820000
260.630768	147.660000
260.723694	147.140000
260.816620	146.700000
260.909546	146.400000
261.002472	146.080000
261.095398	145.420000
261.188354	145.440000
261.281281	144.920000
261.374207	145.180000
261.467133	145.560000
261.560089	146.020000
261.653015	145.720000
261.745972	146.640000
261.838867	146.920000
261.931824	147.020000
262.024780	146.220000
262.117706	146.500000
262.210663	146.140000
262.303589	145.660000
262.396515	145.600000
262.489471	146.680000
262.582397	146.580000
262.675354	146.240000
262.768280	146.360000
262.861237	146.320000
262.954163	146.200000
263.047119	146.320000
263.140045	146.280000
263.233002	146.260000
263.325958	146.120000
263.418884	145.540000
263.511841	145.480000
263.604797	145.500000
263.697723	145.420000
263.790680	145.500000
263.883636	146.180000
263.976593	146.100000
264.069550	146.160000
264.162476	146.160000
264.255463	146.360000
264.348419	145.960000
264.441376	146.100000
264.534332	145.820000
264.627289	145.960000
264.720245	146.180000
264.813202	145.660000
264.906158	145.780000
264.999115	146.540000
265.092072	146.400000
265.185028	146.780000
265.277985	147.360000
265.370941	147.140000
265.463898	146.580000
265.556854	146.360000
265.649811	145.440000
265.742798	145.420000
265.835754	145.640000
265.928711	146.080000
266.021667	146.220000
266.114655	146.140000
266.207611	146.540000
266.300568	145.820000
266.393585	145.440000
266.486511	145.740000
266.579498	145.280000
266.672485	144.960000
266.765442	145.140000
266.858429	145.400000
266.951385	145.220000
267.044342	145.640000
267.137329	145.660000
267.230316	146.120000
267.323273	145.820000
267.416260	146.400000
267.509216	146.420000
267.602203	146.340000
267.695160	146.900000
267.788147	146.900000
267.881134	146.180000
267.974091	146.540000
268.067078	146.300000
268.160065	145.840000
268.253052	145.820000
268.346008	145.940000
268.438995	145.400000
268.531982	145.500000
268.624969	145.240000
268.717987	145.620000
268.810944	145.780000
268.903961	146.280000
268.996948	146.040000
269.089905	146.380000
269.182892	146.480000
269.275879	146.300000
269.368866	145.640000
269.461853	146.240000
269.554871	145.960000
269.647858	145.860000
269.740845	146.580000
269.833832	147.280000
269.926819	146.600000
270.019806	146.760000
270.112793	146.200000
270.205811	145.860000
270.298798	145.440000
270.391785	146.420000
270.484772	146.000000
270.577789	146.280000
270.670776	145.880000
270.763763	145.960000
270.856750	145.380000
270.949768	145.500000
271.042786	145.560000
271.135773	145.720000
271.228790	146.080000
271.321808	145.640000
271.414795	145.460000
271.507782	145.120000
271.600800	144.920000
271.693817	144.880000
271.786804	145.640000
271.879822	146.060000
271.972809	145.960000
272.065826	146.500000
272.158844	145.760000
272.251831	145.980000
272.344849	145.940000
272.437866	145.940000
272.530853	145.780000
272.623871	146.320000
272.716888	145.540000
272.809906	145.880000
272.902893	146.020000
272.995911	145.360000
273.088928	145.160000
273.181946	145.580000
273.274963	145.100000
273.367981	145.180000
273.460999	145.580000
273.554047	146.060000
273.647003	146.500000
273.740051	146.820000
273.833069	147.420000
273.926086	147.700000
274.019135	147.560000
274.112152	147.140000
274.205170	146.960000
274.298187	146.860000
274.391205	146.140000
274.484222	146.060000
274.577240	146.060000
274.670258	145.940000
274.763306	145.740000
274.856323	146.620000
274.949341	146.680000
275.042358	146.740000
275.135406	146.380000
275.228424	146.320000
275.321442	145.620000
275.414490	145.220000
275.507507	145.600000
275.600525	146.200000
275.693573	145.980000
275.786591	145.940000
275.879669	146.460000
275.972656	145.900000
276.065735	145.700000
276.158752	146.600000
276.251801	147.480000
276.344818	147.220000
276.437866	147.420000
276.530884	147.320000
276.623932	146.120000
276.716980	146.320000
276.809998	146.420000
276.903046	146.360000
276.996094	147.180000
277.089111	148.100000
277.182159	147.980000
277.275208	147.380000
277.368256	147.160000
277.461304	146.500000
277.554321	145.560000
277.647369	145.300000
277.740417	145.760000
277.833466	145.860000
277.926514	145.740000
278.019562	146.760000
278.112610	146.300000
278.205688	146.320000
278.298706	146.540000
278.391785	146.420000
278.484833	145.360000
278.577881	145.460000
278.670929	145.660000
278.763977	145.540000
278.857025	145.940000
278.950073	146.360000
279.043121	146.120000
279.136169	146.140000
279.229248	146.000000
279.322296	145.700000
279.415344	145.700000
279.508392	146.120000
279.601440	145.900000
279.694519	145.640000
279.787567	145.580000
279.880615	145.460000
279.973694	145.280000
280.066742	145.080000
280.159790	145.480000
280.252869	145.340000
280.345917	145.400000
280.438995	145.040000
280.532074	145.200000
280.625122	145.400000
280.718201	146.260000
280.811279	146.480000
280.904327	146.580000
280.997406	146.620000
281.090454	146.580000
281.183533	146.020000
281.276581	145.960000
281.369659	146.120000
281.462738	146.240000
281.555786	146.260000
281.648865	146.420000
281.741943	146.480000
281.835022	146.940000
281.928070	146.600000
282.021149	146.320000
282.114227	146.220000
282.207306	146.000000
282.300385	146.040000
282.393433	146.740000
282.486511	146.720000
282.579590	147.020000
282.672668	147.540000
282.765747	146.920000
282.858856	146.100000
282.951904	146.100000
283.045013	146.060000
283.138062	146.220000
283.231171	146.640000
283.324249	147.320000
283.417328	147.580000
283.510406	147.140000
283.603485	146.680000
283.696564	146.860000
283.789642	146.900000
283.882751	146.520000
283.975830	147.120000
284.068909	146.900000
284.161987	147.340000
284.255066	146.560000
284.348175	146.700000
284.441254	146.560000
284.534332	146.800000
284.627441	146.100000
284.720520	145.940000
284.813599	145.880000
284.906708	145.920000
284.999786	145.340000
285.092896	144.880000
285.185974	146.000000
285.279053	145.900000
285.372192	145.760000
285.465240	146.820000
285.558380	147.280000
285.651459	146.940000
285.744568	147.720000
285.837677	147.120000
285.930756	146.780000
286.023865	146.640000
286.116943	146.340000
286.210052	145.780000
286.303162	146.020000
286.396240	145.880000
286.489349	145.500000
286.582458	145.660000
286.675568	145.460000
286.768646	145.720000
286.861755	146.160000
286.954865	147.140000
287.047974	146.840000
287.141083	147.020000
287.234161	146.880000
287.327271	146.300000
287.420380	146.260000
287.513519	146.260000
287.606598	146.360000
287.699738	146.460000
287.792816	146.340000
287.885956	145.860000
287.979034	145.900000
288.072174	145.840000
288.165283	145.700000
288.258392	146.180000
288.351501	145.680000
288.444611	146.300000
288.537720	146.700000
288.630859	146.620000
288.723969	146.620000
288.817078	147.320000
288.910187	146.940000
289.003296	146.240000
289.096436	146.220000
289.189545	146.020000
289.282654	145.480000
289.375763	145.540000
289.468903	146.100000
289.562012	146.360000
289.655121	146.420000
289.748260	146.680000
289.841400	147.240000
289.934509	147.080000
290.027649	147.220000
290.120728	146.660000
290.213898	146.720000
290.306976	146.100000
290.400146	146.240000
290.493256	145.600000
290.586395	146.280000
290.679535	146.640000
290.772644	146.300000
290.865784	145.360000
290.958893	145.540000
291.052032	145.220000
291.145172	144.900000
291.238281	144.960000
291.331421	145.400000
291.424561	146.000000
291.517670	145.680000
291.610809	145.880000
291.703949	145.760000
291.797089	146.120000
291.890228	145.680000
291.983337	145.760000
292.076477	145.420000
292.169617	145.920000
292.262756	145.620000
292.355927	145.700000
292.449036	145.920000
292.542206	146.100000
292.635315	146.040000
292.728485	146.540000
292.821625	146.120000
292.914764	146.880000
293.007904	146.940000
293.101044	147.060000
293.194183	146.440000
293.287323	146.660000
293.380463	146.100000
293.473602	145.880000
293.566742	145.700000
293.659882	146.500000
293.753021	146.780000
293.846191	146.580000
293.939331	146.320000
294.032471	146.440000
294.125610	145.700000
294.218781	145.720000
294.311920	146.340000
294.405060	146.920000
294.498230	146.620000
294.591370	146.920000
294.684540	146.220000
294.777679	145.540000
294.870850	145.640000
294.963959	145.600000
295.057159	145.220000
295.150299	145.760000
295.243469	145.820000
295.336609	145.180000
295.429779	145.360000
295.522919	145.960000
295.616089	146.120000
295.709229	146.580000
295.802399	146.940000
295.895569	146.800000
295.988708	146.440000
296.081879	146.400000
296.175018	145.820000
296.268188	145.760000
296.361359	146.180000
296.454529	146.300000
296.547668	146.020000
296.640839	146.300000
296.734009	145.920000
296.827179	145.980000
296.920319	146.440000
297.013519	146.380000
297.106659	146.600000
297.199860	146.680000
297.292999	146.360000
297.386200	145.780000
297.479309	145.940000
297.572510	145.680000
297.665680	145.520000
297.758850	145.560000
297.852020	145.660000
297.945190	145.600000
298.038361	145.360000
298.131531	146.100000
298.224701	146.020000
298.317871	145.580000
298.411072	145.040000
298.504242	145.020000
298.597412	144.380000
298.690582	144.680000
298.783752	144.760000
298.876923	145.380000
298.970093	145.400000
299.063293	145.820000
299.156464	145.920000
299.249634	146.280000
299.342834	146.340000
299.436005	146.700000
299.529205	146.660000
299.622345	146.500000
299.715576	146.020000
299.808716	145.940000
299.901917	145.720000
299.995117	145.860000
300.088287	145.960000
300.181488	146.100000
300.274658	145.960000
300.367828	145.940000
300.461029	145.620000
300.554199	146.080000
300.647400	146.140000
300.740601	146.740000
300.833771	146.540000
300.926971	147.080000
301.020142	145.960000
301.113342	145.860000
301.206512	145.320000
301.299713	145.780000
301.392914	145.620000
301.486084	146.180000
301.579285	146.280000
301.672516	147.000000
301.765686	146.680000
301.858887	146.720000
301.952057	146.640000
302.045288	146.920000
302.138458	146.240000
302.231659	146.300000
302.324860	145.840000
302.418060	145.780000
302.511261	145.480000
302.604462	146.020000
302.697662	145.880000
302.790863	145.920000
302.884064	145.660000
302.977264	145.600000
303.070465	145.320000
303.163666	146.200000
303.256866	146.560000
303.350067	146.820000
303.443268	147.040000
303.536469	147.160000
303.629669	146.600000
303.722870	146.620000
303.816071	146.520000
303.909271	146.520000
304.002472	145.680000
304.095673	145.580000
304.188934	144.980000
304.282104	145.740000
304.375336	145.840000
304.468506	146.180000
304.561768	145.840000
304.654968	146.440000
304.748169	145.520000
304.841370	145.160000
304.934601	145.580000
305.027802	145.620000
305.121002	145.160000
305.214233	145.380000
305.307434	145.720000
305.400665	146.000000
305.493866	145.860000
305.587097	146.440000
305.680298	146.140000
305.773499	146.540000
305.866730	146.220000
305.959930	146.580000
306.053162	146.540000
306.146393	146.320000
306.239594	145.400000
306.332825	145.320000
306.426025	145.900000
306.519287	145.380000
306.612488	145.780000
306.705719	146.120000
306.798920	146.200000
306.892181	145.300000
306.985352	145.020000
307.078613	144.460000
307.171844	144.640000
307.265045	144.120000
307.358276	144.040000
307.451508	144.700000
307.544739	145.480000
307.637970	145.200000
307.731201	145.420000
307.824402	146.000000
307.917633	146.040000
308.010864	146.320000
308.104095	146.720000
308.197327	146.980000
308.290558	147.140000
308.383789	146.800000
308.477020	146.360000
308.570251	145.700000
308.663483	145.080000
308.756714	144.500000
308.849976	144.620000
308.943176	145.000000
309.036438	145.100000
309.129639	145.380000
309.222900	145.460000
309.316101	145.240000
309.409393	144.620000
309.502625	144.600000
309.595856	144.640000
309.689087	144.880000
309.782318	144.920000
309.875580	145.200000
309.968811	145.480000
310.062042	145.260000
310.155273	145.000000
310.248535	145.580000
310.341766	145.580000
310.434998	145.120000
310.528259	145.160000
310.621490	145.560000
310.714722	144.820000
310.807983	144.660000
310.901215	144.880000
310.994476	145.140000
311.087708	144.620000
311.181000	145.280000
311.274200	145.120000
311.367462	145.020000
311.460693	144.800000
311.553986	145.580000
311.647186	145.580000
311.740479	146.340000
311.833710	146.460000
311.926971	146.660000
312.020203	146.160000
312.113464	145.940000
312.206726	145.220000
312.299957	145.460000
312.393219	145.760000
312.486481	145.940000
312.579712	145.840000
312.672974	146.280000
312.766235	146.260000
312.859497	146.020000
312.952759	145.920000
313.045990	146.640000
313.139252	145.920000
313.232513	146.140000
313.325775	146.200000
313.419037	146.420000
313.512299	145.680000
313.605530	146.560000
313.698822	146.480000
313.792053	146.680000
313.885345	146.020000
313.978577	145.920000
314.071869	145.180000
314.165131	145.360000
314.258392	145.420000
314.351654	145.940000
314.444916	145.700000
314.538177	146.640000
314.631439	146.760000
314.724701	146.500000
314.817993	146.240000
314.911255	146.380000
315.004517	145.460000
315.097778	145.400000
315.191040	146.100000
315.284302	146.480000
315.377594	146.460000
315.470856	146.760000
315.564117	146.220000
315.657379	145.360000
315.750671	144.800000
315.843933	145.100000
315.937195	144.640000
316.030518	144.300000
316.123749	144.360000
316.217041	145.480000
316.310303	145.320000
316.403595	145.800000
316.496857	146.520000
316.590149	146.640000
316.683411	145.640000
316.776703	145.520000
316.869965	145.820000
316.963257	145.400000
317.056519	145.040000
317.149811	144.980000
317.243073	145.240000
317.336365	145.040000
317.429626	145.580000
317.522919	146.220000
317.616180	146.340000
317.709473	145.960000
317.802765	145.740000
317.896027	145.620000
317.989319	145.740000
318.082611	145.580000
318.175873	145.700000
318.269165	145.860000
318.362488	145.600000
318.455750	145.200000
318.549042	145.800000
318.642303	146.300000
318.735626	146.060000
318.828888	146.060000
318.922211	145.780000
319.015472	146.140000
319.108765	145.380000
319.202057	145.040000
319.295349	145.400000
319.388641	145.780000
319.481934	145.060000
319.575226	145.440000
319.668518	146.140000
319.761810	146.100000
319.855103	145.880000
319.948395	146.020000
320.041687	146.120000
320.134979	146.040000
320.228271	146.040000
320.321564	145.900000
320.414856	145.860000
320.508148	145.560000
320.601440	145.280000
320.694763	144.980000
320.788025	145.780000
320.881348	145.840000
320.974640	145.840000
321.067963	145.680000
321.161224	145.820000
321.254547	144.760000
321.347839	145.200000
321.441162	144.920000
321.534454	145.220000
321.627747	145.240000
321.721069	146.320000
321.814362	146.220000
321.907654	146.780000
322.000946	146.440000
322.094269	146.720000
322.187561	146.240000
322.280884	146.360000
322.374176	146.280000
322.467468	147.140000
322.560791	147.060000
322.654083	147.420000
322.747406	147.300000
322.840698	147.480000
322.934021	147.240000
323.027344	147.300000
323.120636	147.040000
323.213959	146.660000
323.307251	145.980000
323.400574	145.700000
323.493866	145.320000
323.587219	145.120000
323.680511	145.600000
323.773834	146.120000
323.867157	146.260000
323.960449	146.280000
324.053772	146.100000
324.147095	145.700000
324.240387	146.100000
324.333710	146.300000
324.427032	146.740000
324.520355	146.800000
324.613647	146.760000
324.706970	146.180000
324.800293	146.060000
324.893616	145.960000
324.986938	146.300000
325.080231	146.080000
325.173553	146.640000
325.266876	147.080000
325.360199	146.940000
325.453522	146.380000
325.546875	146.300000
325.640167	146.220000
325.733521	146.060000
325.826813	146.400000
325.920166	146.620000
326.013489	146.640000
326.106812	145.640000
326.200134	145.080000
326.293457	144.400000
326.386780	144.660000
326.480103	144.760000
326.573425	145.240000
326.666748	145.500000
326.760071	146.100000
326.853424	146.220000
326.946747	146.400000
327.040070	147.120000
327.133392	146.920000
327.226715	145.840000
327.320068	145.160000
327.413391	145.780000
327.506714	145.060000
327.600037	144.880000
327.693390	145.460000
327.786713	145.820000
327.880066	145.220000
327.973358	145.580000
328.066742	146.120000
328.160034	146.440000
328.253418	146.680000
328.346710	146.540000
328.440063	146.340000
328.533417	146.080000
328.626740	146.120000
328.720093	145.620000
328.813416	145.680000
328.906769	145.660000
329.000092	146.020000
329.093445	145.680000
329.186768	145.760000
329.280121	145.960000
329.373444	146.240000
329.466797	146.020000
329.560120	146.000000
329.653473	146.040000
329.746796	145.760000
329.840149	145.560000
329.933502	145.580000
330.026825	145.480000
330.120178	145.560000
330.213562	145.600000
330.306854	145.480000
330.400238	145.260000
330.493561	145.240000
330.586945	146.140000
330.680237	146.280000
330.773621	146.580000
330.866974	146.660000
330.960327	146.900000
331.053680	146.000000
331.147003	146.060000
331.240356	146.000000
331.333710	146.020000
331.427063	145.900000
331.520416	145.880000
331.613770	145.580000
331.707123	145.420000
331.800476	145.660000
331.893829	146.580000
331.987152	146.700000
332.080505	147.000000
332.173859	147.040000
332.267212	146.360000
332.360565	145.720000
332.453918	145.540000
332.547333	145.260000
332.640656	145.320000
332.734039	145.680000
332.827362	145.520000
332.920746	145.800000
333.014069	146.240000
333.107452	146.460000
333.200806	146.720000
333.294159	146.980000
333.387543	146.680000
333.480896	146.180000
333.574249	145.840000
333.667603	145.300000
333.760956	145.320000
333.854340	145.240000
333.947693	145.280000
334.041046	145.200000
334.134430	145.900000
334.227783	145.420000
334.321136	145.440000
334.414520	145.420000
334.507874	145.620000
334.601227	145.280000
334.694611	145.440000
334.787964	145.780000
334.881348	146.280000
334.974701	146.520000
335.068085	146.220000
335.161438	146.580000
335.254822	146.360000
335.348175	146.180000
335.441559	145.700000
335.534943	146.360000
335.628296	146.100000
335.721680	145.980000
335.815033	146.060000
335.908417	146.460000
336.001770	146.360000
336.095154	146.080000
336.188538	146.240000
336.281891	145.840000
336.375275	145.340000
336.468658	144.760000
336.562012	144.920000
336.655396	144.840000
336.748779	145.040000
336.842133	145.040000
336.935516	145.680000
337.028900	145.700000
337.122284	145.880000
337.215637	146.040000
337.309021	146.220000
337.402435	145.820000
337.495789	145.740000
337.589203	145.740000
337.682526	145.500000
337.775940	145.820000
337.869324	146.060000
337.962708	145.700000
338.056091	145.860000
338.149475	145.740000
338.242859	145.480000
338.336243	145.060000
338.429626	145.580000
338.523010	145.340000
338.616394	145.100000
338.709778	145.500000
338.803162	145.860000
338.896545	145.840000
338.989929	145.660000
339.083313	146.040000
339.176697	145.360000
339.270081	145.040000
339.363464	144.940000
339.456848	145.480000
339.550232	145.000000
339.643616	144.880000
339.737030	145.040000
339.830383	144.760000
339.923828	144.600000
340.017181	145.080000
340.110596	145.580000
340.203949	145.640000
340.297363	145.680000
340.390778	145.540000
340.484161	145.600000
340.577545	145.420000
340.670959	145.420000
340.764343	145.420000
340.857727	145.400000
340.951111	144.740000
341.044525	145.020000
341.137909	144.680000
341.231293	144.640000
341.324707	144.460000
341.418091	145.620000
341.511505	145.580000
341.604889	146.000000
341.698303	146.320000
341.791687	146.580000
341.885071	145.640000
341.978485	145.080000
342.071899	145.480000
342.165283	145.580000
342.258698	145.740000
342.352081	146.580000
342.445496	147.420000
342.538879	146.960000
342.632324	146.540000
342.725708	146.340000
342.819122	145.740000
342.912506	145.080000
343.005920	145.180000
343.099335	146.120000
343.192719	146.060000
343.286133	146.060000
343.379547	146.520000
343.472931	146.480000
343.566345	145.520000
343.659760	145.780000
343.753143	145.500000
343.846558	145.220000
343.939972	145.000000
344.033386	145.960000
344.126770	145.820000
344.220184	146.380000
344.313599	146.840000
344.407043	147.060000
344.500427	146.360000
344.593872	146.860000
344.687225	146.300000
344.780670	145.780000
344.874054	145.460000
344.967499	145.840000
345.060913	145.440000
345.154327	145.560000
345.247742	145.360000
345.341156	145.360000
345.434570	145.020000
345.527985	144.980000
345.621399	145.200000
345.714813	145.580000
345.808228	145.740000
345.901642	145.680000
345.995056	145.300000
346.088470	145.400000
346.181885	145.400000
346.275299	145.280000
346.368713	145.260000
346.462128	145.000000
346.555573	145.020000
346.648987	145.260000
346.742401	145.260000
346.835815	145.680000
346.929260	145.600000
347.022644	145.480000
347.116119	145.400000
347.209503	145.760000
347.302948	146.360000
347.396362	147.560000
347.489807	147.560000
347.583221	147.680000
347.676636	147.280000
347.770050	145.900000
347.863495	144.920000
347.956909	144.980000
348.050323	144.480000
348.143768	144.300000
348.237183	144.480000
348.330597	145.240000
348.424042	145.480000
348.517456	145.980000
348.610901	146.560000
348.704315	146.580000
348.797760	145.980000
348.891174	145.320000
348.984619	144.760000
349.078033	145.040000
349.171448	145.800000
349.264923	145.700000
349.358337	145.880000
349.451782	146.240000
349.545197	145.560000
349.638641	144.800000
349.732086	144.760000
349.825500	145.240000
349.918945	145.180000
350.012390	145.700000
350.105804	146.400000
350.199249	146.740000
350.292664	146.860000
350.386108	146.800000
350.479553	147.120000
350.572968	146.880000
350.666412	146.920000
350.759857	146.720000
350.853302	147.060000
350.946716	146.200000
351.040161	146.180000
351.133606	146.440000
351.227081	146.480000
351.320465	147.200000
351.413940	147.440000
351.507355	147.440000
351.600830	147.240000
351.694244	146.760000
351.787720	145.960000
351.881104	146.080000
351.974579	145.980000
352.067993	146.540000
352.161469	146.660000
352.254883	146.020000
352.348358	145.840000
352.441803	145.620000
352.535248	144.980000
352.628693	145.440000
352.722137	145.920000
352.815582	145.940000
352.909027	146.180000
353.002472	145.900000
353.095917	145.740000
353.189362	145.940000
353.282806	145.820000
353.376251	145.940000
353.469696	145.880000
353.563141	145.900000
353.656586	145.580000
353.750061	145.480000
353.843475	145.260000
353.936981	145.920000
354.030396	145.620000
354.123871	145.700000
354.217285	146.540000
354.310760	146.920000
354.404175	146.480000
354.497681	146.240000
354.591095	146.180000
354.684570	144.960000
354.777985	144.600000
354.871490	144.620000
354.964935	145.160000
355.058380	145.740000
355.151855	146.120000
355.245300	146.520000
355.338745	146.900000
355.432220	146.860000
355.525665	146.020000
355.619110	146.500000
355.712585	146.200000
355.806030	145.940000
355.899475	145.240000
355.992950	145.820000
356.086426	145.820000
356.179871	145.800000
356.273346	145.900000
356.366791	146.400000
356.460266	146.640000
356.553711	146.040000
356.647186	146.340000
356.740631	146.000000
356.834106	145.980000
356.927551	145.580000
357.021027	146.080000
357.114471	145.740000
357.207947	145.760000
357.301422	145.840000
357.394867	146.020000
357.488342	146.140000
357.581818	146.540000
357.675262	146.900000
357.768738	146.560000
357.862213	145.840000
357.955658	145.680000
358.049133	145.120000
358.142609	145.440000
358.236053	145.340000
358.329529	145.480000
358.423035	145.800000
358.516449	145.380000
358.609955	145.660000
358.703400	146.540000
358.796906	146.780000
358.890350	146.140000
358.983826	146.680000
359.077271	145.640000
359.170776	145.120000
359.264221	145.120000
359.357727	145.700000
359.451172	145.980000
359.544647	145.960000
359.638123	146.060000
359.731598	146.300000
359.825073	146.160000
359.918549	146.160000
360.012024	146.560000
360.105499	146.200000
360.198975	146.220000
360.292450	146.120000
360.385925	145.720000
360.479401	145.420000
360.572876	145.980000
360.666351	145.940000
360.759857	145.780000
360.853302	146.200000
360.946808	146.000000
361.040253	145.780000
361.133759	145.520000
361.227203	145.960000
361.320709	145.600000
361.414154	145.960000
361.507660	146.120000
361.601105	146.520000
361.694641	146.780000
361.788086	146.540000
361.881592	146.780000
361.975067	146.580000
362.068542	147.080000
362.162018	146.680000
362.255524	146.760000
362.348999	146.640000
362.442474	146.860000
362.535950	145.840000
362.629456	145.600000
362.722931	145.800000
362.816406	146.180000
362.909882	146.360000
363.003387	146.440000
363.096863	147.160000
363.190338	147.180000
363.283875	146.720000
363.377319	146.360000
363.470825	146.840000
363.564301	145.680000
363.657806	145.740000
363.751282	145.560000
363.844788	146.480000
363.938232	146.020000
364.031769	147.020000
364.125214	147.120000
364.218750	147.380000
364.312225	146.020000
364.405731	146.060000
364.499207	145.440000
364.592712	145.040000
364.686188	145.220000
364.779694	145.960000
364.873169	145.920000
364.966675	145.740000
365.060150	145.800000
365.153656	145.740000
365.247131	145.340000
365.340637	145.640000
365.434143	146.400000
365.527618	146.500000
365.621155	145.800000
365.714600	145.760000
365.808136	145.780000
365.901611	144.880000
365.995117	144.740000
366.088593	145.040000
366.182129	145.040000
366.275604	144.960000
366.369110	145.240000
366.462585	145.500000
366.556122	146.060000
366.649567	146.300000
366.743103	146.500000
366.836609	146.420000
366.930115	146.460000
367.023590	146.660000
367.117096	146.200000
367.210602	145.820000
367.304108	146.660000
367.397614	146.940000
367.491119	146.620000
367.584595	146.980000
367.678101	147.500000
367.771606	146.780000
367.865112	146.220000
367.958649	145.840000
368.052124	145.760000
368.145660	145.480000
368.239136	146.120000
368.332672	146.460000
368.426147	146.760000
368.519684	146.880000
368.613159	147.260000
368.706696	146.660000
368.800171	146.460000
368.893707	146.080000
368.987183	145.920000
369.080719	145.320000
369.174225	145.220000
369.267731	145.700000
369.361237	145.880000
369.454742	145.820000
369.548248	146.300000
369.641754	146.320000
369.735260	145.840000
369.828766	145.120000
369.922272	145.960000
370.015808	145.760000
370.109314	145.740000
370.202820	145.500000
370.296356	146.900000
370.389832	146.160000
370.483368	146.020000
370.576874	146.060000
370.670410	146.420000
370.763885	145.340000
370.857422	145.380000
370.950928	145.300000
371.044464	145.920000
371.137939	145.940000
371.231476	146.400000
371.324982	146.840000
371.418518	146.880000
371.512024	146.360000
371.605560	146.160000
371.699066	146.600000
371.792572	146.220000
371.886108	146.680000
371.979614	146.680000
372.073120	147.240000
372.166656	147.060000
372.260162	147.180000
372.353668	146.740000
372.447205	146.640000
372.540710	146.400000
372.634277	145.820000
372.727753	146.160000
372.821320	146.440000
372.914795	146.360000
373.008362	145.960000
373.101837	146.660000
373.195404	146.280000
373.288879	145.860000
373.382446	146.640000
373.475922	146.920000
373.569489	147.240000
373.662964	147.600000
373.756531	147.740000
373.850037	147.540000
373.943573	147.400000
374.037109	146.080000
374.130615	146.080000
374.224152	146.380000
374.317657	146.160000
374.411194	147.020000
374.504730	147.080000
374.598236	146.580000
374.691772	146.080000
374.785309	145.960000
374.878815	144.900000
374.972351	145.840000
375.065887	145.980000
375.159454	146.660000
375.252930	146.720000
375.346497	147.160000
375.440002	147.460000
375.533569	147.180000
375.627045	146.660000
375.720612	146.480000
375.814117	146.580000
375.907684	146.100000
376.001160	146.160000
376.094727	145.780000
376.188232	146.780000
376.281799	146.760000
376.375336	146.600000
376.468872	147.140000
376.562408	147.420000
376.655914	146.460000
376.749451	146.460000
376.842987	146.640000
376.936523	146.200000
377.030060	146.120000
377.123596	146.320000
377.217133	145.660000
377.310669	145.280000
377.404205	145.700000
377.497772	146.220000
377.591278	145.940000
377.684845	146.780000
377.778351	147.260000
377.871918	147.060000
377.965424	146.160000
378.058990	146.020000
378.152496	145.660000
378.246063	145.700000
378.339569	145.720000
378.433136	146.220000
378.526642	146.720000
378.620209	146.700000
378.713745	146.320000
378.807312	147.000000
378.900848	146.660000
378.994385	146.740000
379.087921	146.260000
379.181458	146.520000
379.274994	145.460000
379.368530	145.660000
379.462097	145.660000
379.555634	146.340000
379.649170	145.780000
379.742706	146.080000
379.836273	146.280000
379.929810	145.900000
380.023376	145.220000
380.116882	145.480000
380.210449	145.340000
380.303986	144.860000
380.397552	144.480000
380.491058	145.160000
380.584656	144.940000
380.678162	145.320000
380.771729	145.860000
380.865265	146.860000
380.958832	146.640000
381.052368	146.960000
381.145935	147.060000
381.239471	147.140000
381.333008	146.720000
381.426575	146.840000
381.520111	147.060000
381.613647	147.140000
381.707214	146.780000
381.800751	146.300000
381.894318	146.580000
381.987854	146.020000
382.081421	145.560000
382.174988	145.860000
382.268524	145.920000
382.362091	145.600000
382.455627	146.580000
382.549194	146.600000
382.642731	145.840000
382.736298	145.940000
382.829834	145.420000
382.923401	145.520000
383.016937	145.480000
383.110504	146.220000
383.204041	146.260000
383.297607	147.160000
383.391174	146.060000
383.484741	147.080000
383.578278	146.600000
383.671844	146.460000
383.765411	145.760000
383.858948	146.360000
383.952515	145.480000
384.046051	146.100000
384.139618	146.360000
384.233185	146.600000
384.326721	146.380000
384.420288	147.020000
384.513855	147.140000
384.607422	147.360000
384.700989	147.660000
384.794525	147.600000
384.888123	147.040000
384.981659	147.060000
385.075226	146.340000
385.168762	145.880000
385.262360	145.880000
385.355896	145.140000
385.449463	144.920000
385.542999	145.160000
385.636597	146.060000
385.730164	146.100000
385.823730	146.620000
385.917267	145.920000
386.010834	146.120000
386.104401	145.500000
386.197968	145.660000
386.291534	145.740000
386.385101	146.060000
386.478668	146.460000
386.572235	146.160000
386.665802	145.780000
386.759338	145.720000
386.852905	145.540000
386.946472	145.120000
387.040070	145.460000
387.133606	145.600000
387.227203	145.280000
387.320740	145.500000
387.414337	145.420000
387.507874	145.360000
387.601471	145.500000
387.695007	145.620000
387.788605	145.520000
387.882141	145.540000
387.975739	145.640000
388.069275	145.220000
388.162872	145.220000
388.256439	145.020000
388.350037	145.120000
388.443604	144.820000
388.537170	145.180000
388.630737	145.660000
388.724304	146.100000
388.817871	145.840000
388.911438	146.200000
389.005005	146.480000
389.098602	146.520000
389.192169	146.400000
389.285736	146.980000
389.379333	146.840000
389.472870	146.300000
389.566467	146.240000
389.660034	146.220000
389.753632	145.700000
389.847168	145.600000
389.940765	145.780000
390.034332	146.140000
390.127930	145.900000
390.221466	145.820000
390.315063	145.680000
390.408630	145.080000
390.502228	144.060000
390.595795	144.460000
390.689362	144.700000
390.782959	145.100000
390.876526	145.880000
390.970093	145.860000
391.063690	146.260000
391.157257	146.420000
391.250824	146.320000
391.344421	145.840000
391.437988	146.540000
391.531555	146.260000
391.625153	146.240000
391.718750	146.600000
391.812317	146.760000
391.905914	146.380000
391.999481	146.520000
392.093079	146.500000
392.186615	146.760000
392.280243	146.980000
392.373779	147.180000
392.467407	147.540000
392.560944	147.660000
392.654572	146.860000
392.748108	146.820000
392.841736	146.620000
392.935303	145.880000
393.028900	145.720000
393.122467	145.820000
393.216064	145.400000
393.309631	145.360000
393.403229	145.160000
393.496796	145.060000
393.590393	144.660000
393.683990	145.060000
393.777557	145.480000
393.871155	145.740000
393.964722	146.260000
394.058350	146.520000
394.151917	146.580000
394.245514	145.920000
394.339081	146.340000
394.432678	146.220000
394.526245	146.240000
394.619873	145.660000
394.713409	146.120000
394.807037	145.740000
394.900604	145.860000
394.994202	145.880000
395.087769	146.360000
395.181396	146.020000
395.274994	146.680000
395.368561	145.880000
395.462158	146.140000
395.555756	145.920000
395.649353	146.140000
395.742920	145.240000
395.836517	146.060000
395.930115	145.220000
396.023712	145.720000
396.117279	146.080000
396.210876	146.100000
396.304474	145.780000
396.398071	146.300000
396.491669	146.600000
396.585266	146.140000
396.678833	146.340000
396.772461	146.600000
396.866028	146.720000
396.959656	146.920000
397.053223	147.700000
397.146851	148.440000
397.240417	149.400000
397.334015	151.740000
397.427582	153.140000
397.521210	155.580000
397.614807	159.240000
397.708405	163.320000
397.802002	168.120000
397.895599	175.620000
397.989197	184.360000
398.082794	194.640000
398.176392	208.140000
398.269989	223.220000
398.363586	240.960000
398.457184	261.880000
398.550781	284.800000
398.644379	306.860000
398.737976	330.440000
398.831573	353.080000
398.925201	372.800000
399.018768	391.160000
399.112396	409.080000
399.205963	424.320000
399.299591	438.300000
399.393158	453.180000
399.486786	465.840000
399.580353	476.400000
399.673981	483.640000
399.767578	488.400000
399.861206	489.020000
399.954773	485.880000
400.048401	479.620000
400.141998	469.700000
400.235596	458.420000
400.329193	443.940000
400.422791	427.840000
400.516418	410.180000
400.610016	394.880000
400.703613	377.440000
400.797211	359.840000
400.890808	343.260000
400.984436	327.560000
401.078033	310.240000
401.171631	292.860000
401.265259	275.180000
401.358826	258.460000
401.452484	240.920000
401.546051	225.220000
401.639679	210.120000
401.733246	198.700000
401.826904	187.800000
401.920471	178.740000
402.014099	171.280000
402.107697	165.700000
402.201324	160.520000
402.294891	156.780000
402.388550	154.420000
402.482147	152.560000
402.575745	150.640000
402.669373	148.840000
402.762970	147.720000
402.856567	147.000000
402.950195	146.780000
403.043793	146.640000
403.137390	147.720000
403.231018	146.900000
403.324615	147.440000
403.418243	146.800000
403.511841	147.500000
403.605469	146.940000
403.699066	147.660000
403.792694	147.320000
403.886292	147.740000
403.979919	147.040000
404.073517	146.520000
404.167145	146.540000
404.260712	146.520000
404.354370	146.180000
404.447937	146.460000
404.541595	146.900000
404.635162	147.200000
404.728821	147.400000
404.822418	147.180000
404.916046	147.000000
405.009644	147.220000
405.103271	147.220000
405.196899	146.860000
405.290497	147.000000
405.384125	147.000000
405.477722	146.080000
405.571350	145.360000
405.664948	145.600000
405.758575	145.520000
405.852203	145.380000
405.945801	146.020000
406.039429	146.340000
406.133057	145.800000
406.226654	145.600000
406.320312	145.820000
406.413879	145.980000
406.507538	146.280000
406.601135	146.000000
406.694763	146.700000
406.788361	146.480000
406.882019	145.860000
406.975586	145.980000
407.069244	146.900000
407.162872	146.660000
407.256470	146.440000
407.350098	146.480000
407.443726	146.080000
407.537323	145.180000
407.630951	145.540000
407.724579	145.680000
407.818207	146.300000
407.911804	146.240000
408.005432	146.620000
408.099060	146.560000
408.192688	146.920000
408.286285	146.380000
408.379913	146.080000
408.473572	146.260000
408.567169	145.580000
408.660828	145.400000
408.754395	145.240000
408.848053	145.500000
408.941650	145.640000
409.035309	145.400000
409.128906	145.480000
409.222565	145.780000
409.316132	146.080000
409.409790	145.620000
409.503387	146.060000
409.597046	146.180000
409.690674	146.020000
409.784302	145.740000
409.877930	145.780000
409.971558	146.060000
410.065186	145.940000
410.158783	145.940000
410.252411	145.780000
410.346039	146.120000
410.439667	146.020000
410.533295	146.220000
410.626923	146.720000
410.720551	146.900000
410.814209	147.380000
410.907806	147.360000
411.001465	146.940000
411.095062	146.680000
411.188721	146.840000
411.282318	146.300000
411.375977	145.940000
411.469574	146.240000
411.563232	146.140000
411.656830	145.960000
411.750488	145.660000
411.844086	145.800000
411.937744	145.980000
412.031372	145.820000
412.125000	145.820000
412.218628	146.000000
412.312256	146.440000
412.405884	146.740000
412.499512	146.660000
412.593170	146.800000
412.686798	147.140000
412.780426	146.540000
412.874054	146.220000
412.967682	146.640000
413.061310	147.120000
413.154968	146.960000
413.248566	147.340000
413.342224	147.220000
413.435852	147.220000
413.529510	146.680000
413.623108	145.960000
413.716766	145.680000
413.810364	145.900000
413.904022	145.480000
413.997650	145.280000
414.091309	146.320000
414.184906	146.220000
414.278564	145.480000
414.372192	145.820000
414.465851	146.060000
414.559479	145.500000
414.653107	146.400000
414.746735	146.580000
414.840393	146.680000
414.934021	146.860000
415.027649	146.420000
415.121277	145.800000
415.214935	146.400000
415.308563	146.420000
415.402191	145.960000
415.495850	146.520000
415.589478	146.320000
415.683136	146.100000
415.776733	145.960000
415.870422	146.660000
415.964020	145.800000
416.057678	146.000000
416.151306	145.780000
416.244965	145.620000
416.338562	145.400000
416.432251	146.400000
416.525848	147.340000
416.619507	147.660000
416.713165	147.800000
416.806793	147.340000
416.900421	147.300000
416.994080	146.360000
417.087708	146.200000
417.181366	145.880000
417.274994	146.100000
417.368622	146.380000
417.462280	146.760000
417.555908	146.500000
417.649567	146.660000
417.743195	146.940000
417.836853	146.600000
417.930481	146.580000
418.024170	146.820000
418.117767	147.280000
418.211426	147.100000
418.305054	147.280000
418.398712	146.740000
418.492340	146.740000
418.585999	146.940000
418.679626	146.980000
418.773285	146.900000
418.866913	147.340000
418.960571	147.420000
419.054230	147.340000
419.147858	147.320000
419.241516	147.320000
419.335144	146.900000
419.428802	146.740000
419.522461	146.120000
419.616089	145.680000
419.709747	145.760000
419.803375	145.960000
419.897034	145.620000
419.990662	145.760000
420.084320	146.200000
420.177979	146.280000
420.271606	146.460000
420.365295	147.300000
420.458893	147.540000
420.552582	147.840000
420.646210	147.640000
420.739868	147.260000
420.833496	146.500000
420.927155	146.140000
421.020782	145.640000
421.114471	145.260000
421.208069	145.640000
421.301758	146.020000
421.395386	146.400000
421.489044	146.340000
421.582703	146.480000
421.676361	146.720000
421.769989	146.400000
421.863647	146.440000
421.957306	146.680000
422.050934	147.100000
422.144592	146.500000
422.238251	146.520000
422.331909	146.240000
422.425537	146.280000
422.519196	146.020000
422.612854	145.920000
422.706543	145.600000
422.800140	145.920000
422.893829	145.420000
422.987457	145.120000
423.081146	145.400000
423.174744	146.160000
423.268433	145.640000
423.362061	145.800000
423.455750	145.820000
423.549347	145.880000
423.643036	145.100000
423.736664	145.940000
423.830353	146.140000
423.924011	146.860000
424.017639	146.300000
424.111298	146.640000
424.204956	146.380000
424.298615	146.140000
424.392273	145.520000
424.485931	146.120000
424.579559	145.980000
424.673218	145.600000
424.766876	145.620000
424.860535	145.300000
424.954193	144.700000
425.047882	145.220000
425.141510	145.280000
425.235199	145.540000
425.328796	145.580000
425.422485	145.860000
425.516113	145.220000
425.609802	145.380000
425.703430	145.260000
425.797119	145.340000
425.890747	145.620000
425.984436	145.900000
426.078064	145.700000
426.171753	145.880000
426.265411	145.780000
426.359070	145.920000
426.452728	145.880000
426.546356	145.560000
426.640015	145.280000
426.733673	145.240000
426.827332	144.680000
426.920990	145.760000
427.014648	145.820000
427.108307	146.100000
427.201965	147.020000
427.295624	147.260000
427.389282	145.860000
427.482941	146.460000
427.576630	146.560000
427.670258	145.860000
427.763947	145.860000
427.857574	146.160000
427.951263	145.920000
428.044922	145.460000
428.138611	145.520000
428.232239	145.840000
428.325928	146.220000
428.419556	146.520000
428.513245	146.300000
428.606903	146.320000
428.700562	145.400000
428.794220	144.760000
428.887878	144.080000
428.981537	144.640000
429.075195	144.760000
429.168854	145.480000
429.262512	145.880000
429.356201	146.160000
429.449860	145.780000
429.543518	145.680000
429.637177	146.140000
429.730835	146.040000
429.824493	146.040000
429.918182	146.460000
430.011810	146.200000
430.105530	145.360000
430.199158	145.460000
430.292847	145.140000
430.386475	144.980000
430.480164	144.800000
430.573792	144.480000
430.667511	144.480000
430.761139	144.560000
430.854828	144.740000
430.948456	145.200000
431.042145	146.100000
431.135834	145.460000
431.229492	145.760000
431.323151	145.960000
431.416809	145.700000
431.510468	145.200000
431.604156	145.680000
431.697815	145.660000
431.791473	144.900000
431.885132	144.680000
431.978821	145.280000
432.072479	145.440000
432.166138	145.960000
432.259827	146.020000
432.353485	146.480000
432.447174	146.460000
432.540802	146.360000
432.634491	145.920000
432.728149	146.080000
432.821838	146.740000
432.915466	146.260000
433.009186	146.240000
433.102814	145.500000
433.196503	145.420000
433.290131	144.800000
433.383850	144.940000
433.477509	144.920000
433.571167	145.860000
433.664856	146.260000
433.758514	146.780000
433.852173	146.780000
433.945862	146.720000
434.039520	146.700000
434.133179	146.300000
434.226868	145.820000
434.320526	145.420000
434.414185	146.140000
434.507874	145.560000
434.601562	145.540000
434.695221	145.160000
434.788910	145.620000
434.882538	145.340000
434.976257	145.280000
435.069885	145.320000
435.163574	145.740000
435.257233	145.340000
435.350922	145.120000
435.444580	145.140000
435.538269	145.200000
435.631897	145.340000
435.725616	146.020000
435.819275	146.260000
435.912964	146.820000
436.006622	147.400000
436.100311	147.040000
436.193970	146.300000
436.287628	146.260000
436.381317	146.240000
436.474976	145.460000
436.568665	145.200000
436.662323	145.440000
436.756012	145.280000
436.849670	145.020000
436.943390	145.140000
437.037018	145.540000
437.130737	145.520000
437.224365	145.240000
437.318085	145.160000
437.411713	145.360000
437.505432	145.680000
437.599060	146.220000
437.692780	146.820000
437.786407	146.880000
437.880127	146.640000
437.973755	146.320000
438.067474	145.660000
438.161133	145.500000
438.254822	145.600000
438.348480	145.600000
438.442169	146.080000
438.535828	146.660000
438.629517	146.240000
438.723175	145.940000
438.816864	146.420000
438.910553	145.680000
439.004211	145.420000
439.097900	145.380000
439.191559	145.560000
439.285248	144.880000
439.378906	145.580000
439.472626	145.400000
439.566284	145.540000
439.659973	145.800000
439.753632	145.640000
439.847321	145.700000
439.940979	145.720000
440.034698	145.880000
440.128326	145.300000
440.222046	145.480000
440.315674	144.540000
440.409393	144.720000
440.503082	144.520000
440.596741	144.740000
440.690430	145.020000
440.784088	145.400000
440.877777	144.960000
440.971466	145.180000
441.065125	145.220000
441.158813	145.160000
441.252502	145.280000
441.346161	145.460000
441.439850	145.420000
441.533539	145.120000
441.627197	145.540000
441.720886	145.320000
441.814606	145.580000
441.908234	146.020000
442.001953	146.260000
442.095612	145.680000
442.189301	145.980000
442.282959	145.920000
442.376678	145.140000
442.470306	145.940000
442.564026	145.940000
442.657684	145.880000
442.751404	145.900000
442.845032	146.900000
442.938751	146.060000
443.032440	146.420000
443.126099	145.520000
443.219788	145.980000
443.313477	145.580000
443.407166	145.940000
443.500824	145.880000
443.594513	146.780000
443.688202	146.400000
443.781891	145.500000
443.875549	144.980000
443.969238	144.980000
444.062927	145.060000
444.156647	145.060000
444.250275	146.160000
444.343994	146.520000
444.437653	146.660000
444.531372	146.200000
444.625031	146.040000
444.718719	145.260000
444.812378	145.220000
444.906097	145.180000
444.999756	145.100000
445.093445	145.100000
445.187103	145.440000
445.280823	146.140000
445.374512	145.380000
445.468201	145.840000
445.561859	145.700000
445.655548	145.640000
445.749237	144.620000
445.842926	145.140000
445.936615	145.520000
446.030304	145.500000
446.123962	145.980000
446.217651	146.080000
446.311340	146.120000
446.405029	145.480000
446.498749	145.460000
446.592407	144.980000
446.686096	145.600000
446.779755	145.820000
446.873474	146.060000
446.967133	146.620000
447.060852	146.240000
447.154510	145.660000
447.248230	145.760000
447.341858	145.640000
447.435577	144.860000
447.529236	144.900000
447.622955	145.040000
447.716644	144.820000
447.810333	144.920000
447.904022	145.440000
447.997711	145.560000
448.091400	145.880000
448.185059	145.920000
448.278748	145.980000
448.372437	145.640000
448.466125	145.880000
448.559814	145.740000
448.653503	145.940000
448.747192	146.140000
448.840912	146.960000
448.934570	146.960000
449.028290	146.980000
449.121948	146.700000
449.215637	146.260000
449.309296	145.400000
449.403015	145.500000
449.496674	145.260000
449.590393	145.100000
449.684052	145.080000
449.777771	145.940000
449.871429	145.320000
449.965149	145.300000
450.058838	145.600000
450.152527	146.020000
450.246216	145.280000
450.339905	145.700000
450.433594	145.520000
450.527283	146.100000
450.620972	145.660000
450.714661	146.000000
450.808350	146.080000
450.902039	146.440000
450.995728	145.860000
451.089417	145.760000
451.183105	145.560000
451.276794	145.920000
451.370514	145.420000
451.464172	144.700000
451.557892	144.820000
451.651550	144.980000
451.745270	144.440000
451.838928	144.220000
451.932648	144.840000
452.026306	145.180000
452.120026	144.920000
452.213684	145.400000
452.307404	145.800000
452.401062	145.900000
452.494781	145.940000
452.588470	145.960000
452.682159	145.160000
452.775848	145.360000
452.869537	144.940000
452.963226	144.500000
453.056915	144.620000
453.150604	144.880000
453.244293	144.820000
453.337982	145.620000
453.431671	146.060000
453.525360	146.520000
453.619049	146.640000
453.712769	146.640000
453.806427	146.020000
453.900146	145.460000
453.993805	145.160000
454.087555	145.600000
454.181213	145.660000
454.274933	145.700000
454.368591	145.820000
454.462311	145.200000
454.555969	144.720000
454.649689	145.300000
454.743347	144.860000
454.837067	145.420000
454.930756	146.600000
455.024445	146.780000
455.118134	146.320000
455.211853	146.760000
455.305542	146.260000
455.399231	145.480000
455.492920	145.380000
455.586609	145.440000
455.680298	145.440000
455.773987	145.560000
455.867676	145.740000
455.961365	146.120000
456.055084	145.800000
456.148773	146.040000
456.242493	146.060000
456.336151	145.960000
456.429871	145.720000
456.523529	146.220000
456.617249	145.680000
456.710907	146.180000
456.804626	145.980000
456.898315	145.780000
456.992035	145.600000
457.085693	145.480000
457.179413	144.780000
457.273102	146.080000
457.366791	146.080000
457.460480	146.080000
457.554199	147.080000
457.647888	147.200000
457.741577	146.300000
457.835266	146.500000
457.928955	146.660000
458.022644	146.540000
458.116364	147.080000
458.210052	146.920000
458.303741	146.860000
458.397461	146.100000
458.491119	145.480000
458.584839	145.100000
458.678528	144.740000
458.772247	144.540000
458.865906	144.680000
458.959625	145.580000
459.053284	145.400000
459.147003	145.320000
459.240692	145.800000
459.334412	146.320000
459.428070	145.800000
459.521790	145.680000
459.615479	145.840000
459.709198	145.920000
459.802887	145.460000
459.896576	145.040000
459.990265	145.340000
460.083954	145.400000
460.177673	144.900000
460.271362	145.240000
460.365051	145.440000
460.458740	145.120000
460.552429	145.000000
460.646149	145.120000
460.739838	144.640000
460.833527	145.140000
460.927246	145.160000
461.020905	145.340000
461.114655	145.220000
461.208313	145.600000
461.302032	144.680000
461.395691	145.100000
461.489441	145.100000
461.583099	145.080000
461.676819	144.920000
461.770477	145.760000
461.864197	145.400000
461.957916	145.480000
462.051605	145.240000
462.145294	146.020000
462.238983	145.380000
462.332703	145.960000
462.426392	146.060000
462.520081	146.420000
462.613770	145.760000
462.707489	145.880000
462.801178	145.440000
462.894867	145.280000
462.988556	145.080000
463.082275	145.160000
463.175964	144.660000
463.269684	144.960000
463.363342	144.840000
463.457092	144.460000
463.550751	144.740000
463.644470	145.400000
463.738129	144.960000
463.831879	145.360000
463.925537	146.020000
464.019257	145.900000
464.112946	145.780000
464.206665	145.760000
464.300323	145.380000
464.394043	145.220000
464.487762	144.880000
464.581451	145.240000
464.675140	145.260000
464.768829	145.760000
464.862549	145.740000
464.956238	146.080000
465.049927	145.800000
465.143646	146.000000
465.237335	145.580000
465.331024	146.080000
465.424713	146.060000
465.518433	146.320000
465.612152	145.840000
465.705811	145.780000
465.799561	145.400000
465.893219	145.200000
465.986938	144.960000
466.080597	145.200000
466.174347	145.660000
466.268005	145.840000
466.361725	145.820000
466.455414	145.820000
466.549133	145.680000
466.642792	145.860000
466.736542	145.200000
466.830231	145.360000
466.923920	145.320000
467.017609	145.220000
467.111328	144.480000
467.205017	144.760000
467.298706	144.540000
467.392426	144.780000
467.486115	145.220000
467.579803	145.100000
467.673523	145.380000
467.767212	145.700000
467.860901	145.580000
467.954651	145.920000
468.048309	146.580000
468.142029	146.500000
468.235718	146.420000
468.329437	146.100000
468.423096	145.560000
468.516846	144.980000
468.610504	144.500000
468.704224	144.260000
468.797913	144.500000
468.891632	144.760000
468.985291	144.960000
469.079010	145.440000
469.172729	145.140000
469.266418	145.560000
469.360107	145.440000
469.453827	145.500000
469.547516	145.560000
469.641205	146.200000
469.734924	146.000000
469.828613	146.380000
469.922302	146.460000
470.016022	146.620000
470.109711	146.140000
470.203430	145.460000
470.297150	144.800000
470.390808	144.940000
470.484558	144.440000
470.578217	144.920000
470.671936	145.580000
470.765625	146.160000
470.859344	145.660000
470.953003	146.100000
471.046753	145.560000
471.140411	144.920000
471.234131	144.800000
471.327820	145.340000
471.421539	145.340000
471.515228	145.340000
471.608948	145.540000
471.702637	145.320000
471.796326	145.180000
471.890045	145.080000
471.983734	145.440000
472.077423	145.380000
472.171143	145.340000
472.264832	145.320000
472.358521	145.100000
472.452240	144.800000
472.545929	145.760000
472.639648	145.940000
472.733337	146.520000
472.827057	146.620000
472.920746	146.660000
473.014465	146.720000
473.108124	146.960000
473.201874	146.440000
473.295532	146.480000
473.389252	147.020000
473.482941	146.520000
473.576660	145.960000
473.670319	145.960000
473.764069	146.240000
473.857727	146.200000
473.951477	146.400000
474.045166	147.020000
474.138855	147.020000
474.232574	146.620000
474.326263	146.640000
474.419952	146.680000
474.513672	146.380000
474.607361	146.120000
474.701050	146.020000
474.794769	146.220000
474.888458	146.080000
474.982178	146.120000
475.075867	146.360000
475.169586	146.640000
475.263275	146.200000
475.356995	146.180000
475.450653	145.860000
475.544403	145.400000
475.638062	146.180000
475.731812	145.660000
475.825470	145.360000
475.919189	145.820000
476.012878	146.260000
476.106598	145.400000
476.200256	146.060000
476.294006	146.160000
476.387695	146.040000
476.481384	145.820000
476.575104	145.840000
476.668793	145.360000
476.762512	145.020000
476.856201	145.420000
476.949890	145.220000
477.043610	144.760000
477.137299	144.840000
477.230988	145.400000
477.324707	145.040000
477.418396	145.640000
477.512146	146.040000
477.605804	145.840000
477.699524	145.880000
477.793213	145.760000
477.886932	145.620000
477.980591	145.460000
478.074341	145.860000
478.167999	145.580000
478.261749	145.780000
478.355408	145.940000
478.449127	146.560000
478.542816	147.400000
478.636536	148.000000
478.730225	147.820000
478.823944	147.700000
478.917633	147.260000
479.011322	146.880000
479.105042	146.660000
479.198730	147.120000
479.292450	146.900000
479.386139	147.260000
479.479828	147.000000
479.573547	147.140000
479.667267	146.700000
479.760925	146.720000
479.854675	146.500000
479.948334	146.800000
480.042084	146.120000
480.135742	146.460000
480.229462	145.940000
480.323151	146.180000
480.416870	145.280000
480.510529	145.340000
480.604279	144.660000
480.697937	145.180000
480.791656	144.520000
480.885345	144.700000
480.979065	144.760000
481.072754	145.340000
481.166473	145.720000
481.260132	145.740000
481.353882	145.860000
481.447540	145.560000
481.541260	145.780000
481.635010	145.280000
481.728668	145.460000
481.822388	145.480000
481.916077	145.920000
482.009796	145.620000
482.103485	145.960000
482.197205	146.040000
482.290863	146.080000
482.384613	145.560000
482.478271	145.120000
482.571991	144.920000
482.665680	145.160000
482.759399	145.780000
482.853058	146.040000
482.946808	145.960000
483.040466	145.840000
483.134216	145.480000
483.227875	144.900000
483.321594	145.460000
483.415283	146.080000
483.509003	146.060000
483.602661	145.900000
483.696411	146.220000
483.790070	146.260000
483.883789	145.840000
483.977478	146.300000
484.071198	146.420000
484.164917	145.800000
484.258606	145.120000
484.352325	145.860000
484.445984	145.720000
484.539734	145.600000
484.633392	145.420000
484.727142	146.200000
484.820801	145.300000
484.914520	145.200000
485.008209	145.500000
485.101929	146.100000
485.195587	145.460000
485.289337	145.600000
485.382996	145.700000
485.476715	145.640000
485.570404	146.020000
485.664124	146.020000
485.757782	146.300000
485.851532	146.000000
485.945190	145.960000
486.038910	145.620000
486.132599	146.100000
486.226318	145.760000
486.319977	145.940000
486.413727	146.260000
486.507446	145.860000
486.601105	145.120000
486.694855	144.940000
486.788513	144.580000
486.882233	144.500000
486.975922	144.540000
487.069641	144.700000
487.163300	144.820000
487.257050	146.060000
487.350708	145.880000
487.444427	145.920000
487.538116	145.900000
487.631836	146.060000
487.725494	145.480000
487.819214	145.520000
487.912903	145.500000
488.006622	146.100000
488.100281	146.320000
488.194031	146.080000
488.287689	146.320000
488.381409	147.060000
488.475098	146.660000
488.568817	146.640000
488.662476	146.300000
488.756226	145.840000
488.849945	145.000000
488.943604	145.320000
489.037354	145.280000
489.131012	145.320000
489.224731	145.080000
489.318390	145.120000
489.412140	144.880000
489.505798	144.860000
489.599518	144.860000
489.693207	145.780000
489.786926	145.860000
489.880585	145.760000
489.974335	145.940000
490.067993	147.340000
490.161713	146.960000
490.255371	147.660000
490.349121	147.760000
490.442780	147.620000
490.536499	146.380000
490.630188	146.140000
490.723907	145.220000
490.817566	145.060000
490.911285	144.920000
491.004974	144.620000
491.098694	144.580000
491.192413	145.300000
491.286102	145.180000
491.379822	145.320000
491.473480	145.900000
491.567200	145.920000
491.660889	145.360000
491.754608	145.600000
491.848267	145.320000
491.941986	145.000000
492.035675	144.940000
492.129395	145.440000
492.223053	145.400000
492.316772	145.740000
492.410461	145.820000
492.504181	146.080000
492.597839	145.500000
492.691559	145.620000
492.785248	145.740000
492.878967	145.660000
492.972626	145.580000
493.066345	145.800000
493.160034	145.180000
493.253754	144.840000
493.347412	144.740000
493.441132	144.760000
493.534882	145.400000
493.628540	146.000000
493.722260	146.680000
493.815918	146.940000
493.909668	147.340000
494.003326	147.440000
494.097046	147.080000
494.190704	146.480000
494.284454	146.520000
494.378113	146.280000
494.471832	145.700000
494.565491	145.800000
494.659210	145.900000
494.752899	145.700000
494.846619	145.440000
494.940277	145.480000
495.033997	145.520000
495.127686	145.000000
495.221405	145.020000
495.315063	145.320000
495.408783	145.240000
495.502441	145.600000
495.596191	146.140000
495.689850	146.180000
495.783569	146.400000
495.877228	146.560000
495.970947	146.180000
496.064697	146.100000
496.158356	146.800000
496.252075	146.700000
496.345734	146.520000
496.439453	147.140000
496.533142	147.040000
496.626862	146.820000
496.720520	146.740000
496.814240	146.900000
496.907898	146.360000
497.001617	146.480000
497.095306	145.860000
497.189026	145.580000
497.282684	145.500000
497.376404	145.840000
497.470062	145.560000
497.563782	145.860000
497.657471	146.180000
497.751190	146.040000
497.844849	145.900000
497.938568	146.200000
498.032227	146.240000
498.125946	146.120000
498.219635	145.960000
498.313354	146.060000
498.407074	146.020000
498.500732	146.000000
498.594452	146.140000
498.688110	146.220000
498.781830	145.840000
498.875519	145.820000
498.969238	145.480000
499.062897	145.080000
499.156616	145.560000
499.250275	146.020000
499.343994	145.540000
499.437653	145.920000
499.531372	146.600000
499.625061	146.780000
499.718781	146.560000
499.812439	147.340000
499.906158	146.940000
499.999817	146.240000
500.093536	145.960000
500.187195	145.840000
500.280914	145.580000
500.374573	145.660000
500.468323	145.540000
500.561981	145.640000
500.655701	145.600000
500.749420	145.360000
500.843079	145.960000
500.936798	145.980000
501.030457	146.120000
501.124176	146.400000
501.217834	146.520000
501.311554	145.960000
501.405212	146.040000
501.498962	145.260000
501.592621	145.060000
501.686340	145.400000
501.779999	145.720000
501.873718	146.020000
501.967377	146.300000
502.061096	146.300000
502.154755	145.700000
502.248474	145.720000
502.342133	145.700000
502.435852	145.740000
502.529510	146.080000
502.623230	146.800000
502.716888	146.260000
502.810608	146.180000
502.904266	146.420000
502.997986	145.940000
503.091705	144.980000
503.185364	144.980000
503.279083	144.740000
503.372772	144.640000
503.466492	144.600000
503.560150	145.440000
503.653870	145.880000
503.747528	146.300000
503.841248	146.000000
503.934906	146.360000
504.028625	145.580000
504.122284	145.720000
504.216003	146.180000
504.309662	145.700000
504.403381	145.520000
504.497040	145.980000
504.590759	145.680000
504.684418	145.320000
504.778137	146.340000
504.871796	146.780000
504.965515	146.080000
505.059174	146.020000
505.152893	145.280000
505.246521	144.340000
505.340240	143.880000
505.433899	144.400000
505.527618	144.640000
505.621338	145.300000
505.714996	145.580000
505.808716	145.460000
505.902374	145.800000
505.996094	145.940000
506.089752	145.580000
506.183472	145.820000
506.277130	146.200000
506.370850	145.960000
506.464508	145.380000
506.558228	145.560000
506.651886	145.160000
506.745605	144.920000
506.839264	144.940000
506.932983	145.080000
507.026611	144.960000
507.120331	145.640000
507.213989	145.200000
507.307709	145.200000
507.401367	145.680000
507.495087	146.360000
507.588745	145.500000
507.682465	146.540000
507.776123	146.600000
507.869843	146.180000
507.963531	145.840000
508.057190	146.680000
508.150909	145.920000
508.244568	146.040000
508.338287	145.840000
508.431946	145.500000
508.525665	145.040000
508.619324	145.140000
508.713013	145.240000
508.806671	145.860000
508.900391	146.640000
508.994049	146.820000
509.087769	146.660000
509.181427	146.380000
509.275146	145.760000
509.368774	144.800000
509.462494	144.820000
509.556152	144.820000
509.649872	145.420000
509.743530	145.720000
509.837250	146.080000
509.930878	146.040000
510.024597	145.960000
510.118256	145.300000
510.211975	145.240000
510.305695	145.000000
510.399353	145.280000
510.493042	145.800000
510.586700	146.060000
510.680420	146.520000
510.774078	146.500000
510.867798	146.640000
510.961426	145.840000
511.055145	146.060000
511.148804	145.660000
511.242523	146.380000
511.336151	146.320000
511.429871	147.180000
511.523529	146.780000
511.617249	146.640000
511.710876	146.000000
511.804596	145.400000
511.898254	145.180000
511.991974	145.600000
512.085632	145.380000
512.179321	145.700000
512.272949	146.380000
512.366699	146.580000
512.460327	146.480000
512.554077	147.680000
512.647766	147.500000
512.741394	147.320000
512.835144	147.440000
512.928772	147.100000
513.022461	146.520000
513.116150	146.240000
513.209839	146.760000
513.303467	146.300000
513.397217	146.340000
513.490845	146.000000
513.584595	145.960000
513.678223	145.300000
513.771912	144.840000
513.865601	145.060000
513.959290	144.860000
514.052917	144.980000
514.146667	145.480000
514.240295	146.120000
514.333984	146.220000
514.427673	146.300000
514.521362	146.720000
514.614990	145.820000
514.708740	145.840000
514.802368	145.740000
514.896057	146.240000
514.989746	146.780000
515.083435	146.960000
515.177124	147.300000
515.270752	147.140000
515.364502	147.000000
515.458130	146.520000
515.551819	146.560000
515.645508	146.080000
515.739197	146.080000
515.832825	146.040000
515.926575	145.900000
516.020203	145.920000
516.113892	146.320000
516.207520	146.020000
516.301270	145.820000
516.394897	146.060000
516.488586	146.620000
516.582275	146.380000
516.675964	146.280000
516.769592	146.280000
516.863281	146.580000
516.956970	146.900000
517.050659	146.580000
517.144287	147.020000
517.238037	147.000000
517.331665	146.180000
517.425354	145.500000
517.519043	145.700000
517.612732	145.780000
517.706421	145.820000
517.800049	145.840000
517.893738	145.460000
517.987427	145.340000
518.081116	145.060000
518.174744	144.820000
518.268433	145.100000
518.362122	145.840000
518.455811	145.840000
518.549438	146.340000
518.643127	147.460000
518.736816	147.180000
518.830505	146.500000
518.924133	146.400000
519.017822	146.380000
519.111511	145.920000
519.205200	146.480000
519.298828	146.880000
519.392517	146.680000
519.486206	146.800000
519.579895	146.520000
519.673523	146.320000
519.767212	146.280000
519.860901	146.840000
519.954590	146.080000
520.048279	146.000000
520.141907	145.660000
520.235596	146.460000
520.329224	146.520000
520.422974	146.780000
520.516602	146.580000
520.610291	146.260000
520.703918	145.840000
520.797607	145.320000
520.891296	145.320000
520.984985	145.760000
521.078613	146.520000
521.172302	145.740000
521.265930	146.700000
521.359680	147.200000
521.453308	146.800000
521.546997	146.500000
521.640625	146.940000
521.734314	146.080000
521.827942	145.600000
521.921692	145.940000
522.015320	146.100000
522.109009	145.680000
522.202698	145.840000
522.296326	145.820000
522.390015	146.000000
522.483704	145.980000
522.577393	146.100000
522.671021	146.100000
522.764709	146.080000
522.858337	145.860000
522.952026	146.080000
523.045654	146.500000
523.139404	146.880000
523.233032	147.300000
523.326721	147.520000
523.420349	147.060000
523.514038	146.780000
523.607666	146.880000
523.701355	146.120000
523.795044	145.720000
523.888733	146.040000
523.982361	146.280000
524.076050	145.900000
524.169678	146.540000
524.263367	146.420000
524.356995	145.800000
524.450684	145.460000
524.544373	145.280000
524.638062	145.100000
524.731750	145.240000
524.825378	145.880000
524.919067	145.640000
525.012695	145.780000
525.106384	145.440000
525.200012	145.540000
525.293701	145.060000
525.387329	145.660000
525.481018	145.740000
525.574646	146.280000
525.668396	146.360000
525.762024	146.800000
525.855713	146.740000
525.949341	146.280000
526.043030	146.200000
526.136658	145.960000
526.230347	145.660000
526.323975	145.140000
526.417664	145.320000
526.511292	145.120000
526.604980	145.180000
526.698608	145.180000
526.792297	145.580000
526.885925	145.800000
526.979614	146.220000
527.073303	146.200000
527.166931	146.020000
527.260620	146.000000
527.354309	146.600000
527.447998	146.360000
527.541626	146.200000
527.635315	146.540000
527.728943	147.020000
527.822632	146.700000
527.916260	146.540000
528.009949	146.840000
528.103577	146.320000
528.197266	145.620000
528.290894	145.520000
528.384583	145.380000
528.478210	145.440000
528.571899	146.160000
528.665527	146.660000
528.759216	146.560000
528.852844	146.980000
528.946533	146.800000
529.040161	146.440000
529.133850	145.880000
529.227478	146.320000
529.321167	146.580000
529.414856	146.880000
529.508484	147.340000
529.602173	147.320000
529.695801	146.700000
529.789490	146.300000
529.883057	145.900000
529.976746	145.860000
530.070374	146.460000
530.164062	146.460000
530.257690	146.860000
530.351379	147.020000
530.445007	146.780000
530.538696	146.040000
530.632324	146.380000
530.726013	146.100000
530.819641	146.140000
530.913330	146.140000
531.006958	146.440000
531.100647	146.400000
531.194275	146.240000
531.287964	146.160000
531.381592	145.880000
531.475220	146.100000
531.568848	146.140000
531.662537	145.900000
531.756226	146.340000
531.849854	146.400000
531.943542	146.200000
532.037170	145.720000
532.130859	146.500000
532.224487	145.920000
532.318176	145.560000
532.411804	146.200000
532.505432	146.520000
532.599060	145.560000
532.692749	145.620000
532.786377	146.380000
532.880066	145.300000
532.973694	145.000000
533.067383	145.640000
533.161011	145.520000
533.254639	145.140000
533.348267	145.500000
533.441956	145.820000
533.535583	145.600000
533.629272	146.140000
533.722900	145.840000
533.816589	145.700000
533.910156	145.920000
534.003845	145.380000
534.097534	145.260000
534.191162	145.920000
534.284851	145.960000
534.378479	145.560000
534.472107	145.860000
534.565735	145.640000
534.659424	145.740000
534.753052	146.300000
534.846741	146.240000
534.940369	146.880000
535.033997	146.720000
535.127625	146.660000
535.221313	146.720000
535.314941	146.340000
535.408630	145.560000
535.502197	146.000000
535.595886	145.620000
535.689514	145.460000
535.783203	146.220000
535.876831	147.080000
535.970459	146.880000
536.064087	146.620000
536.157776	146.580000
536.251404	146.380000
536.345093	145.840000
536.438721	145.920000
536.532349	146.460000
536.626038	146.480000
536.719666	146.880000
536.813293	146.820000
536.906921	146.740000
537.000610	147.100000
537.094238	146.920000
537.187866	146.700000
537.281494	146.660000
537.375183	146.840000
537.468811	146.520000
537.562439	146.200000
537.656067	146.100000
537.749756	146.060000
537.843384	146.280000
537.937012	146.320000
538.030640	146.440000
538.124329	146.220000
538.217896	146.500000
538.311584	146.540000
538.405212	146.160000
538.498901	146.660000
538.592468	147.620000
538.686157	147.200000
538.779785	146.200000
538.873413	146.360000
538.967102	145.900000
539.060730	145.240000
539.154358	145.740000
539.247986	146.420000
539.341675	146.500000
539.435242	146.700000
539.528931	146.880000
539.622559	146.420000
539.716187	146.800000
539.809814	146.520000
539.903503	146.500000
539.997070	146.200000
540.090759	146.360000
540.184387	145.740000
540.278015	146.520000
540.371643	146.600000
540.465332	146.680000
540.558899	146.620000
540.652588	146.940000
540.746216	146.320000
540.839844	146.660000
540.933472	146.480000
541.027100	146.620000
541.120728	146.640000
541.214417	147.020000
541.308044	146.800000
541.401672	146.920000
541.495300	146.680000
541.588928	146.540000
541.682617	146.180000
541.776184	145.980000
541.869873	146.180000
541.963440	146.400000
542.057129	146.220000
542.150757	146.280000
542.244385	145.900000
542.338013	145.440000
542.431641	145.520000
542.525269	145.500000
542.618958	145.860000
542.712524	146.600000
542.806213	146.780000
542.899780	146.820000
542.993469	146.960000
543.087036	146.620000
543.180725	145.840000
543.274292	146.040000
543.367981	146.340000
543.461548	146.540000
543.555237	146.580000
543.648926	147.320000
543.742493	147.460000
543.836182	146.980000
543.929749	146.760000
544.023437	146.740000
544.117004	146.460000
544.210693	146.240000
544.304260	146.240000
544.397949	146.020000
544.491516	145.980000
544.585205	145.960000
544.678772	145.700000
544.772461	146.440000
544.866028	146.540000
544.959717	146.660000
545.053284	146.460000
545.146973	146.820000
545.240540	146.300000
545.334229	146.940000
545.427795	147.160000
545.521423	147.240000
545.615051	147.260000
545.708679	147.740000
545.802307	147.260000
545.895935	147.240000
545.989624	147.740000
546.083191	147.340000
546.176880	146.740000
546.270447	146.520000
546.364136	146.700000
546.457703	146.360000
546.551331	146.820000
546.644958	147.060000
546.738586	147.020000
546.832214	146.500000
546.925842	146.580000
547.019409	146.440000
547.113098	145.860000
547.206665	145.820000
547.300354	146.060000
547.393921	146.240000
547.487549	146.280000
547.581177	146.400000
547.674805	146.580000
547.768433	145.880000
547.862061	145.900000
547.955627	145.320000
548.049316	145.960000
548.142883	146.240000
548.236572	147.000000
548.330139	147.140000
548.423767	147.320000
548.517456	147.060000
548.611023	147.020000
548.704651	146.200000
548.798279	145.960000
548.891907	146.600000
548.985474	146.300000
549.079163	146.300000
549.172729	146.620000
549.266357	146.140000
549.359985	145.960000
549.453613	145.660000
549.547180	145.420000
549.640869	145.980000
549.734436	146.000000
549.828064	146.340000
549.921631	146.600000
550.015320	146.380000
550.108887	146.620000
550.202515	146.940000
550.296143	146.280000
550.389771	146.700000
550.483337	147.200000
550.576965	146.600000
550.670593	146.780000
550.764221	146.940000
550.857849	146.340000
550.951477	145.660000
551.045105	145.140000
551.138672	145.120000
551.232300	144.660000
551.325928	145.460000
551.419556	145.860000
551.513123	146.460000
551.606750	146.200000
551.700378	146.560000
551.794006	146.260000
551.887573	146.100000
551.981201	146.120000
552.074768	145.900000
552.168457	145.740000
552.262024	146.600000
552.355652	146.880000
552.449219	147.500000
552.542847	148.060000
552.636475	147.980000
552.730103	146.600000
552.823669	146.200000
552.917297	145.260000
553.010864	145.060000
553.104553	145.320000
553.198181	145.580000
553.291748	146.360000
553.385376	146.720000
553.478943	146.700000
553.572571	146.500000
553.666199	146.660000
553.759827	146.040000
553.853394	145.640000
553.947021	145.500000
554.040588	145.640000
554.134216	145.640000
554.227783	146.460000
554.321411	147.020000
554.415039	146.640000
554.508667	146.580000
554.602234	146.880000
554.695862	145.900000
554.789429	145.800000
554.883057	146.240000
554.976624	146.480000
555.070251	145.960000
555.163818	146.300000
555.257507	146.480000
555.351074	146.500000
555.444702	147.360000
555.538330	147.280000
555.631897	147.560000
555.725525	147.400000
555.819092	147.160000
555.912720	145.980000
556.006287	146.700000
556.099915	146.260000
556.193481	146.320000
556.287109	146.640000
556.380676	146.660000
556.474304	146.320000
556.567871	146.920000
556.661499	146.160000
556.755066	146.200000
556.848694	146.340000
556.942261	146.360000
557.035889	146.040000
557.129517	146.820000
557.223145	146.840000
557.316711	146.820000
557.410339	146.880000
557.503906	146.860000
557.597473	146.780000
557.691040	146.680000
557.784668	146.840000
557.878296	146.660000
557.971863	146.600000
558.065491	146.820000
558.159058	146.640000
558.252686	147.040000
558.346252	147.800000
558.439880	147.380000
558.533447	146.860000
558.627075	146.260000
558.720642	145.780000
558.814270	145.340000
558.907837	145.500000
559.001465	145.400000
559.095032	146.660000
559.188660	146.680000
559.282227	146.160000
559.375854	146.740000
559.469360	146.780000
559.562988	146.780000
559.656555	146.820000
559.750183	147.140000
559.843750	147.060000
559.937378	147.220000
560.030945	146.700000
560.124573	0.000000
560.218140	0.000000
560.311707	0.000000
560.405334	0.000000
560.498901	0.000000
560.592529	0.000000
560.686096	0.000000
560.779724	0.000000
560.873291	0.000000
560.966858	0.000000
561.060425	0.000000
561.154053	0.000000
561.247620	0.000000
561.341248	0.000000
561.434814	0.000000
561.528381	0.000000
561.621948	0.000000
561.715576	0.000000
561.809143	0.000000
561.902771	0.000000
561.996277	0.000000
562.089905	0.000000
562.183472	0.000000
562.277100	0.000000
