Model Number: SPM-002-B   
Serial Number: 70087108
Firmware Version: 004.15.4
Exposure Time: 100000.000000us
Data Taken on: 11-12-2020 18:46:18.444
Wavelength	Amplitude
221.570786	0.000000
221.663406	0.000000
221.756027	0.000000
221.848648	0.000000
221.941269	0.000000
222.033905	0.000000
222.126526	0.000000
222.219162	0.000000
222.311798	0.000000
222.404419	0.000000
222.497055	0.000000
222.589676	0.000000
222.682312	0.000000
222.774933	0.000000
222.867569	0.000000
222.960205	0.000000
223.052841	0.000000
223.145462	0.000000
223.238098	0.000000
223.330734	0.000000
223.423386	0.000000
223.516022	0.000000
223.608658	0.000000
223.701309	0.000000
223.793945	0.000000
223.886581	0.000000
223.979218	0.000000
224.071869	0.000000
224.164505	0.000000
224.257156	0.000000
224.349792	0.000000
224.442444	0.000000
224.535095	0.000000
224.627747	0.000000
224.720398	0.000000
224.813034	0.000000
224.905685	0.000000
224.998337	145.940000
225.090988	145.480000
225.183640	145.780000
225.276291	145.900000
225.368942	146.320000
225.461594	146.640000
225.554245	146.940000
225.646912	146.560000
225.739578	146.840000
225.832230	147.020000
225.924896	146.080000
226.017548	146.160000
226.110199	146.900000
226.202866	146.060000
226.295532	146.040000
226.388184	146.160000
226.480850	145.800000
226.573517	145.080000
226.666168	145.520000
226.758835	145.720000
226.851501	146.420000
226.944183	146.680000
227.036850	146.260000
227.129517	146.200000
227.222183	146.280000
227.314850	146.100000
227.407516	146.620000
227.500198	147.740000
227.592865	147.520000
227.685532	146.920000
227.778214	146.680000
227.870880	146.460000
227.963562	146.400000
228.056229	147.020000
228.148926	147.080000
228.241592	147.720000
228.334274	147.320000
228.426956	146.900000
228.519638	146.620000
228.612305	146.440000
228.704987	146.160000
228.797668	146.460000
228.890350	146.460000
228.983032	145.900000
229.075714	146.640000
229.168396	146.340000
229.261108	145.840000
229.353790	145.960000
229.446472	146.260000
229.539169	145.660000
229.631851	145.280000
229.724533	145.660000
229.817230	145.760000
229.909912	146.580000
230.002609	146.480000
230.095306	146.600000
230.187988	146.660000
230.280685	146.540000
230.373383	145.240000
230.466095	145.520000
230.558792	146.320000
230.651474	146.220000
230.744171	146.120000
230.836868	146.340000
230.929581	146.360000
231.022278	146.000000
231.114975	145.960000
231.207672	145.680000
231.300369	146.520000
231.393082	146.460000
231.485779	146.080000
231.578506	146.020000
231.671204	146.500000
231.763916	146.020000
231.856613	146.260000
231.949326	146.580000
232.042023	146.480000
232.134735	146.400000
232.227448	146.160000
232.320160	146.360000
232.412872	146.340000
232.505585	147.120000
232.598297	147.200000
232.691010	147.240000
232.783722	146.580000
232.876450	146.900000
232.969162	146.000000
233.061874	145.340000
233.154587	145.140000
233.247314	145.340000
233.340027	144.960000
233.432739	145.500000
233.525467	145.600000
233.618179	146.120000
233.710907	145.980000
233.803635	146.400000
233.896347	146.300000
233.989090	147.120000
234.081818	146.860000
234.174545	147.100000
234.267258	146.340000
234.359985	146.520000
234.452713	146.080000
234.545441	145.940000
234.638168	145.740000
234.730896	146.300000
234.823639	146.080000
234.916367	146.480000
235.009094	146.720000
235.101822	146.680000
235.194580	146.780000
235.287308	146.920000
235.380051	146.160000
235.472778	146.360000
235.565521	147.000000
235.658249	146.200000
235.750992	146.020000
235.843719	146.240000
235.936462	146.320000
236.029205	145.820000
236.121948	145.960000
236.214691	146.260000
236.307449	147.140000
236.400192	146.520000
236.492935	146.240000
236.585678	146.680000
236.678421	146.660000
236.771164	146.040000
236.863907	146.900000
236.956665	147.200000
237.049408	148.560000
237.142151	147.740000
237.234909	148.520000
237.327652	148.080000
237.420410	147.880000
237.513153	146.840000
237.605927	147.000000
237.698669	146.360000
237.791428	145.780000
237.884186	146.200000
237.976944	145.600000
238.069702	145.960000
238.162445	145.300000
238.255203	145.900000
238.347961	146.220000
238.440720	146.260000
238.533478	146.540000
238.626266	146.680000
238.719025	146.640000
238.811783	146.280000
238.904541	146.280000
238.997314	145.820000
239.090073	145.440000
239.182831	145.500000
239.275604	146.020000
239.368362	146.000000
239.461136	146.180000
239.553909	146.560000
239.646667	146.480000
239.739441	145.860000
239.832214	146.020000
239.925003	146.140000
240.017761	147.080000
240.110535	147.600000
240.203308	147.400000
240.296082	147.380000
240.388855	147.160000
240.481628	146.700000
240.574417	146.480000
240.667191	146.680000
240.759964	146.440000
240.852737	146.780000
240.945526	146.500000
241.038315	146.660000
241.131088	146.660000
241.223877	147.200000
241.316650	146.700000
241.409439	147.020000
241.502228	146.240000
241.595001	146.860000
241.687790	146.780000
241.780579	146.740000
241.873367	146.800000
241.966141	147.300000
242.058929	146.480000
242.151718	146.460000
242.244507	147.120000
242.337311	146.280000
242.430099	146.820000
242.522903	147.240000
242.615692	146.780000
242.708481	146.520000
242.801270	147.280000
242.894073	146.700000
242.986862	146.480000
243.079651	147.020000
243.172455	146.900000
243.265244	146.880000
243.358063	146.520000
243.450867	146.980000
243.543655	146.720000
243.636459	146.720000
243.729263	146.940000
243.822067	147.580000
243.914856	147.700000
244.007660	147.820000
244.100464	147.920000
244.193268	147.240000
244.286072	146.820000
244.378876	145.960000
244.471680	145.860000
244.564499	145.940000
244.657318	146.760000
244.750122	147.160000
244.842926	146.860000
244.935745	147.080000
245.028549	146.640000
245.121368	146.060000
245.214172	145.800000
245.306992	146.680000
245.399796	146.260000
245.492615	146.400000
245.585434	146.180000
245.678253	146.000000
245.771072	145.740000
245.863892	146.060000
245.956711	146.360000
246.049530	146.580000
246.142349	146.660000
246.235168	146.600000
246.327988	147.060000
246.420807	146.760000
246.513626	146.620000
246.606445	146.260000
246.699280	146.380000
246.792099	145.840000
246.884918	145.440000
246.977753	145.120000
247.070587	145.560000
247.163422	145.360000
247.256241	145.460000
247.349075	146.100000
247.441895	146.580000
247.534729	146.340000
247.627563	146.220000
247.720383	146.840000
247.813217	146.560000
247.906052	146.300000
247.998886	146.440000
248.091736	146.940000
248.184570	146.380000
248.277405	146.580000
248.370239	147.660000
248.463074	148.480000
248.555908	148.680000
248.648743	148.480000
248.741592	148.660000
248.834427	147.760000
248.927261	146.380000
249.020111	146.220000
249.112946	147.100000
249.205795	146.500000
249.298630	146.620000
249.391495	147.040000
249.484344	146.820000
249.577179	146.240000
249.670029	146.880000
249.762878	147.400000
249.855728	147.280000
249.948563	147.240000
250.041412	146.840000
250.134262	146.740000
250.227112	146.680000
250.319962	146.940000
250.412827	146.700000
250.505692	146.320000
250.598541	146.100000
250.691391	145.440000
250.784241	145.160000
250.877106	145.360000
250.969955	145.440000
251.062805	146.140000
251.155670	146.660000
251.248520	147.040000
251.341385	147.360000
251.434235	147.380000
251.527100	146.640000
251.619965	146.240000
251.712814	146.700000
251.805695	146.580000
251.898560	147.020000
251.991425	147.120000
252.084290	147.460000
252.177155	146.880000
252.270020	146.540000
252.362885	146.220000
252.455750	146.360000
252.548615	145.900000
252.641479	145.820000
252.734360	146.120000
252.827240	146.480000
252.920105	146.460000
253.012970	146.480000
253.105850	146.420000
253.198715	145.660000
253.291595	145.480000
253.384460	145.200000
253.477341	145.340000
253.570221	145.520000
253.663086	145.780000
253.755966	146.340000
253.848846	146.760000
253.941727	146.980000
254.034592	146.860000
254.127472	146.240000
254.220367	145.960000
254.313248	145.980000
254.406128	145.560000
254.499008	145.740000
254.591904	147.020000
254.684784	147.500000
254.777664	147.300000
254.870544	146.880000
254.963440	146.800000
255.056335	146.480000
255.149216	145.800000
255.242111	146.180000
255.334991	146.960000
255.427887	147.060000
255.520767	147.180000
255.613663	147.380000
255.706558	146.580000
255.799438	146.160000
255.892334	145.820000
255.985229	145.800000
256.078125	145.740000
256.171021	145.880000
256.263916	146.460000
256.356812	146.620000
256.449707	146.580000
256.542603	146.140000
256.635498	146.820000
256.728394	146.480000
256.821289	146.540000
256.914215	146.600000
257.007080	147.460000
257.100006	147.440000
257.192932	147.760000
257.285828	147.820000
257.378723	147.640000
257.471619	147.140000
257.564545	146.680000
257.657440	146.800000
257.750336	147.100000
257.843262	146.920000
257.936157	148.060000
258.029053	148.320000
258.121979	148.020000
258.214874	147.720000
258.307800	147.740000
258.400696	146.320000
258.493622	145.900000
258.586517	145.240000
258.679443	145.300000
258.772339	144.820000
258.865265	144.920000
258.958160	144.760000
259.051086	145.580000
259.144012	145.200000
259.236938	146.180000
259.329834	146.400000
259.422791	146.560000
259.515717	146.120000
259.608612	146.340000
259.701538	146.420000
259.794464	146.200000
259.887390	146.200000
259.980316	146.040000
260.073212	145.900000
260.166138	144.720000
260.259064	144.940000
260.351990	145.540000
260.444916	145.600000
260.537842	145.960000
260.630768	147.020000
260.723694	146.860000
260.816620	146.480000
260.909546	146.540000
261.002472	146.000000
261.095398	145.380000
261.188354	145.520000
261.281281	145.220000
261.374207	145.660000
261.467133	146.440000
261.560089	146.800000
261.653015	146.400000
261.745972	147.020000
261.838867	147.060000
261.931824	147.260000
262.024780	146.720000
262.117706	147.260000
262.210663	147.260000
262.303589	146.940000
262.396515	146.880000
262.489471	148.020000
262.582397	148.020000
262.675354	147.440000
262.768280	147.740000
262.861237	147.460000
262.954163	146.920000
263.047119	146.580000
263.140045	146.400000
263.233002	146.100000
263.325958	145.860000
263.418884	145.700000
263.511841	145.920000
263.604797	146.120000
263.697723	146.120000
263.790680	146.020000
263.883636	146.220000
263.976593	146.020000
264.069550	146.080000
264.162476	145.740000
264.255463	146.000000
264.348419	145.760000
264.441376	145.920000
264.534332	145.940000
264.627289	146.120000
264.720245	146.380000
264.813202	146.020000
264.906158	146.300000
264.999115	146.460000
265.092072	146.460000
265.185028	146.420000
265.277985	146.900000
265.370941	146.580000
265.463898	146.580000
265.556854	146.660000
265.649811	146.180000
265.742798	145.980000
265.835754	146.180000
265.928711	146.420000
266.021667	146.100000
266.114655	146.240000
266.207611	146.400000
266.300568	145.520000
266.393585	145.100000
266.486511	145.640000
266.579498	145.080000
266.672485	145.160000
266.765442	145.540000
266.858429	145.920000
266.951385	145.240000
267.044342	145.620000
267.137329	145.500000
267.230316	145.720000
267.323273	145.260000
267.416260	146.360000
267.509216	146.180000
267.602203	146.040000
267.695160	146.200000
267.788147	146.280000
267.881134	145.580000
267.974091	145.980000
268.067078	146.080000
268.160065	145.880000
268.253052	145.840000
268.346008	146.000000
268.438995	145.800000
268.531982	145.640000
268.624969	145.540000
268.717987	145.860000
268.810944	145.860000
268.903961	146.180000
268.996948	146.000000
269.089905	146.380000
269.182892	146.280000
269.275879	146.080000
269.368866	145.580000
269.461853	146.040000
269.554871	145.760000
269.647858	145.660000
269.740845	146.400000
269.833832	146.880000
269.926819	146.720000
270.019806	147.000000
270.112793	146.660000
270.205811	146.280000
270.298798	145.760000
270.391785	146.220000
270.484772	145.860000
270.577789	146.040000
270.670776	145.660000
270.763763	145.760000
270.856750	145.720000
270.949768	145.700000
271.042786	145.920000
271.135773	146.180000
271.228790	146.520000
271.321808	146.120000
271.414795	145.660000
271.507782	145.500000
271.600800	144.980000
271.693817	144.980000
271.786804	145.320000
271.879822	145.720000
271.972809	145.520000
272.065826	146.320000
272.158844	145.880000
272.251831	145.980000
272.344849	146.100000
272.437866	145.900000
272.530853	145.780000
272.623871	146.000000
272.716888	145.000000
272.809906	145.760000
272.902893	145.980000
272.995911	145.240000
273.088928	145.120000
273.181946	145.700000
273.274963	144.720000
273.367981	144.660000
273.460999	145.180000
273.554047	145.660000
273.647003	146.220000
273.740051	146.520000
273.833069	146.880000
273.926086	147.040000
274.019135	146.860000
274.112152	146.160000
274.205170	146.320000
274.298187	146.600000
274.391205	145.860000
274.484222	145.740000
274.577240	145.740000
274.670258	145.320000
274.763306	145.000000
274.856323	145.800000
274.949341	145.980000
275.042358	146.620000
275.135406	146.700000
275.228424	146.560000
275.321442	146.260000
275.414490	145.780000
275.507507	145.560000
275.600525	146.320000
275.693573	145.960000
275.786591	145.600000
275.879669	145.960000
275.972656	145.780000
276.065735	145.260000
276.158752	146.140000
276.251801	147.140000
276.344818	146.920000
276.437866	147.060000
276.530884	146.900000
276.623932	145.920000
276.716980	145.680000
276.809998	146.040000
276.903046	145.820000
276.996094	146.660000
277.089111	147.500000
277.182159	147.860000
277.275208	147.480000
277.368256	147.460000
277.461304	146.860000
277.554321	146.380000
277.647369	146.320000
277.740417	146.480000
277.833466	146.540000
277.926514	146.520000
278.019562	147.040000
278.112610	146.340000
278.205688	146.480000
278.298706	146.500000
278.391785	146.220000
278.484833	145.680000
278.577881	145.420000
278.670929	145.460000
278.763977	145.360000
278.857025	145.680000
278.950073	145.980000
279.043121	146.180000
279.136169	146.140000
279.229248	146.160000
279.322296	145.920000
279.415344	145.860000
279.508392	145.780000
279.601440	145.560000
279.694519	145.420000
279.787567	145.700000
279.880615	145.220000
279.973694	145.080000
280.066742	144.940000
280.159790	145.120000
280.252869	144.560000
280.345917	144.980000
280.438995	145.220000
280.532074	145.140000
280.625122	145.640000
280.718201	146.660000
280.811279	146.580000
280.904327	146.520000
280.997406	146.840000
281.090454	146.400000
281.183533	145.720000
281.276581	145.660000
281.369659	145.760000
281.462738	145.980000
281.555786	146.080000
281.648865	146.080000
281.741943	146.320000
281.835022	146.760000
281.928070	146.460000
282.021149	146.220000
282.114227	146.180000
282.207306	145.960000
282.300385	145.880000
282.393433	146.060000
282.486511	146.220000
282.579590	146.860000
282.672668	147.200000
282.765747	146.600000
282.858856	146.260000
282.951904	146.520000
283.045013	146.280000
283.138062	146.300000
283.231171	146.860000
283.324249	147.520000
283.417328	147.460000
283.510406	147.120000
283.603485	146.860000
283.696564	146.480000
283.789642	146.140000
283.882751	145.980000
283.975830	146.720000
284.068909	146.340000
284.161987	146.920000
284.255066	146.620000
284.348175	146.840000
284.441254	146.520000
284.534332	147.340000
284.627441	146.720000
284.720520	146.440000
284.813599	146.400000
284.906708	146.360000
284.999786	145.400000
285.092896	145.480000
285.185974	146.720000
285.279053	146.260000
285.372192	146.040000
285.465240	147.100000
285.558380	147.020000
285.651459	146.100000
285.744568	146.860000
285.837677	146.580000
285.930756	146.180000
286.023865	146.120000
286.116943	146.020000
286.210052	145.860000
286.303162	145.880000
286.396240	145.740000
286.489349	145.760000
286.582458	145.920000
286.675568	145.560000
286.768646	145.720000
286.861755	145.960000
286.954865	146.600000
287.047974	146.280000
287.141083	146.320000
287.234161	146.220000
287.327271	146.120000
287.420380	146.300000
287.513519	146.340000
287.606598	146.640000
287.699738	146.800000
287.792816	146.360000
287.885956	145.880000
287.979034	146.220000
288.072174	146.160000
288.165283	146.060000
288.258392	146.740000
288.351501	146.380000
288.444611	146.360000
288.537720	146.420000
288.630859	146.380000
288.723969	146.140000
288.817078	146.780000
288.910187	146.680000
289.003296	146.280000
289.096436	146.040000
289.189545	145.800000
289.282654	145.140000
289.375763	145.560000
289.468903	145.840000
289.562012	146.440000
289.655121	146.680000
289.748260	146.860000
289.841400	147.120000
289.934509	146.780000
290.027649	146.640000
290.120728	146.460000
290.213898	146.340000
290.306976	145.860000
290.400146	146.140000
290.493256	145.640000
290.586395	145.940000
290.679535	146.480000
290.772644	146.420000
290.865784	145.680000
290.958893	145.860000
291.052032	145.460000
291.145172	145.120000
291.238281	145.100000
291.331421	145.340000
291.424561	145.860000
291.517670	145.700000
291.610809	145.840000
291.703949	145.620000
291.797089	146.080000
291.890228	145.580000
291.983337	145.720000
292.076477	145.400000
292.169617	145.660000
292.262756	145.160000
292.355927	145.140000
292.449036	144.780000
292.542206	145.040000
292.635315	145.180000
292.728485	145.740000
292.821625	145.600000
292.914764	146.940000
293.007904	146.940000
293.101044	146.820000
293.194183	146.480000
293.287323	146.680000
293.380463	145.820000
293.473602	145.460000
293.566742	145.640000
293.659882	146.320000
293.753021	146.640000
293.846191	146.660000
293.939331	146.500000
294.032471	146.320000
294.125610	145.700000
294.218781	145.760000
294.311920	146.380000
294.405060	146.780000
294.498230	146.700000
294.591370	147.040000
294.684540	146.360000
294.777679	145.720000
294.870850	145.880000
294.963959	145.840000
295.057159	145.560000
295.150299	145.920000
295.243469	146.040000
295.336609	145.160000
295.429779	145.300000
295.522919	145.460000
295.616089	145.320000
295.709229	145.780000
295.802399	146.640000
295.895569	146.160000
295.988708	146.120000
296.081879	146.320000
296.175018	145.680000
296.268188	145.480000
296.361359	146.100000
296.454529	146.160000
296.547668	146.300000
296.640839	146.780000
296.734009	146.560000
296.827179	146.640000
296.920319	146.740000
297.013519	146.120000
297.106659	145.820000
297.199860	145.660000
297.292999	145.420000
297.386200	144.940000
297.479309	145.260000
297.572510	145.000000
297.665680	145.060000
297.758850	145.200000
297.852020	145.340000
297.945190	145.120000
298.038361	144.940000
298.131531	145.680000
298.224701	145.360000
298.317871	145.120000
298.411072	144.760000
298.504242	144.940000
298.597412	144.620000
298.690582	144.980000
298.783752	145.120000
298.876923	145.900000
298.970093	145.920000
299.063293	146.120000
299.156464	146.260000
299.249634	146.480000
299.342834	146.480000
299.436005	146.820000
299.529205	146.660000
299.622345	146.880000
299.715576	146.560000
299.808716	146.200000
299.901917	146.120000
299.995117	146.120000
300.088287	146.060000
300.181488	146.080000
300.274658	145.860000
300.367828	145.700000
300.461029	145.920000
300.554199	145.880000
300.647400	145.960000
300.740601	146.780000
300.833771	146.820000
300.926971	146.680000
301.020142	145.960000
301.113342	146.060000
301.206512	145.760000
301.299713	146.180000
301.392914	146.260000
301.486084	146.800000
301.579285	146.760000
301.672516	147.040000
301.765686	146.840000
301.858887	146.640000
301.952057	146.580000
302.045288	146.480000
302.138458	146.120000
302.231659	145.600000
302.324860	145.480000
302.418060	145.080000
302.511261	145.120000
302.604462	145.440000
302.697662	145.540000
302.790863	145.440000
302.884064	145.420000
302.977264	145.420000
303.070465	145.660000
303.163666	146.340000
303.256866	146.560000
303.350067	146.480000
303.443268	146.480000
303.536469	146.180000
303.629669	145.500000
303.722870	145.680000
303.816071	145.760000
303.909271	145.920000
304.002472	145.200000
304.095673	145.160000
304.188934	144.560000
304.282104	145.600000
304.375336	145.380000
304.468506	145.720000
304.561768	145.320000
304.654968	146.060000
304.748169	145.140000
304.841370	144.940000
304.934601	145.140000
305.027802	145.480000
305.121002	144.800000
305.214233	145.060000
305.307434	145.640000
305.400665	146.180000
305.493866	146.300000
305.587097	147.020000
305.680298	146.740000
305.773499	146.900000
305.866730	146.460000
305.959930	146.920000
306.053162	146.800000
306.146393	146.680000
306.239594	145.820000
306.332825	145.800000
306.426025	146.040000
306.519287	145.560000
306.612488	145.780000
306.705719	146.080000
306.798920	146.160000
306.892181	145.240000
306.985352	145.060000
307.078613	144.300000
307.171844	144.540000
307.265045	143.980000
307.358276	143.760000
307.451508	144.280000
307.544739	145.140000
307.637970	144.740000
307.731201	144.660000
307.824402	145.780000
307.917633	146.020000
308.010864	146.500000
308.104095	147.140000
308.197327	147.660000
308.290558	147.520000
308.383789	147.000000
308.477020	146.240000
308.570251	145.820000
308.663483	145.620000
308.756714	145.020000
308.849976	145.240000
308.943176	145.740000
309.036438	145.500000
309.129639	145.380000
309.222900	145.460000
309.316101	145.200000
309.409393	144.640000
309.502625	144.560000
309.595856	144.780000
309.689087	145.140000
309.782318	145.320000
309.875580	145.480000
309.968811	145.840000
310.062042	145.580000
310.155273	145.120000
310.248535	145.620000
310.341766	145.620000
310.434998	145.380000
310.528259	145.540000
310.621490	146.260000
310.714722	145.500000
310.807983	145.640000
310.901215	145.680000
310.994476	145.640000
311.087708	144.880000
311.181000	145.340000
311.274200	144.800000
311.367462	144.960000
311.460693	144.840000
311.553986	145.640000
311.647186	145.820000
311.740479	146.620000
311.833710	146.420000
311.926971	146.380000
312.020203	145.560000
312.113464	145.200000
312.206726	144.360000
312.299957	144.660000
312.393219	145.200000
312.486481	145.580000
312.579712	145.480000
312.672974	146.000000
312.766235	145.820000
312.859497	145.720000
312.952759	145.420000
313.045990	146.340000
313.139252	145.800000
313.232513	146.100000
313.325775	146.080000
313.419037	146.020000
313.512299	144.900000
313.605530	145.700000
313.698822	145.560000
313.792053	145.360000
313.885345	145.400000
313.978577	145.880000
314.071869	145.460000
314.165131	145.720000
314.258392	146.020000
314.351654	146.120000
314.444916	145.200000
314.538177	145.620000
314.631439	145.600000
314.724701	145.280000
314.817993	145.260000
314.911255	146.060000
315.004517	145.780000
315.097778	145.640000
315.191040	146.200000
315.284302	146.580000
315.377594	146.220000
315.470856	146.280000
315.564117	145.980000
315.657379	145.200000
315.750671	144.740000
315.843933	145.320000
315.937195	144.900000
316.030518	144.580000
316.123749	144.920000
316.217041	145.900000
316.310303	145.560000
316.403595	145.920000
316.496857	146.460000
316.590149	146.740000
316.683411	145.760000
316.776703	145.520000
316.869965	145.520000
316.963257	145.480000
317.056519	144.840000
317.149811	145.100000
317.243073	145.500000
317.336365	145.540000
317.429626	145.820000
317.522919	146.400000
317.616180	146.300000
317.709473	145.940000
317.802765	145.680000
317.896027	145.360000
317.989319	145.500000
318.082611	145.520000
318.175873	145.420000
318.269165	145.760000
318.362488	145.960000
318.455750	145.540000
318.549042	145.700000
318.642303	146.400000
318.735626	145.940000
318.828888	145.800000
318.922211	145.460000
319.015472	146.260000
319.108765	145.500000
319.202057	145.660000
319.295349	145.880000
319.388641	146.140000
319.481934	145.240000
319.575226	145.360000
319.668518	145.860000
319.761810	146.120000
319.855103	146.300000
319.948395	146.580000
320.041687	146.920000
320.134979	146.600000
320.228271	146.060000
320.321564	145.840000
320.414856	145.620000
320.508148	144.940000
320.601440	144.740000
320.694763	144.680000
320.788025	145.340000
320.881348	145.560000
320.974640	145.860000
321.067963	145.620000
321.161224	145.780000
321.254547	144.780000
321.347839	145.340000
321.441162	145.160000
321.534454	145.600000
321.627747	145.380000
321.721069	146.440000
321.814362	146.120000
321.907654	146.260000
322.000946	146.140000
322.094269	147.000000
322.187561	146.260000
322.280884	146.300000
322.374176	146.600000
322.467468	147.020000
322.560791	146.460000
322.654083	147.180000
322.747406	147.140000
322.840698	147.320000
322.934021	147.440000
323.027344	147.660000
323.120636	147.020000
323.213959	146.720000
323.307251	146.160000
323.400574	145.460000
323.493866	144.940000
323.587219	145.200000
323.680511	145.480000
323.773834	145.840000
323.867157	146.220000
323.960449	146.560000
324.053772	146.660000
324.147095	146.640000
324.240387	146.940000
324.333710	146.880000
324.427032	147.020000
324.520355	147.120000
324.613647	146.760000
324.706970	146.500000
324.800293	146.600000
324.893616	146.640000
324.986938	146.600000
325.080231	146.560000
325.173553	146.980000
325.266876	147.100000
325.360199	146.960000
325.453522	146.420000
325.546875	146.260000
325.640167	146.300000
325.733521	146.260000
325.826813	146.420000
325.920166	146.440000
326.013489	146.360000
326.106812	145.700000
326.200134	145.340000
326.293457	144.760000
326.386780	145.020000
326.480103	145.100000
326.573425	145.040000
326.666748	145.200000
326.760071	145.660000
326.853424	145.780000
326.946747	145.700000
327.040070	146.380000
327.133392	146.100000
327.226715	145.340000
327.320068	145.040000
327.413391	145.860000
327.506714	145.040000
327.600037	145.120000
327.693390	145.900000
327.786713	146.020000
327.880066	145.280000
327.973358	145.940000
328.066742	146.520000
328.160034	146.520000
328.253418	146.720000
328.346710	146.800000
328.440063	146.320000
328.533417	145.860000
328.626740	146.100000
328.720093	145.700000
328.813416	145.760000
328.906769	145.820000
329.000092	146.000000
329.093445	145.720000
329.186768	145.860000
329.280121	146.400000
329.373444	146.640000
329.466797	146.440000
329.560120	146.320000
329.653473	146.460000
329.746796	145.780000
329.840149	145.500000
329.933502	145.480000
330.026825	145.380000
330.120178	145.280000
330.213562	145.460000
330.306854	145.640000
330.400238	145.600000
330.493561	145.500000
330.586945	145.940000
330.680237	146.100000
330.773621	146.260000
330.866974	146.600000
330.960327	146.800000
331.053680	146.420000
331.147003	146.500000
331.240356	146.480000
331.333710	146.360000
331.427063	146.080000
331.520416	146.260000
331.613770	146.160000
331.707123	146.120000
331.800476	146.160000
331.893829	147.140000
331.987152	147.080000
332.080505	146.980000
332.173859	146.860000
332.267212	146.380000
332.360565	145.980000
332.453918	145.560000
332.547333	145.300000
332.640656	145.560000
332.734039	145.700000
332.827362	145.120000
332.920746	145.600000
333.014069	145.960000
333.107452	146.060000
333.200806	146.700000
333.294159	146.900000
333.387543	146.480000
333.480896	145.960000
333.574249	145.640000
333.667603	145.060000
333.760956	145.360000
333.854340	145.440000
333.947693	145.580000
334.041046	145.740000
334.134430	146.080000
334.227783	145.660000
334.321136	145.400000
334.414520	145.300000
334.507874	145.360000
334.601227	145.300000
334.694611	145.340000
334.787964	145.800000
334.881348	146.240000
334.974701	146.100000
335.068085	145.580000
335.161438	145.960000
335.254822	145.540000
335.348175	145.420000
335.441559	145.180000
335.534943	146.000000
335.628296	145.620000
335.721680	146.060000
335.815033	146.120000
335.908417	146.260000
336.001770	146.360000
336.095154	146.460000
336.188538	146.200000
336.281891	145.940000
336.375275	145.480000
336.468658	144.840000
336.562012	145.120000
336.655396	145.340000
336.748779	145.740000
336.842133	146.520000
336.935516	147.000000
337.028900	146.180000
337.122284	146.080000
337.215637	146.080000
337.309021	145.720000
337.402435	144.940000
337.495789	145.320000
337.589203	145.080000
337.682526	144.660000
337.775940	144.880000
337.869324	145.320000
337.962708	145.300000
338.056091	146.140000
338.149475	146.000000
338.242859	146.000000
338.336243	145.720000
338.429626	145.940000
338.523010	145.400000
338.616394	145.680000
338.709778	145.880000
338.803162	146.360000
338.896545	146.540000
338.989929	146.140000
339.083313	146.340000
339.176697	145.860000
339.270081	145.460000
339.363464	145.540000
339.456848	146.220000
339.550232	145.540000
339.643616	145.400000
339.737030	145.560000
339.830383	145.160000
339.923828	145.060000
340.017181	145.580000
340.110596	145.820000
340.203949	146.040000
340.297363	145.800000
340.390778	145.620000
340.484161	145.760000
340.577545	145.960000
340.670959	145.820000
340.764343	146.040000
340.857727	146.240000
340.951111	145.860000
341.044525	145.980000
341.137909	145.600000
341.231293	145.560000
341.324707	144.780000
341.418091	145.240000
341.511505	144.840000
341.604889	145.160000
341.698303	145.380000
341.791687	146.080000
341.885071	145.720000
341.978485	145.640000
342.071899	145.840000
342.165283	146.040000
342.258698	146.100000
342.352081	146.660000
342.445496	147.380000
342.538879	147.400000
342.632324	147.020000
342.725708	147.160000
342.819122	146.460000
342.912506	145.580000
343.005920	145.420000
343.099335	146.300000
343.192719	145.720000
343.286133	145.980000
343.379547	146.560000
343.472931	146.800000
343.566345	146.100000
343.659760	146.500000
343.753143	146.460000
343.846558	146.200000
343.939972	146.120000
344.033386	146.600000
344.126770	146.440000
344.220184	146.360000
344.313599	146.500000
344.407043	146.600000
344.500427	145.820000
344.593872	146.200000
344.687225	145.920000
344.780670	145.540000
344.874054	145.140000
344.967499	145.580000
345.060913	145.420000
345.154327	145.560000
345.247742	145.660000
345.341156	145.380000
345.434570	145.060000
345.527985	144.960000
345.621399	145.120000
345.714813	144.960000
345.808228	145.280000
345.901642	145.020000
345.995056	144.700000
346.088470	145.020000
346.181885	145.200000
346.275299	144.960000
346.368713	144.920000
346.462128	144.980000
346.555573	144.600000
346.648987	144.660000
346.742401	144.640000
346.835815	145.240000
346.929260	144.840000
347.022644	145.260000
347.116119	145.500000
347.209503	145.820000
347.302948	146.600000
347.396362	147.400000
347.489807	147.140000
347.583221	147.580000
347.676636	147.420000
347.770050	146.220000
347.863495	145.860000
347.956909	146.060000
348.050323	145.400000
348.143768	145.320000
348.237183	145.260000
348.330597	145.680000
348.424042	145.840000
348.517456	146.320000
348.610901	146.840000
348.704315	146.880000
348.797760	145.980000
348.891174	145.240000
348.984619	144.560000
349.078033	144.580000
349.171448	145.100000
349.264923	145.400000
349.358337	145.680000
349.451782	145.980000
349.545197	145.360000
349.638641	144.920000
349.732086	144.780000
349.825500	145.280000
349.918945	144.720000
350.012390	145.380000
350.105804	145.780000
350.199249	145.820000
350.292664	146.020000
350.386108	146.460000
350.479553	146.600000
350.572968	146.540000
350.666412	146.900000
350.759857	146.320000
350.853302	146.800000
350.946716	146.200000
351.040161	145.980000
351.133606	146.120000
351.227081	145.800000
351.320465	146.180000
351.413940	146.460000
351.507355	146.680000
351.600830	146.600000
351.694244	146.480000
351.787720	146.220000
351.881104	146.020000
351.974579	145.540000
352.067993	146.060000
352.161469	146.520000
352.254883	145.780000
352.348358	145.760000
352.441803	145.960000
352.535248	145.480000
352.628693	145.720000
352.722137	145.940000
352.815582	145.900000
352.909027	146.280000
353.002472	146.220000
353.095917	145.800000
353.189362	146.020000
353.282806	146.180000
353.376251	145.760000
353.469696	145.340000
353.563141	146.160000
353.656586	145.980000
353.750061	145.740000
353.843475	145.940000
353.936981	146.940000
354.030396	145.940000
354.123871	145.720000
354.217285	146.360000
354.310760	146.620000
354.404175	146.040000
354.497681	146.220000
354.591095	146.260000
354.684570	145.340000
354.777985	145.020000
354.871490	144.820000
354.964935	145.440000
355.058380	145.700000
355.151855	145.660000
355.245300	146.160000
355.338745	146.440000
355.432220	146.240000
355.525665	145.740000
355.619110	146.380000
355.712585	145.980000
355.806030	145.600000
355.899475	145.300000
355.992950	145.840000
356.086426	146.200000
356.179871	146.160000
356.273346	146.700000
356.366791	146.860000
356.460266	146.980000
356.553711	146.460000
356.647186	146.580000
356.740631	146.140000
356.834106	145.600000
356.927551	145.640000
357.021027	145.600000
357.114471	145.580000
357.207947	145.820000
357.301422	146.500000
357.394867	146.360000
357.488342	146.540000
357.581818	146.560000
357.675262	146.540000
357.768738	146.060000
357.862213	145.580000
357.955658	145.720000
358.049133	145.620000
358.142609	146.080000
358.236053	146.040000
358.329529	146.320000
358.423035	146.520000
358.516449	145.960000
358.609955	146.160000
358.703400	146.940000
358.796906	147.080000
358.890350	146.580000
358.983826	147.100000
359.077271	146.200000
359.170776	145.620000
359.264221	145.540000
359.357727	145.520000
359.451172	145.580000
359.544647	145.780000
359.638123	145.600000
359.731598	145.800000
359.825073	146.320000
359.918549	146.100000
360.012024	146.120000
360.105499	145.820000
360.198975	145.620000
360.292450	144.960000
360.385925	145.200000
360.479401	144.920000
360.572876	145.400000
360.666351	145.640000
360.759857	145.880000
360.853302	146.160000
360.946808	146.020000
361.040253	146.280000
361.133759	145.840000
361.227203	146.100000
361.320709	145.380000
361.414154	145.920000
361.507660	146.100000
361.601105	146.620000
361.694641	146.980000
361.788086	146.960000
361.881592	147.080000
361.975067	146.480000
362.068542	146.680000
362.162018	146.120000
362.255524	145.940000
362.348999	145.920000
362.442474	146.340000
362.535950	145.620000
362.629456	145.760000
362.722931	146.100000
362.816406	146.180000
362.909882	146.360000
363.003387	146.280000
363.096863	146.360000
363.190338	146.460000
363.283875	145.900000
363.377319	145.600000
363.470825	146.180000
363.564301	145.520000
363.657806	145.500000
363.751282	145.340000
363.844788	146.080000
363.938232	145.200000
364.031769	146.140000
364.125214	146.460000
364.218750	147.320000
364.312225	146.220000
364.405731	146.760000
364.499207	145.840000
364.592712	145.700000
364.686188	145.020000
364.779694	145.260000
364.873169	145.360000
364.966675	145.320000
365.060150	145.080000
365.153656	145.980000
365.247131	145.960000
365.340637	146.440000
365.434143	147.380000
365.527618	147.640000
365.621155	146.500000
365.714600	146.460000
365.808136	146.160000
365.901611	145.080000
365.995117	144.860000
366.088593	145.100000
366.182129	145.040000
366.275604	144.980000
366.369110	145.100000
366.462585	144.900000
366.556122	145.880000
366.649567	146.220000
366.743103	146.180000
366.836609	146.260000
366.930115	146.860000
367.023590	146.280000
367.117096	145.980000
367.210602	145.820000
367.304108	146.480000
367.397614	146.900000
367.491119	147.200000
367.584595	147.080000
367.678101	147.640000
367.771606	147.160000
367.865112	146.460000
367.958649	145.620000
368.052124	145.720000
368.145660	144.980000
368.239136	145.660000
368.332672	145.720000
368.426147	146.060000
368.519684	145.940000
368.613159	146.420000
368.706696	145.920000
368.800171	145.840000
368.893707	145.600000
368.987183	145.580000
369.080719	145.620000
369.174225	145.400000
369.267731	145.760000
369.361237	146.200000
369.454742	146.380000
369.548248	146.540000
369.641754	146.360000
369.735260	145.840000
369.828766	144.800000
369.922272	145.440000
370.015808	145.160000
370.109314	145.360000
370.202820	145.320000
370.296356	146.920000
370.389832	146.240000
370.483368	145.980000
370.576874	146.060000
370.670410	146.620000
370.763885	145.560000
370.857422	145.680000
370.950928	145.560000
371.044464	146.280000
371.137939	146.060000
371.231476	146.460000
371.324982	146.760000
371.418518	147.260000
371.512024	146.780000
371.605560	146.580000
371.699066	146.660000
371.792572	146.240000
371.886108	146.560000
371.979614	146.420000
372.073120	146.900000
372.166656	146.620000
372.260162	147.280000
372.353668	146.760000
372.447205	146.400000
372.540710	146.100000
372.634277	145.880000
372.727753	145.660000
372.821320	145.880000
372.914795	146.000000
373.008362	145.780000
373.101837	146.160000
373.195404	145.800000
373.288879	145.440000
373.382446	146.080000
373.475922	146.260000
373.569489	146.660000
373.662964	147.140000
373.756531	147.000000
373.850037	146.880000
373.943573	146.760000
374.037109	145.760000
374.130615	145.780000
374.224152	146.180000
374.317657	145.900000
374.411194	146.720000
374.504730	146.840000
374.598236	146.640000
374.691772	146.560000
374.785309	146.440000
374.878815	145.160000
374.972351	145.960000
375.065887	145.800000
375.159454	146.300000
375.252930	146.200000
375.346497	146.900000
375.440002	147.200000
375.533569	147.280000
375.627045	146.520000
375.720612	146.640000
375.814117	146.640000
375.907684	146.140000
376.001160	145.760000
376.094727	145.480000
376.188232	146.240000
376.281799	146.560000
376.375336	146.260000
376.468872	147.040000
376.562408	147.380000
376.655914	146.720000
376.749451	146.460000
376.842987	146.760000
376.936523	146.280000
377.030060	146.160000
377.123596	146.400000
377.217133	146.080000
377.310669	146.060000
377.404205	146.460000
377.497772	147.020000
377.591278	146.940000
377.684845	147.620000
377.778351	147.720000
377.871918	147.180000
377.965424	146.320000
378.058990	145.940000
378.152496	145.700000
378.246063	145.980000
378.339569	146.300000
378.433136	146.640000
378.526642	146.680000
378.620209	146.460000
378.713745	145.580000
378.807312	145.820000
378.900848	146.040000
378.994385	146.400000
379.087921	145.800000
379.181458	146.540000
379.274994	146.040000
379.368530	145.820000
379.462097	145.860000
379.555634	146.440000
379.649170	145.620000
379.742706	145.580000
379.836273	145.780000
379.929810	145.480000
380.023376	145.280000
380.116882	145.720000
380.210449	145.460000
380.303986	145.120000
380.397552	144.720000
380.491058	144.640000
380.584656	144.340000
380.678162	145.180000
380.771729	145.500000
380.865265	146.780000
380.958832	147.160000
381.052368	147.680000
381.145935	147.500000
381.239471	147.740000
381.333008	147.220000
381.426575	147.240000
381.520111	147.280000
381.613647	147.320000
381.707214	146.780000
381.800751	146.020000
381.894318	146.000000
381.987854	145.620000
382.081421	145.300000
382.174988	145.900000
382.268524	146.240000
382.362091	146.180000
382.455627	146.780000
382.549194	146.760000
382.642731	146.020000
382.736298	145.680000
382.829834	145.500000
382.923401	145.760000
383.016937	145.940000
383.110504	146.360000
383.204041	146.880000
383.297607	147.120000
383.391174	146.240000
383.484741	146.760000
383.578278	146.220000
383.671844	145.780000
383.765411	145.220000
383.858948	145.540000
383.952515	145.020000
384.046051	145.660000
384.139618	146.160000
384.233185	146.860000
384.326721	146.980000
384.420288	147.640000
384.513855	147.660000
384.607422	147.900000
384.700989	147.660000
384.794525	147.140000
384.888123	146.460000
384.981659	146.700000
385.075226	146.500000
385.168762	146.400000
385.262360	146.520000
385.355896	146.120000
385.449463	145.700000
385.542999	145.500000
385.636597	146.140000
385.730164	146.480000
385.823730	146.380000
385.917267	145.980000
386.010834	146.020000
386.104401	145.520000
386.197968	145.520000
386.291534	146.000000
386.385101	146.320000
386.478668	146.720000
386.572235	146.560000
386.665802	146.220000
386.759338	146.100000
386.852905	145.900000
386.946472	145.540000
387.040070	145.660000
387.133606	145.640000
387.227203	145.600000
387.320740	145.920000
387.414337	145.340000
387.507874	145.260000
387.601471	145.400000
387.695007	145.200000
387.788605	145.020000
387.882141	145.560000
387.975739	145.500000
388.069275	145.140000
388.162872	145.640000
388.256439	145.320000
388.350037	145.060000
388.443604	145.140000
388.537170	145.420000
388.630737	145.500000
388.724304	146.020000
388.817871	146.100000
388.911438	146.240000
389.005005	146.640000
389.098602	146.680000
389.192169	146.160000
389.285736	146.660000
389.379333	146.660000
389.472870	145.980000
389.566467	145.960000
389.660034	146.380000
389.753632	145.740000
389.847168	145.880000
389.940765	146.380000
390.034332	146.320000
390.127930	146.020000
390.221466	146.280000
390.315063	146.060000
390.408630	145.280000
390.502228	144.180000
390.595795	144.380000
390.689362	144.420000
390.782959	144.900000
390.876526	145.480000
390.970093	145.940000
391.063690	146.380000
391.157257	146.260000
391.250824	146.060000
391.344421	145.820000
391.437988	146.300000
391.531555	146.560000
391.625153	146.900000
391.718750	147.000000
391.812317	147.140000
391.905914	146.780000
391.999481	146.260000
392.093079	146.240000
392.186615	146.240000
392.280243	146.200000
392.373779	146.620000
392.467407	147.140000
392.560944	146.640000
392.654572	146.260000
392.748108	146.480000
392.841736	146.480000
392.935303	146.020000
393.028900	146.120000
393.122467	146.140000
393.216064	145.620000
393.309631	145.020000
393.403229	144.540000
393.496796	144.600000
393.590393	144.280000
393.683990	144.820000
393.777557	145.520000
393.871155	145.940000
393.964722	146.320000
394.058350	146.500000
394.151917	146.400000
394.245514	145.660000
394.339081	145.840000
394.432678	145.900000
394.526245	145.920000
394.619873	145.640000
394.713409	146.220000
394.807037	146.100000
394.900604	146.080000
394.994202	145.860000
395.087769	146.000000
395.181396	145.480000
395.274994	146.180000
395.368561	145.600000
395.462158	146.220000
395.555756	146.000000
395.649353	146.740000
395.742920	146.140000
395.836517	146.740000
395.930115	145.580000
396.023712	146.180000
396.117279	146.100000
396.210876	145.780000
396.304474	145.780000
396.398071	146.640000
396.491669	146.620000
396.585266	146.560000
396.678833	146.400000
396.772461	146.420000
396.866028	146.720000
396.959656	147.240000
397.053223	147.720000
397.146851	148.820000
397.240417	150.120000
397.334015	152.020000
397.427582	153.720000
397.521210	156.660000
397.614807	160.820000
397.708405	165.800000
397.802002	172.080000
397.895599	180.980000
397.989197	192.060000
398.082794	205.040000
398.176392	221.960000
398.269989	242.000000
398.363586	265.240000
398.457184	292.000000
398.550781	322.360000
398.644379	352.720000
398.737976	384.860000
398.831573	417.260000
398.925201	446.920000
399.018768	474.600000
399.112396	500.460000
399.205963	524.760000
399.299591	546.600000
399.393158	567.700000
399.486786	587.560000
399.580353	606.340000
399.673981	619.300000
399.767578	630.400000
399.861206	637.320000
399.954773	638.340000
400.048401	632.300000
400.141998	622.740000
400.235596	607.420000
400.329193	587.560000
400.422791	564.840000
400.516418	540.960000
400.610016	516.640000
400.703613	491.640000
400.797211	464.840000
400.890808	438.760000
400.984436	413.780000
401.078033	387.160000
401.171631	360.380000
401.265259	334.960000
401.358826	310.320000
401.452484	284.900000
401.546051	262.920000
401.639679	241.600000
401.733246	224.540000
401.826904	208.500000
401.920471	195.140000
402.014099	183.600000
402.107697	174.820000
402.201324	166.800000
402.294891	161.080000
402.388550	157.340000
402.482147	154.360000
402.575745	152.280000
402.669373	150.320000
402.762970	148.940000
402.856567	148.240000
402.950195	147.680000
403.043793	147.380000
403.137390	148.080000
403.231018	147.180000
403.324615	147.500000
403.418243	147.020000
403.511841	147.040000
403.605469	146.640000
403.699066	147.600000
403.792694	147.020000
403.886292	147.480000
403.979919	147.580000
404.073517	146.960000
404.167145	147.120000
404.260712	147.260000
404.354370	146.760000
404.447937	146.340000
404.541595	146.680000
404.635162	146.500000
404.728821	146.860000
404.822418	146.600000
404.916046	146.440000
405.009644	146.500000
405.103271	146.620000
405.196899	145.940000
405.290497	146.320000
405.384125	146.640000
405.477722	146.020000
405.571350	145.440000
405.664948	145.740000
405.758575	145.260000
405.852203	144.820000
405.945801	145.080000
406.039429	145.060000
406.133057	144.700000
406.226654	144.920000
406.320312	145.140000
406.413879	145.300000
406.507538	145.740000
406.601135	145.560000
406.694763	146.040000
406.788361	145.800000
406.882019	145.520000
406.975586	145.480000
407.069244	146.260000
407.162872	146.020000
407.256470	146.400000
407.350098	146.660000
407.443726	146.280000
407.537323	145.660000
407.630951	145.960000
407.724579	145.480000
407.818207	145.880000
407.911804	145.980000
408.005432	145.960000
408.099060	145.980000
408.192688	146.480000
408.286285	146.080000
408.379913	145.840000
408.473572	146.360000
408.567169	145.600000
408.660828	145.560000
408.754395	145.360000
408.848053	145.320000
408.941650	145.140000
409.035309	145.380000
409.128906	145.460000
409.222565	145.660000
409.316132	146.200000
409.409790	145.620000
409.503387	145.700000
409.597046	145.780000
409.690674	145.900000
409.784302	145.800000
409.877930	146.040000
409.971558	146.100000
410.065186	145.880000
410.158783	145.780000
410.252411	145.520000
410.346039	146.160000
410.439667	145.840000
410.533295	146.000000
410.626923	146.280000
410.720551	146.140000
410.814209	146.140000
410.907806	146.560000
411.001465	145.760000
411.095062	145.520000
411.188721	146.080000
411.282318	145.660000
411.375977	145.180000
411.469574	145.800000
411.563232	145.640000
411.656830	145.160000
411.750488	144.960000
411.844086	144.860000
411.937744	145.000000
412.031372	144.760000
412.125000	144.800000
412.218628	144.500000
412.312256	145.600000
412.405884	145.700000
412.499512	145.960000
412.593170	146.520000
412.686798	147.000000
412.780426	146.100000
412.874054	146.380000
412.967682	146.480000
413.061310	146.780000
413.154968	146.920000
413.248566	147.180000
413.342224	146.720000
413.435852	146.660000
413.529510	145.740000
413.623108	145.300000
413.716766	145.240000
413.810364	145.200000
413.904022	144.980000
413.997650	144.980000
414.091309	145.560000
414.184906	145.520000
414.278564	145.380000
414.372192	146.140000
414.465851	146.360000
414.559479	146.020000
414.653107	146.660000
414.746735	146.580000
414.840393	145.960000
414.934021	146.240000
415.027649	146.280000
415.121277	146.080000
415.214935	146.680000
415.308563	146.840000
415.402191	146.100000
415.495850	145.980000
415.589478	145.420000
415.683136	144.960000
415.776733	145.220000
415.870422	145.860000
415.964020	145.620000
416.057678	145.880000
416.151306	146.040000
416.244965	145.880000
416.338562	145.900000
416.432251	146.500000
416.525848	147.420000
416.619507	147.540000
416.713165	147.680000
416.806793	147.580000
416.900421	147.380000
416.994080	146.160000
417.087708	146.140000
417.181366	145.680000
417.274994	145.480000
417.368622	145.680000
417.462280	146.340000
417.555908	146.180000
417.649567	146.180000
417.743195	146.400000
417.836853	146.260000
417.930481	146.500000
418.024170	146.360000
418.117767	146.760000
418.211426	146.980000
418.305054	147.280000
418.398712	146.560000
418.492340	147.000000
418.585999	146.980000
418.679626	146.700000
418.773285	146.500000
418.866913	146.940000
418.960571	146.860000
419.054230	147.200000
419.147858	147.160000
419.241516	147.240000
419.335144	146.980000
419.428802	146.820000
419.522461	146.300000
419.616089	146.260000
419.709747	146.400000
419.803375	146.420000
419.897034	146.260000
419.990662	146.480000
420.084320	146.720000
420.177979	146.840000
420.271606	147.240000
420.365295	147.760000
420.458893	147.740000
420.552582	148.080000
420.646210	147.740000
420.739868	147.420000
420.833496	147.060000
420.927155	146.540000
421.020782	145.860000
421.114471	145.360000
421.208069	145.120000
421.301758	145.500000
421.395386	145.840000
421.489044	145.900000
421.582703	146.140000
421.676361	146.860000
421.769989	146.320000
421.863647	146.580000
421.957306	146.860000
422.050934	146.920000
422.144592	146.400000
422.238251	146.220000
422.331909	145.860000
422.425537	145.620000
422.519196	145.780000
422.612854	145.380000
422.706543	145.340000
422.800140	145.640000
422.893829	145.340000
422.987457	144.920000
423.081146	145.480000
423.174744	146.260000
423.268433	145.940000
423.362061	145.900000
423.455750	146.140000
423.549347	145.960000
423.643036	145.020000
423.736664	145.780000
423.830353	146.120000
423.924011	146.480000
424.017639	146.080000
424.111298	146.460000
424.204956	146.080000
424.298615	145.960000
424.392273	145.700000
424.485931	146.120000
424.579559	146.140000
424.673218	145.740000
424.766876	145.720000
424.860535	145.340000
424.954193	145.100000
425.047882	145.440000
425.141510	145.480000
425.235199	145.600000
425.328796	145.460000
425.422485	145.360000
425.516113	144.700000
425.609802	144.920000
425.703430	144.840000
425.797119	145.240000
425.890747	145.340000
425.984436	145.680000
426.078064	145.640000
426.171753	145.940000
426.265411	145.800000
426.359070	146.080000
426.452728	146.000000
426.546356	145.700000
426.640015	145.540000
426.733673	145.600000
426.827332	145.260000
426.920990	146.240000
427.014648	146.160000
427.108307	146.220000
427.201965	146.760000
427.295624	146.960000
427.389282	145.880000
427.482941	146.240000
427.576630	146.140000
427.670258	145.440000
427.763947	145.160000
427.857574	145.240000
427.951263	145.200000
428.044922	144.980000
428.138611	145.320000
428.232239	145.820000
428.325928	146.360000
428.419556	146.720000
428.513245	146.400000
428.606903	146.480000
428.700562	145.980000
428.794220	145.480000
428.887878	145.080000
428.981537	145.600000
429.075195	145.460000
429.168854	145.820000
429.262512	145.740000
429.356201	145.720000
429.449860	145.560000
429.543518	145.600000
429.637177	145.460000
429.730835	145.400000
429.824493	145.400000
429.918182	145.600000
430.011810	145.220000
430.105530	144.900000
430.199158	145.220000
430.292847	145.160000
430.386475	145.000000
430.480164	144.980000
430.573792	144.980000
430.667511	144.780000
430.761139	144.600000
430.854828	145.140000
430.948456	145.300000
431.042145	145.800000
431.135834	145.800000
431.229492	146.380000
431.323151	146.340000
431.416809	146.580000
431.510468	146.500000
431.604156	146.680000
431.697815	146.300000
431.791473	145.920000
431.885132	145.700000
431.978821	146.220000
432.072479	146.280000
432.166138	146.660000
432.259827	146.800000
432.353485	146.720000
432.447174	146.180000
432.540802	145.860000
432.634491	145.640000
432.728149	145.860000
432.821838	146.480000
432.915466	146.220000
433.009186	146.320000
433.102814	145.880000
433.196503	145.560000
433.290131	145.040000
433.383850	145.400000
433.477509	145.240000
433.571167	146.060000
433.664856	146.260000
433.758514	146.980000
433.852173	146.700000
433.945862	146.880000
434.039520	146.700000
434.133179	146.280000
434.226868	145.740000
434.320526	145.340000
434.414185	145.940000
434.507874	145.480000
434.601562	145.820000
434.695221	145.540000
434.788910	146.100000
434.882538	145.900000
434.976257	145.840000
435.069885	145.640000
435.163574	145.980000
435.257233	145.500000
435.350922	145.200000
435.444580	145.320000
435.538269	145.220000
435.631897	145.280000
435.725616	145.900000
435.819275	146.120000
435.912964	146.660000
436.006622	147.120000
436.100311	146.780000
436.193970	146.080000
436.287628	145.800000
436.381317	145.420000
436.474976	144.940000
436.568665	144.880000
436.662323	145.220000
436.756012	145.160000
436.849670	144.800000
436.943390	144.600000
437.037018	144.680000
437.130737	145.000000
437.224365	145.000000
437.318085	145.300000
437.411713	145.960000
437.505432	146.260000
437.599060	146.660000
437.692780	147.360000
437.786407	147.320000
437.880127	147.180000
437.973755	146.980000
438.067474	146.100000
438.161133	145.800000
438.254822	146.300000
438.348480	146.020000
438.442169	146.460000
438.535828	146.940000
438.629517	146.440000
438.723175	145.780000
438.816864	146.260000
438.910553	145.540000
439.004211	145.200000
439.097900	144.920000
439.191559	145.060000
439.285248	144.380000
439.378906	144.740000
439.472626	144.560000
439.566284	144.740000
439.659973	144.940000
439.753632	145.020000
439.847321	145.480000
439.940979	145.940000
440.034698	146.020000
440.128326	145.640000
440.222046	145.680000
440.315674	144.980000
440.409393	144.980000
440.503082	144.880000
440.596741	145.280000
440.690430	145.460000
440.784088	145.520000
440.877777	145.120000
440.971466	145.220000
441.065125	145.120000
441.158813	144.800000
441.252502	145.100000
441.346161	145.580000
441.439850	145.980000
441.533539	145.840000
441.627197	146.540000
441.720886	146.180000
441.814606	146.160000
441.908234	146.360000
442.001953	146.140000
442.095612	145.660000
442.189301	146.040000
442.282959	146.140000
442.376678	145.160000
442.470306	145.660000
442.564026	145.480000
442.657684	145.560000
442.751404	145.480000
442.845032	146.720000
442.938751	146.240000
443.032440	146.640000
443.126099	146.040000
443.219788	146.320000
443.313477	146.120000
443.407166	146.420000
443.500824	146.320000
443.594513	146.500000
443.688202	146.360000
443.781891	145.520000
443.875549	145.340000
443.969238	145.280000
444.062927	145.480000
444.156647	145.180000
444.250275	146.120000
444.343994	146.400000
444.437653	146.540000
444.531372	146.660000
444.625031	146.760000
444.718719	146.140000
444.812378	145.940000
444.906097	145.960000
444.999756	145.540000
445.093445	145.520000
445.187103	145.780000
445.280823	146.280000
445.374512	145.600000
445.468201	145.520000
445.561859	145.260000
445.655548	145.020000
445.749237	144.600000
445.842926	144.880000
445.936615	145.360000
446.030304	145.380000
446.123962	145.900000
446.217651	145.780000
446.311340	146.000000
446.405029	145.620000
446.498749	145.740000
446.592407	145.300000
446.686096	145.500000
446.779755	145.760000
446.873474	146.280000
446.967133	146.440000
447.060852	146.080000
447.154510	145.980000
447.248230	146.100000
447.341858	145.860000
447.435577	145.460000
447.529236	145.600000
447.622955	145.340000
447.716644	145.220000
447.810333	145.260000
447.904022	145.780000
447.997711	145.940000
448.091400	146.560000
448.185059	146.360000
448.278748	146.520000
448.372437	146.060000
448.466125	145.980000
448.559814	145.620000
448.653503	146.200000
448.747192	146.280000
448.840912	146.920000
448.934570	147.040000
449.028290	147.400000
449.121948	146.620000
449.215637	146.060000
449.309296	145.340000
449.403015	145.520000
449.496674	145.180000
449.590393	145.380000
449.684052	145.340000
449.777771	146.460000
449.871429	145.860000
449.965149	145.980000
450.058838	146.440000
450.152527	147.220000
450.246216	146.480000
450.339905	146.640000
450.433594	146.480000
450.527283	146.940000
450.620972	146.580000
450.714661	146.520000
450.808350	146.680000
450.902039	146.900000
450.995728	146.100000
451.089417	145.700000
451.183105	145.840000
451.276794	146.300000
451.370514	145.780000
451.464172	145.420000
451.557892	145.580000
451.651550	145.980000
451.745270	145.280000
451.838928	144.980000
451.932648	145.540000
452.026306	146.240000
452.120026	145.340000
452.213684	145.920000
452.307404	146.120000
452.401062	145.800000
452.494781	145.600000
452.588470	146.000000
452.682159	145.440000
452.775848	146.200000
452.869537	145.800000
452.963226	144.900000
453.056915	145.020000
453.150604	145.320000
453.244293	144.780000
453.337982	145.940000
453.431671	146.360000
453.525360	146.360000
453.619049	146.440000
453.712769	146.520000
453.806427	145.500000
453.900146	145.400000
453.993805	145.300000
454.087555	145.580000
454.181213	146.020000
454.274933	146.020000
454.368591	145.980000
454.462311	145.920000
454.555969	145.320000
454.649689	145.660000
454.743347	145.580000
454.837067	146.440000
454.930756	147.040000
455.024445	147.200000
455.118134	146.860000
455.211853	147.500000
455.305542	146.780000
455.399231	146.340000
455.492920	146.220000
455.586609	146.120000
455.680298	145.940000
455.773987	145.740000
455.867676	145.920000
455.961365	146.320000
456.055084	146.020000
456.148773	145.560000
456.242493	145.680000
456.336151	145.280000
456.429871	145.580000
456.523529	145.980000
456.617249	146.040000
456.710907	146.700000
456.804626	146.680000
456.898315	145.920000
456.992035	145.620000
457.085693	145.780000
457.179413	144.840000
457.273102	145.800000
457.366791	145.960000
457.460480	146.380000
457.554199	146.900000
457.647888	147.220000
457.741577	146.580000
457.835266	146.800000
457.928955	146.760000
458.022644	146.640000
458.116364	146.940000
458.210052	146.620000
458.303741	146.540000
458.397461	146.040000
458.491119	145.440000
458.584839	145.400000
458.678528	145.300000
458.772247	145.180000
458.865906	145.280000
458.959625	146.400000
459.053284	146.220000
459.147003	146.260000
459.240692	147.100000
459.334412	147.160000
459.428070	146.400000
459.521790	146.180000
459.615479	146.360000
459.709198	146.320000
459.802887	146.160000
459.896576	145.800000
459.990265	146.300000
460.083954	146.460000
460.177673	145.740000
460.271362	145.940000
460.365051	146.320000
460.458740	145.860000
460.552429	145.360000
460.646149	145.340000
460.739838	144.840000
460.833527	144.700000
460.927246	144.560000
461.020905	144.540000
461.114655	144.780000
461.208313	145.200000
461.302032	144.960000
461.395691	145.320000
461.489441	145.620000
461.583099	145.400000
461.676819	145.080000
461.770477	145.700000
461.864197	145.240000
461.957916	145.260000
462.051605	144.780000
462.145294	145.700000
462.238983	145.300000
462.332703	146.300000
462.426392	147.000000
462.520081	146.980000
462.613770	146.220000
462.707489	146.540000
462.801178	145.840000
462.894867	145.080000
462.988556	145.340000
463.082275	145.560000
463.175964	145.180000
463.269684	145.340000
463.363342	145.120000
463.457092	144.720000
463.550751	145.000000
463.644470	145.000000
463.738129	144.940000
463.831879	145.300000
463.925537	146.180000
464.019257	146.340000
464.112946	146.320000
464.206665	146.100000
464.300323	146.040000
464.394043	145.560000
464.487762	144.960000
464.581451	145.280000
464.675140	145.500000
464.768829	145.560000
464.862549	146.060000
464.956238	146.140000
465.049927	146.120000
465.143646	146.240000
465.237335	146.100000
465.331024	146.340000
465.424713	146.680000
465.518433	146.480000
465.612152	146.000000
465.705811	146.120000
465.799561	145.800000
465.893219	145.420000
465.986938	145.360000
466.080597	145.360000
466.174347	145.420000
466.268005	145.280000
466.361725	145.400000
466.455414	145.480000
466.549133	145.480000
466.642792	145.600000
466.736542	145.200000
466.830231	145.220000
466.923920	145.140000
467.017609	145.580000
467.111328	144.980000
467.205017	145.140000
467.298706	145.100000
467.392426	145.300000
467.486115	145.540000
467.579803	145.500000
467.673523	146.060000
467.767212	146.020000
467.860901	146.020000
467.954651	145.860000
468.048309	146.760000
468.142029	146.400000
468.235718	146.560000
468.329437	146.160000
468.423096	145.740000
468.516846	144.780000
468.610504	144.440000
468.704224	143.980000
468.797913	144.060000
468.891632	144.640000
468.985291	145.040000
469.079010	145.240000
469.172729	145.060000
469.266418	145.480000
469.360107	145.220000
469.453827	144.980000
469.547516	145.280000
469.641205	145.760000
469.734924	145.900000
469.828613	146.420000
469.922302	146.820000
470.016022	146.560000
470.109711	146.560000
470.203430	145.740000
470.297150	144.900000
470.390808	145.080000
470.484558	144.720000
470.578217	145.100000
470.671936	145.900000
470.765625	146.820000
470.859344	146.360000
470.953003	146.860000
471.046753	146.620000
471.140411	146.020000
471.234131	145.560000
471.327820	146.080000
471.421539	146.120000
471.515228	145.680000
471.608948	145.740000
471.702637	145.360000
471.796326	144.980000
471.890045	145.220000
471.983734	145.480000
472.077423	145.800000
472.171143	146.100000
472.264832	146.040000
472.358521	145.280000
472.452240	145.220000
472.545929	145.500000
472.639648	145.640000
472.733337	146.140000
472.827057	146.720000
472.920746	146.700000
473.014465	146.800000
473.108124	146.640000
473.201874	146.280000
473.295532	146.080000
473.389252	146.560000
473.482941	146.380000
473.576660	145.880000
473.670319	145.700000
473.764069	145.640000
473.857727	145.420000
473.951477	145.140000
474.045166	146.080000
474.138855	146.280000
474.232574	146.300000
474.326263	146.320000
474.419952	146.760000
474.513672	146.460000
474.607361	146.140000
474.701050	146.440000
474.794769	146.500000
474.888458	146.580000
474.982178	146.300000
475.075867	146.520000
475.169586	146.300000
475.263275	146.020000
475.356995	145.800000
475.450653	145.540000
475.544403	145.440000
475.638062	146.060000
475.731812	145.920000
475.825470	145.740000
475.919189	146.160000
476.012878	146.320000
476.106598	145.740000
476.200256	146.060000
476.294006	145.740000
476.387695	145.640000
476.481384	145.560000
476.575104	145.580000
476.668793	145.100000
476.762512	145.060000
476.856201	145.520000
476.949890	145.340000
477.043610	144.660000
477.137299	145.060000
477.230988	145.500000
477.324707	144.920000
477.418396	145.420000
477.512146	145.760000
477.605804	145.640000
477.699524	145.740000
477.793213	145.720000
477.886932	145.520000
477.980591	145.360000
478.074341	145.280000
478.167999	144.880000
478.261749	145.180000
478.355408	145.140000
478.449127	145.560000
478.542816	146.400000
478.636536	147.060000
478.730225	147.220000
478.823944	147.060000
478.917633	147.140000
479.011322	146.920000
479.105042	146.620000
479.198730	146.380000
479.292450	146.400000
479.386139	146.360000
479.479828	146.280000
479.573547	146.420000
479.667267	146.180000
479.760925	146.180000
479.854675	146.480000
479.948334	146.380000
480.042084	145.720000
480.135742	146.380000
480.229462	146.220000
480.323151	146.140000
480.416870	145.380000
480.510529	145.580000
480.604279	144.880000
480.697937	145.520000
480.791656	144.700000
480.885345	144.820000
480.979065	144.940000
481.072754	145.500000
481.166473	145.580000
481.260132	146.200000
481.353882	146.440000
481.447540	146.360000
481.541260	146.160000
481.635010	145.320000
481.728668	145.060000
481.822388	144.900000
481.916077	145.120000
482.009796	145.160000
482.103485	145.640000
482.197205	145.660000
482.290863	146.120000
482.384613	145.840000
482.478271	145.640000
482.571991	145.560000
482.665680	145.520000
482.759399	145.820000
482.853058	145.980000
482.946808	145.940000
483.040466	145.680000
483.134216	145.940000
483.227875	145.200000
483.321594	145.820000
483.415283	146.300000
483.509003	146.560000
483.602661	146.200000
483.696411	147.140000
483.790070	146.780000
483.883789	146.120000
483.977478	146.560000
484.071198	146.840000
484.164917	146.120000
484.258606	145.420000
484.352325	145.840000
484.445984	145.360000
484.539734	145.420000
484.633392	144.900000
484.727142	145.360000
484.820801	145.120000
484.914520	145.260000
485.008209	145.320000
485.101929	145.980000
485.195587	145.820000
485.289337	145.680000
485.382996	145.700000
485.476715	145.520000
485.570404	145.860000
485.664124	146.140000
485.757782	146.940000
485.851532	146.660000
485.945190	146.540000
486.038910	146.300000
486.132599	146.420000
486.226318	145.580000
486.319977	145.640000
486.413727	146.220000
486.507446	145.740000
486.601105	145.180000
486.694855	145.000000
486.788513	144.980000
486.882233	144.620000
486.975922	144.740000
487.069641	144.940000
487.163300	144.920000
487.257050	145.940000
487.350708	145.500000
487.444427	145.440000
487.538116	145.420000
487.631836	145.600000
487.725494	144.780000
487.819214	145.140000
487.912903	145.160000
488.006622	145.720000
488.100281	145.980000
488.194031	145.980000
488.287689	146.660000
488.381409	147.520000
488.475098	147.020000
488.568817	147.300000
488.662476	147.060000
488.756226	146.240000
488.849945	145.000000
488.943604	144.940000
489.037354	144.840000
489.131012	144.780000
489.224731	144.740000
489.318390	145.240000
489.412140	145.460000
489.505798	145.360000
489.599518	145.120000
489.693207	145.440000
489.786926	145.280000
489.880585	144.760000
489.974335	144.840000
490.067993	145.900000
490.161713	146.040000
490.255371	146.940000
490.349121	147.500000
490.442780	147.420000
490.536499	146.400000
490.630188	146.200000
490.723907	145.340000
490.817566	144.980000
490.911285	144.780000
491.004974	144.800000
491.098694	144.440000
491.192413	144.960000
491.286102	145.000000
491.379822	145.320000
491.473480	145.700000
491.567200	145.980000
491.660889	145.420000
491.754608	145.460000
491.848267	145.480000
491.941986	145.440000
492.035675	145.200000
492.129395	145.560000
492.223053	145.600000
492.316772	145.760000
492.410461	145.680000
492.504181	145.680000
492.597839	145.300000
492.691559	145.320000
492.785248	145.360000
492.878967	145.460000
492.972626	145.540000
493.066345	145.680000
493.160034	145.300000
493.253754	145.040000
493.347412	144.760000
493.441132	144.980000
493.534882	145.660000
493.628540	146.300000
493.722260	146.260000
493.815918	146.760000
493.909668	147.180000
494.003326	146.920000
494.097046	146.460000
494.190704	146.320000
494.284454	146.040000
494.378113	145.740000
494.471832	145.460000
494.565491	145.500000
494.659210	145.900000
494.752899	145.960000
494.846619	145.520000
494.940277	145.880000
495.033997	145.960000
495.127686	145.420000
495.221405	145.520000
495.315063	146.020000
495.408783	145.680000
495.502441	146.040000
495.596191	146.400000
495.689850	146.020000
495.783569	146.100000
495.877228	146.480000
495.970947	145.920000
496.064697	145.660000
496.158356	146.640000
496.252075	146.660000
496.345734	146.220000
496.439453	147.240000
496.533142	147.360000
496.626862	147.200000
496.720520	147.120000
496.814240	147.660000
496.907898	147.040000
497.001617	147.100000
497.095306	146.140000
497.189026	145.940000
497.282684	145.580000
497.376404	146.020000
497.470062	145.880000
497.563782	146.260000
497.657471	146.080000
497.751190	145.780000
497.844849	145.380000
497.938568	145.640000
498.032227	145.600000
498.125946	145.760000
498.219635	145.780000
498.313354	145.840000
498.407074	145.540000
498.500732	145.520000
498.594452	145.800000
498.688110	145.640000
498.781830	145.380000
498.875519	145.380000
498.969238	145.480000
499.062897	145.160000
499.156616	145.880000
499.250275	145.940000
499.343994	145.560000
499.437653	145.720000
499.531372	146.020000
499.625061	146.280000
499.718781	146.520000
499.812439	147.140000
499.906158	146.820000
499.999817	146.420000
500.093536	145.780000
500.187195	145.840000
500.280914	145.540000
500.374573	145.780000
500.468323	145.600000
500.561981	145.780000
500.655701	145.400000
500.749420	145.760000
500.843079	145.840000
500.936798	146.020000
501.030457	146.240000
501.124176	146.500000
501.217834	146.160000
501.311554	145.840000
501.405212	145.680000
501.498962	145.000000
501.592621	144.760000
501.686340	145.120000
501.779999	145.540000
501.873718	145.960000
501.967377	146.180000
502.061096	146.500000
502.154755	146.200000
502.248474	146.040000
502.342133	145.980000
502.435852	146.040000
502.529510	146.360000
502.623230	146.440000
502.716888	145.860000
502.810608	146.020000
502.904266	146.480000
502.997986	146.220000
503.091705	146.020000
503.185364	146.180000
503.279083	145.800000
503.372772	145.400000
503.466492	144.860000
503.560150	145.100000
503.653870	145.540000
503.747528	145.960000
503.841248	145.880000
503.934906	146.060000
504.028625	145.540000
504.122284	145.660000
504.216003	145.740000
504.309662	145.400000
504.403381	145.640000
504.497040	145.820000
504.590759	145.320000
504.684418	145.420000
504.778137	146.200000
504.871796	146.400000
504.965515	146.160000
505.059174	146.320000
505.152893	145.600000
505.246521	145.080000
505.340240	144.560000
505.433899	145.100000
505.527618	145.140000
505.621338	145.540000
505.714996	145.600000
505.808716	145.880000
505.902374	146.280000
505.996094	146.320000
506.089752	146.000000
506.183472	146.040000
506.277130	145.880000
506.370850	145.520000
506.464508	145.340000
506.558228	145.480000
506.651886	145.020000
506.745605	145.280000
506.839264	145.220000
506.932983	145.460000
507.026611	145.580000
507.120331	146.340000
507.213989	145.660000
507.307709	145.860000
507.401367	146.480000
507.495087	147.100000
507.588745	146.600000
507.682465	147.640000
507.776123	147.320000
507.869843	146.620000
507.963531	146.220000
508.057190	146.860000
508.150909	146.080000
508.244568	146.360000
508.338287	146.380000
508.431946	146.220000
508.525665	145.600000
508.619324	145.640000
508.713013	145.600000
508.806671	145.980000
508.900391	146.620000
508.994049	146.900000
509.087769	146.400000
509.181427	146.240000
509.275146	145.640000
509.368774	144.740000
509.462494	144.680000
509.556152	145.280000
509.649872	145.640000
509.743530	146.040000
509.837250	146.760000
509.930878	146.680000
510.024597	146.680000
510.118256	146.520000
510.211975	146.060000
510.305695	145.560000
510.399353	145.780000
510.493042	145.980000
510.586700	146.180000
510.680420	147.060000
510.774078	147.020000
510.867798	147.120000
510.961426	146.940000
511.055145	146.560000
511.148804	146.220000
511.242523	146.460000
511.336151	146.480000
511.429871	146.900000
511.523529	146.940000
511.617249	146.260000
511.710876	146.000000
511.804596	145.580000
511.898254	145.240000
511.991974	145.440000
512.085632	145.580000
512.179321	145.680000
512.272949	146.040000
512.366699	146.180000
512.460327	145.880000
512.554077	146.940000
512.647766	146.560000
512.741394	146.340000
512.835144	146.680000
512.928772	146.640000
513.022461	146.420000
513.116150	146.660000
513.209839	147.200000
513.303467	146.480000
513.397217	146.160000
513.490845	145.540000
513.584595	145.080000
513.678223	144.300000
513.771912	144.120000
513.865601	144.520000
513.959290	144.220000
514.052917	144.660000
514.146667	145.420000
514.240295	145.740000
514.333984	145.940000
514.427673	146.120000
514.521362	146.360000
514.614990	145.500000
514.708740	145.700000
514.802368	145.860000
514.896057	146.220000
514.989746	146.780000
515.083435	146.820000
515.177124	147.140000
515.270752	146.680000
515.364502	146.480000
515.458130	146.140000
515.551819	146.440000
515.645508	145.960000
515.739197	146.180000
515.832825	146.280000
515.926575	145.880000
516.020203	146.120000
516.113892	146.620000
516.207520	146.460000
516.301270	146.340000
516.394897	146.540000
516.488586	146.680000
516.582275	146.300000
516.675964	145.500000
516.769592	145.340000
516.863281	145.820000
516.956970	145.800000
517.050659	145.720000
517.144287	146.420000
517.238037	146.700000
517.331665	146.040000
517.425354	145.540000
517.519043	145.500000
517.612732	145.580000
517.706421	145.340000
517.800049	145.260000
517.893738	145.020000
517.987427	144.960000
518.081116	145.040000
518.174744	144.580000
518.268433	144.800000
518.362122	145.820000
518.455811	145.980000
518.549438	146.660000
518.643127	148.200000
518.736816	147.940000
518.830505	147.300000
518.924133	147.300000
519.017822	147.000000
519.111511	146.480000
519.205200	147.220000
519.298828	147.180000
519.392517	146.920000
519.486206	147.140000
519.579895	146.720000
519.673523	146.220000
519.767212	146.320000
519.860901	146.800000
519.954590	146.060000
520.048279	145.940000
520.141907	145.740000
520.235596	146.820000
520.329224	146.700000
520.422974	146.760000
520.516602	146.720000
520.610291	146.500000
520.703918	145.480000
520.797607	145.220000
520.891296	145.440000
520.984985	145.640000
521.078613	146.500000
521.172302	146.200000
521.265930	147.040000
521.359680	147.340000
521.453308	147.340000
521.546997	147.040000
521.640625	147.600000
521.734314	146.680000
521.827942	146.340000
521.921692	146.780000
522.015320	146.780000
522.109009	146.400000
522.202698	146.600000
522.296326	146.820000
522.390015	146.500000
522.483704	146.440000
522.577393	146.580000
522.671021	146.400000
522.764709	145.960000
522.858337	146.300000
522.952026	146.300000
523.045654	146.720000
523.139404	147.400000
523.233032	147.420000
523.326721	147.040000
523.420349	147.080000
523.514038	146.540000
523.607666	146.540000
523.701355	146.580000
523.795044	146.380000
523.888733	146.560000
523.982361	146.620000
524.076050	145.880000
524.169678	146.160000
524.263367	146.220000
524.356995	145.520000
524.450684	145.280000
524.544373	145.320000
524.638062	145.100000
524.731750	145.380000
524.825378	145.600000
524.919067	144.920000
525.012695	145.200000
525.106384	144.900000
525.200012	144.860000
525.293701	144.840000
525.387329	145.780000
525.481018	145.860000
525.574646	146.440000
525.668396	146.300000
525.762024	146.720000
525.855713	146.740000
525.949341	146.360000
526.043030	146.360000
526.136658	146.360000
526.230347	146.040000
526.323975	145.700000
526.417664	145.600000
526.511292	145.540000
526.604980	145.820000
526.698608	145.900000
526.792297	146.340000
526.885925	146.700000
526.979614	146.860000
527.073303	146.460000
527.166931	146.120000
527.260620	146.180000
527.354309	146.240000
527.447998	145.600000
527.541626	145.460000
527.635315	146.060000
527.728943	146.120000
527.822632	146.420000
527.916260	146.740000
528.009949	146.880000
528.103577	146.200000
528.197266	145.740000
528.290894	145.420000
528.384583	145.100000
528.478210	145.620000
528.571899	145.920000
528.665527	146.340000
528.759216	146.580000
528.852844	147.000000
528.946533	146.460000
529.040161	146.560000
529.133850	146.120000
529.227478	146.380000
529.321167	146.640000
529.414856	147.100000
529.508484	147.440000
529.602173	147.120000
529.695801	146.540000
529.789490	146.320000
529.883057	145.780000
529.976746	145.700000
530.070374	146.340000
530.164062	146.440000
530.257690	146.680000
530.351379	147.160000
530.445007	146.960000
530.538696	146.340000
530.632324	146.580000
530.726013	146.260000
530.819641	145.920000
530.913330	146.000000
531.006958	146.360000
531.100647	146.380000
531.194275	146.400000
531.287964	146.240000
531.381592	145.760000
531.475220	145.880000
531.568848	145.520000
531.662537	145.120000
531.756226	145.560000
531.849854	146.040000
531.943542	145.920000
532.037170	145.340000
532.130859	146.080000
532.224487	145.620000
532.318176	145.080000
532.411804	145.480000
532.505432	146.140000
532.599060	145.700000
532.692749	145.560000
532.786377	146.220000
532.880066	145.440000
532.973694	144.980000
533.067383	144.720000
533.161011	144.980000
533.254639	144.680000
533.348267	144.800000
533.441956	145.280000
533.535583	145.040000
533.629272	145.120000
533.722900	144.580000
533.816589	144.700000
533.910156	144.720000
534.003845	144.840000
534.097534	145.020000
534.191162	145.960000
534.284851	146.320000
534.378479	146.040000
534.472107	146.300000
534.565735	146.180000
534.659424	146.020000
534.753052	146.060000
534.846741	145.920000
534.940369	146.620000
535.033997	146.460000
535.127625	146.120000
535.221313	146.380000
535.314941	146.360000
535.408630	145.680000
535.502197	146.280000
535.595886	146.440000
535.689514	145.700000
535.783203	146.240000
535.876831	146.580000
535.970459	146.280000
536.064087	146.060000
536.157776	146.420000
536.251404	146.240000
536.345093	145.920000
536.438721	145.740000
536.532349	145.960000
536.626038	145.760000
536.719666	146.000000
536.813293	145.860000
536.906921	145.820000
537.000610	146.000000
537.094238	145.940000
537.187866	145.620000
537.281494	145.760000
537.375183	146.200000
537.468811	145.860000
537.562439	145.940000
537.656067	145.800000
537.749756	146.080000
537.843384	146.340000
537.937012	146.760000
538.030640	146.480000
538.124329	146.520000
538.217896	146.900000
538.311584	146.620000
538.405212	146.420000
538.498901	146.880000
538.592468	147.540000
538.686157	146.420000
538.779785	145.580000
538.873413	145.300000
538.967102	145.040000
539.060730	144.300000
539.154358	145.100000
539.247986	146.080000
539.341675	146.460000
539.435242	146.640000
539.528931	147.080000
539.622559	146.620000
539.716187	146.540000
539.809814	146.340000
539.903503	146.180000
539.997070	146.100000
540.090759	146.180000
540.184387	145.900000
540.278015	146.380000
540.371643	146.540000
540.465332	146.660000
540.558899	146.860000
540.652588	147.100000
540.746216	146.580000
540.839844	147.180000
540.933472	146.660000
541.027100	146.440000
541.120728	146.400000
541.214417	146.760000
541.308044	146.740000
541.401672	146.840000
541.495300	146.780000
541.588928	146.480000
541.682617	146.180000
541.776184	145.440000
541.869873	145.840000
541.963440	146.280000
542.057129	146.140000
542.150757	146.440000
542.244385	146.280000
542.338013	145.780000
542.431641	145.180000
542.525269	145.380000
542.618958	145.540000
542.712524	146.020000
542.806213	146.180000
542.899780	146.420000
542.993469	146.040000
543.087036	145.480000
543.180725	144.960000
543.274292	145.380000
543.367981	145.720000
543.461548	146.380000
543.555237	146.280000
543.648926	146.780000
543.742493	147.240000
543.836182	147.020000
543.929749	146.800000
544.023437	147.000000
544.117004	146.920000
544.210693	146.520000
544.304260	146.460000
544.397949	146.140000
544.491516	146.600000
544.585205	146.400000
544.678772	145.940000
544.772461	146.160000
544.866028	146.240000
544.959717	145.920000
545.053284	145.780000
545.146973	146.140000
545.240540	146.020000
545.334229	146.440000
545.427795	146.540000
545.521423	146.800000
545.615051	146.520000
545.708679	146.980000
545.802307	146.820000
545.895935	146.900000
545.989624	147.500000
546.083191	147.340000
546.176880	146.880000
546.270447	146.480000
546.364136	146.720000
546.457703	146.140000
546.551331	146.280000
546.644958	146.480000
546.738586	146.840000
546.832214	146.440000
546.925842	146.080000
547.019409	146.640000
547.113098	146.200000
547.206665	145.980000
547.300354	145.980000
547.393921	146.720000
547.487549	146.640000
547.581177	146.680000
547.674805	146.680000
547.768433	146.240000
547.862061	145.860000
547.955627	145.220000
548.049316	145.760000
548.142883	146.120000
548.236572	146.660000
548.330139	147.080000
548.423767	147.200000
548.517456	147.100000
548.611023	147.420000
548.704651	146.760000
548.798279	146.540000
548.891907	146.880000
548.985474	146.340000
549.079163	146.000000
549.172729	146.420000
549.266357	145.720000
549.359985	145.580000
549.453613	145.520000
549.547180	145.200000
549.640869	145.260000
549.734436	145.400000
549.828064	145.840000
549.921631	145.980000
550.015320	145.980000
550.108887	146.540000
550.202515	146.900000
550.296143	146.320000
550.389771	146.480000
550.483337	146.420000
550.576965	145.760000
550.670593	145.960000
550.764221	146.140000
550.857849	146.040000
550.951477	145.860000
551.045105	145.300000
551.138672	145.160000
551.232300	145.060000
551.325928	145.340000
551.419556	145.980000
551.513123	146.480000
551.606750	146.180000
551.700378	145.920000
551.794006	145.520000
551.887573	145.120000
551.981201	145.460000
552.074768	145.580000
552.168457	145.360000
552.262024	146.520000
552.355652	146.500000
552.449219	146.840000
552.542847	147.220000
552.636475	147.140000
552.730103	146.000000
552.823669	145.740000
552.917297	145.040000
553.010864	144.780000
553.104553	145.180000
553.198181	145.120000
553.291748	145.700000
553.385376	146.140000
553.478943	145.940000
553.572571	146.160000
553.666199	146.620000
553.759827	146.320000
553.853394	145.560000
553.947021	145.720000
554.040588	145.700000
554.134216	145.580000
554.227783	146.140000
554.321411	146.900000
554.415039	146.680000
554.508667	146.380000
554.602234	146.620000
554.695862	145.880000
554.789429	145.900000
554.883057	145.920000
554.976624	145.920000
555.070251	145.460000
555.163818	145.460000
555.257507	145.400000
555.351074	145.800000
555.444702	146.900000
555.538330	146.720000
555.631897	147.200000
555.725525	147.080000
555.819092	146.780000
555.912720	145.600000
556.006287	146.420000
556.099915	146.300000
556.193481	146.200000
556.287109	146.220000
556.380676	146.360000
556.474304	146.060000
556.567871	146.100000
556.661499	145.640000
556.755066	145.820000
556.848694	145.980000
556.942261	145.680000
557.035889	145.800000
557.129517	146.100000
557.223145	146.460000
557.316711	146.300000
557.410339	146.420000
557.503906	146.100000
557.597473	146.480000
557.691040	145.960000
557.784668	146.300000
557.878296	146.360000
557.971863	146.440000
558.065491	146.080000
558.159058	145.940000
558.252686	146.380000
558.346252	146.800000
558.439880	146.340000
558.533447	146.200000
558.627075	145.900000
558.720642	145.320000
558.814270	144.800000
558.907837	145.000000
559.001465	145.020000
559.095032	146.040000
559.188660	146.100000
559.282227	145.620000
559.375854	146.060000
559.469360	146.140000
559.562988	146.060000
559.656555	145.900000
559.750183	146.560000
559.843750	146.820000
559.937378	146.740000
560.030945	146.440000
560.124573	0.000000
560.218140	0.000000
560.311707	0.000000
560.405334	0.000000
560.498901	0.000000
560.592529	0.000000
560.686096	0.000000
560.779724	0.000000
560.873291	0.000000
560.966858	0.000000
561.060425	0.000000
561.154053	0.000000
561.247620	0.000000
561.341248	0.000000
561.434814	0.000000
561.528381	0.000000
561.621948	0.000000
561.715576	0.000000
561.809143	0.000000
561.902771	0.000000
561.996277	0.000000
562.089905	0.000000
562.183472	0.000000
562.277100	0.000000
