Model Number: SPM-002-B   
Serial Number: 70087108
Firmware Version: 004.15.4
Exposure Time: 100000.000000us
Data Taken on: 11-12-2020 18:46:27.264
Wavelength	Amplitude
221.570786	0.000000
221.663406	0.000000
221.756027	0.000000
221.848648	0.000000
221.941269	0.000000
222.033905	0.000000
222.126526	0.000000
222.219162	0.000000
222.311798	0.000000
222.404419	0.000000
222.497055	0.000000
222.589676	0.000000
222.682312	0.000000
222.774933	0.000000
222.867569	0.000000
222.960205	0.000000
223.052841	0.000000
223.145462	0.000000
223.238098	0.000000
223.330734	0.000000
223.423386	0.000000
223.516022	0.000000
223.608658	0.000000
223.701309	0.000000
223.793945	0.000000
223.886581	0.000000
223.979218	0.000000
224.071869	0.000000
224.164505	0.000000
224.257156	0.000000
224.349792	0.000000
224.442444	0.000000
224.535095	0.000000
224.627747	0.000000
224.720398	0.000000
224.813034	0.000000
224.905685	0.000000
224.998337	145.060000
225.090988	144.860000
225.183640	144.940000
225.276291	144.900000
225.368942	145.200000
225.461594	145.800000
225.554245	146.060000
225.646912	146.300000
225.739578	146.720000
225.832230	147.240000
225.924896	146.480000
226.017548	146.640000
226.110199	147.120000
226.202866	146.580000
226.295532	146.200000
226.388184	146.120000
226.480850	145.520000
226.573517	144.680000
226.666168	144.980000
226.758835	145.360000
226.851501	145.840000
226.944183	146.160000
227.036850	146.100000
227.129517	145.960000
227.222183	145.800000
227.314850	145.480000
227.407516	145.780000
227.500198	146.700000
227.592865	146.740000
227.685532	146.620000
227.778214	146.720000
227.870880	146.880000
227.963562	146.740000
228.056229	147.040000
228.148926	146.960000
228.241592	147.560000
228.334274	146.760000
228.426956	146.560000
228.519638	146.220000
228.612305	146.100000
228.704987	145.920000
228.797668	146.280000
228.890350	145.920000
228.983032	145.540000
229.075714	146.360000
229.168396	146.040000
229.261108	145.620000
229.353790	145.840000
229.446472	146.420000
229.539169	145.820000
229.631851	145.360000
229.724533	145.680000
229.817230	145.700000
229.909912	146.220000
230.002609	146.060000
230.095306	146.120000
230.187988	146.160000
230.280685	146.080000
230.373383	144.940000
230.466095	144.760000
230.558792	145.080000
230.651474	144.920000
230.744171	144.960000
230.836868	144.840000
230.929581	145.300000
231.022278	145.420000
231.114975	145.540000
231.207672	145.380000
231.300369	146.080000
231.393082	146.120000
231.485779	145.940000
231.578506	145.960000
231.671204	145.980000
231.763916	146.000000
231.856613	145.720000
231.949326	145.780000
232.042023	145.800000
232.134735	145.760000
232.227448	145.280000
232.320160	145.460000
232.412872	145.520000
232.505585	146.060000
232.598297	146.340000
232.691010	146.540000
232.783722	146.300000
232.876450	146.820000
232.969162	146.280000
233.061874	145.920000
233.154587	145.580000
233.247314	145.980000
233.340027	145.340000
233.432739	145.920000
233.525467	145.680000
233.618179	146.400000
233.710907	146.080000
233.803635	146.580000
233.896347	146.320000
233.989090	147.280000
234.081818	146.880000
234.174545	147.220000
234.267258	146.740000
234.359985	146.780000
234.452713	146.320000
234.545441	146.200000
234.638168	145.840000
234.730896	146.260000
234.823639	145.820000
234.916367	146.320000
235.009094	146.520000
235.101822	146.520000
235.194580	146.220000
235.287308	146.480000
235.380051	145.740000
235.472778	146.100000
235.565521	146.440000
235.658249	146.020000
235.750992	145.860000
235.843719	146.100000
235.936462	145.960000
236.029205	145.380000
236.121948	145.540000
236.214691	145.660000
236.307449	146.520000
236.400192	146.060000
236.492935	146.320000
236.585678	146.480000
236.678421	146.840000
236.771164	146.420000
236.863907	147.120000
236.956665	147.040000
237.049408	148.540000
237.142151	147.640000
237.234909	148.140000
237.327652	147.880000
237.420410	148.000000
237.513153	147.140000
237.605927	147.200000
237.698669	146.240000
237.791428	145.500000
237.884186	145.740000
237.976944	144.680000
238.069702	145.320000
238.162445	145.260000
238.255203	145.780000
238.347961	146.060000
238.440720	146.460000
238.533478	146.040000
238.626266	145.820000
238.719025	146.120000
238.811783	145.620000
238.904541	145.620000
238.997314	145.980000
239.090073	145.800000
239.182831	145.700000
239.275604	146.700000
239.368362	146.400000
239.461136	146.320000
239.553909	146.540000
239.646667	146.420000
239.739441	145.580000
239.832214	146.100000
239.925003	146.160000
240.017761	146.780000
240.110535	147.280000
240.203308	146.880000
240.296082	146.820000
240.388855	146.560000
240.481628	146.520000
240.574417	146.420000
240.667191	146.760000
240.759964	146.520000
240.852737	146.500000
240.945526	146.060000
241.038315	145.880000
241.131088	146.020000
241.223877	146.480000
241.316650	146.320000
241.409439	146.580000
241.502228	146.160000
241.595001	146.420000
241.687790	146.000000
241.780579	146.040000
241.873367	146.180000
241.966141	146.720000
242.058929	146.140000
242.151718	146.280000
242.244507	146.900000
242.337311	146.220000
242.430099	146.380000
242.522903	146.820000
242.615692	146.580000
242.708481	146.220000
242.801270	146.760000
242.894073	146.560000
242.986862	146.300000
243.079651	146.720000
243.172455	146.580000
243.265244	146.520000
243.358063	145.880000
243.450867	146.160000
243.543655	146.000000
243.636459	146.300000
243.729263	146.540000
243.822067	146.860000
243.914856	147.240000
244.007660	147.180000
244.100464	146.780000
244.193268	146.220000
244.286072	146.360000
244.378876	145.660000
244.471680	145.580000
244.564499	145.920000
244.657318	147.000000
244.750122	146.940000
244.842926	146.300000
244.935745	146.680000
245.028549	146.440000
245.121368	145.520000
245.214172	145.440000
245.306992	146.200000
245.399796	145.720000
245.492615	145.760000
245.585434	145.700000
245.678253	145.680000
245.771072	145.600000
245.863892	146.240000
245.956711	146.440000
246.049530	146.380000
246.142349	146.160000
246.235168	146.320000
246.327988	146.300000
246.420807	145.920000
246.513626	146.220000
246.606445	146.280000
246.699280	146.040000
246.792099	145.780000
246.884918	145.960000
246.977753	145.540000
247.070587	145.840000
247.163422	146.080000
247.256241	146.000000
247.349075	146.060000
247.441895	146.380000
247.534729	146.340000
247.627563	146.120000
247.720383	146.660000
247.813217	146.560000
247.906052	146.240000
247.998886	146.120000
248.091736	145.940000
248.184570	145.560000
248.277405	145.640000
248.370239	146.940000
248.463074	147.860000
248.555908	148.500000
248.648743	148.260000
248.741592	148.240000
248.834427	147.380000
248.927261	145.820000
249.020111	145.980000
249.112946	146.680000
249.205795	146.360000
249.298630	146.360000
249.391495	146.900000
249.484344	146.260000
249.577179	145.980000
249.670029	146.300000
249.762878	146.760000
249.855728	146.960000
249.948563	147.000000
250.041412	146.420000
250.134262	146.540000
250.227112	146.280000
250.319962	146.020000
250.412827	145.920000
250.505692	145.460000
250.598541	145.500000
250.691391	145.300000
250.784241	145.720000
250.877106	145.980000
250.969955	146.300000
251.062805	146.420000
251.155670	146.780000
251.248520	146.420000
251.341385	146.540000
251.434235	146.640000
251.527100	146.360000
251.619965	145.760000
251.712814	146.740000
251.805695	146.560000
251.898560	146.840000
251.991425	147.280000
252.084290	147.820000
252.177155	146.760000
252.270020	146.480000
252.362885	146.580000
252.455750	146.460000
252.548615	146.060000
252.641479	146.080000
252.734360	146.140000
252.827240	145.900000
252.920105	145.780000
253.012970	145.460000
253.105850	145.420000
253.198715	145.260000
253.291595	145.460000
253.384460	145.120000
253.477341	145.340000
253.570221	145.520000
253.663086	145.340000
253.755966	145.620000
253.848846	145.740000
253.941727	146.100000
254.034592	146.200000
254.127472	145.960000
254.220367	145.840000
254.313248	146.160000
254.406128	145.440000
254.499008	145.520000
254.591904	146.640000
254.684784	146.880000
254.777664	146.820000
254.870544	146.760000
254.963440	146.520000
255.056335	146.320000
255.149216	146.060000
255.242111	146.380000
255.334991	146.980000
255.427887	147.200000
255.520767	147.240000
255.613663	147.280000
255.706558	146.780000
255.799438	146.540000
255.892334	146.120000
255.985229	146.180000
256.078125	145.840000
256.171021	145.700000
256.263916	146.220000
256.356812	146.600000
256.449707	146.540000
256.542603	146.380000
256.635498	146.900000
256.728394	146.400000
256.821289	146.460000
256.914215	146.460000
257.007080	147.120000
257.100006	147.000000
257.192932	147.460000
257.285828	147.500000
257.378723	147.160000
257.471619	146.720000
257.564545	146.340000
257.657440	146.160000
257.750336	146.360000
257.843262	146.500000
257.936157	147.540000
258.029053	148.040000
258.121979	148.260000
258.214874	147.860000
258.307800	147.780000
258.400696	146.440000
258.493622	146.320000
258.586517	145.320000
258.679443	145.600000
258.772339	145.400000
258.865265	145.320000
258.958160	144.620000
259.051086	145.940000
259.144012	145.940000
259.236938	146.700000
259.329834	147.320000
259.422791	147.540000
259.515717	146.880000
259.608612	146.340000
259.701538	146.040000
259.794464	145.760000
259.887390	145.780000
259.980316	145.640000
260.073212	145.760000
260.166138	145.100000
260.259064	145.420000
260.351990	145.740000
260.444916	145.740000
260.537842	146.260000
260.630768	146.820000
260.723694	146.540000
260.816620	146.320000
260.909546	146.460000
261.002472	146.000000
261.095398	145.360000
261.188354	145.300000
261.281281	144.880000
261.374207	144.720000
261.467133	145.480000
261.560089	146.060000
261.653015	145.800000
261.745972	146.760000
261.838867	147.260000
261.931824	146.800000
262.024780	145.880000
262.117706	146.140000
262.210663	146.060000
262.303589	145.500000
262.396515	145.780000
262.489471	147.140000
262.582397	147.180000
262.675354	146.660000
262.768280	146.860000
262.861237	146.660000
262.954163	146.280000
263.047119	146.340000
263.140045	146.200000
263.233002	146.220000
263.325958	145.820000
263.418884	145.360000
263.511841	145.380000
263.604797	145.660000
263.697723	145.440000
263.790680	145.540000
263.883636	146.100000
263.976593	145.860000
264.069550	145.780000
264.162476	145.500000
264.255463	145.760000
264.348419	145.260000
264.441376	145.740000
264.534332	145.380000
264.627289	145.760000
264.720245	146.000000
264.813202	145.600000
264.906158	145.640000
264.999115	146.300000
265.092072	146.300000
265.185028	146.420000
265.277985	147.180000
265.370941	146.680000
265.463898	146.140000
265.556854	146.100000
265.649811	145.200000
265.742798	145.140000
265.835754	145.320000
265.928711	145.980000
266.021667	146.000000
266.114655	146.460000
266.207611	146.420000
266.300568	145.760000
266.393585	145.120000
266.486511	145.560000
266.579498	144.900000
266.672485	144.680000
266.765442	145.140000
266.858429	145.800000
266.951385	144.860000
267.044342	144.940000
267.137329	144.900000
267.230316	145.300000
267.323273	144.620000
267.416260	145.580000
267.509216	145.620000
267.602203	145.840000
267.695160	146.040000
267.788147	146.280000
267.881134	145.440000
267.974091	145.860000
268.067078	145.760000
268.160065	145.220000
268.253052	145.040000
268.346008	145.220000
268.438995	145.140000
268.531982	145.360000
268.624969	145.420000
268.717987	145.900000
268.810944	146.080000
268.903961	146.280000
268.996948	145.700000
269.089905	146.080000
269.182892	146.060000
269.275879	146.440000
269.368866	145.880000
269.461853	146.260000
269.554871	145.940000
269.647858	145.780000
269.740845	146.040000
269.833832	146.560000
269.926819	146.460000
270.019806	146.540000
270.112793	146.380000
270.205811	145.920000
270.298798	145.600000
270.391785	146.020000
270.484772	145.660000
270.577789	145.920000
270.670776	145.580000
270.763763	145.540000
270.856750	145.420000
270.949768	145.280000
271.042786	145.200000
271.135773	145.440000
271.228790	145.980000
271.321808	145.540000
271.414795	145.220000
271.507782	144.880000
271.600800	144.800000
271.693817	144.740000
271.786804	145.340000
271.879822	146.180000
271.972809	146.240000
272.065826	146.360000
272.158844	145.840000
272.251831	145.940000
272.344849	145.860000
272.437866	145.480000
272.530853	145.520000
272.623871	145.900000
272.716888	145.120000
272.809906	145.340000
272.902893	145.540000
272.995911	145.360000
273.088928	145.480000
273.181946	145.960000
273.274963	145.380000
273.367981	145.660000
273.460999	145.920000
273.554047	146.100000
273.647003	146.420000
273.740051	146.660000
273.833069	146.880000
273.926086	146.840000
274.019135	146.280000
274.112152	145.760000
274.205170	145.820000
274.298187	145.800000
274.391205	145.580000
274.484222	145.720000
274.577240	146.060000
274.670258	146.020000
274.763306	145.620000
274.856323	146.000000
274.949341	146.380000
275.042358	146.520000
275.135406	146.320000
275.228424	146.660000
275.321442	146.380000
275.414490	145.840000
275.507507	145.920000
275.600525	146.460000
275.693573	146.260000
275.786591	146.060000
275.879669	146.320000
275.972656	145.900000
276.065735	145.760000
276.158752	146.260000
276.251801	147.060000
276.344818	147.140000
276.437866	147.140000
276.530884	147.020000
276.623932	146.420000
276.716980	146.200000
276.809998	146.100000
276.903046	146.520000
276.996094	147.120000
277.089111	147.800000
277.182159	148.160000
277.275208	147.760000
277.368256	147.380000
277.461304	146.940000
277.554321	146.100000
277.647369	145.720000
277.740417	145.720000
277.833466	145.720000
277.926514	145.640000
278.019562	146.480000
278.112610	145.820000
278.205688	146.200000
278.298706	146.460000
278.391785	146.180000
278.484833	145.520000
278.577881	145.960000
278.670929	146.300000
278.763977	146.220000
278.857025	146.860000
278.950073	146.920000
279.043121	146.700000
279.136169	146.320000
279.229248	145.920000
279.322296	145.500000
279.415344	145.360000
279.508392	145.340000
279.601440	145.000000
279.694519	145.100000
279.787567	145.040000
279.880615	144.920000
279.973694	144.800000
280.066742	145.260000
280.159790	145.300000
280.252869	145.200000
280.345917	145.680000
280.438995	145.500000
280.532074	145.440000
280.625122	145.960000
280.718201	146.940000
280.811279	146.760000
280.904327	146.780000
280.997406	146.980000
281.090454	146.500000
281.183533	145.280000
281.276581	145.060000
281.369659	145.080000
281.462738	144.860000
281.555786	145.380000
281.648865	145.740000
281.741943	145.960000
281.835022	146.800000
281.928070	146.600000
282.021149	146.240000
282.114227	145.920000
282.207306	145.960000
282.300385	146.240000
282.393433	146.380000
282.486511	146.280000
282.579590	147.160000
282.672668	147.440000
282.765747	146.580000
282.858856	146.360000
282.951904	146.520000
283.045013	146.560000
283.138062	146.420000
283.231171	146.420000
283.324249	146.880000
283.417328	146.800000
283.510406	146.120000
283.603485	146.100000
283.696564	145.860000
283.789642	146.060000
283.882751	146.040000
283.975830	146.660000
284.068909	146.040000
284.161987	146.900000
284.255066	146.120000
284.348175	146.100000
284.441254	145.640000
284.534332	146.560000
284.627441	145.960000
284.720520	145.800000
284.813599	145.420000
284.906708	145.700000
284.999786	144.900000
285.092896	144.560000
285.185974	145.840000
285.279053	145.760000
285.372192	145.700000
285.465240	146.480000
285.558380	146.500000
285.651459	145.820000
285.744568	146.720000
285.837677	146.200000
285.930756	146.060000
286.023865	146.520000
286.116943	146.400000
286.210052	146.140000
286.303162	146.300000
286.396240	146.320000
286.489349	145.780000
286.582458	145.920000
286.675568	145.760000
286.768646	145.720000
286.861755	145.780000
286.954865	146.800000
287.047974	146.200000
287.141083	145.960000
287.234161	146.260000
287.327271	145.920000
287.420380	146.100000
287.513519	146.480000
287.606598	146.660000
287.699738	146.440000
287.792816	146.580000
287.885956	145.900000
287.979034	145.840000
288.072174	145.840000
288.165283	145.840000
288.258392	145.960000
288.351501	145.480000
288.444611	145.740000
288.537720	146.320000
288.630859	146.400000
288.723969	146.380000
288.817078	146.900000
288.910187	146.960000
289.003296	146.140000
289.096436	145.800000
289.189545	145.600000
289.282654	145.260000
289.375763	145.540000
289.468903	145.820000
289.562012	146.300000
289.655121	146.180000
289.748260	146.480000
289.841400	146.520000
289.934509	146.440000
290.027649	146.420000
290.120728	146.420000
290.213898	146.520000
290.306976	146.320000
290.400146	146.380000
290.493256	145.860000
290.586395	145.900000
290.679535	145.740000
290.772644	145.160000
290.865784	144.480000
290.958893	144.600000
291.052032	144.580000
291.145172	144.620000
291.238281	144.800000
291.331421	145.200000
291.424561	145.920000
291.517670	145.560000
291.610809	145.740000
291.703949	145.420000
291.797089	145.600000
291.890228	144.860000
291.983337	145.320000
292.076477	145.380000
292.169617	145.880000
292.262756	146.020000
292.355927	146.000000
292.449036	145.740000
292.542206	145.480000
292.635315	145.700000
292.728485	145.740000
292.821625	145.760000
292.914764	146.980000
293.007904	147.260000
293.101044	147.180000
293.194183	147.220000
293.287323	147.300000
293.380463	146.180000
293.473602	145.980000
293.566742	146.180000
293.659882	146.640000
293.753021	146.880000
293.846191	147.140000
293.939331	147.080000
294.032471	146.580000
294.125610	146.000000
294.218781	146.320000
294.311920	146.540000
294.405060	146.480000
294.498230	146.420000
294.591370	146.600000
294.684540	145.700000
294.777679	145.160000
294.870850	145.420000
294.963959	145.360000
295.057159	144.960000
295.150299	145.620000
295.243469	145.400000
295.336609	144.800000
295.429779	145.080000
295.522919	145.520000
295.616089	145.440000
295.709229	146.360000
295.802399	146.600000
295.895569	146.340000
295.988708	146.020000
296.081879	146.000000
296.175018	145.220000
296.268188	145.360000
296.361359	145.640000
296.454529	145.840000
296.547668	145.980000
296.640839	146.520000
296.734009	146.100000
296.827179	146.280000
296.920319	146.440000
297.013519	146.120000
297.106659	146.360000
297.199860	146.640000
297.292999	146.660000
297.386200	146.320000
297.479309	146.320000
297.572510	145.780000
297.665680	145.500000
297.758850	145.220000
297.852020	145.440000
297.945190	145.180000
298.038361	144.960000
298.131531	146.100000
298.224701	146.040000
298.317871	145.560000
298.411072	145.400000
298.504242	145.480000
298.597412	144.720000
298.690582	144.980000
298.783752	145.240000
298.876923	146.080000
298.970093	146.300000
299.063293	146.600000
299.156464	146.860000
299.249634	147.200000
299.342834	146.740000
299.436005	146.960000
299.529205	146.660000
299.622345	146.780000
299.715576	146.040000
299.808716	145.800000
299.901917	145.740000
299.995117	146.000000
300.088287	145.900000
300.181488	145.940000
300.274658	146.220000
300.367828	146.100000
300.461029	145.900000
300.554199	145.700000
300.647400	145.940000
300.740601	146.520000
300.833771	146.220000
300.926971	146.620000
301.020142	146.220000
301.113342	146.160000
301.206512	145.660000
301.299713	146.200000
301.392914	145.840000
301.486084	146.120000
301.579285	146.080000
301.672516	146.560000
301.765686	146.080000
301.858887	146.060000
301.952057	146.000000
302.045288	145.940000
302.138458	145.660000
302.231659	145.600000
302.324860	145.440000
302.418060	145.640000
302.511261	145.720000
302.604462	145.840000
302.697662	145.620000
302.790863	145.400000
302.884064	144.980000
302.977264	145.280000
303.070465	145.460000
303.163666	146.560000
303.256866	147.220000
303.350067	147.240000
303.443268	146.860000
303.536469	146.680000
303.629669	145.780000
303.722870	145.680000
303.816071	145.560000
303.909271	145.800000
304.002472	145.160000
304.095673	145.300000
304.188934	144.760000
304.282104	145.680000
304.375336	145.940000
304.468506	146.020000
304.561768	145.920000
304.654968	146.640000
304.748169	146.020000
304.841370	145.600000
304.934601	146.120000
305.027802	146.000000
305.121002	145.700000
305.214233	145.660000
305.307434	145.860000
305.400665	146.240000
305.493866	146.200000
305.587097	145.980000
305.680298	145.920000
305.773499	146.300000
305.866730	145.760000
305.959930	146.440000
306.053162	147.000000
306.146393	146.720000
306.239594	146.040000
306.332825	145.900000
306.426025	145.940000
306.519287	145.320000
306.612488	145.540000
306.705719	145.620000
306.798920	145.740000
306.892181	145.240000
306.985352	145.060000
307.078613	144.480000
307.171844	144.920000
307.265045	144.880000
307.358276	144.480000
307.451508	144.980000
307.544739	146.000000
307.637970	145.620000
307.731201	145.360000
307.824402	146.180000
307.917633	146.360000
308.010864	146.380000
308.104095	146.880000
308.197327	147.080000
308.290558	146.880000
308.383789	146.460000
308.477020	146.060000
308.570251	145.180000
308.663483	144.800000
308.756714	144.640000
308.849976	144.720000
308.943176	145.280000
309.036438	145.260000
309.129639	145.160000
309.222900	145.440000
309.316101	145.420000
309.409393	144.680000
309.502625	145.100000
309.595856	145.620000
309.689087	145.340000
309.782318	145.620000
309.875580	146.000000
309.968811	145.900000
310.062042	145.520000
310.155273	145.500000
310.248535	145.700000
310.341766	145.580000
310.434998	145.360000
310.528259	145.540000
310.621490	146.000000
310.714722	145.180000
310.807983	145.100000
310.901215	145.340000
310.994476	145.760000
311.087708	145.240000
311.181000	145.520000
311.274200	145.240000
311.367462	145.380000
311.460693	144.840000
311.553986	145.320000
311.647186	145.460000
311.740479	146.360000
311.833710	145.980000
311.926971	146.080000
312.020203	145.220000
312.113464	145.000000
312.206726	144.140000
312.299957	144.480000
312.393219	144.860000
312.486481	145.280000
312.579712	145.400000
312.672974	145.680000
312.766235	145.360000
312.859497	145.020000
312.952759	145.340000
313.045990	146.240000
313.139252	145.660000
313.232513	146.180000
313.325775	146.200000
313.419037	145.680000
313.512299	144.740000
313.605530	145.480000
313.698822	145.460000
313.792053	145.920000
313.885345	145.920000
313.978577	146.180000
314.071869	145.840000
314.165131	145.860000
314.258392	145.960000
314.351654	146.020000
314.444916	145.360000
314.538177	145.680000
314.631439	145.680000
314.724701	145.200000
314.817993	145.360000
314.911255	146.000000
315.004517	145.720000
315.097778	145.540000
315.191040	145.980000
315.284302	146.240000
315.377594	146.020000
315.470856	146.040000
315.564117	145.760000
315.657379	145.220000
315.750671	144.680000
315.843933	145.060000
315.937195	144.740000
316.030518	144.780000
316.123749	144.760000
316.217041	145.660000
316.310303	145.480000
316.403595	146.140000
316.496857	146.440000
316.590149	146.920000
316.683411	146.180000
316.776703	146.020000
316.869965	145.580000
316.963257	145.180000
317.056519	144.460000
317.149811	144.680000
317.243073	144.680000
317.336365	144.900000
317.429626	145.340000
317.522919	146.020000
317.616180	145.820000
317.709473	145.860000
317.802765	145.480000
317.896027	145.240000
317.989319	145.160000
318.082611	145.140000
318.175873	144.980000
318.269165	145.540000
318.362488	145.480000
318.455750	145.240000
318.549042	145.600000
318.642303	146.080000
318.735626	145.420000
318.828888	145.340000
318.922211	145.080000
319.015472	145.540000
319.108765	144.820000
319.202057	144.920000
319.295349	145.160000
319.388641	145.260000
319.481934	144.880000
319.575226	145.160000
319.668518	145.460000
319.761810	145.500000
319.855103	145.660000
319.948395	145.600000
320.041687	145.700000
320.134979	145.800000
320.228271	145.620000
320.321564	145.340000
320.414856	145.360000
320.508148	144.960000
320.601440	144.640000
320.694763	144.620000
320.788025	145.420000
320.881348	145.140000
320.974640	145.380000
321.067963	145.240000
321.161224	145.660000
321.254547	144.780000
321.347839	145.500000
321.441162	145.120000
321.534454	145.240000
321.627747	144.740000
321.721069	145.520000
321.814362	145.220000
321.907654	145.520000
322.000946	145.720000
322.094269	146.540000
322.187561	146.000000
322.280884	146.200000
322.374176	146.500000
322.467468	146.640000
322.560791	146.140000
322.654083	146.860000
322.747406	146.820000
322.840698	147.000000
322.934021	147.240000
323.027344	147.440000
323.120636	146.900000
323.213959	146.620000
323.307251	145.960000
323.400574	145.600000
323.493866	145.260000
323.587219	145.560000
323.680511	146.000000
323.773834	146.240000
323.867157	146.320000
323.960449	146.440000
324.053772	146.000000
324.147095	145.800000
324.240387	146.300000
324.333710	146.600000
324.427032	146.820000
324.520355	146.780000
324.613647	146.200000
324.706970	145.920000
324.800293	145.280000
324.893616	145.260000
324.986938	145.560000
325.080231	145.680000
325.173553	145.620000
325.266876	146.500000
325.360199	146.620000
325.453522	146.180000
325.546875	145.960000
325.640167	146.420000
325.733521	146.340000
325.826813	146.360000
325.920166	146.320000
326.013489	146.400000
326.106812	145.400000
326.200134	145.040000
326.293457	144.560000
326.386780	144.740000
326.480103	144.680000
326.573425	144.940000
326.666748	144.720000
326.760071	145.120000
326.853424	145.280000
326.946747	145.440000
327.040070	146.200000
327.133392	146.180000
327.226715	145.500000
327.320068	145.200000
327.413391	145.660000
327.506714	144.800000
327.600037	144.580000
327.693390	145.060000
327.786713	145.120000
327.880066	144.820000
327.973358	145.400000
328.066742	146.060000
328.160034	146.060000
328.253418	146.420000
328.346710	146.080000
328.440063	145.580000
328.533417	145.520000
328.626740	145.900000
328.720093	145.440000
328.813416	145.620000
328.906769	145.800000
329.000092	145.860000
329.093445	145.560000
329.186768	145.760000
329.280121	146.400000
329.373444	146.520000
329.466797	146.120000
329.560120	146.020000
329.653473	146.200000
329.746796	145.420000
329.840149	145.540000
329.933502	145.660000
330.026825	145.580000
330.120178	145.160000
330.213562	145.520000
330.306854	145.560000
330.400238	145.480000
330.493561	145.400000
330.586945	146.380000
330.680237	146.520000
330.773621	146.440000
330.866974	146.580000
330.960327	146.920000
331.053680	146.380000
331.147003	146.160000
331.240356	146.240000
331.333710	146.280000
331.427063	145.960000
331.520416	145.920000
331.613770	145.560000
331.707123	145.520000
331.800476	145.740000
331.893829	146.780000
331.987152	146.880000
332.080505	147.020000
332.173859	146.980000
332.267212	146.560000
332.360565	145.560000
332.453918	145.280000
332.547333	145.400000
332.640656	145.500000
332.734039	145.440000
332.827362	145.520000
332.920746	146.040000
333.014069	146.360000
333.107452	146.460000
333.200806	146.820000
333.294159	147.040000
333.387543	146.440000
333.480896	146.040000
333.574249	145.960000
333.667603	145.500000
333.760956	145.200000
333.854340	145.660000
333.947693	145.920000
334.041046	145.720000
334.134430	146.140000
334.227783	146.160000
334.321136	145.440000
334.414520	145.240000
334.507874	145.300000
334.601227	145.200000
334.694611	145.020000
334.787964	145.600000
334.881348	145.880000
334.974701	146.080000
335.068085	145.940000
335.161438	146.580000
335.254822	146.380000
335.348175	146.260000
335.441559	145.660000
335.534943	146.300000
335.628296	145.960000
335.721680	145.960000
335.815033	146.200000
335.908417	146.780000
336.001770	146.460000
336.095154	146.540000
336.188538	146.160000
336.281891	145.340000
336.375275	144.680000
336.468658	144.400000
336.562012	144.160000
336.655396	144.900000
336.748779	145.640000
336.842133	146.200000
336.935516	146.300000
337.028900	146.080000
337.122284	145.760000
337.215637	145.780000
337.309021	145.580000
337.402435	145.380000
337.495789	145.680000
337.589203	145.680000
337.682526	145.320000
337.775940	145.500000
337.869324	145.780000
337.962708	145.460000
338.056091	146.000000
338.149475	146.100000
338.242859	146.060000
338.336243	145.620000
338.429626	146.200000
338.523010	145.760000
338.616394	145.620000
338.709778	145.640000
338.803162	146.180000
338.896545	145.840000
338.989929	145.300000
339.083313	145.480000
339.176697	145.280000
339.270081	145.180000
339.363464	145.500000
339.456848	146.220000
339.550232	145.760000
339.643616	145.680000
339.737030	145.480000
339.830383	145.340000
339.923828	145.180000
340.017181	145.600000
340.110596	145.860000
340.203949	145.700000
340.297363	145.160000
340.390778	145.140000
340.484161	144.940000
340.577545	144.880000
340.670959	144.940000
340.764343	145.240000
340.857727	145.260000
340.951111	144.880000
341.044525	145.220000
341.137909	145.280000
341.231293	145.040000
341.324707	144.800000
341.418091	145.760000
341.511505	145.720000
341.604889	145.920000
341.698303	146.260000
341.791687	146.440000
341.885071	145.700000
341.978485	145.320000
342.071899	145.260000
342.165283	145.580000
342.258698	145.740000
342.352081	146.380000
342.445496	146.880000
342.538879	146.760000
342.632324	146.120000
342.725708	145.960000
342.819122	145.280000
342.912506	144.940000
343.005920	145.080000
343.099335	146.160000
343.192719	146.300000
343.286133	146.460000
343.379547	146.840000
343.472931	146.940000
343.566345	146.200000
343.659760	146.420000
343.753143	146.240000
343.846558	145.620000
343.939972	145.540000
344.033386	146.180000
344.126770	146.160000
344.220184	146.360000
344.313599	147.000000
344.407043	147.220000
344.500427	146.400000
344.593872	146.520000
344.687225	146.360000
344.780670	145.540000
344.874054	145.260000
344.967499	145.740000
345.060913	145.520000
345.154327	145.780000
345.247742	145.700000
345.341156	145.560000
345.434570	145.320000
345.527985	145.180000
345.621399	145.340000
345.714813	145.540000
345.808228	145.820000
345.901642	145.460000
345.995056	145.060000
346.088470	144.980000
346.181885	145.320000
346.275299	145.100000
346.368713	145.300000
346.462128	145.360000
346.555573	145.460000
346.648987	145.420000
346.742401	145.680000
346.835815	146.140000
346.929260	146.000000
347.022644	145.820000
347.116119	145.680000
347.209503	145.600000
347.302948	146.260000
347.396362	147.120000
347.489807	147.260000
347.583221	147.840000
347.676636	147.740000
347.770050	146.460000
347.863495	145.960000
347.956909	145.820000
348.050323	145.400000
348.143768	145.100000
348.237183	145.300000
348.330597	145.600000
348.424042	145.980000
348.517456	146.180000
348.610901	146.660000
348.704315	146.400000
348.797760	145.780000
348.891174	144.960000
348.984619	144.240000
349.078033	144.380000
349.171448	145.140000
349.264923	145.180000
349.358337	145.420000
349.451782	145.880000
349.545197	145.200000
349.638641	144.540000
349.732086	144.360000
349.825500	144.920000
349.918945	144.560000
350.012390	145.180000
350.105804	145.640000
350.199249	146.020000
350.292664	146.100000
350.386108	146.380000
350.479553	146.980000
350.572968	146.920000
350.666412	146.920000
350.759857	146.620000
350.853302	147.080000
350.946716	146.300000
351.040161	146.140000
351.133606	146.180000
351.227081	146.080000
351.320465	146.360000
351.413940	146.220000
351.507355	146.460000
351.600830	146.460000
351.694244	146.060000
351.787720	145.680000
351.881104	145.720000
351.974579	145.620000
352.067993	146.440000
352.161469	146.900000
352.254883	146.280000
352.348358	146.260000
352.441803	146.180000
352.535248	145.600000
352.628693	146.040000
352.722137	146.180000
352.815582	146.280000
352.909027	146.580000
353.002472	146.260000
353.095917	145.820000
353.189362	146.140000
353.282806	146.140000
353.376251	145.840000
353.469696	145.760000
353.563141	146.480000
353.656586	146.340000
353.750061	145.760000
353.843475	146.040000
353.936981	146.680000
354.030396	145.880000
354.123871	146.140000
354.217285	147.100000
354.310760	146.980000
354.404175	146.700000
354.497681	146.480000
354.591095	146.140000
354.684570	145.380000
354.777985	145.280000
354.871490	144.900000
354.964935	145.280000
355.058380	145.700000
355.151855	145.540000
355.245300	145.660000
355.338745	145.980000
355.432220	146.040000
355.525665	145.540000
355.619110	146.200000
355.712585	146.180000
355.806030	146.100000
355.899475	145.700000
355.992950	146.120000
356.086426	146.300000
356.179871	145.900000
356.273346	145.900000
356.366791	146.300000
356.460266	146.260000
356.553711	145.720000
356.647186	146.120000
356.740631	145.700000
356.834106	145.360000
356.927551	145.460000
357.021027	145.580000
357.114471	145.740000
357.207947	146.060000
357.301422	146.380000
357.394867	146.320000
357.488342	146.620000
357.581818	146.400000
357.675262	146.680000
357.768738	146.360000
357.862213	145.720000
357.955658	145.500000
358.049133	145.120000
358.142609	145.260000
358.236053	145.300000
358.329529	145.720000
358.423035	146.000000
358.516449	146.280000
358.609955	146.580000
358.703400	147.160000
358.796906	147.360000
358.890350	147.080000
358.983826	147.080000
359.077271	146.200000
359.170776	145.960000
359.264221	145.840000
359.357727	145.900000
359.451172	146.040000
359.544647	146.320000
359.638123	146.080000
359.731598	146.340000
359.825073	146.580000
359.918549	146.360000
360.012024	146.380000
360.105499	146.080000
360.198975	145.920000
360.292450	145.900000
360.385925	146.100000
360.479401	145.980000
360.572876	146.380000
360.666351	146.520000
360.759857	146.280000
360.853302	145.860000
360.946808	145.600000
361.040253	145.660000
361.133759	145.280000
361.227203	145.420000
361.320709	145.380000
361.414154	146.060000
361.507660	146.360000
361.601105	146.780000
361.694641	147.040000
361.788086	147.340000
361.881592	147.480000
361.975067	147.180000
362.068542	147.380000
362.162018	147.180000
362.255524	146.900000
362.348999	146.760000
362.442474	146.620000
362.535950	145.840000
362.629456	145.620000
362.722931	145.680000
362.816406	145.780000
362.909882	146.100000
363.003387	146.120000
363.096863	146.700000
363.190338	146.660000
363.283875	146.500000
363.377319	146.280000
363.470825	146.860000
363.564301	146.000000
363.657806	146.260000
363.751282	145.740000
363.844788	146.700000
363.938232	146.120000
364.031769	146.820000
364.125214	147.020000
364.218750	147.860000
364.312225	146.540000
364.405731	146.880000
364.499207	146.400000
364.592712	146.040000
364.686188	145.680000
364.779694	146.220000
364.873169	145.940000
364.966675	145.800000
365.060150	145.680000
365.153656	145.860000
365.247131	145.700000
365.340637	146.060000
365.434143	146.600000
365.527618	147.040000
365.621155	146.220000
365.714600	146.000000
365.808136	145.900000
365.901611	145.020000
365.995117	144.740000
366.088593	144.840000
366.182129	144.680000
366.275604	144.820000
366.369110	145.480000
366.462585	145.320000
366.556122	146.260000
366.649567	146.480000
366.743103	146.440000
366.836609	145.960000
366.930115	146.480000
367.023590	146.260000
367.117096	146.180000
367.210602	146.120000
367.304108	146.820000
367.397614	147.280000
367.491119	147.240000
367.584595	147.420000
367.678101	147.720000
367.771606	147.340000
367.865112	146.440000
367.958649	145.740000
368.052124	145.540000
368.145660	145.280000
368.239136	145.700000
368.332672	146.260000
368.426147	146.680000
368.519684	146.420000
368.613159	146.560000
368.706696	146.200000
368.800171	146.040000
368.893707	145.960000
368.987183	146.300000
369.080719	146.560000
369.174225	146.240000
369.267731	146.520000
369.361237	146.580000
369.454742	146.480000
369.548248	146.500000
369.641754	146.780000
369.735260	146.140000
369.828766	145.600000
369.922272	146.360000
370.015808	145.800000
370.109314	145.600000
370.202820	145.640000
370.296356	146.940000
370.389832	146.440000
370.483368	146.260000
370.576874	146.120000
370.670410	146.400000
370.763885	145.280000
370.857422	144.900000
370.950928	144.900000
371.044464	145.740000
371.137939	145.640000
371.231476	146.200000
371.324982	147.100000
371.418518	147.600000
371.512024	147.300000
371.605560	147.160000
371.699066	147.020000
371.792572	146.380000
371.886108	146.300000
371.979614	146.060000
372.073120	146.600000
372.166656	146.320000
372.260162	146.720000
372.353668	146.340000
372.447205	146.220000
372.540710	145.860000
372.634277	146.220000
372.727753	145.800000
372.821320	145.860000
372.914795	146.040000
373.008362	145.880000
373.101837	145.580000
373.195404	145.640000
373.288879	145.780000
373.382446	146.380000
373.475922	146.500000
373.569489	147.080000
373.662964	147.480000
373.756531	147.360000
373.850037	147.000000
373.943573	146.880000
374.037109	146.000000
374.130615	146.080000
374.224152	146.500000
374.317657	146.320000
374.411194	147.080000
374.504730	147.520000
374.598236	147.000000
374.691772	146.300000
374.785309	146.380000
374.878815	145.580000
374.972351	145.660000
375.065887	145.760000
375.159454	147.080000
375.252930	146.860000
375.346497	147.360000
375.440002	147.800000
375.533569	147.640000
375.627045	146.400000
375.720612	146.580000
375.814117	146.440000
375.907684	146.120000
376.001160	146.080000
376.094727	145.680000
376.188232	146.260000
376.281799	146.340000
376.375336	146.000000
376.468872	146.860000
376.562408	147.480000
376.655914	146.860000
376.749451	146.800000
376.842987	147.040000
376.936523	146.500000
377.030060	146.440000
377.123596	146.620000
377.217133	145.800000
377.310669	145.620000
377.404205	145.740000
377.497772	146.300000
377.591278	146.160000
377.684845	147.340000
377.778351	147.780000
377.871918	147.600000
377.965424	146.760000
378.058990	146.640000
378.152496	146.200000
378.246063	146.340000
378.339569	146.440000
378.433136	146.620000
378.526642	146.840000
378.620209	146.620000
378.713745	146.100000
378.807312	146.620000
378.900848	146.540000
378.994385	146.780000
379.087921	146.440000
379.181458	146.560000
379.274994	145.720000
379.368530	145.820000
379.462097	145.660000
379.555634	146.040000
379.649170	145.580000
379.742706	145.840000
379.836273	145.720000
379.929810	145.220000
380.023376	145.100000
380.116882	145.400000
380.210449	145.060000
380.303986	145.080000
380.397552	144.780000
380.491058	144.960000
380.584656	144.660000
380.678162	145.040000
380.771729	145.180000
380.865265	146.320000
380.958832	146.320000
381.052368	146.800000
381.145935	147.080000
381.239471	147.660000
381.333008	147.320000
381.426575	147.000000
381.520111	147.120000
381.613647	147.220000
381.707214	146.640000
381.800751	146.040000
381.894318	146.480000
381.987854	145.840000
382.081421	145.580000
382.174988	145.680000
382.268524	145.640000
382.362091	145.540000
382.455627	146.640000
382.549194	146.320000
382.642731	145.940000
382.736298	146.140000
382.829834	146.080000
382.923401	145.980000
383.016937	146.420000
383.110504	146.920000
383.204041	146.980000
383.297607	147.520000
383.391174	146.500000
383.484741	147.080000
383.578278	146.640000
383.671844	146.300000
383.765411	145.460000
383.858948	146.280000
383.952515	145.640000
384.046051	146.120000
384.139618	146.540000
384.233185	146.620000
384.326721	146.280000
384.420288	146.620000
384.513855	146.200000
384.607422	146.480000
384.700989	146.900000
384.794525	146.600000
384.888123	146.240000
384.981659	146.760000
385.075226	146.020000
385.168762	145.600000
385.262360	145.680000
385.355896	145.040000
385.449463	144.780000
385.542999	145.180000
385.636597	145.960000
385.730164	146.220000
385.823730	146.440000
385.917267	146.200000
386.010834	146.420000
386.104401	146.080000
386.197968	146.420000
386.291534	146.840000
386.385101	146.960000
386.478668	147.100000
386.572235	146.820000
386.665802	145.960000
386.759338	145.480000
386.852905	145.380000
386.946472	144.960000
387.040070	145.120000
387.133606	145.300000
387.227203	145.180000
387.320740	145.460000
387.414337	145.440000
387.507874	145.540000
387.601471	145.780000
387.695007	145.760000
387.788605	145.620000
387.882141	145.760000
387.975739	145.800000
388.069275	145.360000
388.162872	145.780000
388.256439	145.740000
388.350037	145.440000
388.443604	145.200000
388.537170	145.540000
388.630737	146.080000
388.724304	146.040000
388.817871	146.100000
388.911438	146.180000
389.005005	146.520000
389.098602	146.380000
389.192169	145.680000
389.285736	146.160000
389.379333	146.020000
389.472870	145.340000
389.566467	145.080000
389.660034	145.780000
389.753632	145.260000
389.847168	145.500000
389.940765	145.980000
390.034332	146.240000
390.127930	145.860000
390.221466	146.060000
390.315063	145.520000
390.408630	144.600000
390.502228	143.880000
390.595795	144.180000
390.689362	144.220000
390.782959	144.820000
390.876526	145.740000
390.970093	145.920000
391.063690	146.380000
391.157257	146.280000
391.250824	146.440000
391.344421	146.080000
391.437988	146.340000
391.531555	146.200000
391.625153	146.440000
391.718750	146.500000
391.812317	146.440000
391.905914	146.300000
391.999481	146.280000
392.093079	146.340000
392.186615	146.580000
392.280243	146.840000
392.373779	146.840000
392.467407	147.320000
392.560944	147.180000
392.654572	146.320000
392.748108	146.140000
392.841736	146.380000
392.935303	145.680000
393.028900	145.420000
393.122467	145.860000
393.216064	145.920000
393.309631	145.320000
393.403229	145.080000
393.496796	145.020000
393.590393	144.100000
393.683990	144.280000
393.777557	144.940000
393.871155	145.300000
393.964722	146.000000
394.058350	146.740000
394.151917	146.760000
394.245514	146.340000
394.339081	146.840000
394.432678	146.900000
394.526245	146.480000
394.619873	146.100000
394.713409	146.060000
394.807037	145.520000
394.900604	145.040000
394.994202	145.340000
395.087769	145.600000
395.181396	145.360000
395.274994	145.920000
395.368561	145.440000
395.462158	145.700000
395.555756	145.620000
395.649353	146.060000
395.742920	145.360000
395.836517	146.100000
395.930115	145.280000
396.023712	145.560000
396.117279	145.720000
396.210876	145.660000
396.304474	145.360000
396.398071	145.980000
396.491669	145.920000
396.585266	145.580000
396.678833	145.580000
396.772461	145.900000
396.866028	145.760000
396.959656	146.140000
397.053223	146.900000
397.146851	147.160000
397.240417	147.920000
397.334015	149.700000
397.427582	150.840000
397.521210	152.500000
397.614807	155.560000
397.708405	158.420000
397.802002	162.100000
397.895599	168.120000
397.989197	175.060000
398.082794	183.360000
398.176392	195.140000
398.269989	208.120000
398.363586	223.920000
398.457184	242.660000
398.550781	264.160000
398.644379	285.700000
398.737976	310.060000
398.831573	333.640000
398.925201	355.940000
399.018768	376.260000
399.112396	396.140000
399.205963	414.440000
399.299591	431.820000
399.393158	449.660000
399.486786	467.680000
399.580353	484.000000
399.673981	496.640000
399.767578	508.360000
399.861206	515.920000
399.954773	520.040000
400.048401	518.520000
400.141998	514.040000
400.235596	504.620000
400.329193	491.780000
400.422791	475.860000
400.516418	458.960000
400.610016	441.460000
400.703613	423.440000
400.797211	403.180000
400.890808	383.460000
400.984436	364.540000
401.078033	344.240000
401.171631	323.060000
401.265259	303.380000
401.358826	283.360000
401.452484	262.480000
401.546051	243.980000
401.639679	226.200000
401.733246	211.360000
401.826904	197.640000
401.920471	186.380000
402.014099	176.860000
402.107697	169.780000
402.201324	163.640000
402.294891	159.460000
402.388550	156.440000
402.482147	153.760000
402.575745	151.560000
402.669373	149.600000
402.762970	148.080000
402.856567	147.460000
402.950195	147.300000
403.043793	147.060000
403.137390	147.700000
403.231018	146.840000
403.324615	147.260000
403.418243	146.700000
403.511841	147.020000
403.605469	146.420000
403.699066	147.100000
403.792694	146.660000
403.886292	146.960000
403.979919	146.740000
404.073517	146.700000
404.167145	146.820000
404.260712	147.020000
404.354370	146.860000
404.447937	146.860000
404.541595	146.940000
404.635162	147.220000
404.728821	147.240000
404.822418	146.840000
404.916046	146.740000
405.009644	147.060000
405.103271	147.180000
405.196899	146.960000
405.290497	147.380000
405.384125	147.760000
405.477722	147.320000
405.571350	146.480000
405.664948	146.620000
405.758575	146.440000
405.852203	145.640000
405.945801	145.760000
406.039429	146.040000
406.133057	145.660000
406.226654	145.460000
406.320312	145.840000
406.413879	145.840000
406.507538	146.340000
406.601135	145.760000
406.694763	146.220000
406.788361	146.060000
406.882019	145.720000
406.975586	145.820000
407.069244	146.900000
407.162872	147.160000
407.256470	147.000000
407.350098	147.040000
407.443726	146.400000
407.537323	145.720000
407.630951	145.500000
407.724579	145.440000
407.818207	145.880000
407.911804	145.720000
408.005432	145.820000
408.099060	145.840000
408.192688	145.960000
408.286285	145.560000
408.379913	145.480000
408.473572	145.700000
408.567169	145.400000
408.660828	145.580000
408.754395	145.440000
408.848053	145.460000
408.941650	145.480000
409.035309	145.340000
409.128906	145.300000
409.222565	145.920000
409.316132	146.160000
409.409790	145.680000
409.503387	145.700000
409.597046	145.860000
409.690674	145.660000
409.784302	145.860000
409.877930	146.240000
409.971558	146.360000
410.065186	146.160000
410.158783	145.800000
410.252411	145.540000
410.346039	145.620000
410.439667	145.620000
410.533295	145.880000
410.626923	146.160000
410.720551	146.260000
410.814209	146.600000
410.907806	146.400000
411.001465	145.620000
411.095062	145.660000
411.188721	145.560000
411.282318	145.040000
411.375977	145.000000
411.469574	145.660000
411.563232	145.480000
411.656830	145.220000
411.750488	145.400000
411.844086	145.440000
411.937744	145.180000
412.031372	145.120000
412.125000	145.320000
412.218628	145.180000
412.312256	145.800000
412.405884	146.460000
412.499512	146.400000
412.593170	146.540000
412.686798	146.580000
412.780426	145.940000
412.874054	145.900000
412.967682	145.960000
413.061310	146.520000
413.154968	146.820000
413.248566	147.020000
413.342224	146.580000
413.435852	146.740000
413.529510	146.000000
413.623108	145.360000
413.716766	145.420000
413.810364	145.680000
413.904022	145.320000
413.997650	145.020000
414.091309	145.820000
414.184906	145.820000
414.278564	145.380000
414.372192	145.740000
414.465851	146.280000
414.559479	145.660000
414.653107	146.620000
414.746735	146.620000
414.840393	146.720000
414.934021	147.020000
415.027649	146.900000
415.121277	146.120000
415.214935	146.740000
415.308563	146.860000
415.402191	146.080000
415.495850	146.180000
415.589478	145.900000
415.683136	145.520000
415.776733	145.480000
415.870422	146.120000
415.964020	145.600000
416.057678	145.880000
416.151306	145.820000
416.244965	145.480000
416.338562	145.360000
416.432251	146.440000
416.525848	147.040000
416.619507	147.300000
416.713165	147.840000
416.806793	147.700000
416.900421	147.420000
416.994080	146.620000
417.087708	146.420000
417.181366	145.800000
417.274994	145.860000
417.368622	146.100000
417.462280	146.600000
417.555908	146.620000
417.649567	146.480000
417.743195	146.480000
417.836853	146.080000
417.930481	146.180000
418.024170	146.280000
418.117767	147.140000
418.211426	147.540000
418.305054	147.940000
418.398712	147.280000
418.492340	147.260000
418.585999	146.960000
418.679626	146.860000
418.773285	146.740000
418.866913	147.100000
418.960571	147.220000
419.054230	147.380000
419.147858	147.380000
419.241516	147.340000
419.335144	146.780000
419.428802	146.860000
419.522461	146.540000
419.616089	145.880000
419.709747	145.800000
419.803375	146.360000
419.897034	145.660000
419.990662	145.460000
420.084320	146.220000
420.177979	146.640000
420.271606	146.440000
420.365295	147.300000
420.458893	147.600000
420.552582	147.620000
420.646210	147.280000
420.739868	147.280000
420.833496	146.740000
420.927155	146.460000
421.020782	146.140000
421.114471	145.680000
421.208069	145.720000
421.301758	145.740000
421.395386	145.960000
421.489044	145.700000
421.582703	145.640000
421.676361	146.080000
421.769989	145.880000
421.863647	145.920000
421.957306	146.040000
422.050934	146.600000
422.144592	145.960000
422.238251	146.000000
422.331909	145.620000
422.425537	145.380000
422.519196	145.200000
422.612854	145.180000
422.706543	144.880000
422.800140	145.620000
422.893829	145.480000
422.987457	145.200000
423.081146	145.480000
423.174744	146.240000
423.268433	145.580000
423.362061	145.600000
423.455750	145.560000
423.549347	145.500000
423.643036	144.780000
423.736664	145.620000
423.830353	145.920000
423.924011	146.440000
424.017639	145.960000
424.111298	146.040000
424.204956	145.580000
424.298615	145.620000
424.392273	145.380000
424.485931	145.760000
424.579559	145.940000
424.673218	145.880000
424.766876	145.740000
424.860535	145.500000
424.954193	145.160000
425.047882	145.800000
425.141510	145.840000
425.235199	145.960000
425.328796	146.040000
425.422485	146.140000
425.516113	145.420000
425.609802	145.320000
425.703430	145.680000
425.797119	145.620000
425.890747	145.960000
425.984436	146.180000
426.078064	146.140000
426.171753	145.960000
426.265411	145.960000
426.359070	145.940000
426.452728	145.720000
426.546356	145.560000
426.640015	145.260000
426.733673	145.420000
426.827332	144.940000
426.920990	145.980000
427.014648	145.900000
427.108307	146.380000
427.201965	147.000000
427.295624	147.340000
427.389282	146.320000
427.482941	146.700000
427.576630	146.620000
427.670258	145.620000
427.763947	145.500000
427.857574	145.640000
427.951263	145.620000
428.044922	145.580000
428.138611	145.940000
428.232239	146.400000
428.325928	146.780000
428.419556	147.240000
428.513245	146.640000
428.606903	146.640000
428.700562	145.960000
428.794220	145.280000
428.887878	144.400000
428.981537	144.940000
429.075195	144.920000
429.168854	145.420000
429.262512	145.660000
429.356201	145.840000
429.449860	145.540000
429.543518	145.320000
429.637177	145.460000
429.730835	145.280000
429.824493	145.260000
429.918182	145.560000
430.011810	145.300000
430.105530	144.580000
430.199158	145.000000
430.292847	144.840000
430.386475	144.560000
430.480164	144.680000
430.573792	144.440000
430.667511	144.260000
430.761139	144.600000
430.854828	144.880000
430.948456	145.060000
431.042145	145.940000
431.135834	145.700000
431.229492	145.880000
431.323151	145.820000
431.416809	145.660000
431.510468	145.420000
431.604156	145.480000
431.697815	145.180000
431.791473	144.900000
431.885132	145.060000
431.978821	145.220000
432.072479	145.680000
432.166138	146.160000
432.259827	146.080000
432.353485	146.320000
432.447174	146.340000
432.540802	145.940000
432.634491	145.880000
432.728149	146.380000
432.821838	146.880000
432.915466	146.780000
433.009186	147.100000
433.102814	146.180000
433.196503	145.900000
433.290131	145.420000
433.383850	145.520000
433.477509	145.300000
433.571167	146.520000
433.664856	147.040000
433.758514	147.620000
433.852173	147.520000
433.945862	147.480000
434.039520	147.200000
434.133179	146.520000
434.226868	145.760000
434.320526	145.160000
434.414185	145.680000
434.507874	145.340000
434.601562	145.640000
434.695221	145.520000
434.788910	146.020000
434.882538	145.680000
434.976257	145.360000
435.069885	145.320000
435.163574	145.780000
435.257233	145.380000
435.350922	145.420000
435.444580	145.180000
435.538269	144.880000
435.631897	145.060000
435.725616	146.040000
435.819275	146.340000
435.912964	147.160000
436.006622	148.060000
436.100311	147.800000
436.193970	146.740000
436.287628	146.420000
436.381317	146.220000
436.474976	145.380000
436.568665	144.860000
436.662323	145.300000
436.756012	145.280000
436.849670	145.000000
436.943390	144.860000
437.037018	145.160000
437.130737	145.200000
437.224365	145.020000
437.318085	145.360000
437.411713	145.580000
437.505432	145.860000
437.599060	146.460000
437.692780	147.420000
437.786407	147.100000
437.880127	147.180000
437.973755	147.000000
438.067474	146.220000
438.161133	145.640000
438.254822	146.080000
438.348480	146.260000
438.442169	146.780000
438.535828	147.380000
438.629517	147.000000
438.723175	146.320000
438.816864	146.520000
438.910553	145.820000
439.004211	145.140000
439.097900	145.140000
439.191559	145.420000
439.285248	144.620000
439.378906	144.900000
439.472626	145.000000
439.566284	145.000000
439.659973	145.200000
439.753632	145.520000
439.847321	145.780000
439.940979	146.000000
440.034698	146.140000
440.128326	145.700000
440.222046	145.520000
440.315674	144.820000
440.409393	144.820000
440.503082	144.780000
440.596741	145.200000
440.690430	145.400000
440.784088	145.720000
440.877777	145.260000
440.971466	145.460000
441.065125	145.240000
441.158813	145.100000
441.252502	144.840000
441.346161	145.360000
441.439850	145.280000
441.533539	145.400000
441.627197	145.760000
441.720886	145.940000
441.814606	146.220000
441.908234	146.460000
442.001953	146.260000
442.095612	146.080000
442.189301	146.440000
442.282959	146.260000
442.376678	145.600000
442.470306	146.300000
442.564026	146.180000
442.657684	146.060000
442.751404	146.220000
442.845032	147.240000
442.938751	146.680000
443.032440	146.920000
443.126099	146.700000
443.219788	146.780000
443.313477	146.180000
443.407166	146.480000
443.500824	146.460000
443.594513	146.760000
443.688202	146.680000
443.781891	146.540000
443.875549	145.980000
443.969238	145.920000
444.062927	145.620000
444.156647	145.400000
444.250275	145.740000
444.343994	145.960000
444.437653	146.100000
444.531372	146.300000
444.625031	146.100000
444.718719	145.660000
444.812378	145.760000
444.906097	145.660000
444.999756	145.140000
445.093445	145.500000
445.187103	145.560000
445.280823	146.120000
445.374512	145.740000
445.468201	145.860000
445.561859	145.520000
445.655548	145.660000
445.749237	144.680000
445.842926	144.920000
445.936615	145.640000
446.030304	145.540000
446.123962	145.580000
446.217651	145.700000
446.311340	145.880000
446.405029	145.260000
446.498749	145.260000
446.592407	145.120000
446.686096	145.440000
446.779755	145.500000
446.873474	145.540000
446.967133	145.600000
447.060852	145.360000
447.154510	145.140000
447.248230	144.820000
447.341858	145.020000
447.435577	144.680000
447.529236	144.620000
447.622955	144.460000
447.716644	144.760000
447.810333	144.860000
447.904022	145.640000
447.997711	145.740000
448.091400	146.260000
448.185059	146.020000
448.278748	146.120000
448.372437	145.680000
448.466125	146.120000
448.559814	146.020000
448.653503	146.440000
448.747192	146.780000
448.840912	147.060000
448.934570	146.800000
449.028290	146.680000
449.121948	146.560000
449.215637	145.840000
449.309296	145.500000
449.403015	145.700000
449.496674	145.820000
449.590393	145.780000
449.684052	145.500000
449.777771	146.340000
449.871429	145.900000
449.965149	145.680000
450.058838	145.820000
450.152527	146.480000
450.246216	145.980000
450.339905	146.120000
450.433594	146.000000
450.527283	146.360000
450.620972	145.700000
450.714661	145.620000
450.808350	145.680000
450.902039	146.160000
450.995728	145.780000
451.089417	145.900000
451.183105	145.840000
451.276794	146.260000
451.370514	145.540000
451.464172	144.640000
451.557892	144.880000
451.651550	145.260000
451.745270	144.560000
451.838928	144.380000
451.932648	144.940000
452.026306	145.220000
452.120026	144.580000
452.213684	145.260000
452.307404	145.520000
452.401062	145.600000
452.494781	145.680000
452.588470	145.820000
452.682159	145.320000
452.775848	145.820000
452.869537	145.260000
452.963226	144.620000
453.056915	144.480000
453.150604	144.740000
453.244293	144.840000
453.337982	145.960000
453.431671	146.620000
453.525360	147.220000
453.619049	146.960000
453.712769	146.720000
453.806427	145.960000
453.900146	145.380000
453.993805	144.880000
454.087555	145.460000
454.181213	145.460000
454.274933	145.400000
454.368591	145.460000
454.462311	145.520000
454.555969	144.960000
454.649689	145.800000
454.743347	145.640000
454.837067	146.160000
454.930756	146.840000
455.024445	146.920000
455.118134	146.460000
455.211853	147.040000
455.305542	146.480000
455.399231	146.060000
455.492920	146.140000
455.586609	146.240000
455.680298	146.200000
455.773987	146.080000
455.867676	145.880000
455.961365	146.000000
456.055084	145.560000
456.148773	144.980000
456.242493	144.980000
456.336151	144.940000
456.429871	145.380000
456.523529	145.480000
456.617249	145.620000
456.710907	146.420000
456.804626	146.680000
456.898315	145.720000
456.992035	145.560000
457.085693	145.500000
457.179413	145.020000
457.273102	145.600000
457.366791	145.920000
457.460480	146.480000
457.554199	147.120000
457.647888	147.160000
457.741577	146.580000
457.835266	146.600000
457.928955	146.740000
458.022644	146.920000
458.116364	147.020000
458.210052	146.820000
458.303741	146.880000
458.397461	146.100000
458.491119	145.200000
458.584839	144.920000
458.678528	144.480000
458.772247	144.420000
458.865906	144.680000
458.959625	145.580000
459.053284	146.060000
459.147003	146.360000
459.240692	146.860000
459.334412	147.040000
459.428070	146.480000
459.521790	145.900000
459.615479	145.740000
459.709198	145.920000
459.802887	145.320000
459.896576	145.320000
459.990265	145.420000
460.083954	145.800000
460.177673	145.180000
460.271362	145.500000
460.365051	145.240000
460.458740	145.320000
460.552429	144.820000
460.646149	144.680000
460.739838	144.300000
460.833527	144.920000
460.927246	144.340000
461.020905	144.540000
461.114655	144.800000
461.208313	144.920000
461.302032	144.240000
461.395691	145.120000
461.489441	145.280000
461.583099	145.020000
461.676819	144.900000
461.770477	145.400000
461.864197	144.580000
461.957916	144.340000
462.051605	144.060000
462.145294	145.080000
462.238983	144.920000
462.332703	145.620000
462.426392	146.040000
462.520081	146.000000
462.613770	145.220000
462.707489	145.480000
462.801178	145.360000
462.894867	145.040000
462.988556	145.320000
463.082275	145.500000
463.175964	145.020000
463.269684	145.260000
463.363342	145.320000
463.457092	144.940000
463.550751	145.120000
463.644470	145.360000
463.738129	144.940000
463.831879	145.020000
463.925537	145.760000
464.019257	145.620000
464.112946	145.500000
464.206665	145.560000
464.300323	145.780000
464.394043	145.560000
464.487762	145.360000
464.581451	145.740000
464.675140	145.420000
464.768829	145.600000
464.862549	145.480000
464.956238	145.820000
465.049927	145.840000
465.143646	146.280000
465.237335	145.960000
465.331024	146.440000
465.424713	146.280000
465.518433	146.000000
465.612152	145.720000
465.705811	145.720000
465.799561	145.540000
465.893219	145.460000
465.986938	145.540000
466.080597	145.520000
466.174347	145.760000
466.268005	145.680000
466.361725	145.600000
466.455414	145.540000
466.549133	145.240000
466.642792	145.080000
466.736542	144.780000
466.830231	145.100000
466.923920	145.040000
467.017609	145.600000
467.111328	145.280000
467.205017	145.280000
467.298706	145.140000
467.392426	145.200000
467.486115	145.260000
467.579803	145.220000
467.673523	145.400000
467.767212	145.420000
467.860901	145.560000
467.954651	145.420000
468.048309	145.600000
468.142029	145.580000
468.235718	145.580000
468.329437	145.220000
468.423096	145.240000
468.516846	145.520000
468.610504	145.780000
468.704224	145.620000
468.797913	145.700000
468.891632	145.860000
468.985291	145.460000
469.079010	145.340000
469.172729	145.220000
469.266418	145.660000
469.360107	145.820000
469.453827	145.760000
469.547516	145.740000
469.641205	146.580000
469.734924	146.580000
469.828613	146.840000
469.922302	147.240000
470.016022	147.120000
470.109711	146.560000
470.203430	145.940000
470.297150	145.160000
470.390808	145.300000
470.484558	145.220000
470.578217	145.560000
470.671936	146.100000
470.765625	146.700000
470.859344	146.220000
470.953003	146.780000
471.046753	146.440000
471.140411	146.100000
471.234131	146.120000
471.327820	146.580000
471.421539	146.300000
471.515228	146.000000
471.608948	146.100000
471.702637	145.380000
471.796326	145.160000
471.890045	145.200000
471.983734	145.620000
472.077423	145.500000
472.171143	146.020000
472.264832	146.120000
472.358521	146.060000
472.452240	145.820000
472.545929	146.320000
472.639648	146.280000
472.733337	146.380000
472.827057	146.480000
472.920746	146.080000
473.014465	146.020000
473.108124	146.080000
473.201874	146.020000
473.295532	145.580000
473.389252	146.380000
473.482941	146.560000
473.576660	146.200000
473.670319	145.840000
473.764069	146.420000
473.857727	146.040000
473.951477	146.020000
474.045166	146.660000
474.138855	146.800000
474.232574	146.380000
474.326263	146.580000
474.419952	146.160000
474.513672	145.820000
474.607361	145.740000
474.701050	145.940000
474.794769	146.140000
474.888458	146.500000
474.982178	146.400000
475.075867	146.540000
475.169586	146.460000
475.263275	145.880000
475.356995	145.920000
475.450653	145.960000
475.544403	145.520000
475.638062	146.180000
475.731812	146.080000
475.825470	145.780000
475.919189	145.940000
476.012878	146.500000
476.106598	145.740000
476.200256	146.320000
476.294006	146.440000
476.387695	146.380000
476.481384	146.060000
476.575104	145.960000
476.668793	145.100000
476.762512	144.880000
476.856201	145.160000
476.949890	145.000000
477.043610	144.660000
477.137299	145.180000
477.230988	145.500000
477.324707	145.140000
477.418396	145.580000
477.512146	145.960000
477.605804	145.960000
477.699524	145.880000
477.793213	145.640000
477.886932	145.860000
477.980591	145.700000
478.074341	145.480000
478.167999	144.740000
478.261749	145.500000
478.355408	145.120000
478.449127	145.640000
478.542816	146.820000
478.636536	147.760000
478.730225	147.380000
478.823944	147.760000
478.917633	147.460000
479.011322	146.840000
479.105042	146.340000
479.198730	146.220000
479.292450	145.800000
479.386139	145.860000
479.479828	145.920000
479.573547	146.360000
479.667267	146.200000
479.760925	146.220000
479.854675	146.400000
479.948334	146.300000
480.042084	145.540000
480.135742	145.860000
480.229462	145.220000
480.323151	144.940000
480.416870	144.280000
480.510529	144.580000
480.604279	143.880000
480.697937	144.860000
480.791656	144.580000
480.885345	144.760000
480.979065	144.700000
481.072754	145.400000
481.166473	145.500000
481.260132	145.740000
481.353882	145.880000
481.447540	146.120000
481.541260	146.260000
481.635010	145.740000
481.728668	145.660000
481.822388	145.900000
481.916077	145.960000
482.009796	145.680000
482.103485	145.980000
482.197205	146.200000
482.290863	146.040000
482.384613	145.940000
482.478271	145.220000
482.571991	145.120000
482.665680	145.080000
482.759399	145.720000
482.853058	146.180000
482.946808	146.680000
483.040466	146.820000
483.134216	146.740000
483.227875	145.940000
483.321594	145.920000
483.415283	145.960000
483.509003	145.760000
483.602661	145.700000
483.696411	146.040000
483.790070	145.680000
483.883789	145.760000
483.977478	145.780000
484.071198	145.800000
484.164917	145.520000
484.258606	145.140000
484.352325	145.280000
484.445984	145.560000
484.539734	145.560000
484.633392	145.340000
484.727142	146.120000
484.820801	145.680000
484.914520	145.600000
485.008209	145.960000
485.101929	146.520000
485.195587	145.960000
485.289337	146.240000
485.382996	146.000000
485.476715	145.600000
485.570404	145.940000
485.664124	145.820000
485.757782	146.200000
485.851532	145.840000
485.945190	145.820000
486.038910	145.300000
486.132599	146.020000
486.226318	145.340000
486.319977	145.400000
486.413727	146.080000
486.507446	145.880000
486.601105	144.900000
486.694855	144.960000
486.788513	145.160000
486.882233	144.740000
486.975922	144.840000
487.069641	145.060000
487.163300	145.360000
487.257050	146.500000
487.350708	146.340000
487.444427	146.340000
487.538116	146.400000
487.631836	146.220000
487.725494	145.400000
487.819214	145.180000
487.912903	145.020000
488.006622	145.600000
488.100281	145.440000
488.194031	145.280000
488.287689	145.820000
488.381409	146.660000
488.475098	146.080000
488.568817	146.580000
488.662476	146.360000
488.756226	145.640000
488.849945	144.600000
488.943604	144.860000
489.037354	144.960000
489.131012	145.080000
489.224731	145.180000
489.318390	145.380000
489.412140	145.300000
489.505798	145.020000
489.599518	144.640000
489.693207	144.920000
489.786926	144.740000
489.880585	144.900000
489.974335	145.100000
490.067993	146.540000
490.161713	146.860000
490.255371	147.840000
490.349121	147.540000
490.442780	147.380000
490.536499	146.120000
490.630188	145.820000
490.723907	144.860000
490.817566	144.900000
490.911285	144.740000
491.004974	144.380000
491.098694	144.240000
491.192413	145.140000
491.286102	145.140000
491.379822	145.520000
491.473480	146.420000
491.567200	146.700000
491.660889	145.860000
491.754608	145.980000
491.848267	145.560000
491.941986	145.360000
492.035675	144.980000
492.129395	145.600000
492.223053	145.480000
492.316772	145.580000
492.410461	145.220000
492.504181	145.700000
492.597839	145.160000
492.691559	145.100000
492.785248	145.360000
492.878967	145.920000
492.972626	145.580000
493.066345	145.940000
493.160034	145.660000
493.253754	145.160000
493.347412	144.560000
493.441132	144.800000
493.534882	145.160000
493.628540	145.920000
493.722260	146.600000
493.815918	147.040000
493.909668	147.260000
494.003326	147.320000
494.097046	146.880000
494.190704	146.660000
494.284454	146.560000
494.378113	146.520000
494.471832	145.920000
494.565491	146.040000
494.659210	145.680000
494.752899	145.660000
494.846619	145.560000
494.940277	145.880000
495.033997	145.820000
495.127686	145.860000
495.221405	145.580000
495.315063	145.420000
495.408783	145.400000
495.502441	145.460000
495.596191	145.500000
495.689850	145.480000
495.783569	145.780000
495.877228	145.740000
495.970947	145.500000
496.064697	145.540000
496.158356	146.360000
496.252075	146.180000
496.345734	146.080000
496.439453	146.820000
496.533142	146.880000
496.626862	146.920000
496.720520	147.000000
496.814240	146.940000
496.907898	146.500000
497.001617	146.560000
497.095306	145.860000
497.189026	145.460000
497.282684	145.700000
497.376404	146.180000
497.470062	145.840000
497.563782	146.040000
497.657471	146.380000
497.751190	146.100000
497.844849	145.580000
497.938568	146.040000
498.032227	145.980000
498.125946	145.920000
498.219635	145.660000
498.313354	145.780000
498.407074	145.380000
498.500732	145.700000
498.594452	145.660000
498.688110	145.340000
498.781830	144.880000
498.875519	144.920000
498.969238	144.520000
499.062897	144.340000
499.156616	145.020000
499.250275	145.340000
499.343994	145.160000
499.437653	145.160000
499.531372	145.740000
499.625061	146.220000
499.718781	146.360000
499.812439	147.140000
499.906158	146.720000
499.999817	146.040000
500.093536	145.580000
500.187195	145.400000
500.280914	144.940000
500.374573	145.580000
500.468323	145.700000
500.561981	145.980000
500.655701	145.760000
500.749420	145.940000
500.843079	146.080000
500.936798	146.080000
501.030457	146.340000
501.124176	146.700000
501.217834	146.500000
501.311554	146.180000
501.405212	146.120000
501.498962	145.080000
501.592621	145.000000
501.686340	145.300000
501.779999	145.660000
501.873718	146.060000
501.967377	146.600000
502.061096	146.620000
502.154755	145.920000
502.248474	145.540000
502.342133	145.540000
502.435852	145.420000
502.529510	145.820000
502.623230	146.680000
502.716888	146.360000
502.810608	146.300000
502.904266	146.600000
502.997986	145.900000
503.091705	145.200000
503.185364	145.400000
503.279083	145.280000
503.372772	144.980000
503.466492	144.760000
503.560150	144.840000
503.653870	145.180000
503.747528	144.940000
503.841248	144.880000
503.934906	145.500000
504.028625	145.400000
504.122284	145.380000
504.216003	145.880000
504.309662	145.720000
504.403381	145.580000
504.497040	145.800000
504.590759	145.720000
504.684418	146.020000
504.778137	146.840000
504.871796	147.120000
504.965515	146.900000
505.059174	146.940000
505.152893	145.980000
505.246521	145.240000
505.340240	144.620000
505.433899	144.760000
505.527618	144.880000
505.621338	145.380000
505.714996	145.360000
505.808716	145.600000
505.902374	146.520000
505.996094	146.380000
506.089752	146.080000
506.183472	146.220000
506.277130	146.420000
506.370850	145.680000
506.464508	145.660000
506.558228	145.700000
506.651886	145.400000
506.745605	145.440000
506.839264	145.560000
506.932983	145.860000
507.026611	146.040000
507.120331	146.280000
507.213989	145.660000
507.307709	145.440000
507.401367	145.140000
507.495087	145.720000
507.588745	145.560000
507.682465	146.740000
507.776123	146.940000
507.869843	147.100000
507.963531	146.780000
508.057190	147.320000
508.150909	146.160000
508.244568	146.180000
508.338287	145.580000
508.431946	145.100000
508.525665	144.900000
508.619324	145.200000
508.713013	145.320000
508.806671	145.780000
508.900391	146.920000
508.994049	146.920000
509.087769	146.700000
509.181427	146.440000
509.275146	145.900000
509.368774	144.900000
509.462494	144.640000
509.556152	144.740000
509.649872	145.260000
509.743530	146.100000
509.837250	146.320000
509.930878	146.440000
510.024597	146.580000
510.118256	146.200000
510.211975	145.720000
510.305695	145.420000
510.399353	145.620000
510.493042	146.060000
510.586700	146.200000
510.680420	146.720000
510.774078	146.740000
510.867798	147.080000
510.961426	146.460000
511.055145	146.460000
511.148804	145.960000
511.242523	146.460000
511.336151	146.260000
511.429871	146.860000
511.523529	146.660000
511.617249	146.440000
511.710876	146.060000
511.804596	145.560000
511.898254	145.360000
511.991974	145.620000
512.085632	145.520000
512.179321	145.820000
512.272949	146.320000
512.366699	146.500000
512.460327	146.460000
512.554077	147.600000
512.647766	147.280000
512.741394	147.080000
512.835144	147.600000
512.928772	147.000000
513.022461	146.460000
513.116150	146.480000
513.209839	146.920000
513.303467	146.080000
513.397217	146.340000
513.490845	145.920000
513.584595	145.840000
513.678223	145.220000
513.771912	144.580000
513.865601	144.660000
513.959290	144.640000
514.052917	144.600000
514.146667	145.040000
514.240295	145.820000
514.333984	146.000000
514.427673	146.020000
514.521362	146.540000
514.614990	145.740000
514.708740	145.560000
514.802368	145.580000
514.896057	145.980000
514.989746	146.380000
515.083435	146.800000
515.177124	147.200000
515.270752	146.840000
515.364502	146.740000
515.458130	146.600000
515.551819	146.520000
515.645508	146.400000
515.739197	146.480000
515.832825	146.180000
515.926575	145.680000
516.020203	145.980000
516.113892	145.940000
516.207520	145.880000
516.301270	146.180000
516.394897	146.380000
516.488586	146.840000
516.582275	146.720000
516.675964	146.380000
516.769592	146.360000
516.863281	146.860000
516.956970	146.700000
517.050659	146.520000
517.144287	147.040000
517.238037	147.060000
517.331665	146.160000
517.425354	145.640000
517.519043	145.880000
517.612732	145.860000
517.706421	145.620000
517.800049	145.660000
517.893738	145.520000
517.987427	145.380000
518.081116	145.260000
518.174744	145.240000
518.268433	145.380000
518.362122	146.100000
518.455811	146.040000
518.549438	146.740000
518.643127	147.460000
518.736816	147.280000
518.830505	146.780000
518.924133	146.780000
519.017822	146.420000
519.111511	146.040000
519.205200	146.580000
519.298828	146.700000
519.392517	146.720000
519.486206	146.640000
519.579895	146.580000
519.673523	146.020000
519.767212	145.920000
519.860901	146.100000
519.954590	145.780000
520.048279	145.480000
520.141907	145.560000
520.235596	146.580000
520.329224	146.660000
520.422974	146.940000
520.516602	147.060000
520.610291	146.800000
520.703918	146.040000
520.797607	145.700000
520.891296	145.760000
520.984985	146.020000
521.078613	147.020000
521.172302	146.400000
521.265930	147.320000
521.359680	147.620000
521.453308	147.480000
521.546997	146.980000
521.640625	147.540000
521.734314	146.820000
521.827942	146.800000
521.921692	147.020000
522.015320	147.020000
522.109009	146.580000
522.202698	146.540000
522.296326	145.940000
522.390015	145.900000
522.483704	145.720000
522.577393	145.680000
522.671021	145.700000
522.764709	145.680000
522.858337	146.140000
522.952026	146.060000
523.045654	146.660000
523.139404	146.860000
523.233032	147.220000
523.326721	146.460000
523.420349	146.600000
523.514038	146.120000
523.607666	146.660000
523.701355	146.000000
523.795044	146.160000
523.888733	146.180000
523.982361	146.420000
524.076050	145.460000
524.169678	146.220000
524.263367	146.080000
524.356995	145.960000
524.450684	145.800000
524.544373	145.840000
524.638062	145.760000
524.731750	145.880000
524.825378	145.960000
524.919067	145.560000
525.012695	145.660000
525.106384	145.200000
525.200012	145.160000
525.293701	144.880000
525.387329	145.620000
525.481018	145.820000
525.574646	146.180000
525.668396	146.380000
525.762024	146.580000
525.855713	146.280000
525.949341	145.880000
526.043030	146.240000
526.136658	145.760000
526.230347	145.900000
526.323975	145.760000
526.417664	145.700000
526.511292	145.280000
526.604980	145.920000
526.698608	145.640000
526.792297	145.800000
526.885925	146.040000
526.979614	146.020000
527.073303	145.420000
527.166931	145.460000
527.260620	145.620000
527.354309	146.020000
527.447998	145.760000
527.541626	145.680000
527.635315	145.780000
527.728943	146.080000
527.822632	145.980000
527.916260	146.320000
528.009949	146.740000
528.103577	146.740000
528.197266	145.880000
528.290894	145.480000
528.384583	145.120000
528.478210	145.040000
528.571899	145.260000
528.665527	145.800000
528.759216	146.140000
528.852844	146.680000
528.946533	146.540000
529.040161	146.300000
529.133850	146.060000
529.227478	146.100000
529.321167	146.080000
529.414856	146.600000
529.508484	146.920000
529.602173	146.700000
529.695801	146.600000
529.789490	146.360000
529.883057	145.920000
529.976746	145.980000
530.070374	146.480000
530.164062	146.220000
530.257690	146.540000
530.351379	146.800000
530.445007	146.220000
530.538696	145.480000
530.632324	146.000000
530.726013	145.460000
530.819641	145.300000
530.913330	145.680000
531.006958	146.160000
531.100647	146.080000
531.194275	146.380000
531.287964	146.160000
531.381592	146.000000
531.475220	145.880000
531.568848	145.940000
531.662537	145.580000
531.756226	146.240000
531.849854	146.020000
531.943542	146.220000
532.037170	145.280000
532.130859	146.000000
532.224487	145.140000
532.318176	144.940000
532.411804	145.380000
532.505432	146.060000
532.599060	145.460000
532.692749	145.840000
532.786377	146.760000
532.880066	145.720000
532.973694	145.160000
533.067383	145.540000
533.161011	145.400000
533.254639	145.020000
533.348267	145.300000
533.441956	145.780000
533.535583	145.580000
533.629272	145.900000
533.722900	145.340000
533.816589	145.740000
533.910156	146.260000
534.003845	145.760000
534.097534	145.720000
534.191162	146.620000
534.284851	146.480000
534.378479	145.960000
534.472107	146.380000
534.565735	146.060000
534.659424	146.260000
534.753052	146.380000
534.846741	145.980000
534.940369	146.700000
535.033997	146.840000
535.127625	146.300000
535.221313	146.600000
535.314941	146.640000
535.408630	145.680000
535.502197	146.140000
535.595886	146.060000
535.689514	145.740000
535.783203	146.700000
535.876831	147.360000
535.970459	147.020000
536.064087	146.660000
536.157776	146.760000
536.251404	146.240000
536.345093	145.880000
536.438721	145.920000
536.532349	146.500000
536.626038	146.280000
536.719666	146.620000
536.813293	146.260000
536.906921	146.080000
537.000610	145.940000
537.094238	146.040000
537.187866	145.660000
537.281494	145.660000
537.375183	145.880000
537.468811	145.820000
537.562439	145.840000
537.656067	145.980000
537.749756	146.460000
537.843384	146.680000
537.937012	146.840000
538.030640	146.520000
538.124329	146.680000
538.217896	146.760000
538.311584	146.560000
538.405212	146.260000
538.498901	146.640000
538.592468	147.160000
538.686157	146.560000
538.779785	145.740000
538.873413	146.120000
538.967102	145.560000
539.060730	144.800000
539.154358	145.560000
539.247986	146.380000
539.341675	146.240000
539.435242	146.460000
539.528931	146.580000
539.622559	145.800000
539.716187	146.540000
539.809814	146.400000
539.903503	146.460000
539.997070	146.200000
540.090759	146.700000
540.184387	145.480000
540.278015	145.960000
540.371643	146.040000
540.465332	146.060000
540.558899	145.960000
540.652588	146.620000
540.746216	146.260000
540.839844	146.380000
540.933472	146.420000
541.027100	146.260000
541.120728	146.280000
541.214417	146.780000
541.308044	147.260000
541.401672	147.200000
541.495300	147.320000
541.588928	147.020000
541.682617	146.340000
541.776184	145.580000
541.869873	145.780000
541.963440	145.960000
542.057129	146.000000
542.150757	146.100000
542.244385	146.220000
542.338013	146.140000
542.431641	145.700000
542.525269	145.660000
542.618958	146.080000
542.712524	146.220000
542.806213	146.180000
542.899780	146.560000
542.993469	146.140000
543.087036	145.780000
543.180725	145.320000
543.274292	145.400000
543.367981	145.460000
543.461548	146.200000
543.555237	146.020000
543.648926	146.800000
543.742493	147.480000
543.836182	147.240000
543.929749	146.880000
544.023437	146.980000
544.117004	146.920000
544.210693	146.360000
544.304260	146.460000
544.397949	146.380000
544.491516	146.840000
544.585205	146.720000
544.678772	146.320000
544.772461	146.860000
544.866028	146.960000
544.959717	146.700000
545.053284	146.280000
545.146973	146.780000
545.240540	146.240000
545.334229	146.740000
545.427795	146.680000
545.521423	146.940000
545.615051	146.740000
545.708679	147.000000
545.802307	146.540000
545.895935	146.880000
545.989624	147.600000
546.083191	147.360000
546.176880	147.280000
546.270447	147.060000
546.364136	147.080000
546.457703	146.260000
546.551331	146.620000
546.644958	146.700000
546.738586	147.120000
546.832214	146.680000
546.925842	146.460000
547.019409	146.620000
547.113098	145.960000
547.206665	145.540000
547.300354	145.580000
547.393921	146.080000
547.487549	146.100000
547.581177	146.100000
547.674805	146.280000
547.768433	145.880000
547.862061	145.780000
547.955627	145.080000
548.049316	145.640000
548.142883	145.720000
548.236572	146.340000
548.330139	146.700000
548.423767	146.960000
548.517456	146.960000
548.611023	147.200000
548.704651	146.320000
548.798279	146.140000
548.891907	146.600000
548.985474	146.500000
549.079163	146.600000
549.172729	146.760000
549.266357	146.120000
549.359985	145.960000
549.453613	145.340000
549.547180	145.160000
549.640869	145.820000
549.734436	145.920000
549.828064	146.080000
549.921631	146.380000
550.015320	145.780000
550.108887	145.960000
550.202515	146.300000
550.296143	145.780000
550.389771	146.060000
550.483337	146.440000
550.576965	146.120000
550.670593	146.460000
550.764221	146.700000
550.857849	146.740000
550.951477	146.240000
551.045105	145.840000
551.138672	145.440000
551.232300	145.080000
551.325928	145.340000
551.419556	146.180000
551.513123	146.700000
551.606750	146.840000
551.700378	147.160000
551.794006	146.780000
551.887573	146.200000
551.981201	146.560000
552.074768	146.300000
552.168457	146.000000
552.262024	146.840000
552.355652	147.060000
552.449219	147.320000
552.542847	147.480000
552.636475	147.240000
552.730103	146.360000
552.823669	146.020000
552.917297	145.160000
553.010864	145.100000
553.104553	145.820000
553.198181	145.580000
553.291748	146.140000
553.385376	146.340000
553.478943	146.260000
553.572571	145.900000
553.666199	146.240000
553.759827	145.720000
553.853394	145.340000
553.947021	145.600000
554.040588	145.520000
554.134216	145.700000
554.227783	146.560000
554.321411	147.260000
554.415039	146.420000
554.508667	146.480000
554.602234	146.560000
554.695862	145.800000
554.789429	145.420000
554.883057	145.900000
554.976624	146.180000
555.070251	145.940000
555.163818	145.780000
555.257507	145.800000
555.351074	146.080000
555.444702	146.940000
555.538330	146.760000
555.631897	147.340000
555.725525	147.400000
555.819092	147.080000
555.912720	145.740000
556.006287	146.400000
556.099915	146.160000
556.193481	146.020000
556.287109	146.400000
556.380676	146.600000
556.474304	146.220000
556.567871	146.340000
556.661499	146.020000
556.755066	145.860000
556.848694	146.060000
556.942261	145.900000
557.035889	146.100000
557.129517	146.600000
557.223145	146.900000
557.316711	146.780000
557.410339	147.060000
557.503906	146.640000
557.597473	146.640000
557.691040	146.300000
557.784668	146.500000
557.878296	146.200000
557.971863	146.540000
558.065491	146.760000
558.159058	146.560000
558.252686	146.900000
558.346252	147.400000
558.439880	146.880000
558.533447	146.320000
558.627075	146.040000
558.720642	145.260000
558.814270	144.940000
558.907837	144.900000
559.001465	144.740000
559.095032	145.580000
559.188660	146.300000
559.282227	145.780000
559.375854	146.580000
559.469360	146.620000
559.562988	146.540000
559.656555	145.980000
559.750183	146.460000
559.843750	146.280000
559.937378	146.500000
560.030945	146.280000
560.124573	0.000000
560.218140	0.000000
560.311707	0.000000
560.405334	0.000000
560.498901	0.000000
560.592529	0.000000
560.686096	0.000000
560.779724	0.000000
560.873291	0.000000
560.966858	0.000000
561.060425	0.000000
561.154053	0.000000
561.247620	0.000000
561.341248	0.000000
561.434814	0.000000
561.528381	0.000000
561.621948	0.000000
561.715576	0.000000
561.809143	0.000000
561.902771	0.000000
561.996277	0.000000
562.089905	0.000000
562.183472	0.000000
562.277100	0.000000
