Model Number: SPM-002-B   
Serial Number: 70087108
Firmware Version: 004.15.4
Exposure Time: 100000.000000us
Data Taken on: 11-12-2020 18:46:46.428
Wavelength	Amplitude
221.570786	0.000000
221.663406	0.000000
221.756027	0.000000
221.848648	0.000000
221.941269	0.000000
222.033905	0.000000
222.126526	0.000000
222.219162	0.000000
222.311798	0.000000
222.404419	0.000000
222.497055	0.000000
222.589676	0.000000
222.682312	0.000000
222.774933	0.000000
222.867569	0.000000
222.960205	0.000000
223.052841	0.000000
223.145462	0.000000
223.238098	0.000000
223.330734	0.000000
223.423386	0.000000
223.516022	0.000000
223.608658	0.000000
223.701309	0.000000
223.793945	0.000000
223.886581	0.000000
223.979218	0.000000
224.071869	0.000000
224.164505	0.000000
224.257156	0.000000
224.349792	0.000000
224.442444	0.000000
224.535095	0.000000
224.627747	0.000000
224.720398	0.000000
224.813034	0.000000
224.905685	0.000000
224.998337	145.820000
225.090988	145.240000
225.183640	145.480000
225.276291	145.280000
225.368942	145.880000
225.461594	146.300000
225.554245	146.740000
225.646912	146.640000
225.739578	147.160000
225.832230	147.320000
225.924896	146.460000
226.017548	146.840000
226.110199	147.320000
226.202866	146.600000
226.295532	146.380000
226.388184	146.620000
226.480850	146.140000
226.573517	145.600000
226.666168	146.140000
226.758835	146.360000
226.851501	146.720000
226.944183	146.860000
227.036850	146.480000
227.129517	146.460000
227.222183	146.520000
227.314850	146.600000
227.407516	147.000000
227.500198	148.240000
227.592865	147.840000
227.685532	147.300000
227.778214	147.040000
227.870880	147.020000
227.963562	146.840000
228.056229	147.460000
228.148926	147.640000
228.241592	148.220000
228.334274	147.760000
228.426956	147.460000
228.519638	147.340000
228.612305	147.060000
228.704987	147.020000
228.797668	147.160000
228.890350	146.940000
228.983032	146.240000
229.075714	146.840000
229.168396	146.340000
229.261108	145.840000
229.353790	146.260000
229.446472	146.740000
229.539169	146.500000
229.631851	146.560000
229.724533	147.040000
229.817230	146.740000
229.909912	147.560000
230.002609	147.540000
230.095306	147.320000
230.187988	147.360000
230.280685	147.420000
230.373383	146.280000
230.466095	146.100000
230.558792	146.460000
230.651474	146.440000
230.744171	146.320000
230.836868	146.360000
230.929581	146.680000
231.022278	146.600000
231.114975	146.480000
231.207672	146.060000
231.300369	146.500000
231.393082	146.620000
231.485779	146.480000
231.578506	146.620000
231.671204	146.920000
231.763916	146.780000
231.856613	146.420000
231.949326	146.520000
232.042023	146.600000
232.134735	146.700000
232.227448	146.500000
232.320160	146.980000
232.412872	147.200000
232.505585	147.640000
232.598297	147.880000
232.691010	147.620000
232.783722	147.200000
232.876450	147.420000
232.969162	146.980000
233.061874	146.340000
233.154587	146.220000
233.247314	146.380000
233.340027	145.760000
233.432739	146.160000
233.525467	146.260000
233.618179	146.740000
233.710907	146.540000
233.803635	147.040000
233.896347	146.380000
233.989090	147.320000
234.081818	146.980000
234.174545	147.120000
234.267258	146.400000
234.359985	146.600000
234.452713	145.980000
234.545441	145.860000
234.638168	145.780000
234.730896	146.560000
234.823639	146.640000
234.916367	146.680000
235.009094	147.080000
235.101822	147.000000
235.194580	146.520000
235.287308	146.600000
235.380051	146.600000
235.472778	147.000000
235.565521	147.340000
235.658249	146.940000
235.750992	146.740000
235.843719	146.480000
235.936462	146.260000
236.029205	145.760000
236.121948	145.780000
236.214691	146.080000
236.307449	146.800000
236.400192	146.520000
236.492935	146.340000
236.585678	146.680000
236.678421	146.300000
236.771164	145.980000
236.863907	146.640000
236.956665	146.820000
237.049408	148.380000
237.142151	148.320000
237.234909	148.920000
237.327652	148.760000
237.420410	148.740000
237.513153	147.800000
237.605927	147.840000
237.698669	147.100000
237.791428	146.300000
237.884186	146.780000
237.976944	146.100000
238.069702	146.640000
238.162445	146.260000
238.255203	146.620000
238.347961	146.780000
238.440720	146.880000
238.533478	146.120000
238.626266	146.260000
238.719025	146.400000
238.811783	145.960000
238.904541	146.080000
238.997314	146.100000
239.090073	145.700000
239.182831	146.120000
239.275604	146.900000
239.368362	146.720000
239.461136	147.220000
239.553909	147.460000
239.646667	146.960000
239.739441	146.360000
239.832214	146.660000
239.925003	146.820000
240.017761	147.700000
240.110535	148.200000
240.203308	147.940000
240.296082	148.000000
240.388855	147.560000
240.481628	147.340000
240.574417	147.040000
240.667191	147.060000
240.759964	146.660000
240.852737	146.720000
240.945526	146.180000
241.038315	145.940000
241.131088	146.040000
241.223877	146.300000
241.316650	146.000000
241.409439	146.740000
241.502228	146.580000
241.595001	147.220000
241.687790	146.900000
241.780579	147.040000
241.873367	146.800000
241.966141	147.180000
242.058929	146.440000
242.151718	146.900000
242.244507	147.160000
242.337311	146.280000
242.430099	146.520000
242.522903	146.400000
242.615692	145.720000
242.708481	145.760000
242.801270	146.420000
242.894073	146.140000
242.986862	146.660000
243.079651	147.580000
243.172455	147.220000
243.265244	147.380000
243.358063	146.880000
243.450867	147.000000
243.543655	146.500000
243.636459	146.880000
243.729263	147.180000
243.822067	147.740000
243.914856	147.780000
244.007660	147.960000
244.100464	147.860000
244.193268	147.020000
244.286072	146.560000
244.378876	146.100000
244.471680	145.640000
244.564499	145.800000
244.657318	146.780000
244.750122	147.300000
244.842926	146.920000
244.935745	147.400000
245.028549	147.200000
245.121368	146.520000
245.214172	146.260000
245.306992	147.040000
245.399796	146.740000
245.492615	146.760000
245.585434	146.760000
245.678253	146.880000
245.771072	146.520000
245.863892	146.920000
245.956711	146.940000
246.049530	146.780000
246.142349	146.760000
246.235168	147.020000
246.327988	147.360000
246.420807	147.300000
246.513626	147.640000
246.606445	147.220000
246.699280	146.960000
246.792099	146.420000
246.884918	145.780000
246.977753	145.680000
247.070587	146.140000
247.163422	146.240000
247.256241	146.060000
247.349075	146.960000
247.441895	146.920000
247.534729	146.760000
247.627563	146.380000
247.720383	147.280000
247.813217	146.760000
247.906052	146.640000
247.998886	146.740000
248.091736	146.960000
248.184570	146.340000
248.277405	146.620000
248.370239	147.420000
248.463074	148.180000
248.555908	148.520000
248.648743	148.320000
248.741592	148.100000
248.834427	147.280000
248.927261	146.020000
249.020111	146.260000
249.112946	147.080000
249.205795	146.800000
249.298630	146.840000
249.391495	147.200000
249.484344	146.740000
249.577179	146.220000
249.670029	146.700000
249.762878	147.220000
249.855728	147.260000
249.948563	147.480000
250.041412	147.080000
250.134262	147.160000
250.227112	147.380000
250.319962	147.700000
250.412827	147.800000
250.505692	147.580000
250.598541	147.520000
250.691391	146.420000
250.784241	146.100000
250.877106	145.680000
250.969955	145.780000
251.062805	146.260000
251.155670	147.320000
251.248520	147.120000
251.341385	147.640000
251.434235	147.620000
251.527100	147.560000
251.619965	146.960000
251.712814	148.020000
251.805695	147.540000
251.898560	148.060000
251.991425	147.820000
252.084290	148.180000
252.177155	147.180000
252.270020	147.120000
252.362885	146.740000
252.455750	146.900000
252.548615	146.460000
252.641479	146.720000
252.734360	146.900000
252.827240	146.640000
252.920105	146.400000
253.012970	146.500000
253.105850	146.420000
253.198715	145.960000
253.291595	146.200000
253.384460	145.960000
253.477341	145.680000
253.570221	145.640000
253.663086	145.380000
253.755966	145.940000
253.848846	146.060000
253.941727	146.380000
254.034592	146.180000
254.127472	146.220000
254.220367	146.080000
254.313248	146.280000
254.406128	146.040000
254.499008	146.260000
254.591904	147.220000
254.684784	147.540000
254.777664	147.240000
254.870544	146.900000
254.963440	146.960000
255.056335	146.780000
255.149216	146.200000
255.242111	146.760000
255.334991	147.240000
255.427887	147.440000
255.520767	147.420000
255.613663	147.880000
255.706558	147.160000
255.799438	146.920000
255.892334	146.440000
255.985229	146.500000
256.078125	146.060000
256.171021	146.380000
256.263916	146.980000
256.356812	147.260000
256.449707	147.220000
256.542603	146.900000
256.635498	147.460000
256.728394	147.080000
256.821289	146.880000
256.914215	147.100000
257.007080	147.820000
257.100006	147.540000
257.192932	147.960000
257.285828	148.240000
257.378723	147.780000
257.471619	147.540000
257.564545	147.320000
257.657440	147.240000
257.750336	147.820000
257.843262	147.660000
257.936157	148.320000
258.029053	148.660000
258.121979	148.400000
258.214874	147.680000
258.307800	147.580000
258.400696	146.640000
258.493622	146.500000
258.586517	145.560000
258.679443	146.180000
258.772339	145.940000
258.865265	146.300000
258.958160	145.580000
259.051086	146.780000
259.144012	146.200000
259.236938	147.200000
259.329834	147.380000
259.422791	147.760000
259.515717	147.520000
259.608612	147.420000
259.701538	147.440000
259.794464	146.960000
259.887390	146.840000
259.980316	146.760000
260.073212	146.560000
260.166138	145.720000
260.259064	146.160000
260.351990	146.620000
260.444916	146.300000
260.537842	146.920000
260.630768	147.520000
260.723694	147.240000
260.816620	146.960000
260.909546	147.220000
261.002472	146.740000
261.095398	146.300000
261.188354	146.300000
261.281281	146.060000
261.374207	146.200000
261.467133	147.140000
261.560089	147.340000
261.653015	147.240000
261.745972	147.880000
261.838867	148.240000
261.931824	148.240000
262.024780	147.900000
262.117706	147.960000
262.210663	147.780000
262.303589	147.240000
262.396515	146.600000
262.489471	147.600000
262.582397	147.940000
262.675354	147.560000
262.768280	147.680000
262.861237	147.780000
262.954163	147.360000
263.047119	147.160000
263.140045	147.280000
263.233002	147.480000
263.325958	147.100000
263.418884	146.400000
263.511841	146.080000
263.604797	145.960000
263.697723	145.760000
263.790680	145.920000
263.883636	146.880000
263.976593	146.880000
264.069550	146.940000
264.162476	146.900000
264.255463	146.980000
264.348419	146.340000
264.441376	146.740000
264.534332	146.460000
264.627289	146.500000
264.720245	146.480000
264.813202	146.060000
264.906158	146.180000
264.999115	146.880000
265.092072	146.820000
265.185028	147.640000
265.277985	148.080000
265.370941	147.760000
265.463898	147.640000
265.556854	147.600000
265.649811	146.360000
265.742798	146.420000
265.835754	146.520000
265.928711	146.620000
266.021667	146.580000
266.114655	147.080000
266.207611	147.460000
266.300568	147.000000
266.393585	146.240000
266.486511	146.380000
266.579498	145.920000
266.672485	145.860000
266.765442	145.840000
266.858429	146.380000
266.951385	145.940000
267.044342	146.140000
267.137329	145.800000
267.230316	146.340000
267.323273	146.260000
267.416260	147.060000
267.509216	147.100000
267.602203	147.020000
267.695160	147.340000
267.788147	147.240000
267.881134	146.540000
267.974091	146.680000
268.067078	146.760000
268.160065	146.180000
268.253052	146.160000
268.346008	146.580000
268.438995	146.500000
268.531982	146.680000
268.624969	146.420000
268.717987	146.480000
268.810944	146.360000
268.903961	146.160000
268.996948	145.860000
269.089905	146.680000
269.182892	147.080000
269.275879	147.360000
269.368866	147.380000
269.461853	147.780000
269.554871	147.480000
269.647858	147.240000
269.740845	147.400000
269.833832	147.860000
269.926819	147.460000
270.019806	147.340000
270.112793	147.100000
270.205811	147.060000
270.298798	146.720000
270.391785	147.080000
270.484772	146.700000
270.577789	146.780000
270.670776	146.160000
270.763763	146.020000
270.856750	146.140000
270.949768	146.260000
271.042786	146.220000
271.135773	146.460000
271.228790	146.660000
271.321808	146.140000
271.414795	145.900000
271.507782	145.860000
271.600800	145.740000
271.693817	145.720000
271.786804	146.380000
271.879822	146.740000
271.972809	147.020000
272.065826	147.520000
272.158844	147.340000
272.251831	147.860000
272.344849	147.660000
272.437866	147.020000
272.530853	146.440000
272.623871	146.460000
272.716888	145.020000
272.809906	145.680000
272.902893	145.980000
272.995911	145.880000
273.088928	146.200000
273.181946	146.620000
273.274963	145.840000
273.367981	145.740000
273.460999	146.340000
273.554047	146.700000
273.647003	147.360000
273.740051	147.600000
273.833069	148.180000
273.926086	147.860000
274.019135	147.280000
274.112152	146.640000
274.205170	147.080000
274.298187	146.940000
274.391205	146.800000
274.484222	146.840000
274.577240	147.120000
274.670258	146.760000
274.763306	146.700000
274.856323	147.220000
274.949341	147.460000
275.042358	147.500000
275.135406	147.520000
275.228424	147.500000
275.321442	147.160000
275.414490	146.800000
275.507507	147.220000
275.600525	147.620000
275.693573	147.320000
275.786591	146.960000
275.879669	147.260000
275.972656	146.600000
276.065735	146.600000
276.158752	147.140000
276.251801	148.060000
276.344818	148.000000
276.437866	148.220000
276.530884	147.720000
276.623932	147.320000
276.716980	147.320000
276.809998	147.180000
276.903046	146.940000
276.996094	147.900000
277.089111	148.560000
277.182159	148.780000
277.275208	148.680000
277.368256	149.060000
277.461304	148.380000
277.554321	147.380000
277.647369	147.000000
277.740417	147.080000
277.833466	146.560000
277.926514	146.640000
278.019562	147.440000
278.112610	146.820000
278.205688	147.180000
278.298706	147.440000
278.391785	146.840000
278.484833	146.280000
278.577881	146.120000
278.670929	146.320000
278.763977	146.460000
278.857025	147.060000
278.950073	147.320000
279.043121	147.440000
279.136169	147.160000
279.229248	146.820000
279.322296	146.460000
279.415344	146.080000
279.508392	146.180000
279.601440	145.560000
279.694519	145.540000
279.787567	145.640000
279.880615	145.620000
279.973694	145.520000
280.066742	146.120000
280.159790	146.400000
280.252869	146.480000
280.345917	146.660000
280.438995	146.880000
280.532074	146.640000
280.625122	146.960000
280.718201	147.900000
280.811279	147.920000
280.904327	147.980000
280.997406	148.160000
281.090454	147.780000
281.183533	146.780000
281.276581	146.720000
281.369659	146.360000
281.462738	146.320000
281.555786	146.700000
281.648865	146.860000
281.741943	146.860000
281.835022	147.840000
281.928070	147.780000
282.021149	147.240000
282.114227	147.220000
282.207306	147.080000
282.300385	146.540000
282.393433	146.500000
282.486511	146.900000
282.579590	147.240000
282.672668	147.640000
282.765747	147.520000
282.858856	147.400000
282.951904	147.100000
283.045013	147.100000
283.138062	147.220000
283.231171	147.460000
283.324249	147.920000
283.417328	148.260000
283.510406	147.580000
283.603485	147.380000
283.696564	147.120000
283.789642	146.980000
283.882751	146.660000
283.975830	147.480000
284.068909	147.120000
284.161987	147.960000
284.255066	147.400000
284.348175	147.540000
284.441254	147.240000
284.534332	147.660000
284.627441	146.780000
284.720520	146.640000
284.813599	146.800000
284.906708	146.780000
284.999786	146.380000
285.092896	146.220000
285.185974	147.500000
285.279053	146.880000
285.372192	147.100000
285.465240	147.880000
285.558380	147.920000
285.651459	147.440000
285.744568	148.220000
285.837677	147.420000
285.930756	146.940000
286.023865	147.160000
286.116943	146.700000
286.210052	146.680000
286.303162	147.040000
286.396240	147.000000
286.489349	146.880000
286.582458	147.280000
286.675568	146.980000
286.768646	146.920000
286.861755	147.180000
286.954865	147.640000
287.047974	147.080000
287.141083	146.880000
287.234161	146.520000
287.327271	146.080000
287.420380	146.360000
287.513519	146.360000
287.606598	146.340000
287.699738	146.740000
287.792816	146.620000
287.885956	146.120000
287.979034	146.120000
288.072174	146.200000
288.165283	146.100000
288.258392	146.660000
288.351501	146.160000
288.444611	146.840000
288.537720	147.380000
288.630859	147.660000
288.723969	147.800000
288.817078	148.380000
288.910187	147.680000
289.003296	147.240000
289.096436	146.740000
289.189545	146.240000
289.282654	145.420000
289.375763	146.160000
289.468903	146.420000
289.562012	146.740000
289.655121	146.840000
289.748260	147.360000
289.841400	147.400000
289.934509	147.180000
290.027649	147.280000
290.120728	147.340000
290.213898	147.400000
290.306976	147.080000
290.400146	147.380000
290.493256	146.860000
290.586395	146.960000
290.679535	147.260000
290.772644	147.000000
290.865784	145.960000
290.958893	146.320000
291.052032	145.840000
291.145172	145.660000
291.238281	145.560000
291.331421	146.140000
291.424561	146.240000
291.517670	146.600000
291.610809	147.000000
291.703949	146.820000
291.797089	146.780000
291.890228	146.520000
291.983337	146.300000
292.076477	145.800000
292.169617	146.640000
292.262756	146.800000
292.355927	146.900000
292.449036	146.900000
292.542206	147.260000
292.635315	147.260000
292.728485	147.380000
292.821625	147.120000
292.914764	148.360000
293.007904	147.940000
293.101044	147.540000
293.194183	147.540000
293.287323	148.000000
293.380463	146.900000
293.473602	147.020000
293.566742	147.160000
293.659882	147.280000
293.753021	147.400000
293.846191	147.540000
293.939331	147.160000
294.032471	147.360000
294.125610	147.220000
294.218781	147.260000
294.311920	147.660000
294.405060	148.220000
294.498230	147.860000
294.591370	148.020000
294.684540	147.560000
294.777679	147.140000
294.870850	147.100000
294.963959	147.220000
295.057159	147.020000
295.150299	147.460000
295.243469	147.300000
295.336609	146.780000
295.429779	146.840000
295.522919	146.880000
295.616089	146.860000
295.709229	147.500000
295.802399	147.540000
295.895569	147.200000
295.988708	147.240000
296.081879	147.280000
296.175018	146.660000
296.268188	146.960000
296.361359	147.360000
296.454529	147.480000
296.547668	147.400000
296.640839	147.460000
296.734009	147.180000
296.827179	147.220000
296.920319	147.200000
297.013519	146.740000
297.106659	147.000000
297.199860	147.220000
297.292999	146.880000
297.386200	146.520000
297.479309	146.700000
297.572510	146.360000
297.665680	146.160000
297.758850	146.300000
297.852020	146.040000
297.945190	146.080000
298.038361	145.760000
298.131531	146.660000
298.224701	146.680000
298.317871	146.600000
298.411072	146.040000
298.504242	146.120000
298.597412	145.460000
298.690582	145.780000
298.783752	146.320000
298.876923	147.020000
298.970093	147.340000
299.063293	147.920000
299.156464	148.000000
299.249634	147.980000
299.342834	148.240000
299.436005	148.820000
299.529205	148.320000
299.622345	148.120000
299.715576	147.400000
299.808716	147.100000
299.901917	146.600000
299.995117	146.840000
300.088287	147.060000
300.181488	147.360000
300.274658	147.200000
300.367828	147.200000
300.461029	147.280000
300.554199	147.260000
300.647400	147.460000
300.740601	147.920000
300.833771	147.780000
300.926971	147.880000
301.020142	147.340000
301.113342	147.200000
301.206512	146.860000
301.299713	146.840000
301.392914	146.520000
301.486084	146.900000
301.579285	147.140000
301.672516	147.360000
301.765686	147.200000
301.858887	147.180000
301.952057	146.980000
302.045288	146.820000
302.138458	146.700000
302.231659	146.900000
302.324860	146.820000
302.418060	146.540000
302.511261	146.660000
302.604462	146.700000
302.697662	146.600000
302.790863	146.420000
302.884064	146.520000
302.977264	146.220000
303.070465	146.380000
303.163666	146.920000
303.256866	147.240000
303.350067	147.260000
303.443268	147.320000
303.536469	147.520000
303.629669	147.100000
303.722870	147.440000
303.816071	147.320000
303.909271	147.720000
304.002472	146.900000
304.095673	146.760000
304.188934	145.800000
304.282104	146.620000
304.375336	146.440000
304.468506	146.460000
304.561768	146.320000
304.654968	146.960000
304.748169	146.380000
304.841370	146.080000
304.934601	146.420000
305.027802	146.260000
305.121002	146.040000
305.214233	145.760000
305.307434	145.980000
305.400665	146.300000
305.493866	146.260000
305.587097	146.560000
305.680298	146.640000
305.773499	147.060000
305.866730	146.740000
305.959930	147.700000
306.053162	148.100000
306.146393	147.700000
306.239594	146.940000
306.332825	147.060000
306.426025	147.020000
306.519287	146.120000
306.612488	146.580000
306.705719	146.860000
306.798920	146.840000
306.892181	146.080000
306.985352	146.000000
307.078613	145.580000
307.171844	145.900000
307.265045	145.360000
307.358276	145.060000
307.451508	145.700000
307.544739	146.220000
307.637970	145.700000
307.731201	146.280000
307.824402	147.220000
307.917633	147.140000
308.010864	147.420000
308.104095	147.940000
308.197327	147.860000
308.290558	147.860000
308.383789	147.520000
308.477020	147.160000
308.570251	146.420000
308.663483	145.960000
308.756714	145.760000
308.849976	145.740000
308.943176	146.340000
309.036438	146.500000
309.129639	146.180000
309.222900	145.900000
309.316101	145.740000
309.409393	145.100000
309.502625	145.060000
309.595856	145.520000
309.689087	145.700000
309.782318	145.960000
309.875580	145.920000
309.968811	146.040000
310.062042	145.980000
310.155273	145.540000
310.248535	145.880000
310.341766	146.100000
310.434998	146.060000
310.528259	146.120000
310.621490	147.120000
310.714722	146.560000
310.807983	146.600000
310.901215	146.540000
310.994476	146.700000
311.087708	146.000000
311.181000	146.620000
311.274200	146.200000
311.367462	146.580000
311.460693	146.420000
311.553986	146.920000
311.647186	146.760000
311.740479	147.520000
311.833710	146.960000
311.926971	146.860000
312.020203	145.920000
312.113464	145.580000
312.206726	145.020000
312.299957	145.540000
312.393219	145.900000
312.486481	146.540000
312.579712	146.500000
312.672974	146.500000
312.766235	146.240000
312.859497	146.240000
312.952759	146.040000
313.045990	146.680000
313.139252	146.280000
313.232513	146.580000
313.325775	146.800000
313.419037	146.620000
313.512299	146.080000
313.605530	147.040000
313.698822	147.020000
313.792053	146.680000
313.885345	146.380000
313.978577	146.580000
314.071869	145.900000
314.165131	146.080000
314.258392	146.320000
314.351654	146.860000
314.444916	146.140000
314.538177	146.760000
314.631439	147.020000
314.724701	146.940000
314.817993	146.800000
314.911255	147.160000
315.004517	146.620000
315.097778	146.100000
315.191040	146.620000
315.284302	146.860000
315.377594	146.620000
315.470856	146.580000
315.564117	146.120000
315.657379	145.480000
315.750671	145.160000
315.843933	145.780000
315.937195	145.380000
316.030518	145.440000
316.123749	145.360000
316.217041	146.080000
316.310303	146.100000
316.403595	146.500000
316.496857	146.660000
316.590149	146.860000
316.683411	146.020000
316.776703	145.360000
316.869965	145.740000
316.963257	145.840000
317.056519	145.240000
317.149811	145.240000
317.243073	145.480000
317.336365	145.380000
317.429626	145.880000
317.522919	146.780000
317.616180	147.100000
317.709473	146.940000
317.802765	146.700000
317.896027	146.260000
317.989319	146.040000
318.082611	146.020000
318.175873	146.020000
318.269165	146.140000
318.362488	146.120000
318.455750	146.020000
318.549042	146.520000
318.642303	147.220000
318.735626	147.000000
318.828888	147.240000
318.922211	147.100000
319.015472	147.340000
319.108765	146.460000
319.202057	146.340000
319.295349	146.240000
319.388641	146.360000
319.481934	145.760000
319.575226	146.060000
319.668518	146.120000
319.761810	146.360000
319.855103	146.240000
319.948395	146.340000
320.041687	146.460000
320.134979	146.720000
320.228271	146.440000
320.321564	146.500000
320.414856	146.540000
320.508148	146.200000
320.601440	145.760000
320.694763	145.380000
320.788025	145.720000
320.881348	145.740000
320.974640	146.020000
321.067963	146.120000
321.161224	146.660000
321.254547	145.780000
321.347839	146.280000
321.441162	145.960000
321.534454	146.100000
321.627747	145.780000
321.721069	146.780000
321.814362	146.440000
321.907654	146.620000
322.000946	146.700000
322.094269	147.580000
322.187561	146.940000
322.280884	147.000000
322.374176	147.120000
322.467468	147.640000
322.560791	147.180000
322.654083	147.820000
322.747406	147.560000
322.840698	148.080000
322.934021	148.100000
323.027344	148.220000
323.120636	147.940000
323.213959	147.960000
323.307251	147.420000
323.400574	147.220000
323.493866	146.660000
323.587219	146.900000
323.680511	147.320000
323.773834	147.400000
323.867157	147.220000
323.960449	147.420000
324.053772	146.880000
324.147095	146.500000
324.240387	146.860000
324.333710	146.740000
324.427032	146.860000
324.520355	146.800000
324.613647	146.740000
324.706970	146.560000
324.800293	146.540000
324.893616	146.720000
324.986938	147.040000
325.080231	146.940000
325.173553	146.960000
325.266876	147.580000
325.360199	147.600000
325.453522	147.000000
325.546875	146.780000
325.640167	147.040000
325.733521	147.220000
325.826813	147.340000
325.920166	147.460000
326.013489	147.780000
326.106812	146.920000
326.200134	146.060000
326.293457	145.360000
326.386780	145.440000
326.480103	145.300000
326.573425	145.340000
326.666748	145.300000
326.760071	146.000000
326.853424	146.360000
326.946747	146.300000
327.040070	147.400000
327.133392	147.200000
327.226715	146.360000
327.320068	145.680000
327.413391	146.080000
327.506714	144.920000
327.600037	145.320000
327.693390	145.880000
327.786713	146.300000
327.880066	146.020000
327.973358	146.720000
328.066742	147.160000
328.160034	147.260000
328.253418	147.740000
328.346710	147.440000
328.440063	147.000000
328.533417	146.620000
328.626740	146.780000
328.720093	146.340000
328.813416	146.440000
328.906769	146.460000
329.000092	146.560000
329.093445	146.420000
329.186768	146.260000
329.280121	146.980000
329.373444	147.320000
329.466797	147.060000
329.560120	146.980000
329.653473	147.220000
329.746796	146.620000
329.840149	146.520000
329.933502	146.680000
330.026825	146.320000
330.120178	146.180000
330.213562	145.960000
330.306854	145.800000
330.400238	145.800000
330.493561	145.760000
330.586945	146.360000
330.680237	146.840000
330.773621	146.960000
330.866974	147.140000
330.960327	147.440000
331.053680	146.840000
331.147003	146.780000
331.240356	146.820000
331.333710	147.020000
331.427063	146.660000
331.520416	146.780000
331.613770	146.420000
331.707123	146.580000
331.800476	146.220000
331.893829	147.360000
331.987152	147.420000
332.080505	147.500000
332.173859	147.380000
332.267212	147.080000
332.360565	146.300000
332.453918	146.020000
332.547333	146.240000
332.640656	146.400000
332.734039	146.440000
332.827362	146.320000
332.920746	146.760000
333.014069	146.740000
333.107452	147.000000
333.200806	147.220000
333.294159	147.440000
333.387543	146.800000
333.480896	146.180000
333.574249	145.680000
333.667603	145.360000
333.760956	145.480000
333.854340	145.760000
333.947693	146.340000
334.041046	146.540000
334.134430	147.200000
334.227783	146.760000
334.321136	146.640000
334.414520	146.520000
334.507874	146.280000
334.601227	145.800000
334.694611	146.020000
334.787964	146.140000
334.881348	146.140000
334.974701	146.380000
335.068085	146.200000
335.161438	146.360000
335.254822	146.720000
335.348175	146.720000
335.441559	146.340000
335.534943	147.040000
335.628296	146.760000
335.721680	146.540000
335.815033	146.860000
335.908417	147.440000
336.001770	147.220000
336.095154	147.020000
336.188538	146.460000
336.281891	146.040000
336.375275	145.500000
336.468658	145.460000
336.562012	146.100000
336.655396	146.960000
336.748779	147.140000
336.842133	147.380000
336.935516	147.380000
337.028900	146.740000
337.122284	146.600000
337.215637	146.820000
337.309021	146.620000
337.402435	146.180000
337.495789	146.380000
337.589203	145.980000
337.682526	145.660000
337.775940	145.800000
337.869324	146.120000
337.962708	145.820000
338.056091	146.680000
338.149475	146.440000
338.242859	146.480000
338.336243	146.020000
338.429626	146.300000
338.523010	145.740000
338.616394	145.860000
338.709778	145.980000
338.803162	146.560000
338.896545	146.640000
338.989929	146.360000
339.083313	146.760000
339.176697	146.540000
339.270081	146.380000
339.363464	146.800000
339.456848	147.340000
339.550232	146.740000
339.643616	146.640000
339.737030	146.680000
339.830383	146.100000
339.923828	146.220000
340.017181	146.740000
340.110596	147.000000
340.203949	146.760000
340.297363	146.720000
340.390778	146.280000
340.484161	146.200000
340.577545	145.940000
340.670959	146.380000
340.764343	146.420000
340.857727	146.780000
340.951111	146.180000
341.044525	146.500000
341.137909	146.020000
341.231293	145.960000
341.324707	145.400000
341.418091	146.380000
341.511505	146.440000
341.604889	146.860000
341.698303	147.320000
341.791687	147.400000
341.885071	146.560000
341.978485	146.240000
342.071899	146.180000
342.165283	146.100000
342.258698	146.320000
342.352081	147.140000
342.445496	147.780000
342.538879	147.720000
342.632324	147.440000
342.725708	147.460000
342.819122	146.700000
342.912506	146.100000
343.005920	146.100000
343.099335	146.820000
343.192719	146.480000
343.286133	146.700000
343.379547	146.760000
343.472931	146.600000
343.566345	145.400000
343.659760	145.720000
343.753143	145.460000
343.846558	145.240000
343.939972	145.280000
344.033386	146.500000
344.126770	146.220000
344.220184	146.560000
344.313599	147.220000
344.407043	147.240000
344.500427	146.300000
344.593872	146.820000
344.687225	146.600000
344.780670	146.100000
344.874054	145.780000
344.967499	146.600000
345.060913	146.280000
345.154327	146.600000
345.247742	146.200000
345.341156	146.480000
345.434570	145.980000
345.527985	146.100000
345.621399	145.840000
345.714813	145.960000
345.808228	146.200000
345.901642	145.980000
345.995056	145.480000
346.088470	145.420000
346.181885	145.760000
346.275299	145.240000
346.368713	145.540000
346.462128	145.580000
346.555573	145.900000
346.648987	145.760000
346.742401	145.840000
346.835815	145.940000
346.929260	145.960000
347.022644	145.940000
347.116119	146.280000
347.209503	146.660000
347.302948	147.260000
347.396362	147.920000
347.489807	148.000000
347.583221	148.480000
347.676636	148.200000
347.770050	147.280000
347.863495	146.640000
347.956909	146.520000
348.050323	145.780000
348.143768	145.620000
348.237183	145.540000
348.330597	146.120000
348.424042	146.460000
348.517456	146.680000
348.610901	146.920000
348.704315	147.160000
348.797760	146.380000
348.891174	145.820000
348.984619	145.320000
349.078033	145.740000
349.171448	146.040000
349.264923	146.180000
349.358337	146.220000
349.451782	146.400000
349.545197	145.740000
349.638641	144.980000
349.732086	144.880000
349.825500	145.340000
349.918945	144.960000
350.012390	145.380000
350.105804	146.260000
350.199249	146.440000
350.292664	146.540000
350.386108	146.880000
350.479553	147.260000
350.572968	146.720000
350.666412	146.840000
350.759857	146.600000
350.853302	146.800000
350.946716	146.400000
351.040161	146.500000
351.133606	146.600000
351.227081	146.280000
351.320465	147.100000
351.413940	146.940000
351.507355	147.340000
351.600830	147.420000
351.694244	147.140000
351.787720	146.520000
351.881104	146.480000
351.974579	146.160000
352.067993	146.740000
352.161469	147.160000
352.254883	146.600000
352.348358	146.760000
352.441803	146.660000
352.535248	146.080000
352.628693	146.240000
352.722137	146.260000
352.815582	146.620000
352.909027	146.860000
353.002472	146.540000
353.095917	146.440000
353.189362	147.080000
353.282806	146.660000
353.376251	146.500000
353.469696	146.240000
353.563141	146.660000
353.656586	146.040000
353.750061	145.640000
353.843475	145.260000
353.936981	146.260000
354.030396	145.220000
354.123871	145.460000
354.217285	146.280000
354.310760	146.960000
354.404175	146.300000
354.497681	146.400000
354.591095	146.460000
354.684570	145.320000
354.777985	144.640000
354.871490	144.800000
354.964935	145.460000
355.058380	145.620000
355.151855	145.980000
355.245300	146.800000
355.338745	146.920000
355.432220	146.700000
355.525665	146.380000
355.619110	146.900000
355.712585	146.400000
355.806030	146.200000
355.899475	145.920000
355.992950	146.280000
356.086426	146.640000
356.179871	146.800000
356.273346	147.020000
356.366791	147.260000
356.460266	147.280000
356.553711	146.700000
356.647186	146.880000
356.740631	146.500000
356.834106	146.520000
356.927551	146.520000
357.021027	146.500000
357.114471	146.360000
357.207947	146.600000
357.301422	146.720000
357.394867	146.720000
357.488342	147.000000
357.581818	146.900000
357.675262	147.200000
357.768738	146.980000
357.862213	146.240000
357.955658	146.280000
358.049133	146.080000
358.142609	146.060000
358.236053	145.900000
358.329529	146.460000
358.423035	146.500000
358.516449	146.200000
358.609955	146.380000
358.703400	147.100000
358.796906	147.140000
358.890350	146.620000
358.983826	147.180000
359.077271	146.080000
359.170776	145.820000
359.264221	145.480000
359.357727	145.940000
359.451172	145.980000
359.544647	146.580000
359.638123	146.420000
359.731598	146.880000
359.825073	147.120000
359.918549	147.000000
360.012024	147.240000
360.105499	146.800000
360.198975	146.740000
360.292450	146.340000
360.385925	146.360000
360.479401	145.680000
360.572876	146.400000
360.666351	146.500000
360.759857	146.400000
360.853302	146.360000
360.946808	146.260000
361.040253	146.000000
361.133759	145.700000
361.227203	146.100000
361.320709	145.880000
361.414154	146.400000
361.507660	146.540000
361.601105	146.940000
361.694641	147.100000
361.788086	147.280000
361.881592	147.820000
361.975067	147.240000
362.068542	147.460000
362.162018	147.120000
362.255524	146.620000
362.348999	146.460000
362.442474	146.960000
362.535950	146.500000
362.629456	146.320000
362.722931	146.760000
362.816406	146.600000
362.909882	146.740000
363.003387	146.380000
363.096863	146.960000
363.190338	146.920000
363.283875	146.740000
363.377319	146.600000
363.470825	147.160000
363.564301	146.180000
363.657806	146.340000
363.751282	146.140000
363.844788	147.040000
363.938232	146.620000
364.031769	147.880000
364.125214	147.940000
364.218750	148.440000
364.312225	147.320000
364.405731	147.340000
364.499207	146.180000
364.592712	145.680000
364.686188	145.660000
364.779694	146.140000
364.873169	146.400000
364.966675	146.760000
365.060150	147.000000
365.153656	147.300000
365.247131	146.880000
365.340637	147.200000
365.434143	147.580000
365.527618	147.780000
365.621155	146.900000
365.714600	146.960000
365.808136	146.800000
365.901611	145.860000
365.995117	145.500000
366.088593	145.720000
366.182129	145.580000
366.275604	145.320000
366.369110	145.540000
366.462585	145.600000
366.556122	146.300000
366.649567	146.600000
366.743103	146.560000
366.836609	146.620000
366.930115	146.640000
367.023590	146.020000
367.117096	145.720000
367.210602	145.600000
367.304108	146.300000
367.397614	146.960000
367.491119	147.180000
367.584595	147.760000
367.678101	147.980000
367.771606	147.460000
367.865112	146.980000
367.958649	146.740000
368.052124	146.360000
368.145660	146.420000
368.239136	146.940000
368.332672	146.780000
368.426147	146.820000
368.519684	146.580000
368.613159	146.700000
368.706696	146.060000
368.800171	146.220000
368.893707	146.480000
368.987183	146.780000
369.080719	146.740000
369.174225	146.700000
369.267731	146.840000
369.361237	146.520000
369.454742	146.280000
369.548248	146.660000
369.641754	146.700000
369.735260	146.460000
369.828766	145.980000
369.922272	146.740000
370.015808	146.100000
370.109314	145.820000
370.202820	145.880000
370.296356	147.060000
370.389832	146.440000
370.483368	146.140000
370.576874	146.620000
370.670410	146.620000
370.763885	145.660000
370.857422	145.460000
370.950928	145.420000
371.044464	145.960000
371.137939	145.920000
371.231476	146.360000
371.324982	147.260000
371.418518	147.540000
371.512024	147.200000
371.605560	146.920000
371.699066	147.120000
371.792572	146.400000
371.886108	146.860000
371.979614	146.520000
372.073120	147.420000
372.166656	147.160000
372.260162	147.400000
372.353668	147.020000
372.447205	146.900000
372.540710	146.460000
372.634277	146.200000
372.727753	146.280000
372.821320	146.120000
372.914795	146.240000
373.008362	146.000000
373.101837	146.120000
373.195404	145.620000
373.288879	145.940000
373.382446	146.520000
373.475922	146.460000
373.569489	146.960000
373.662964	147.660000
373.756531	147.620000
373.850037	147.400000
373.943573	147.440000
374.037109	146.620000
374.130615	146.500000
374.224152	146.500000
374.317657	146.320000
374.411194	147.120000
374.504730	147.340000
374.598236	146.980000
374.691772	146.640000
374.785309	146.700000
374.878815	145.600000
374.972351	146.120000
375.065887	145.940000
375.159454	146.740000
375.252930	146.620000
375.346497	147.240000
375.440002	147.360000
375.533569	147.520000
375.627045	146.720000
375.720612	146.840000
375.814117	146.980000
375.907684	146.500000
376.001160	146.160000
376.094727	146.180000
376.188232	146.580000
376.281799	146.480000
376.375336	146.620000
376.468872	147.380000
376.562408	147.240000
376.655914	146.920000
376.749451	146.760000
376.842987	147.040000
376.936523	146.800000
377.030060	147.260000
377.123596	147.460000
377.217133	147.080000
377.310669	146.840000
377.404205	146.840000
377.497772	147.280000
377.591278	146.680000
377.684845	147.460000
377.778351	147.520000
377.871918	147.240000
377.965424	146.180000
378.058990	146.360000
378.152496	146.160000
378.246063	146.280000
378.339569	146.600000
378.433136	146.900000
378.526642	146.920000
378.620209	146.440000
378.713745	146.060000
378.807312	146.420000
378.900848	146.580000
378.994385	146.580000
379.087921	146.120000
379.181458	146.440000
379.274994	145.620000
379.368530	145.380000
379.462097	145.760000
379.555634	146.680000
379.649170	145.900000
379.742706	146.140000
379.836273	146.500000
379.929810	146.160000
380.023376	145.580000
380.116882	146.040000
380.210449	145.900000
380.303986	145.540000
380.397552	144.900000
380.491058	145.300000
380.584656	145.160000
380.678162	145.500000
380.771729	145.820000
380.865265	147.060000
380.958832	147.220000
381.052368	147.360000
381.145935	147.580000
381.239471	147.700000
381.333008	147.220000
381.426575	147.100000
381.520111	147.240000
381.613647	147.340000
381.707214	146.780000
381.800751	146.220000
381.894318	146.120000
381.987854	145.940000
382.081421	145.800000
382.174988	146.240000
382.268524	146.360000
382.362091	146.480000
382.455627	147.040000
382.549194	146.620000
382.642731	146.000000
382.736298	146.000000
382.829834	145.640000
382.923401	146.060000
383.016937	146.100000
383.110504	146.800000
383.204041	147.140000
383.297607	147.640000
383.391174	146.560000
383.484741	147.560000
383.578278	147.080000
383.671844	146.720000
383.765411	145.940000
383.858948	146.280000
383.952515	145.540000
384.046051	146.140000
384.139618	146.660000
384.233185	147.320000
384.326721	147.620000
384.420288	148.100000
384.513855	147.900000
384.607422	147.700000
384.700989	147.800000
384.794525	147.440000
384.888123	147.120000
384.981659	147.360000
385.075226	147.340000
385.168762	147.000000
385.262360	147.040000
385.355896	146.180000
385.449463	145.740000
385.542999	145.600000
385.636597	146.320000
385.730164	146.360000
385.823730	146.720000
385.917267	146.680000
386.010834	146.760000
386.104401	146.300000
386.197968	146.260000
386.291534	146.300000
386.385101	146.400000
386.478668	146.880000
386.572235	146.860000
386.665802	146.540000
386.759338	146.360000
386.852905	146.140000
386.946472	145.440000
387.040070	145.460000
387.133606	145.760000
387.227203	145.860000
387.320740	146.100000
387.414337	145.920000
387.507874	146.000000
387.601471	145.860000
387.695007	145.700000
387.788605	145.560000
387.882141	146.160000
387.975739	146.120000
388.069275	145.960000
388.162872	146.420000
388.256439	146.260000
388.350037	146.080000
388.443604	145.800000
388.537170	145.960000
388.630737	146.040000
388.724304	146.320000
388.817871	146.360000
388.911438	146.620000
389.005005	146.820000
389.098602	147.140000
389.192169	146.880000
389.285736	147.440000
389.379333	147.220000
389.472870	146.760000
389.566467	146.500000
389.660034	146.760000
389.753632	145.820000
389.847168	146.140000
389.940765	146.320000
390.034332	146.540000
390.127930	146.120000
390.221466	146.200000
390.315063	145.640000
390.408630	145.240000
390.502228	144.540000
390.595795	144.940000
390.689362	144.980000
390.782959	145.500000
390.876526	146.280000
390.970093	146.200000
391.063690	146.340000
391.157257	146.640000
391.250824	146.720000
391.344421	146.240000
391.437988	146.820000
391.531555	147.080000
391.625153	147.060000
391.718750	147.280000
391.812317	147.200000
391.905914	146.840000
391.999481	147.040000
392.093079	147.160000
392.186615	147.400000
392.280243	147.600000
392.373779	147.840000
392.467407	147.880000
392.560944	147.840000
392.654572	147.080000
392.748108	146.980000
392.841736	146.860000
392.935303	146.160000
393.028900	145.980000
393.122467	146.260000
393.216064	146.260000
393.309631	145.940000
393.403229	145.700000
393.496796	145.680000
393.590393	144.980000
393.683990	145.220000
393.777557	145.480000
393.871155	145.580000
393.964722	146.020000
394.058350	146.380000
394.151917	146.300000
394.245514	146.020000
394.339081	146.660000
394.432678	146.480000
394.526245	146.620000
394.619873	146.000000
394.713409	146.300000
394.807037	145.900000
394.900604	145.880000
394.994202	145.920000
395.087769	146.400000
395.181396	146.000000
395.274994	146.740000
395.368561	146.140000
395.462158	146.280000
395.555756	146.200000
395.649353	146.780000
395.742920	146.040000
395.836517	146.820000
395.930115	146.100000
396.023712	146.540000
396.117279	146.640000
396.210876	146.420000
396.304474	146.020000
396.398071	146.480000
396.491669	146.600000
396.585266	146.240000
396.678833	146.320000
396.772461	146.840000
396.866028	147.020000
396.959656	147.300000
397.053223	148.260000
397.146851	148.500000
397.240417	149.220000
397.334015	150.720000
397.427582	151.720000
397.521210	153.160000
397.614807	156.280000
397.708405	159.220000
397.802002	163.140000
397.895599	169.260000
397.989197	176.320000
398.082794	185.000000
398.176392	196.280000
398.269989	208.720000
398.363586	223.280000
398.457184	240.920000
398.550781	261.100000
398.644379	281.660000
398.737976	304.160000
398.831573	326.560000
398.925201	347.560000
399.018768	367.600000
399.112396	386.560000
399.205963	405.140000
399.299591	423.520000
399.393158	442.360000
399.486786	460.360000
399.580353	477.360000
399.673981	490.400000
399.767578	500.680000
399.861206	506.720000
399.954773	508.280000
400.048401	504.340000
400.141998	497.240000
400.235596	487.160000
400.329193	473.320000
400.422791	457.440000
400.516418	441.600000
400.610016	425.520000
400.703613	409.080000
400.797211	391.740000
400.890808	374.700000
400.984436	357.440000
401.078033	338.640000
401.171631	318.800000
401.265259	299.660000
401.358826	280.020000
401.452484	260.740000
401.546051	243.540000
401.639679	226.760000
401.733246	212.680000
401.826904	199.860000
401.920471	188.760000
402.014099	179.620000
402.107697	172.020000
402.201324	165.440000
402.294891	160.880000
402.388550	157.320000
402.482147	154.300000
402.575745	152.120000
402.669373	150.220000
402.762970	149.020000
402.856567	148.700000
402.950195	148.420000
403.043793	148.220000
403.137390	148.660000
403.231018	147.740000
403.324615	148.020000
403.418243	147.460000
403.511841	147.600000
403.605469	147.500000
403.699066	148.040000
403.792694	147.400000
403.886292	147.500000
403.979919	147.200000
404.073517	146.760000
404.167145	146.900000
404.260712	146.840000
404.354370	146.760000
404.447937	147.100000
404.541595	147.380000
404.635162	147.480000
404.728821	147.900000
404.822418	147.600000
404.916046	147.060000
405.009644	147.080000
405.103271	147.140000
405.196899	146.480000
405.290497	146.980000
405.384125	147.500000
405.477722	146.980000
405.571350	146.520000
405.664948	146.780000
405.758575	146.360000
405.852203	145.400000
405.945801	145.500000
406.039429	145.480000
406.133057	145.200000
406.226654	145.100000
406.320312	145.500000
406.413879	145.800000
406.507538	146.220000
406.601135	145.920000
406.694763	146.460000
406.788361	146.320000
406.882019	145.940000
406.975586	146.020000
407.069244	146.800000
407.162872	146.540000
407.256470	146.480000
407.350098	146.740000
407.443726	146.280000
407.537323	145.640000
407.630951	146.120000
407.724579	146.160000
407.818207	146.680000
407.911804	146.420000
408.005432	146.640000
408.099060	146.740000
408.192688	147.540000
408.286285	147.140000
408.379913	147.300000
408.473572	147.320000
408.567169	146.280000
408.660828	145.820000
408.754395	145.680000
408.848053	145.560000
408.941650	145.740000
409.035309	145.780000
409.128906	145.720000
409.222565	145.660000
409.316132	145.840000
409.409790	145.720000
409.503387	145.840000
409.597046	146.100000
409.690674	146.140000
409.784302	146.040000
409.877930	145.840000
409.971558	146.240000
410.065186	145.980000
410.158783	146.120000
410.252411	146.320000
410.346039	146.660000
410.439667	146.620000
410.533295	146.800000
410.626923	146.960000
410.720551	146.440000
410.814209	146.740000
410.907806	146.600000
411.001465	146.340000
411.095062	146.160000
411.188721	146.780000
411.282318	146.180000
411.375977	146.060000
411.469574	146.300000
411.563232	146.020000
411.656830	145.860000
411.750488	146.040000
411.844086	145.900000
411.937744	145.840000
412.031372	145.800000
412.125000	145.860000
412.218628	145.800000
412.312256	146.700000
412.405884	146.960000
412.499512	146.900000
412.593170	147.060000
412.686798	146.960000
412.780426	146.140000
412.874054	146.340000
412.967682	146.460000
413.061310	146.960000
413.154968	147.220000
413.248566	147.520000
413.342224	146.900000
413.435852	147.200000
413.529510	146.480000
413.623108	146.020000
413.716766	145.880000
413.810364	146.300000
413.904022	145.980000
413.997650	145.740000
414.091309	146.480000
414.184906	146.700000
414.278564	146.220000
414.372192	146.620000
414.465851	147.020000
414.559479	146.680000
414.653107	146.960000
414.746735	146.980000
414.840393	146.780000
414.934021	146.940000
415.027649	146.640000
415.121277	146.640000
415.214935	146.920000
415.308563	146.920000
415.402191	146.260000
415.495850	146.300000
415.589478	145.620000
415.683136	145.420000
415.776733	145.500000
415.870422	146.380000
415.964020	146.160000
416.057678	146.220000
416.151306	146.220000
416.244965	146.120000
416.338562	145.940000
416.432251	146.760000
416.525848	147.720000
416.619507	148.140000
416.713165	148.560000
416.806793	148.400000
416.900421	148.000000
416.994080	147.060000
417.087708	146.920000
417.181366	146.280000
417.274994	146.380000
417.368622	147.040000
417.462280	147.880000
417.555908	147.500000
417.649567	147.380000
417.743195	147.060000
417.836853	146.380000
417.930481	146.400000
418.024170	146.700000
418.117767	147.520000
418.211426	148.140000
418.305054	148.480000
418.398712	147.480000
418.492340	147.280000
418.585999	147.420000
418.679626	147.200000
418.773285	147.060000
418.866913	147.880000
418.960571	148.360000
419.054230	148.040000
419.147858	147.800000
419.241516	148.060000
419.335144	147.700000
419.428802	147.440000
419.522461	146.980000
419.616089	146.620000
419.709747	146.620000
419.803375	146.620000
419.897034	146.460000
419.990662	146.520000
420.084320	147.120000
420.177979	147.100000
420.271606	147.220000
420.365295	147.520000
420.458893	147.820000
420.552582	147.600000
420.646210	147.440000
420.739868	147.180000
420.833496	146.940000
420.927155	146.400000
421.020782	146.500000
421.114471	145.880000
421.208069	146.100000
421.301758	146.080000
421.395386	146.580000
421.489044	146.260000
421.582703	146.380000
421.676361	146.540000
421.769989	146.420000
421.863647	146.540000
421.957306	146.520000
422.050934	146.800000
422.144592	146.440000
422.238251	146.160000
422.331909	145.760000
422.425537	146.020000
422.519196	146.060000
422.612854	145.880000
422.706543	145.940000
422.800140	146.100000
422.893829	145.660000
422.987457	145.360000
423.081146	145.460000
423.174744	146.340000
423.268433	146.100000
423.362061	146.260000
423.455750	146.160000
423.549347	146.440000
423.643036	145.580000
423.736664	146.100000
423.830353	146.120000
423.924011	146.900000
424.017639	146.260000
424.111298	146.320000
424.204956	146.040000
424.298615	145.920000
424.392273	145.540000
424.485931	145.760000
424.579559	145.980000
424.673218	146.000000
424.766876	146.060000
424.860535	145.360000
424.954193	145.420000
425.047882	145.760000
425.141510	145.800000
425.235199	146.080000
425.328796	146.200000
425.422485	146.060000
425.516113	145.240000
425.609802	145.300000
425.703430	145.260000
425.797119	145.540000
425.890747	145.720000
425.984436	145.980000
426.078064	145.940000
426.171753	145.980000
426.265411	145.980000
426.359070	145.940000
426.452728	146.060000
426.546356	145.820000
426.640015	145.440000
426.733673	145.360000
426.827332	145.640000
426.920990	146.540000
427.014648	146.300000
427.108307	146.720000
427.201965	147.100000
427.295624	147.000000
427.389282	145.980000
427.482941	146.460000
427.576630	146.200000
427.670258	145.780000
427.763947	145.800000
427.857574	146.040000
427.951263	146.020000
428.044922	145.800000
428.138611	146.180000
428.232239	146.560000
428.325928	146.740000
428.419556	147.080000
428.513245	147.080000
428.606903	146.860000
428.700562	146.140000
428.794220	145.500000
428.887878	144.620000
428.981537	145.100000
429.075195	145.040000
429.168854	145.560000
429.262512	145.800000
429.356201	146.460000
429.449860	146.380000
429.543518	146.500000
429.637177	146.620000
429.730835	146.580000
429.824493	146.340000
429.918182	146.180000
430.011810	145.920000
430.105530	145.380000
430.199158	145.700000
430.292847	145.700000
430.386475	145.680000
430.480164	145.380000
430.573792	145.180000
430.667511	144.980000
430.761139	144.940000
430.854828	145.340000
430.948456	145.760000
431.042145	146.300000
431.135834	146.080000
431.229492	146.100000
431.323151	145.920000
431.416809	145.940000
431.510468	145.620000
431.604156	145.720000
431.697815	145.720000
431.791473	145.600000
431.885132	145.360000
431.978821	145.920000
432.072479	146.320000
432.166138	146.820000
432.259827	146.800000
432.353485	147.300000
432.447174	147.060000
432.540802	146.680000
432.634491	146.500000
432.728149	146.620000
432.821838	146.740000
432.915466	146.260000
433.009186	146.300000
433.102814	145.880000
433.196503	145.740000
433.290131	145.540000
433.383850	146.300000
433.477509	146.400000
433.571167	146.960000
433.664856	147.160000
433.758514	147.440000
433.852173	147.180000
433.945862	146.940000
434.039520	147.000000
434.133179	146.720000
434.226868	146.160000
434.320526	145.600000
434.414185	146.360000
434.507874	145.540000
434.601562	145.820000
434.695221	146.080000
434.788910	146.860000
434.882538	146.600000
434.976257	146.720000
435.069885	146.560000
435.163574	146.600000
435.257233	146.120000
435.350922	146.180000
435.444580	146.040000
435.538269	145.720000
435.631897	146.160000
435.725616	146.760000
435.819275	147.060000
435.912964	147.560000
436.006622	148.140000
436.100311	147.640000
436.193970	146.720000
436.287628	146.240000
436.381317	146.080000
436.474976	145.860000
436.568665	145.600000
436.662323	145.760000
436.756012	145.560000
436.849670	145.360000
436.943390	144.900000
437.037018	145.020000
437.130737	145.180000
437.224365	145.020000
437.318085	145.480000
437.411713	145.940000
437.505432	146.180000
437.599060	146.720000
437.692780	147.360000
437.786407	146.940000
437.880127	146.580000
437.973755	146.280000
438.067474	145.640000
438.161133	145.400000
438.254822	145.960000
438.348480	145.980000
438.442169	146.960000
438.535828	147.440000
438.629517	147.080000
438.723175	146.360000
438.816864	147.120000
438.910553	146.280000
439.004211	146.000000
439.097900	146.100000
439.191559	146.320000
439.285248	145.320000
439.378906	145.640000
439.472626	145.440000
439.566284	145.280000
439.659973	145.420000
439.753632	145.720000
439.847321	145.900000
439.940979	146.000000
440.034698	146.320000
440.128326	145.820000
440.222046	145.740000
440.315674	145.020000
440.409393	144.960000
440.503082	144.720000
440.596741	145.400000
440.690430	145.840000
440.784088	145.660000
440.877777	145.340000
440.971466	145.600000
441.065125	145.140000
441.158813	144.820000
441.252502	145.320000
441.346161	145.620000
441.439850	145.780000
441.533539	145.620000
441.627197	145.660000
441.720886	145.440000
441.814606	145.740000
441.908234	145.900000
442.001953	146.180000
442.095612	146.280000
442.189301	146.380000
442.282959	146.220000
442.376678	145.420000
442.470306	146.220000
442.564026	146.000000
442.657684	145.920000
442.751404	146.100000
442.845032	146.960000
442.938751	145.980000
443.032440	146.280000
443.126099	145.960000
443.219788	146.440000
443.313477	146.180000
443.407166	146.720000
443.500824	146.780000
443.594513	147.420000
443.688202	146.680000
443.781891	146.200000
443.875549	145.840000
443.969238	145.740000
444.062927	145.660000
444.156647	145.780000
444.250275	146.520000
444.343994	146.760000
444.437653	146.580000
444.531372	146.520000
444.625031	146.420000
444.718719	145.760000
444.812378	145.660000
444.906097	145.720000
444.999756	145.500000
445.093445	145.720000
445.187103	146.180000
445.280823	146.600000
445.374512	146.340000
445.468201	146.320000
445.561859	146.140000
445.655548	146.140000
445.749237	145.580000
445.842926	145.700000
445.936615	146.260000
446.030304	145.920000
446.123962	145.940000
446.217651	145.860000
446.311340	146.060000
446.405029	145.340000
446.498749	145.340000
446.592407	144.880000
446.686096	145.060000
446.779755	145.280000
446.873474	145.620000
446.967133	145.980000
447.060852	145.800000
447.154510	145.660000
447.248230	145.220000
447.341858	145.120000
447.435577	144.440000
447.529236	144.580000
447.622955	144.920000
447.716644	145.180000
447.810333	145.520000
447.904022	146.520000
447.997711	146.580000
448.091400	146.360000
448.185059	146.460000
448.278748	146.520000
448.372437	146.220000
448.466125	146.300000
448.559814	146.480000
448.653503	146.700000
448.747192	146.640000
448.840912	146.860000
448.934570	146.880000
449.028290	146.920000
449.121948	146.520000
449.215637	146.240000
449.309296	145.360000
449.403015	145.620000
449.496674	145.640000
449.590393	145.720000
449.684052	145.620000
449.777771	146.800000
449.871429	146.100000
449.965149	145.960000
450.058838	146.180000
450.152527	146.720000
450.246216	146.420000
450.339905	146.840000
450.433594	146.480000
450.527283	146.940000
450.620972	146.880000
450.714661	146.620000
450.808350	146.800000
450.902039	147.240000
450.995728	146.740000
451.089417	146.260000
451.183105	146.280000
451.276794	146.580000
451.370514	146.060000
451.464172	145.240000
451.557892	145.360000
451.651550	145.640000
451.745270	145.100000
451.838928	145.000000
451.932648	145.680000
452.026306	146.120000
452.120026	145.620000
452.213684	145.960000
452.307404	146.200000
452.401062	146.400000
452.494781	146.000000
452.588470	146.360000
452.682159	146.000000
452.775848	145.920000
452.869537	145.240000
452.963226	145.020000
453.056915	144.840000
453.150604	145.020000
453.244293	145.320000
453.337982	145.900000
453.431671	146.280000
453.525360	146.640000
453.619049	146.840000
453.712769	146.660000
453.806427	146.700000
453.900146	146.320000
453.993805	146.320000
454.087555	146.540000
454.181213	146.860000
454.274933	146.400000
454.368591	146.560000
454.462311	146.080000
454.555969	145.540000
454.649689	146.060000
454.743347	145.780000
454.837067	146.360000
454.930756	146.720000
455.024445	147.060000
455.118134	146.460000
455.211853	146.820000
455.305542	146.260000
455.399231	146.040000
455.492920	145.880000
455.586609	146.040000
455.680298	146.420000
455.773987	146.000000
455.867676	146.160000
455.961365	146.420000
456.055084	146.080000
456.148773	145.800000
456.242493	146.380000
456.336151	146.360000
456.429871	146.340000
456.523529	146.720000
456.617249	146.520000
456.710907	146.800000
456.804626	146.620000
456.898315	145.920000
456.992035	146.060000
457.085693	146.200000
457.179413	145.440000
457.273102	146.320000
457.366791	146.480000
457.460480	146.380000
457.554199	146.840000
457.647888	147.140000
457.741577	146.740000
457.835266	146.980000
457.928955	147.000000
458.022644	147.140000
458.116364	147.400000
458.210052	147.040000
458.303741	147.120000
458.397461	146.660000
458.491119	145.780000
458.584839	145.760000
458.678528	145.540000
458.772247	145.300000
458.865906	145.400000
458.959625	146.380000
459.053284	146.440000
459.147003	146.520000
459.240692	147.200000
459.334412	147.360000
459.428070	146.960000
459.521790	146.660000
459.615479	146.680000
459.709198	146.660000
459.802887	146.480000
459.896576	146.220000
459.990265	146.100000
460.083954	146.420000
460.177673	145.960000
460.271362	145.760000
460.365051	145.660000
460.458740	145.640000
460.552429	145.400000
460.646149	145.320000
460.739838	145.200000
460.833527	145.520000
460.927246	145.540000
461.020905	145.240000
461.114655	145.480000
461.208313	146.060000
461.302032	145.640000
461.395691	145.780000
461.489441	146.100000
461.583099	145.920000
461.676819	145.420000
461.770477	145.860000
461.864197	145.500000
461.957916	145.620000
462.051605	145.200000
462.145294	146.420000
462.238983	146.180000
462.332703	146.820000
462.426392	146.920000
462.520081	147.200000
462.613770	146.100000
462.707489	146.280000
462.801178	146.100000
462.894867	146.160000
462.988556	146.160000
463.082275	146.440000
463.175964	146.060000
463.269684	146.400000
463.363342	146.460000
463.457092	145.900000
463.550751	146.080000
463.644470	146.320000
463.738129	145.740000
463.831879	145.420000
463.925537	146.440000
464.019257	146.440000
464.112946	146.320000
464.206665	146.580000
464.300323	146.440000
464.394043	146.140000
464.487762	145.980000
464.581451	146.480000
464.675140	146.240000
464.768829	146.780000
464.862549	146.760000
464.956238	146.860000
465.049927	146.540000
465.143646	147.000000
465.237335	146.480000
465.331024	146.740000
465.424713	146.560000
465.518433	146.640000
465.612152	146.280000
465.705811	146.140000
465.799561	145.860000
465.893219	145.660000
465.986938	145.320000
466.080597	145.080000
466.174347	145.580000
466.268005	145.800000
466.361725	145.760000
466.455414	145.880000
466.549133	146.000000
466.642792	145.980000
466.736542	145.300000
466.830231	145.360000
466.923920	145.400000
467.017609	145.240000
467.111328	144.860000
467.205017	145.400000
467.298706	145.600000
467.392426	145.720000
467.486115	146.360000
467.579803	146.080000
467.673523	146.160000
467.767212	146.560000
467.860901	146.460000
467.954651	146.000000
468.048309	146.400000
468.142029	146.360000
468.235718	146.460000
468.329437	146.260000
468.423096	146.320000
468.516846	146.180000
468.610504	145.980000
468.704224	145.180000
468.797913	145.320000
468.891632	145.360000
468.985291	145.580000
469.079010	145.400000
469.172729	145.020000
469.266418	145.440000
469.360107	145.280000
469.453827	145.180000
469.547516	145.460000
469.641205	146.200000
469.734924	146.240000
469.828613	146.820000
469.922302	147.140000
470.016022	147.000000
470.109711	146.940000
470.203430	146.320000
470.297150	145.720000
470.390808	145.480000
470.484558	145.400000
470.578217	145.700000
470.671936	146.260000
470.765625	147.080000
470.859344	146.940000
470.953003	147.320000
471.046753	146.980000
471.140411	146.560000
471.234131	146.340000
471.327820	147.140000
471.421539	146.920000
471.515228	146.600000
471.608948	146.940000
471.702637	146.200000
471.796326	145.460000
471.890045	145.840000
471.983734	146.180000
472.077423	145.780000
472.171143	145.960000
472.264832	146.000000
472.358521	145.540000
472.452240	145.320000
472.545929	145.920000
472.639648	146.320000
472.733337	146.640000
472.827057	146.820000
472.920746	146.960000
473.014465	146.900000
473.108124	146.900000
473.201874	146.440000
473.295532	146.180000
473.389252	146.820000
473.482941	146.720000
473.576660	146.160000
473.670319	146.340000
473.764069	146.800000
473.857727	146.440000
473.951477	146.500000
474.045166	147.160000
474.138855	147.020000
474.232574	146.720000
474.326263	146.700000
474.419952	146.800000
474.513672	146.860000
474.607361	146.920000
474.701050	147.040000
474.794769	147.160000
474.888458	147.000000
474.982178	146.760000
475.075867	146.680000
475.169586	146.880000
475.263275	146.880000
475.356995	146.920000
475.450653	146.740000
475.544403	146.520000
475.638062	146.800000
475.731812	146.300000
475.825470	145.920000
475.919189	146.140000
476.012878	146.620000
476.106598	146.100000
476.200256	146.460000
476.294006	146.860000
476.387695	146.680000
476.481384	146.320000
476.575104	146.200000
476.668793	145.860000
476.762512	145.240000
476.856201	145.680000
476.949890	145.500000
477.043610	145.040000
477.137299	145.160000
477.230988	145.760000
477.324707	145.080000
477.418396	145.640000
477.512146	146.280000
477.605804	146.260000
477.699524	146.300000
477.793213	146.420000
477.886932	146.080000
477.980591	145.500000
478.074341	145.140000
478.167999	144.460000
478.261749	144.820000
478.355408	144.740000
478.449127	145.180000
478.542816	146.280000
478.636536	146.960000
478.730225	146.940000
478.823944	147.280000
478.917633	147.280000
479.011322	146.980000
479.105042	146.700000
479.198730	146.800000
479.292450	146.660000
479.386139	146.940000
479.479828	146.980000
479.573547	147.140000
479.667267	146.960000
479.760925	146.880000
479.854675	147.200000
479.948334	146.940000
480.042084	146.640000
480.135742	146.860000
480.229462	146.720000
480.323151	146.280000
480.416870	145.680000
480.510529	145.800000
480.604279	145.200000
480.697937	145.600000
480.791656	145.240000
480.885345	145.320000
480.979065	145.660000
481.072754	146.320000
481.166473	146.700000
481.260132	146.940000
481.353882	147.300000
481.447540	147.180000
481.541260	147.040000
481.635010	146.180000
481.728668	146.000000
481.822388	145.640000
481.916077	145.740000
482.009796	145.740000
482.103485	146.240000
482.197205	146.360000
482.290863	146.820000
482.384613	146.260000
482.478271	145.860000
482.571991	145.700000
482.665680	145.720000
482.759399	146.380000
482.853058	147.060000
482.946808	147.220000
483.040466	147.020000
483.134216	146.920000
483.227875	146.000000
483.321594	146.180000
483.415283	146.440000
483.509003	146.400000
483.602661	146.160000
483.696411	146.840000
483.790070	146.380000
483.883789	145.940000
483.977478	146.460000
484.071198	146.600000
484.164917	145.800000
484.258606	145.380000
484.352325	146.020000
484.445984	145.780000
484.539734	146.220000
484.633392	146.100000
484.727142	146.640000
484.820801	146.240000
484.914520	146.220000
485.008209	146.200000
485.101929	146.720000
485.195587	146.260000
485.289337	146.040000
485.382996	145.960000
485.476715	145.720000
485.570404	146.000000
485.664124	146.080000
485.757782	146.780000
485.851532	146.600000
485.945190	146.460000
486.038910	146.340000
486.132599	146.960000
486.226318	146.060000
486.319977	146.060000
486.413727	146.660000
486.507446	146.200000
486.601105	145.560000
486.694855	145.780000
486.788513	145.880000
486.882233	145.600000
486.975922	145.920000
487.069641	145.880000
487.163300	145.900000
487.257050	146.760000
487.350708	146.460000
487.444427	146.140000
487.538116	146.360000
487.631836	146.480000
487.725494	145.840000
487.819214	145.980000
487.912903	145.940000
488.006622	146.320000
488.100281	146.440000
488.194031	146.440000
488.287689	146.920000
488.381409	147.740000
488.475098	147.200000
488.568817	147.320000
488.662476	147.200000
488.756226	146.500000
488.849945	145.280000
488.943604	145.560000
489.037354	145.480000
489.131012	145.280000
489.224731	145.540000
489.318390	145.800000
489.412140	145.860000
489.505798	145.560000
489.599518	145.540000
489.693207	145.580000
489.786926	145.540000
489.880585	145.280000
489.974335	145.820000
490.067993	146.780000
490.161713	147.120000
490.255371	148.020000
490.349121	148.100000
490.442780	147.460000
490.536499	146.480000
490.630188	146.260000
490.723907	145.760000
490.817566	145.940000
490.911285	146.260000
491.004974	146.420000
491.098694	146.080000
491.192413	146.480000
491.286102	146.140000
491.379822	146.280000
491.473480	146.440000
491.567200	146.620000
491.660889	145.720000
491.754608	145.840000
491.848267	145.600000
491.941986	145.260000
492.035675	145.260000
492.129395	145.960000
492.223053	145.520000
492.316772	145.460000
492.410461	145.740000
492.504181	145.800000
492.597839	145.600000
492.691559	146.340000
492.785248	146.600000
492.878967	146.580000
492.972626	146.240000
493.066345	146.280000
493.160034	145.660000
493.253754	145.740000
493.347412	145.520000
493.441132	145.800000
493.534882	146.120000
493.628540	146.560000
493.722260	146.620000
493.815918	146.860000
493.909668	147.380000
494.003326	147.580000
494.097046	147.460000
494.190704	147.100000
494.284454	147.240000
494.378113	146.940000
494.471832	146.500000
494.565491	146.180000
494.659210	146.140000
494.752899	146.000000
494.846619	145.780000
494.940277	145.800000
495.033997	145.820000
495.127686	145.580000
495.221405	145.180000
495.315063	145.280000
495.408783	145.380000
495.502441	145.620000
495.596191	146.120000
495.689850	146.260000
495.783569	146.600000
495.877228	146.420000
495.970947	146.060000
496.064697	145.860000
496.158356	146.720000
496.252075	146.620000
496.345734	146.680000
496.439453	147.620000
496.533142	148.020000
496.626862	148.000000
496.720520	147.800000
496.814240	147.880000
496.907898	147.480000
497.001617	147.180000
497.095306	146.280000
497.189026	146.020000
497.282684	146.080000
497.376404	146.100000
497.470062	145.940000
497.563782	146.220000
497.657471	146.340000
497.751190	145.880000
497.844849	145.820000
497.938568	146.360000
498.032227	146.520000
498.125946	146.680000
498.219635	146.760000
498.313354	146.900000
498.407074	146.180000
498.500732	146.360000
498.594452	146.100000
498.688110	145.880000
498.781830	145.440000
498.875519	145.520000
498.969238	145.240000
499.062897	145.180000
499.156616	145.820000
499.250275	146.320000
499.343994	145.660000
499.437653	145.900000
499.531372	146.300000
499.625061	146.840000
499.718781	146.580000
499.812439	147.640000
499.906158	147.280000
499.999817	146.820000
500.093536	146.280000
500.187195	146.520000
500.280914	146.320000
500.374573	146.480000
500.468323	146.500000
500.561981	146.680000
500.655701	146.060000
500.749420	146.120000
500.843079	146.640000
500.936798	146.580000
501.030457	146.680000
501.124176	147.220000
501.217834	147.200000
501.311554	146.480000
501.405212	146.480000
501.498962	145.420000
501.592621	145.020000
501.686340	145.440000
501.779999	145.740000
501.873718	146.120000
501.967377	146.780000
502.061096	147.140000
502.154755	146.360000
502.248474	146.260000
502.342133	146.020000
502.435852	145.880000
502.529510	146.340000
502.623230	146.860000
502.716888	146.300000
502.810608	146.520000
502.904266	146.800000
502.997986	146.260000
503.091705	145.960000
503.185364	146.440000
503.279083	146.140000
503.372772	145.920000
503.466492	145.360000
503.560150	145.400000
503.653870	145.500000
503.747528	145.480000
503.841248	145.600000
503.934906	146.120000
504.028625	145.660000
504.122284	145.800000
504.216003	146.480000
504.309662	146.220000
504.403381	146.320000
504.497040	146.620000
504.590759	146.480000
504.684418	146.420000
504.778137	146.960000
504.871796	147.120000
504.965515	147.040000
505.059174	147.020000
505.152893	146.400000
505.246521	145.720000
505.340240	145.340000
505.433899	145.520000
505.527618	145.500000
505.621338	146.280000
505.714996	146.260000
505.808716	146.480000
505.902374	146.960000
505.996094	147.080000
506.089752	146.260000
506.183472	146.640000
506.277130	146.600000
506.370850	146.360000
506.464508	146.000000
506.558228	146.320000
506.651886	145.920000
506.745605	145.880000
506.839264	145.820000
506.932983	146.140000
507.026611	145.980000
507.120331	146.580000
507.213989	146.120000
507.307709	146.060000
507.401367	146.040000
507.495087	146.960000
507.588745	146.040000
507.682465	146.940000
507.776123	147.080000
507.869843	147.140000
507.963531	146.800000
508.057190	147.620000
508.150909	146.940000
508.244568	146.960000
508.338287	146.380000
508.431946	146.000000
508.525665	145.680000
508.619324	145.740000
508.713013	145.660000
508.806671	146.380000
508.900391	147.020000
508.994049	147.180000
509.087769	147.060000
509.181427	147.080000
509.275146	146.420000
509.368774	145.500000
509.462494	145.280000
509.556152	145.160000
509.649872	145.600000
509.743530	146.320000
509.837250	146.680000
509.930878	146.800000
510.024597	146.680000
510.118256	146.180000
510.211975	145.720000
510.305695	145.360000
510.399353	145.520000
510.493042	146.300000
510.586700	146.480000
510.680420	147.280000
510.774078	147.240000
510.867798	147.300000
510.961426	146.680000
511.055145	146.620000
511.148804	146.160000
511.242523	146.580000
511.336151	146.640000
511.429871	147.180000
511.523529	146.940000
511.617249	146.460000
511.710876	146.140000
511.804596	145.500000
511.898254	145.020000
511.991974	145.500000
512.085632	145.600000
512.179321	145.740000
512.272949	146.280000
512.366699	146.860000
512.460327	146.460000
512.554077	147.580000
512.647766	147.540000
512.741394	147.100000
512.835144	147.520000
512.928772	147.340000
513.022461	146.960000
513.116150	147.060000
513.209839	147.760000
513.303467	147.020000
513.397217	146.920000
513.490845	146.700000
513.584595	146.580000
513.678223	145.940000
513.771912	145.400000
513.865601	145.720000
513.959290	144.940000
514.052917	144.800000
514.146667	145.540000
514.240295	146.140000
514.333984	146.300000
514.427673	146.540000
514.521362	146.900000
514.614990	146.140000
514.708740	146.220000
514.802368	146.200000
514.896057	146.380000
514.989746	147.000000
515.083435	147.140000
515.177124	147.120000
515.270752	146.660000
515.364502	146.540000
515.458130	146.380000
515.551819	146.480000
515.645508	146.340000
515.739197	146.540000
515.832825	146.880000
515.926575	146.140000
516.020203	146.200000
516.113892	146.480000
516.207520	146.420000
516.301270	146.300000
516.394897	146.620000
516.488586	146.900000
516.582275	146.720000
516.675964	146.520000
516.769592	146.040000
516.863281	146.400000
516.956970	146.360000
517.050659	146.260000
517.144287	146.600000
517.238037	147.080000
517.331665	146.340000
517.425354	146.080000
517.519043	146.060000
517.612732	146.160000
517.706421	145.940000
517.800049	145.860000
517.893738	145.660000
517.987427	145.760000
518.081116	145.500000
518.174744	145.320000
518.268433	145.960000
518.362122	146.680000
518.455811	146.820000
518.549438	147.480000
518.643127	148.520000
518.736816	147.980000
518.830505	147.520000
518.924133	147.220000
519.017822	147.020000
519.111511	146.380000
519.205200	146.840000
519.298828	146.600000
519.392517	146.580000
519.486206	146.660000
519.579895	146.540000
519.673523	146.420000
519.767212	146.520000
519.860901	146.880000
519.954590	146.360000
520.048279	146.220000
520.141907	145.920000
520.235596	147.040000
520.329224	147.020000
520.422974	147.180000
520.516602	147.240000
520.610291	146.920000
520.703918	146.320000
520.797607	145.840000
520.891296	145.680000
520.984985	146.000000
521.078613	146.740000
521.172302	145.860000
521.265930	147.160000
521.359680	147.520000
521.453308	147.380000
521.546997	147.040000
521.640625	147.720000
521.734314	146.520000
521.827942	146.420000
521.921692	146.560000
522.015320	146.680000
522.109009	146.380000
522.202698	146.600000
522.296326	146.600000
522.390015	146.580000
522.483704	146.760000
522.577393	146.560000
522.671021	146.440000
522.764709	146.080000
522.858337	146.380000
522.952026	146.200000
523.045654	146.960000
523.139404	147.420000
523.233032	147.780000
523.326721	147.360000
523.420349	147.120000
523.514038	146.440000
523.607666	146.520000
523.701355	146.080000
523.795044	146.040000
523.888733	146.100000
523.982361	146.240000
524.076050	145.700000
524.169678	146.480000
524.263367	146.580000
524.356995	146.600000
524.450684	146.240000
524.544373	146.180000
524.638062	145.800000
524.731750	145.680000
524.825378	145.580000
524.919067	145.540000
525.012695	145.660000
525.106384	145.320000
525.200012	145.360000
525.293701	145.360000
525.387329	145.940000
525.481018	145.840000
525.574646	146.300000
525.668396	146.480000
525.762024	146.880000
525.855713	147.080000
525.949341	146.900000
526.043030	146.760000
526.136658	146.400000
526.230347	146.240000
526.323975	145.520000
526.417664	145.580000
526.511292	145.780000
526.604980	146.140000
526.698608	145.780000
526.792297	145.900000
526.885925	146.400000
526.979614	146.160000
527.073303	145.580000
527.166931	145.600000
527.260620	146.060000
527.354309	146.220000
527.447998	146.140000
527.541626	146.200000
527.635315	146.600000
527.728943	146.700000
527.822632	146.740000
527.916260	146.820000
528.009949	147.280000
528.103577	147.120000
528.197266	146.340000
528.290894	145.980000
528.384583	145.800000
528.478210	145.500000
528.571899	145.720000
528.665527	146.560000
528.759216	146.700000
528.852844	147.080000
528.946533	147.300000
529.040161	146.960000
529.133850	146.460000
529.227478	146.680000
529.321167	146.520000
529.414856	146.980000
529.508484	147.520000
529.602173	147.440000
529.695801	147.200000
529.789490	147.280000
529.883057	146.700000
529.976746	146.900000
530.070374	147.360000
530.164062	147.480000
530.257690	147.640000
530.351379	147.800000
530.445007	147.100000
530.538696	146.400000
530.632324	146.440000
530.726013	146.180000
530.819641	146.160000
530.913330	146.600000
531.006958	146.920000
531.100647	146.520000
531.194275	146.640000
531.287964	146.360000
531.381592	145.740000
531.475220	145.700000
531.568848	145.700000
531.662537	145.540000
531.756226	146.100000
531.849854	146.380000
531.943542	146.280000
532.037170	146.060000
532.130859	146.520000
532.224487	145.980000
532.318176	145.520000
532.411804	145.980000
532.505432	146.140000
532.599060	145.700000
532.692749	145.660000
532.786377	146.540000
532.880066	145.780000
532.973694	145.480000
533.067383	145.360000
533.161011	145.500000
533.254639	145.200000
533.348267	145.700000
533.441956	146.320000
533.535583	146.380000
533.629272	146.600000
533.722900	145.980000
533.816589	145.900000
533.910156	145.860000
534.003845	145.620000
534.097534	145.760000
534.191162	146.540000
534.284851	146.680000
534.378479	146.360000
534.472107	146.500000
534.565735	146.060000
534.659424	146.240000
534.753052	146.460000
534.846741	146.540000
534.940369	147.220000
535.033997	147.460000
535.127625	147.100000
535.221313	147.180000
535.314941	147.280000
535.408630	146.500000
535.502197	146.600000
535.595886	146.580000
535.689514	146.240000
535.783203	146.540000
535.876831	147.120000
535.970459	147.000000
536.064087	146.780000
536.157776	146.900000
536.251404	146.620000
536.345093	146.120000
536.438721	146.240000
536.532349	146.700000
536.626038	146.480000
536.719666	146.700000
536.813293	146.960000
536.906921	146.780000
537.000610	146.920000
537.094238	147.020000
537.187866	147.000000
537.281494	146.800000
537.375183	146.860000
537.468811	146.300000
537.562439	146.240000
537.656067	146.100000
537.749756	146.100000
537.843384	146.660000
537.937012	146.740000
538.030640	146.600000
538.124329	146.200000
538.217896	146.620000
538.311584	146.340000
538.405212	146.300000
538.498901	146.780000
538.592468	147.660000
538.686157	147.260000
538.779785	146.520000
538.873413	146.660000
538.967102	145.960000
539.060730	145.360000
539.154358	145.940000
539.247986	146.460000
539.341675	146.480000
539.435242	146.600000
539.528931	146.840000
539.622559	145.900000
539.716187	146.460000
539.809814	146.380000
539.903503	146.740000
539.997070	146.360000
540.090759	146.700000
540.184387	146.200000
540.278015	146.640000
540.371643	146.840000
540.465332	146.980000
540.558899	146.860000
540.652588	146.720000
540.746216	146.320000
540.839844	146.420000
540.933472	146.560000
541.027100	146.780000
541.120728	147.040000
541.214417	147.220000
541.308044	147.220000
541.401672	147.100000
541.495300	146.800000
541.588928	146.540000
541.682617	146.180000
541.776184	145.900000
541.869873	146.160000
541.963440	146.480000
542.057129	146.500000
542.150757	146.860000
542.244385	146.600000
542.338013	146.020000
542.431641	146.000000
542.525269	145.900000
542.618958	145.780000
542.712524	146.200000
542.806213	146.260000
542.899780	146.260000
542.993469	146.260000
543.087036	146.240000
543.180725	145.620000
543.274292	146.040000
543.367981	146.220000
543.461548	146.560000
543.555237	146.640000
543.648926	147.080000
543.742493	147.420000
543.836182	147.260000
543.929749	146.860000
544.023437	146.720000
544.117004	146.880000
544.210693	146.440000
544.304260	146.520000
544.397949	146.580000
544.491516	146.660000
544.585205	146.380000
544.678772	146.260000
544.772461	146.440000
544.866028	146.340000
544.959717	146.560000
545.053284	146.320000
545.146973	146.700000
545.240540	146.680000
545.334229	147.180000
545.427795	147.200000
545.521423	147.660000
545.615051	147.380000
545.708679	147.560000
545.802307	147.420000
545.895935	147.400000
545.989624	147.780000
546.083191	147.880000
546.176880	147.560000
546.270447	147.020000
546.364136	147.300000
546.457703	146.680000
546.551331	146.540000
546.644958	146.760000
546.738586	147.260000
546.832214	146.620000
546.925842	146.580000
547.019409	147.120000
547.113098	146.480000
547.206665	146.280000
547.300354	146.320000
547.393921	146.860000
547.487549	146.660000
547.581177	146.780000
547.674805	146.920000
547.768433	146.240000
547.862061	145.860000
547.955627	144.980000
548.049316	145.380000
548.142883	145.460000
548.236572	146.220000
548.330139	146.360000
548.423767	146.760000
548.517456	146.800000
548.611023	146.760000
548.704651	146.260000
548.798279	146.200000
548.891907	146.520000
548.985474	146.200000
549.079163	146.220000
549.172729	146.440000
549.266357	146.040000
549.359985	146.120000
549.453613	146.140000
549.547180	145.960000
549.640869	146.480000
549.734436	146.720000
549.828064	147.020000
549.921631	146.960000
550.015320	146.420000
550.108887	146.580000
550.202515	146.400000
550.296143	145.820000
550.389771	145.760000
550.483337	146.260000
550.576965	145.720000
550.670593	146.120000
550.764221	146.140000
550.857849	146.280000
550.951477	145.840000
551.045105	145.560000
551.138672	145.400000
551.232300	144.980000
551.325928	145.380000
551.419556	145.880000
551.513123	146.060000
551.606750	145.860000
551.700378	146.060000
551.794006	145.620000
551.887573	145.580000
551.981201	146.080000
552.074768	146.060000
552.168457	145.920000
552.262024	146.580000
552.355652	146.380000
552.449219	146.720000
552.542847	146.880000
552.636475	146.680000
552.730103	145.620000
552.823669	145.600000
552.917297	145.060000
553.010864	144.820000
553.104553	145.540000
553.198181	145.460000
553.291748	145.920000
553.385376	146.120000
553.478943	146.220000
553.572571	146.260000
553.666199	146.820000
553.759827	146.560000
553.853394	146.100000
553.947021	146.220000
554.040588	146.020000
554.134216	145.840000
554.227783	146.420000
554.321411	147.220000
554.415039	146.780000
554.508667	146.780000
554.602234	147.280000
554.695862	146.440000
554.789429	145.860000
554.883057	146.300000
554.976624	146.260000
555.070251	145.980000
555.163818	145.860000
555.257507	145.920000
555.351074	145.900000
555.444702	146.680000
555.538330	146.400000
555.631897	147.040000
555.725525	146.960000
555.819092	146.900000
555.912720	145.920000
556.006287	146.360000
556.099915	145.940000
556.193481	146.120000
556.287109	146.180000
556.380676	146.320000
556.474304	146.420000
556.567871	146.820000
556.661499	146.280000
556.755066	146.240000
556.848694	146.380000
556.942261	145.840000
557.035889	145.740000
557.129517	146.420000
557.223145	146.680000
557.316711	146.460000
557.410339	146.440000
557.503906	146.360000
557.597473	146.300000
557.691040	145.980000
557.784668	146.240000
557.878296	146.520000
557.971863	146.560000
558.065491	146.620000
558.159058	146.620000
558.252686	147.220000
558.346252	147.680000
558.439880	147.180000
558.533447	146.660000
558.627075	146.720000
558.720642	146.040000
558.814270	145.840000
558.907837	146.180000
559.001465	145.980000
559.095032	146.460000
559.188660	146.480000
559.282227	145.780000
559.375854	146.500000
559.469360	146.620000
559.562988	146.580000
559.656555	146.660000
559.750183	147.140000
559.843750	146.820000
559.937378	146.900000
560.030945	146.740000
560.124573	0.000000
560.218140	0.000000
560.311707	0.000000
560.405334	0.000000
560.498901	0.000000
560.592529	0.000000
560.686096	0.000000
560.779724	0.000000
560.873291	0.000000
560.966858	0.000000
561.060425	0.000000
561.154053	0.000000
561.247620	0.000000
561.341248	0.000000
561.434814	0.000000
561.528381	0.000000
561.621948	0.000000
561.715576	0.000000
561.809143	0.000000
561.902771	0.000000
561.996277	0.000000
562.089905	0.000000
562.183472	0.000000
562.277100	0.000000
