Model Number: SPM-002-B   
Serial Number: 70087108
Firmware Version: 004.15.4
Exposure Time: 100000.000000us
Data Taken on: 11-12-2020 18:47:19.982
Wavelength	Amplitude
221.570786	0.000000
221.663406	0.000000
221.756027	0.000000
221.848648	0.000000
221.941269	0.000000
222.033905	0.000000
222.126526	0.000000
222.219162	0.000000
222.311798	0.000000
222.404419	0.000000
222.497055	0.000000
222.589676	0.000000
222.682312	0.000000
222.774933	0.000000
222.867569	0.000000
222.960205	0.000000
223.052841	0.000000
223.145462	0.000000
223.238098	0.000000
223.330734	0.000000
223.423386	0.000000
223.516022	0.000000
223.608658	0.000000
223.701309	0.000000
223.793945	0.000000
223.886581	0.000000
223.979218	0.000000
224.071869	0.000000
224.164505	0.000000
224.257156	0.000000
224.349792	0.000000
224.442444	0.000000
224.535095	0.000000
224.627747	0.000000
224.720398	0.000000
224.813034	0.000000
224.905685	0.000000
224.998337	146.540000
225.090988	146.600000
225.183640	146.520000
225.276291	146.280000
225.368942	146.520000
225.461594	147.120000
225.554245	147.120000
225.646912	146.880000
225.739578	147.340000
225.832230	148.000000
225.924896	147.300000
226.017548	147.380000
226.110199	147.920000
226.202866	147.380000
226.295532	146.960000
226.388184	146.760000
226.480850	146.260000
226.573517	145.680000
226.666168	146.020000
226.758835	146.460000
226.851501	146.980000
226.944183	147.280000
227.036850	146.880000
227.129517	146.740000
227.222183	147.080000
227.314850	146.860000
227.407516	146.800000
227.500198	147.740000
227.592865	147.380000
227.685532	146.720000
227.778214	146.780000
227.870880	147.100000
227.963562	147.340000
228.056229	147.980000
228.148926	148.060000
228.241592	148.580000
228.334274	148.180000
228.426956	147.760000
228.519638	147.700000
228.612305	147.100000
228.704987	146.880000
228.797668	146.800000
228.890350	146.680000
228.983032	146.140000
229.075714	146.880000
229.168396	146.860000
229.261108	146.820000
229.353790	146.860000
229.446472	147.100000
229.539169	147.000000
229.631851	146.320000
229.724533	146.480000
229.817230	146.440000
229.909912	147.420000
230.002609	147.640000
230.095306	148.000000
230.187988	148.120000
230.280685	148.060000
230.373383	146.880000
230.466095	146.440000
230.558792	146.720000
230.651474	146.580000
230.744171	146.440000
230.836868	146.380000
230.929581	146.760000
231.022278	146.620000
231.114975	146.940000
231.207672	146.960000
231.300369	147.460000
231.393082	147.380000
231.485779	147.360000
231.578506	146.980000
231.671204	147.120000
231.763916	147.000000
231.856613	146.740000
231.949326	146.820000
232.042023	146.860000
232.134735	146.640000
232.227448	146.600000
232.320160	146.900000
232.412872	146.720000
232.505585	147.500000
232.598297	148.000000
232.691010	147.860000
232.783722	147.580000
232.876450	148.460000
232.969162	147.800000
233.061874	147.440000
233.154587	147.240000
233.247314	147.640000
233.340027	147.020000
233.432739	147.360000
233.525467	147.100000
233.618179	147.600000
233.710907	146.880000
233.803635	147.080000
233.896347	146.780000
233.989090	147.520000
234.081818	147.460000
234.174545	147.820000
234.267258	147.200000
234.359985	147.460000
234.452713	147.160000
234.545441	146.740000
234.638168	146.760000
234.730896	147.360000
234.823639	147.220000
234.916367	147.700000
235.009094	147.920000
235.101822	148.000000
235.194580	147.760000
235.287308	147.440000
235.380051	146.880000
235.472778	147.280000
235.565521	147.380000
235.658249	146.740000
235.750992	147.180000
235.843719	147.300000
235.936462	147.320000
236.029205	146.960000
236.121948	147.200000
236.214691	147.460000
236.307449	147.680000
236.400192	147.280000
236.492935	147.160000
236.585678	147.360000
236.678421	147.200000
236.771164	147.040000
236.863907	147.660000
236.956665	148.020000
237.049408	149.620000
237.142151	149.160000
237.234909	150.020000
237.327652	149.760000
237.420410	149.600000
237.513153	148.640000
237.605927	148.280000
237.698669	147.180000
237.791428	146.620000
237.884186	147.120000
237.976944	146.560000
238.069702	147.120000
238.162445	146.840000
238.255203	147.100000
238.347961	147.140000
238.440720	147.120000
238.533478	146.860000
238.626266	146.820000
238.719025	147.040000
238.811783	146.700000
238.904541	146.920000
238.997314	146.960000
239.090073	146.920000
239.182831	147.040000
239.275604	147.740000
239.368362	147.260000
239.461136	147.540000
239.553909	147.740000
239.646667	147.360000
239.739441	146.780000
239.832214	147.180000
239.925003	147.000000
240.017761	147.620000
240.110535	148.060000
240.203308	147.560000
240.296082	147.440000
240.388855	147.480000
240.481628	147.300000
240.574417	147.440000
240.667191	147.680000
240.759964	147.460000
240.852737	147.420000
240.945526	146.820000
241.038315	146.380000
241.131088	146.460000
241.223877	146.660000
241.316650	146.280000
241.409439	146.800000
241.502228	146.480000
241.595001	146.560000
241.687790	146.520000
241.780579	146.860000
241.873367	147.100000
241.966141	147.680000
242.058929	147.360000
242.151718	147.560000
242.244507	147.900000
242.337311	147.060000
242.430099	147.340000
242.522903	147.660000
242.615692	147.120000
242.708481	146.860000
242.801270	147.560000
242.894073	147.060000
242.986862	147.140000
243.079651	148.220000
243.172455	148.120000
243.265244	147.880000
243.358063	147.500000
243.450867	147.860000
243.543655	147.200000
243.636459	147.480000
243.729263	147.800000
243.822067	148.080000
243.914856	147.980000
244.007660	148.100000
244.100464	147.780000
244.193268	147.420000
244.286072	147.560000
244.378876	146.800000
244.471680	146.320000
244.564499	146.580000
244.657318	147.080000
244.750122	147.200000
244.842926	147.180000
244.935745	147.580000
245.028549	147.240000
245.121368	146.800000
245.214172	146.760000
245.306992	147.500000
245.399796	147.060000
245.492615	147.020000
245.585434	146.960000
245.678253	146.760000
245.771072	146.320000
245.863892	147.140000
245.956711	147.800000
246.049530	147.560000
246.142349	147.680000
246.235168	147.780000
246.327988	148.200000
246.420807	147.740000
246.513626	147.980000
246.606445	147.580000
246.699280	147.700000
246.792099	147.140000
246.884918	146.560000
246.977753	146.320000
247.070587	146.680000
247.163422	146.480000
247.256241	146.540000
247.349075	147.300000
247.441895	147.500000
247.534729	147.580000
247.627563	147.380000
247.720383	147.640000
247.813217	147.560000
247.906052	147.440000
247.998886	147.380000
248.091736	147.700000
248.184570	147.220000
248.277405	147.280000
248.370239	148.100000
248.463074	148.600000
248.555908	148.640000
248.648743	148.640000
248.741592	148.560000
248.834427	147.820000
248.927261	146.800000
249.020111	146.960000
249.112946	147.560000
249.205795	147.140000
249.298630	147.260000
249.391495	147.480000
249.484344	147.320000
249.577179	146.840000
249.670029	147.420000
249.762878	148.120000
249.855728	148.280000
249.948563	148.100000
250.041412	147.660000
250.134262	147.680000
250.227112	147.540000
250.319962	147.640000
250.412827	147.540000
250.505692	147.380000
250.598541	147.320000
250.691391	146.800000
250.784241	146.840000
250.877106	147.400000
250.969955	147.620000
251.062805	147.880000
251.155670	148.500000
251.248520	148.440000
251.341385	148.340000
251.434235	148.480000
251.527100	148.200000
251.619965	147.140000
251.712814	147.700000
251.805695	147.420000
251.898560	147.320000
251.991425	147.620000
252.084290	148.120000
252.177155	147.240000
252.270020	147.340000
252.362885	147.280000
252.455750	147.100000
252.548615	147.000000
252.641479	146.980000
252.734360	146.540000
252.827240	146.820000
252.920105	146.800000
253.012970	146.660000
253.105850	146.920000
253.198715	146.800000
253.291595	146.600000
253.384460	146.200000
253.477341	146.280000
253.570221	146.320000
253.663086	146.620000
253.755966	147.080000
253.848846	147.240000
253.941727	147.620000
254.034592	147.720000
254.127472	147.240000
254.220367	147.180000
254.313248	147.120000
254.406128	146.440000
254.499008	146.400000
254.591904	147.280000
254.684784	147.520000
254.777664	147.660000
254.870544	147.700000
254.963440	147.480000
255.056335	147.520000
255.149216	147.160000
255.242111	147.580000
255.334991	148.400000
255.427887	148.680000
255.520767	148.300000
255.613663	148.000000
255.706558	147.340000
255.799438	146.680000
255.892334	146.360000
255.985229	146.360000
256.078125	146.400000
256.171021	146.540000
256.263916	146.780000
256.356812	147.240000
256.449707	147.240000
256.542603	147.120000
256.635498	147.580000
256.728394	147.480000
256.821289	146.940000
256.914215	147.220000
257.007080	147.600000
257.100006	147.460000
257.192932	147.820000
257.285828	148.260000
257.378723	147.860000
257.471619	147.620000
257.564545	147.240000
257.657440	147.280000
257.750336	147.360000
257.843262	147.140000
257.936157	148.320000
258.029053	148.440000
258.121979	148.280000
258.214874	147.940000
258.307800	148.080000
258.400696	146.980000
258.493622	147.140000
258.586517	146.320000
258.679443	146.680000
258.772339	146.540000
258.865265	146.040000
258.958160	145.460000
259.051086	146.420000
259.144012	146.080000
259.236938	146.800000
259.329834	147.100000
259.422791	146.940000
259.515717	146.420000
259.608612	146.320000
259.701538	146.180000
259.794464	146.480000
259.887390	146.860000
259.980316	146.660000
260.073212	146.720000
260.166138	145.820000
260.259064	145.900000
260.351990	146.520000
260.444916	146.680000
260.537842	147.020000
260.630768	148.060000
260.723694	147.820000
260.816620	147.520000
260.909546	147.520000
261.002472	147.120000
261.095398	146.520000
261.188354	146.820000
261.281281	146.100000
261.374207	146.380000
261.467133	147.280000
261.560089	147.380000
261.653015	147.120000
261.745972	148.140000
261.838867	148.160000
261.931824	148.160000
262.024780	148.120000
262.117706	148.220000
262.210663	148.320000
262.303589	148.380000
262.396515	147.960000
262.489471	148.860000
262.582397	148.860000
262.675354	147.980000
262.768280	147.960000
262.861237	148.140000
262.954163	147.800000
263.047119	147.760000
263.140045	147.760000
263.233002	147.500000
263.325958	146.880000
263.418884	146.220000
263.511841	146.000000
263.604797	146.000000
263.697723	146.140000
263.790680	146.420000
263.883636	146.940000
263.976593	147.120000
264.069550	147.560000
264.162476	147.040000
264.255463	147.060000
264.348419	146.660000
264.441376	146.800000
264.534332	146.500000
264.627289	147.120000
264.720245	147.520000
264.813202	147.300000
264.906158	147.600000
264.999115	147.960000
265.092072	147.740000
265.185028	147.920000
265.277985	148.080000
265.370941	147.600000
265.463898	147.080000
265.556854	146.880000
265.649811	145.820000
265.742798	146.240000
265.835754	146.500000
265.928711	147.300000
266.021667	147.360000
266.114655	147.600000
266.207611	147.580000
266.300568	146.800000
266.393585	146.260000
266.486511	146.780000
266.579498	146.420000
266.672485	146.100000
266.765442	146.460000
266.858429	146.800000
266.951385	146.020000
267.044342	146.560000
267.137329	146.520000
267.230316	146.880000
267.323273	146.520000
267.416260	147.460000
267.509216	147.440000
267.602203	147.600000
267.695160	147.960000
267.788147	148.020000
267.881134	147.260000
267.974091	147.080000
268.067078	146.860000
268.160065	146.480000
268.253052	146.320000
268.346008	146.600000
268.438995	146.800000
268.531982	147.520000
268.624969	147.340000
268.717987	147.800000
268.810944	147.700000
268.903961	147.800000
268.996948	146.980000
269.089905	147.480000
269.182892	147.440000
269.275879	147.680000
269.368866	146.620000
269.461853	147.080000
269.554871	146.580000
269.647858	146.440000
269.740845	146.720000
269.833832	147.940000
269.926819	147.600000
270.019806	147.880000
270.112793	147.420000
270.205811	147.280000
270.298798	146.780000
270.391785	147.340000
270.484772	146.940000
270.577789	147.040000
270.670776	146.800000
270.763763	147.020000
270.856750	146.960000
270.949768	146.780000
271.042786	147.200000
271.135773	147.180000
271.228790	147.380000
271.321808	146.460000
271.414795	146.460000
271.507782	145.920000
271.600800	145.800000
271.693817	145.680000
271.786804	146.740000
271.879822	147.340000
271.972809	147.460000
272.065826	148.080000
272.158844	147.480000
272.251831	147.700000
272.344849	147.260000
272.437866	147.080000
272.530853	146.560000
272.623871	147.080000
272.716888	145.580000
272.809906	145.900000
272.902893	146.120000
272.995911	145.660000
273.088928	145.520000
273.181946	146.560000
273.274963	146.320000
273.367981	146.080000
273.460999	146.320000
273.554047	147.040000
273.647003	147.360000
273.740051	147.200000
273.833069	148.020000
273.926086	148.300000
274.019135	147.760000
274.112152	147.200000
274.205170	147.460000
274.298187	147.380000
274.391205	146.760000
274.484222	146.560000
274.577240	146.620000
274.670258	146.260000
274.763306	145.880000
274.856323	146.660000
274.949341	146.920000
275.042358	147.100000
275.135406	147.460000
275.228424	147.500000
275.321442	147.260000
275.414490	147.040000
275.507507	147.480000
275.600525	147.820000
275.693573	147.600000
275.786591	147.400000
275.879669	147.600000
275.972656	146.840000
276.065735	146.640000
276.158752	147.420000
276.251801	148.120000
276.344818	148.160000
276.437866	148.480000
276.530884	148.180000
276.623932	147.220000
276.716980	147.160000
276.809998	147.020000
276.903046	146.920000
276.996094	147.640000
277.089111	148.500000
277.182159	148.880000
277.275208	148.680000
277.368256	148.600000
277.461304	148.060000
277.554321	147.340000
277.647369	146.860000
277.740417	146.960000
277.833466	147.100000
277.926514	147.160000
278.019562	147.940000
278.112610	147.300000
278.205688	147.400000
278.298706	147.400000
278.391785	147.240000
278.484833	146.660000
278.577881	146.980000
278.670929	147.520000
278.763977	147.700000
278.857025	148.040000
278.950073	147.920000
279.043121	147.780000
279.136169	147.220000
279.229248	146.660000
279.322296	146.760000
279.415344	146.640000
279.508392	146.580000
279.601440	146.600000
279.694519	146.660000
279.787567	146.380000
279.880615	146.720000
279.973694	146.840000
280.066742	146.920000
280.159790	147.140000
280.252869	146.980000
280.345917	146.760000
280.438995	146.640000
280.532074	146.280000
280.625122	146.720000
280.718201	147.720000
280.811279	147.620000
280.904327	147.800000
280.997406	148.260000
281.090454	147.840000
281.183533	146.600000
281.276581	146.920000
281.369659	146.580000
281.462738	146.440000
281.555786	146.740000
281.648865	147.040000
281.741943	146.940000
281.835022	147.660000
281.928070	147.420000
282.021149	146.980000
282.114227	147.100000
282.207306	146.860000
282.300385	146.980000
282.393433	147.460000
282.486511	147.540000
282.579590	147.680000
282.672668	148.180000
282.765747	147.560000
282.858856	146.960000
282.951904	147.120000
283.045013	147.320000
283.138062	147.580000
283.231171	148.060000
283.324249	148.380000
283.417328	148.460000
283.510406	147.940000
283.603485	147.600000
283.696564	147.160000
283.789642	147.320000
283.882751	147.260000
283.975830	147.880000
284.068909	147.600000
284.161987	148.520000
284.255066	147.880000
284.348175	148.100000
284.441254	147.640000
284.534332	148.060000
284.627441	147.180000
284.720520	146.980000
284.813599	146.640000
284.906708	146.820000
284.999786	146.080000
285.092896	145.880000
285.185974	147.120000
285.279053	146.900000
285.372192	146.920000
285.465240	147.880000
285.558380	148.120000
285.651459	147.380000
285.744568	148.380000
285.837677	148.220000
285.930756	148.120000
286.023865	148.240000
286.116943	148.100000
286.210052	147.640000
286.303162	147.760000
286.396240	147.480000
286.489349	147.100000
286.582458	147.540000
286.675568	147.480000
286.768646	147.300000
286.861755	147.580000
286.954865	148.080000
287.047974	147.240000
287.141083	146.460000
287.234161	146.200000
287.327271	145.740000
287.420380	146.220000
287.513519	146.600000
287.606598	147.220000
287.699738	147.880000
287.792816	148.280000
287.885956	147.760000
287.979034	148.040000
288.072174	148.000000
288.165283	147.460000
288.258392	147.480000
288.351501	147.260000
288.444611	147.480000
288.537720	147.600000
288.630859	147.760000
288.723969	147.640000
288.817078	147.740000
288.910187	147.620000
289.003296	147.020000
289.096436	146.540000
289.189545	146.260000
289.282654	145.820000
289.375763	146.100000
289.468903	146.820000
289.562012	147.200000
289.655121	147.420000
289.748260	147.740000
289.841400	147.720000
289.934509	147.500000
290.027649	147.760000
290.120728	147.200000
290.213898	147.280000
290.306976	146.980000
290.400146	147.000000
290.493256	146.420000
290.586395	146.700000
290.679535	146.780000
290.772644	146.680000
290.865784	145.980000
290.958893	146.040000
291.052032	145.980000
291.145172	145.740000
291.238281	145.360000
291.331421	145.700000
291.424561	146.280000
291.517670	145.960000
291.610809	146.400000
291.703949	146.420000
291.797089	146.700000
291.890228	146.160000
291.983337	146.380000
292.076477	145.700000
292.169617	146.200000
292.262756	146.140000
292.355927	146.040000
292.449036	146.060000
292.542206	146.320000
292.635315	146.520000
292.728485	146.720000
292.821625	146.720000
292.914764	147.760000
293.007904	148.100000
293.101044	147.800000
293.194183	147.780000
293.287323	147.980000
293.380463	147.280000
293.473602	147.020000
293.566742	147.340000
293.659882	147.540000
293.753021	147.540000
293.846191	147.200000
293.939331	146.660000
294.032471	146.120000
294.125610	145.740000
294.218781	146.140000
294.311920	146.640000
294.405060	147.160000
294.498230	147.460000
294.591370	147.480000
294.684540	147.140000
294.777679	146.680000
294.870850	147.100000
294.963959	146.840000
295.057159	147.000000
295.150299	147.220000
295.243469	147.500000
295.336609	146.720000
295.429779	146.880000
295.522919	147.140000
295.616089	147.020000
295.709229	147.340000
295.802399	147.780000
295.895569	147.680000
295.988708	147.180000
296.081879	147.180000
296.175018	146.400000
296.268188	146.060000
296.361359	146.780000
296.454529	147.040000
296.547668	146.840000
296.640839	147.640000
296.734009	147.520000
296.827179	147.380000
296.920319	147.640000
297.013519	147.860000
297.106659	147.680000
297.199860	148.060000
297.292999	147.640000
297.386200	147.160000
297.479309	146.860000
297.572510	146.540000
297.665680	146.180000
297.758850	146.260000
297.852020	146.200000
297.945190	146.340000
298.038361	146.220000
298.131531	147.160000
298.224701	146.860000
298.317871	146.980000
298.411072	146.380000
298.504242	146.220000
298.597412	145.540000
298.690582	145.920000
298.783752	145.760000
298.876923	146.480000
298.970093	146.700000
299.063293	147.120000
299.156464	147.160000
299.249634	147.380000
299.342834	147.600000
299.436005	148.220000
299.529205	147.900000
299.622345	148.000000
299.715576	147.720000
299.808716	147.220000
299.901917	146.920000
299.995117	147.300000
300.088287	147.400000
300.181488	147.040000
300.274658	147.040000
300.367828	146.840000
300.461029	146.760000
300.554199	146.900000
300.647400	147.240000
300.740601	147.660000
300.833771	147.720000
300.926971	148.020000
301.020142	147.300000
301.113342	147.440000
301.206512	147.260000
301.299713	147.600000
301.392914	147.380000
301.486084	147.900000
301.579285	147.780000
301.672516	148.200000
301.765686	147.740000
301.858887	147.600000
301.952057	147.360000
302.045288	147.320000
302.138458	146.900000
302.231659	146.780000
302.324860	146.340000
302.418060	146.160000
302.511261	146.060000
302.604462	146.220000
302.697662	146.160000
302.790863	146.360000
302.884064	146.100000
302.977264	146.340000
303.070465	146.780000
303.163666	147.420000
303.256866	147.980000
303.350067	148.440000
303.443268	148.540000
303.536469	148.080000
303.629669	147.600000
303.722870	147.260000
303.816071	146.640000
303.909271	146.800000
304.002472	146.340000
304.095673	146.020000
304.188934	145.600000
304.282104	146.740000
304.375336	146.580000
304.468506	146.400000
304.561768	146.440000
304.654968	146.920000
304.748169	146.320000
304.841370	145.940000
304.934601	146.660000
305.027802	146.600000
305.121002	146.320000
305.214233	146.360000
305.307434	146.780000
305.400665	147.100000
305.493866	147.340000
305.587097	147.540000
305.680298	147.460000
305.773499	147.760000
305.866730	147.240000
305.959930	147.760000
306.053162	148.000000
306.146393	147.800000
306.239594	146.760000
306.332825	146.820000
306.426025	146.840000
306.519287	146.340000
306.612488	146.420000
306.705719	147.120000
306.798920	147.220000
306.892181	146.740000
306.985352	146.680000
307.078613	146.320000
307.171844	146.460000
307.265045	146.100000
307.358276	145.940000
307.451508	146.240000
307.544739	146.840000
307.637970	146.460000
307.731201	146.460000
307.824402	147.160000
307.917633	147.500000
308.010864	147.700000
308.104095	148.260000
308.197327	148.360000
308.290558	148.160000
308.383789	147.720000
308.477020	147.380000
308.570251	146.560000
308.663483	146.380000
308.756714	146.020000
308.849976	145.760000
308.943176	146.240000
309.036438	146.300000
309.129639	146.360000
309.222900	146.540000
309.316101	146.880000
309.409393	146.440000
309.502625	146.460000
309.595856	146.620000
309.689087	146.640000
309.782318	146.720000
309.875580	146.840000
309.968811	147.320000
310.062042	147.280000
310.155273	147.220000
310.248535	147.380000
310.341766	147.100000
310.434998	146.480000
310.528259	146.260000
310.621490	146.660000
310.714722	146.260000
310.807983	146.340000
310.901215	146.660000
310.994476	146.940000
311.087708	146.400000
311.181000	146.600000
311.274200	146.360000
311.367462	146.500000
311.460693	146.420000
311.553986	146.980000
311.647186	146.840000
311.740479	147.440000
311.833710	147.220000
311.926971	147.120000
312.020203	146.420000
312.113464	146.440000
312.206726	145.920000
312.299957	146.200000
312.393219	146.680000
312.486481	146.960000
312.579712	146.820000
312.672974	147.000000
312.766235	146.900000
312.859497	146.820000
312.952759	146.620000
313.045990	147.540000
313.139252	146.940000
313.232513	146.940000
313.325775	146.780000
313.419037	147.140000
313.512299	146.040000
313.605530	146.960000
313.698822	146.920000
313.792053	146.980000
313.885345	146.140000
313.978577	146.320000
314.071869	145.460000
314.165131	145.720000
314.258392	146.200000
314.351654	146.840000
314.444916	146.480000
314.538177	147.340000
314.631439	147.420000
314.724701	146.600000
314.817993	146.720000
314.911255	147.240000
315.004517	146.580000
315.097778	146.580000
315.191040	147.460000
315.284302	147.400000
315.377594	147.100000
315.470856	147.200000
315.564117	146.480000
315.657379	145.620000
315.750671	145.240000
315.843933	145.520000
315.937195	145.320000
316.030518	145.420000
316.123749	145.340000
316.217041	146.260000
316.310303	146.200000
316.403595	146.640000
316.496857	147.020000
316.590149	147.420000
316.683411	146.740000
316.776703	146.720000
316.869965	146.680000
316.963257	146.500000
317.056519	145.980000
317.149811	146.000000
317.243073	145.860000
317.336365	145.880000
317.429626	146.120000
317.522919	146.740000
317.616180	146.700000
317.709473	146.660000
317.802765	146.580000
317.896027	146.560000
317.989319	146.560000
318.082611	146.440000
318.175873	146.540000
318.269165	146.740000
318.362488	146.440000
318.455750	146.480000
318.549042	146.960000
318.642303	147.460000
318.735626	146.940000
318.828888	147.420000
318.922211	146.900000
319.015472	147.340000
319.108765	146.660000
319.202057	146.660000
319.295349	146.560000
319.388641	146.860000
319.481934	146.420000
319.575226	146.400000
319.668518	146.860000
319.761810	146.760000
319.855103	146.760000
319.948395	146.600000
320.041687	147.000000
320.134979	146.840000
320.228271	146.920000
320.321564	147.000000
320.414856	147.060000
320.508148	146.600000
320.601440	146.700000
320.694763	146.380000
320.788025	146.940000
320.881348	146.960000
320.974640	147.320000
321.067963	146.800000
321.161224	147.000000
321.254547	146.120000
321.347839	146.760000
321.441162	146.460000
321.534454	146.860000
321.627747	146.960000
321.721069	147.760000
321.814362	147.420000
321.907654	147.260000
322.000946	147.100000
322.094269	147.540000
322.187561	146.780000
322.280884	146.600000
322.374176	146.860000
322.467468	147.500000
322.560791	146.980000
322.654083	147.620000
322.747406	147.760000
322.840698	148.420000
322.934021	148.380000
323.027344	148.680000
323.120636	148.160000
323.213959	147.920000
323.307251	147.000000
323.400574	146.400000
323.493866	145.640000
323.587219	146.080000
323.680511	146.780000
323.773834	147.060000
323.867157	147.460000
323.960449	147.940000
324.053772	147.760000
324.147095	147.440000
324.240387	147.980000
324.333710	148.160000
324.427032	148.240000
324.520355	147.840000
324.613647	147.500000
324.706970	147.000000
324.800293	146.620000
324.893616	146.820000
324.986938	147.080000
325.080231	146.740000
325.173553	147.400000
325.266876	147.980000
325.360199	147.660000
325.453522	147.300000
325.546875	147.060000
325.640167	146.840000
325.733521	146.840000
325.826813	147.160000
325.920166	147.220000
326.013489	147.700000
326.106812	146.640000
326.200134	145.900000
326.293457	145.460000
326.386780	145.740000
326.480103	145.680000
326.573425	146.000000
326.666748	146.180000
326.760071	146.340000
326.853424	146.240000
326.946747	146.080000
327.040070	146.940000
327.133392	146.760000
327.226715	146.320000
327.320068	145.920000
327.413391	146.620000
327.506714	145.860000
327.600037	145.960000
327.693390	146.220000
327.786713	146.600000
327.880066	146.440000
327.973358	146.820000
328.066742	147.100000
328.160034	147.420000
328.253418	147.740000
328.346710	147.220000
328.440063	146.660000
328.533417	146.460000
328.626740	146.700000
328.720093	146.180000
328.813416	146.320000
328.906769	146.580000
329.000092	146.800000
329.093445	146.680000
329.186768	146.940000
329.280121	147.600000
329.373444	148.100000
329.466797	147.960000
329.560120	147.940000
329.653473	148.380000
329.746796	147.600000
329.840149	147.360000
329.933502	147.580000
330.026825	147.300000
330.120178	146.720000
330.213562	146.880000
330.306854	146.800000
330.400238	146.400000
330.493561	146.360000
330.586945	147.020000
330.680237	147.220000
330.773621	147.320000
330.866974	147.440000
330.960327	147.520000
331.053680	147.040000
331.147003	146.960000
331.240356	146.980000
331.333710	147.080000
331.427063	146.980000
331.520416	146.940000
331.613770	146.980000
331.707123	147.300000
331.800476	147.460000
331.893829	148.620000
331.987152	148.900000
332.080505	148.740000
332.173859	148.260000
332.267212	147.380000
332.360565	146.200000
332.453918	145.960000
332.547333	145.780000
332.640656	146.000000
332.734039	146.520000
332.827362	146.520000
332.920746	146.600000
333.014069	147.160000
333.107452	147.460000
333.200806	147.720000
333.294159	148.040000
333.387543	147.440000
333.480896	146.660000
333.574249	146.640000
333.667603	146.440000
333.760956	146.420000
333.854340	146.620000
333.947693	146.960000
334.041046	146.600000
334.134430	147.060000
334.227783	146.840000
334.321136	146.540000
334.414520	146.200000
334.507874	145.980000
334.601227	145.720000
334.694611	145.380000
334.787964	145.960000
334.881348	146.620000
334.974701	147.100000
335.068085	146.820000
335.161438	147.520000
335.254822	147.480000
335.348175	147.220000
335.441559	146.580000
335.534943	147.580000
335.628296	147.080000
335.721680	147.040000
335.815033	147.200000
335.908417	147.600000
336.001770	146.860000
336.095154	147.200000
336.188538	147.180000
336.281891	146.900000
336.375275	146.520000
336.468658	146.440000
336.562012	146.600000
336.655396	146.940000
336.748779	147.200000
336.842133	147.540000
336.935516	147.720000
337.028900	147.020000
337.122284	146.940000
337.215637	147.120000
337.309021	147.160000
337.402435	146.660000
337.495789	147.040000
337.589203	146.840000
337.682526	146.460000
337.775940	146.600000
337.869324	147.140000
337.962708	146.640000
338.056091	147.060000
338.149475	146.860000
338.242859	146.800000
338.336243	146.500000
338.429626	146.900000
338.523010	146.440000
338.616394	146.500000
338.709778	146.500000
338.803162	146.640000
338.896545	146.900000
338.989929	146.600000
339.083313	146.880000
339.176697	146.560000
339.270081	146.000000
339.363464	145.920000
339.456848	146.560000
339.550232	145.960000
339.643616	145.780000
339.737030	146.280000
339.830383	146.120000
339.923828	146.040000
340.017181	146.680000
340.110596	147.040000
340.203949	147.020000
340.297363	146.640000
340.390778	146.700000
340.484161	146.440000
340.577545	146.300000
340.670959	146.460000
340.764343	146.420000
340.857727	146.320000
340.951111	145.700000
341.044525	146.060000
341.137909	145.620000
341.231293	145.860000
341.324707	145.140000
341.418091	146.100000
341.511505	146.020000
341.604889	146.240000
341.698303	146.780000
341.791687	147.220000
341.885071	146.580000
341.978485	146.080000
342.071899	146.380000
342.165283	146.140000
342.258698	146.640000
342.352081	147.060000
342.445496	147.540000
342.538879	147.380000
342.632324	147.180000
342.725708	146.800000
342.819122	146.420000
342.912506	146.200000
343.005920	145.980000
343.099335	146.660000
343.192719	146.460000
343.286133	146.460000
343.379547	146.900000
343.472931	146.880000
343.566345	145.920000
343.659760	146.460000
343.753143	146.520000
343.846558	146.020000
343.939972	146.060000
344.033386	146.980000
344.126770	146.580000
344.220184	146.560000
344.313599	146.980000
344.407043	147.080000
344.500427	146.040000
344.593872	146.300000
344.687225	146.340000
344.780670	145.920000
344.874054	145.820000
344.967499	146.660000
345.060913	146.800000
345.154327	146.520000
345.247742	146.280000
345.341156	146.100000
345.434570	145.640000
345.527985	145.120000
345.621399	145.600000
345.714813	145.720000
345.808228	145.980000
345.901642	146.140000
345.995056	146.180000
346.088470	146.380000
346.181885	146.760000
346.275299	146.520000
346.368713	146.120000
346.462128	146.120000
346.555573	145.960000
346.648987	145.880000
346.742401	145.780000
346.835815	146.700000
346.929260	146.420000
347.022644	146.440000
347.116119	146.680000
347.209503	147.340000
347.302948	147.880000
347.396362	148.480000
347.489807	148.400000
347.583221	148.780000
347.676636	148.280000
347.770050	146.660000
347.863495	146.100000
347.956909	146.340000
348.050323	145.500000
348.143768	145.860000
348.237183	146.100000
348.330597	146.720000
348.424042	146.740000
348.517456	147.120000
348.610901	147.040000
348.704315	146.980000
348.797760	146.360000
348.891174	145.940000
348.984619	145.660000
349.078033	145.720000
349.171448	146.600000
349.264923	146.840000
349.358337	146.660000
349.451782	146.580000
349.545197	146.040000
349.638641	145.060000
349.732086	144.560000
349.825500	145.100000
349.918945	144.940000
350.012390	145.500000
350.105804	146.220000
350.199249	146.740000
350.292664	146.980000
350.386108	147.200000
350.479553	147.420000
350.572968	147.060000
350.666412	147.260000
350.759857	146.940000
350.853302	147.200000
350.946716	146.780000
351.040161	147.060000
351.133606	147.020000
351.227081	146.940000
351.320465	147.580000
351.413940	147.640000
351.507355	147.700000
351.600830	148.000000
351.694244	147.620000
351.787720	147.300000
351.881104	147.320000
351.974579	146.920000
352.067993	147.200000
352.161469	147.600000
352.254883	146.780000
352.348358	146.760000
352.441803	146.800000
352.535248	146.320000
352.628693	146.620000
352.722137	146.880000
352.815582	146.740000
352.909027	146.900000
353.002472	146.400000
353.095917	145.800000
353.189362	146.180000
353.282806	146.400000
353.376251	146.060000
353.469696	145.800000
353.563141	146.800000
353.656586	146.360000
353.750061	146.140000
353.843475	146.300000
353.936981	146.980000
354.030396	146.440000
354.123871	146.400000
354.217285	147.120000
354.310760	147.580000
354.404175	147.700000
354.497681	147.020000
354.591095	147.200000
354.684570	146.160000
354.777985	145.580000
354.871490	145.080000
354.964935	145.680000
355.058380	145.880000
355.151855	145.940000
355.245300	146.740000
355.338745	147.360000
355.432220	147.520000
355.525665	146.740000
355.619110	147.140000
355.712585	146.360000
355.806030	145.940000
355.899475	145.360000
355.992950	145.920000
356.086426	146.020000
356.179871	146.420000
356.273346	146.380000
356.366791	146.800000
356.460266	147.100000
356.553711	147.160000
356.647186	147.180000
356.740631	147.020000
356.834106	146.600000
356.927551	146.440000
357.021027	146.360000
357.114471	146.440000
357.207947	146.940000
357.301422	147.400000
357.394867	147.800000
357.488342	147.880000
357.581818	147.640000
357.675262	147.680000
357.768738	147.580000
357.862213	146.720000
357.955658	146.760000
358.049133	146.820000
358.142609	146.920000
358.236053	146.720000
358.329529	146.900000
358.423035	146.920000
358.516449	146.760000
358.609955	146.960000
358.703400	147.620000
358.796906	148.000000
358.890350	147.620000
358.983826	147.860000
359.077271	147.100000
359.170776	146.760000
359.264221	146.080000
359.357727	146.560000
359.451172	146.720000
359.544647	146.980000
359.638123	147.000000
359.731598	147.580000
359.825073	147.640000
359.918549	147.580000
360.012024	147.580000
360.105499	147.120000
360.198975	147.280000
360.292450	146.800000
360.385925	146.560000
360.479401	146.480000
360.572876	146.880000
360.666351	146.900000
360.759857	146.960000
360.853302	146.960000
360.946808	146.600000
361.040253	146.500000
361.133759	146.040000
361.227203	146.300000
361.320709	146.000000
361.414154	146.700000
361.507660	146.920000
361.601105	147.560000
361.694641	147.980000
361.788086	148.120000
361.881592	147.940000
361.975067	147.660000
362.068542	147.700000
362.162018	147.260000
362.255524	147.020000
362.348999	147.040000
362.442474	147.520000
362.535950	147.000000
362.629456	146.800000
362.722931	146.960000
362.816406	147.300000
362.909882	147.320000
363.003387	147.060000
363.096863	147.660000
363.190338	147.680000
363.283875	147.600000
363.377319	147.100000
363.470825	147.580000
363.564301	147.000000
363.657806	147.160000
363.751282	146.480000
363.844788	147.440000
363.938232	146.880000
364.031769	147.460000
364.125214	147.840000
364.218750	148.580000
364.312225	147.380000
364.405731	147.820000
364.499207	147.220000
364.592712	146.700000
364.686188	146.360000
364.779694	146.640000
364.873169	146.540000
364.966675	146.440000
365.060150	146.400000
365.153656	146.620000
365.247131	146.720000
365.340637	147.240000
365.434143	147.780000
365.527618	148.180000
365.621155	147.780000
365.714600	147.620000
365.808136	147.400000
365.901611	146.440000
365.995117	146.020000
366.088593	145.820000
366.182129	145.640000
366.275604	145.460000
366.369110	145.660000
366.462585	145.520000
366.556122	145.920000
366.649567	145.900000
366.743103	145.940000
366.836609	146.060000
366.930115	146.600000
367.023590	146.660000
367.117096	146.820000
367.210602	146.900000
367.304108	147.340000
367.397614	147.400000
367.491119	147.720000
367.584595	148.060000
367.678101	148.100000
367.771606	147.480000
367.865112	147.400000
367.958649	146.440000
368.052124	146.040000
368.145660	145.500000
368.239136	146.300000
368.332672	146.260000
368.426147	146.480000
368.519684	146.540000
368.613159	147.340000
368.706696	146.520000
368.800171	146.640000
368.893707	146.840000
368.987183	146.900000
369.080719	146.440000
369.174225	146.840000
369.267731	146.640000
369.361237	146.680000
369.454742	146.700000
369.548248	147.100000
369.641754	146.820000
369.735260	146.840000
369.828766	146.340000
369.922272	146.840000
370.015808	146.360000
370.109314	146.200000
370.202820	145.900000
370.296356	147.260000
370.389832	146.760000
370.483368	146.680000
370.576874	146.760000
370.670410	147.280000
370.763885	145.720000
370.857422	145.760000
370.950928	145.640000
371.044464	146.460000
371.137939	145.940000
371.231476	146.600000
371.324982	147.100000
371.418518	147.420000
371.512024	147.040000
371.605560	147.100000
371.699066	147.120000
371.792572	146.420000
371.886108	146.720000
371.979614	146.620000
372.073120	147.120000
372.166656	147.100000
372.260162	147.620000
372.353668	147.560000
372.447205	147.500000
372.540710	147.380000
372.634277	147.220000
372.727753	146.980000
372.821320	146.840000
372.914795	146.840000
373.008362	146.500000
373.101837	146.720000
373.195404	146.400000
373.288879	146.060000
373.382446	146.600000
373.475922	146.560000
373.569489	147.260000
373.662964	148.020000
373.756531	148.140000
373.850037	148.080000
373.943573	148.360000
374.037109	147.220000
374.130615	147.200000
374.224152	147.620000
374.317657	147.160000
374.411194	147.820000
374.504730	148.000000
374.598236	147.620000
374.691772	147.000000
374.785309	147.340000
374.878815	146.300000
374.972351	146.660000
375.065887	146.540000
375.159454	147.460000
375.252930	147.060000
375.346497	147.660000
375.440002	148.120000
375.533569	147.800000
375.627045	147.000000
375.720612	147.020000
375.814117	146.920000
375.907684	146.600000
376.001160	146.720000
376.094727	146.400000
376.188232	147.360000
376.281799	147.200000
376.375336	147.080000
376.468872	147.700000
376.562408	148.300000
376.655914	147.480000
376.749451	147.680000
376.842987	147.500000
376.936523	147.100000
377.030060	147.080000
377.123596	147.320000
377.217133	146.860000
377.310669	147.160000
377.404205	147.600000
377.497772	147.840000
377.591278	147.460000
377.684845	148.180000
377.778351	148.280000
377.871918	147.840000
377.965424	147.220000
378.058990	146.940000
378.152496	146.440000
378.246063	146.220000
378.339569	146.460000
378.433136	146.720000
378.526642	147.280000
378.620209	147.520000
378.713745	147.540000
378.807312	147.580000
378.900848	147.340000
378.994385	147.340000
379.087921	146.440000
379.181458	146.360000
379.274994	145.680000
379.368530	145.600000
379.462097	146.000000
379.555634	147.060000
379.649170	146.660000
379.742706	147.020000
379.836273	147.480000
379.929810	147.040000
380.023376	146.360000
380.116882	146.460000
380.210449	146.200000
380.303986	145.720000
380.397552	145.040000
380.491058	145.440000
380.584656	145.280000
380.678162	145.520000
380.771729	145.560000
380.865265	146.760000
380.958832	146.680000
381.052368	147.120000
381.145935	147.400000
381.239471	147.940000
381.333008	147.580000
381.426575	147.600000
381.520111	147.860000
381.613647	147.920000
381.707214	147.460000
381.800751	146.820000
381.894318	146.800000
381.987854	146.000000
382.081421	145.940000
382.174988	146.340000
382.268524	146.240000
382.362091	146.500000
382.455627	147.520000
382.549194	147.100000
382.642731	146.600000
382.736298	146.640000
382.829834	145.960000
382.923401	146.380000
383.016937	146.560000
383.110504	146.960000
383.204041	147.180000
383.297607	147.820000
383.391174	146.860000
383.484741	147.640000
383.578278	147.300000
383.671844	147.180000
383.765411	146.680000
383.858948	147.000000
383.952515	146.340000
384.046051	146.620000
384.139618	146.760000
384.233185	147.060000
384.326721	146.800000
384.420288	147.260000
384.513855	147.140000
384.607422	147.780000
384.700989	148.040000
384.794525	147.680000
384.888123	147.520000
384.981659	147.740000
385.075226	146.860000
385.168762	146.440000
385.262360	146.560000
385.355896	145.560000
385.449463	145.400000
385.542999	145.700000
385.636597	146.580000
385.730164	147.100000
385.823730	147.400000
385.917267	147.160000
386.010834	147.380000
386.104401	146.900000
386.197968	146.920000
386.291534	147.300000
386.385101	147.580000
386.478668	147.880000
386.572235	147.840000
386.665802	147.220000
386.759338	146.940000
386.852905	146.820000
386.946472	146.040000
387.040070	145.900000
387.133606	146.180000
387.227203	146.140000
387.320740	146.560000
387.414337	146.720000
387.507874	146.640000
387.601471	146.620000
387.695007	146.560000
387.788605	146.160000
387.882141	146.300000
387.975739	146.660000
388.069275	146.480000
388.162872	146.740000
388.256439	146.780000
388.350037	146.400000
388.443604	145.920000
388.537170	146.020000
388.630737	146.380000
388.724304	146.400000
388.817871	146.620000
388.911438	146.920000
389.005005	147.120000
389.098602	147.500000
389.192169	147.180000
389.285736	147.620000
389.379333	147.640000
389.472870	147.200000
389.566467	146.660000
389.660034	146.720000
389.753632	146.180000
389.847168	146.800000
389.940765	147.300000
390.034332	147.380000
390.127930	147.260000
390.221466	147.280000
390.315063	146.140000
390.408630	145.360000
390.502228	144.900000
390.595795	145.240000
390.689362	145.360000
390.782959	146.040000
390.876526	146.780000
390.970093	147.000000
391.063690	147.500000
391.157257	147.520000
391.250824	147.320000
391.344421	147.160000
391.437988	147.380000
391.531555	147.060000
391.625153	147.280000
391.718750	147.220000
391.812317	147.060000
391.905914	146.920000
391.999481	146.860000
392.093079	146.780000
392.186615	147.300000
392.280243	147.560000
392.373779	147.160000
392.467407	147.560000
392.560944	147.520000
392.654572	146.800000
392.748108	146.760000
392.841736	146.820000
392.935303	146.240000
393.028900	146.000000
393.122467	146.260000
393.216064	145.880000
393.309631	145.920000
393.403229	145.720000
393.496796	145.560000
393.590393	145.080000
393.683990	145.540000
393.777557	146.020000
393.871155	146.460000
393.964722	147.120000
394.058350	147.320000
394.151917	147.220000
394.245514	146.860000
394.339081	147.160000
394.432678	147.240000
394.526245	147.420000
394.619873	147.040000
394.713409	147.260000
394.807037	146.780000
394.900604	146.840000
394.994202	146.940000
395.087769	147.200000
395.181396	146.780000
395.274994	147.480000
395.368561	146.560000
395.462158	146.760000
395.555756	146.640000
395.649353	147.340000
395.742920	146.680000
395.836517	147.880000
395.930115	146.900000
396.023712	147.020000
396.117279	147.040000
396.210876	146.700000
396.304474	146.360000
396.398071	147.120000
396.491669	147.480000
396.585266	147.140000
396.678833	147.400000
396.772461	147.520000
396.866028	147.440000
396.959656	147.620000
397.053223	148.160000
397.146851	148.220000
397.240417	148.700000
397.334015	150.040000
397.427582	150.700000
397.521210	152.220000
397.614807	154.800000
397.708405	157.440000
397.802002	160.680000
397.895599	165.940000
397.989197	171.420000
398.082794	178.660000
398.176392	187.700000
398.269989	197.820000
398.363586	210.080000
398.457184	225.100000
398.550781	241.920000
398.644379	259.060000
398.737976	278.080000
398.831573	295.920000
398.925201	311.900000
399.018768	326.180000
399.112396	339.780000
399.205963	352.620000
399.299591	364.980000
399.393158	378.580000
399.486786	393.300000
399.580353	407.520000
399.673981	419.100000
399.767578	430.340000
399.861206	438.560000
399.954773	442.420000
400.048401	442.540000
400.141998	438.920000
400.235596	431.900000
400.329193	421.260000
400.422791	409.260000
400.516418	395.900000
400.610016	383.780000
400.703613	371.340000
400.797211	357.800000
400.890808	343.280000
400.984436	328.860000
401.078033	312.380000
401.171631	294.760000
401.265259	277.680000
401.358826	261.440000
401.452484	244.820000
401.546051	229.900000
401.639679	215.320000
401.733246	203.500000
401.826904	192.220000
401.920471	183.180000
402.014099	175.680000
402.107697	169.880000
402.201324	164.340000
402.294891	160.560000
402.388550	157.180000
402.482147	154.720000
402.575745	152.660000
402.669373	151.240000
402.762970	149.980000
402.856567	149.540000
402.950195	149.060000
403.043793	148.540000
403.137390	149.140000
403.231018	148.320000
403.324615	148.420000
403.418243	147.820000
403.511841	148.280000
403.605469	147.500000
403.699066	148.180000
403.792694	148.020000
403.886292	148.420000
403.979919	148.320000
404.073517	148.180000
404.167145	148.300000
404.260712	148.220000
404.354370	147.740000
404.447937	147.660000
404.541595	147.680000
404.635162	147.740000
404.728821	148.080000
404.822418	147.860000
404.916046	147.580000
405.009644	147.700000
405.103271	147.900000
405.196899	147.620000
405.290497	147.720000
405.384125	148.280000
405.477722	147.720000
405.571350	146.960000
405.664948	146.920000
405.758575	146.740000
405.852203	145.920000
405.945801	146.280000
406.039429	146.320000
406.133057	145.940000
406.226654	146.140000
406.320312	146.300000
406.413879	146.280000
406.507538	146.680000
406.601135	146.400000
406.694763	146.920000
406.788361	146.940000
406.882019	146.460000
406.975586	146.860000
407.069244	147.740000
407.162872	147.680000
407.256470	147.440000
407.350098	147.480000
407.443726	146.500000
407.537323	145.920000
407.630951	145.880000
407.724579	145.880000
407.818207	146.520000
407.911804	146.920000
408.005432	146.920000
408.099060	146.960000
408.192688	147.660000
408.286285	147.280000
408.379913	147.040000
408.473572	147.260000
408.567169	146.680000
408.660828	146.140000
408.754395	145.940000
408.848053	145.760000
408.941650	145.960000
409.035309	145.880000
409.128906	145.800000
409.222565	146.260000
409.316132	146.840000
409.409790	146.480000
409.503387	146.740000
409.597046	146.980000
409.690674	147.020000
409.784302	146.540000
409.877930	146.540000
409.971558	146.800000
410.065186	146.660000
410.158783	146.440000
410.252411	146.280000
410.346039	146.740000
410.439667	146.360000
410.533295	146.640000
410.626923	146.920000
410.720551	147.300000
410.814209	147.400000
410.907806	147.780000
411.001465	147.180000
411.095062	147.000000
411.188721	147.040000
411.282318	146.620000
411.375977	145.980000
411.469574	146.180000
411.563232	146.240000
411.656830	146.060000
411.750488	145.760000
411.844086	146.100000
411.937744	146.320000
412.031372	146.180000
412.125000	146.140000
412.218628	146.280000
412.312256	146.920000
412.405884	147.500000
412.499512	147.380000
412.593170	147.280000
412.686798	147.600000
412.780426	146.780000
412.874054	146.360000
412.967682	146.660000
413.061310	147.900000
413.154968	147.640000
413.248566	148.060000
413.342224	148.080000
413.435852	148.200000
413.529510	147.460000
413.623108	147.280000
413.716766	146.940000
413.810364	147.040000
413.904022	146.480000
413.997650	145.860000
414.091309	146.780000
414.184906	146.700000
414.278564	146.220000
414.372192	146.720000
414.465851	147.120000
414.559479	146.420000
414.653107	147.360000
414.746735	147.620000
414.840393	147.320000
414.934021	147.660000
415.027649	147.440000
415.121277	146.820000
415.214935	146.840000
415.308563	147.060000
415.402191	146.260000
415.495850	146.260000
415.589478	145.860000
415.683136	145.800000
415.776733	145.820000
415.870422	146.640000
415.964020	146.300000
416.057678	146.820000
416.151306	146.520000
416.244965	146.380000
416.338562	146.260000
416.432251	147.080000
416.525848	147.880000
416.619507	148.620000
416.713165	148.960000
416.806793	148.760000
416.900421	148.720000
416.994080	147.360000
417.087708	146.780000
417.181366	146.440000
417.274994	146.280000
417.368622	146.480000
417.462280	147.400000
417.555908	147.440000
417.649567	147.280000
417.743195	147.440000
417.836853	147.100000
417.930481	146.940000
418.024170	147.180000
418.117767	147.660000
418.211426	147.740000
418.305054	147.960000
418.398712	147.380000
418.492340	147.440000
418.585999	147.480000
418.679626	147.520000
418.773285	147.160000
418.866913	147.860000
418.960571	147.860000
419.054230	147.880000
419.147858	148.100000
419.241516	148.320000
419.335144	147.840000
419.428802	147.580000
419.522461	147.320000
419.616089	146.680000
419.709747	146.980000
419.803375	147.440000
419.897034	147.380000
419.990662	147.420000
420.084320	148.060000
420.177979	148.000000
420.271606	147.660000
420.365295	148.180000
420.458893	148.220000
420.552582	148.360000
420.646210	148.340000
420.739868	148.080000
420.833496	147.760000
420.927155	147.380000
421.020782	146.980000
421.114471	146.500000
421.208069	146.920000
421.301758	146.920000
421.395386	147.360000
421.489044	146.960000
421.582703	146.920000
421.676361	147.240000
421.769989	147.160000
421.863647	147.260000
421.957306	147.780000
422.050934	148.200000
422.144592	147.720000
422.238251	147.540000
422.331909	147.280000
422.425537	147.000000
422.519196	146.800000
422.612854	146.640000
422.706543	146.420000
422.800140	146.760000
422.893829	146.500000
422.987457	146.260000
423.081146	146.600000
423.174744	147.340000
423.268433	146.620000
423.362061	146.600000
423.455750	146.480000
423.549347	146.260000
423.643036	145.580000
423.736664	146.460000
423.830353	146.680000
423.924011	147.200000
424.017639	146.620000
424.111298	146.760000
424.204956	146.340000
424.298615	146.480000
424.392273	146.260000
424.485931	146.620000
424.579559	146.740000
424.673218	146.580000
424.766876	146.640000
424.860535	146.360000
424.954193	146.340000
425.047882	146.720000
425.141510	146.920000
425.235199	146.900000
425.328796	146.900000
425.422485	146.960000
425.516113	146.120000
425.609802	146.100000
425.703430	146.080000
425.797119	146.000000
425.890747	146.020000
425.984436	146.520000
426.078064	146.560000
426.171753	146.680000
426.265411	146.840000
426.359070	147.260000
426.452728	147.240000
426.546356	147.160000
426.640015	146.960000
426.733673	147.320000
426.827332	146.620000
426.920990	147.340000
427.014648	147.060000
427.108307	147.200000
427.201965	147.420000
427.295624	148.160000
427.389282	147.040000
427.482941	147.280000
427.576630	147.140000
427.670258	146.340000
427.763947	145.740000
427.857574	146.000000
427.951263	145.960000
428.044922	145.840000
428.138611	146.180000
428.232239	146.880000
428.325928	147.260000
428.419556	147.860000
428.513245	147.520000
428.606903	147.640000
428.700562	146.960000
428.794220	146.280000
428.887878	145.400000
428.981537	145.820000
429.075195	145.680000
429.168854	146.380000
429.262512	146.560000
429.356201	147.040000
429.449860	146.820000
429.543518	146.680000
429.637177	146.400000
429.730835	146.500000
429.824493	146.060000
429.918182	146.420000
430.011810	146.140000
430.105530	145.680000
430.199158	145.780000
430.292847	145.880000
430.386475	145.640000
430.480164	145.540000
430.573792	145.440000
430.667511	145.640000
430.761139	145.860000
430.854828	146.440000
430.948456	147.360000
431.042145	147.840000
431.135834	147.560000
431.229492	147.500000
431.323151	147.460000
431.416809	146.920000
431.510468	146.940000
431.604156	146.540000
431.697815	146.420000
431.791473	145.840000
431.885132	145.660000
431.978821	145.940000
432.072479	146.700000
432.166138	147.140000
432.259827	147.180000
432.353485	147.720000
432.447174	147.540000
432.540802	147.080000
432.634491	147.260000
432.728149	148.000000
432.821838	148.120000
432.915466	147.820000
433.009186	147.860000
433.102814	147.060000
433.196503	146.400000
433.290131	146.220000
433.383850	146.740000
433.477509	146.960000
433.571167	147.640000
433.664856	148.180000
433.758514	148.700000
433.852173	148.380000
433.945862	148.340000
434.039520	148.340000
434.133179	147.460000
434.226868	146.700000
434.320526	146.040000
434.414185	146.660000
434.507874	146.200000
434.601562	146.700000
434.695221	146.540000
434.788910	146.780000
434.882538	146.180000
434.976257	146.060000
435.069885	146.160000
435.163574	146.360000
435.257233	146.240000
435.350922	146.320000
435.444580	146.320000
435.538269	145.980000
435.631897	146.520000
435.725616	147.420000
435.819275	147.800000
435.912964	148.100000
436.006622	148.780000
436.100311	148.460000
436.193970	147.680000
436.287628	147.240000
436.381317	147.040000
436.474976	146.180000
436.568665	145.660000
436.662323	145.940000
436.756012	146.120000
436.849670	145.740000
436.943390	146.180000
437.037018	146.220000
437.130737	146.040000
437.224365	145.820000
437.318085	146.160000
437.411713	146.180000
437.505432	146.680000
437.599060	147.180000
437.692780	147.960000
437.786407	148.060000
437.880127	148.020000
437.973755	148.000000
438.067474	147.080000
438.161133	146.700000
438.254822	147.240000
438.348480	147.160000
438.442169	147.540000
438.535828	148.380000
438.629517	148.120000
438.723175	147.000000
438.816864	147.560000
438.910553	146.920000
439.004211	146.600000
439.097900	146.380000
439.191559	146.880000
439.285248	145.800000
439.378906	146.120000
439.472626	146.220000
439.566284	146.540000
439.659973	146.720000
439.753632	146.820000
439.847321	147.280000
439.940979	147.320000
440.034698	147.000000
440.128326	146.500000
440.222046	146.860000
440.315674	145.740000
440.409393	145.640000
440.503082	145.920000
440.596741	146.360000
440.690430	146.460000
440.784088	146.720000
440.877777	146.300000
440.971466	146.280000
441.065125	146.200000
441.158813	145.780000
441.252502	145.980000
441.346161	146.640000
441.439850	146.520000
441.533539	146.420000
441.627197	147.140000
441.720886	146.880000
441.814606	146.900000
441.908234	147.580000
442.001953	147.420000
442.095612	147.360000
442.189301	147.980000
442.282959	147.980000
442.376678	147.040000
442.470306	147.880000
442.564026	147.520000
442.657684	147.280000
442.751404	147.440000
442.845032	148.300000
442.938751	147.440000
443.032440	147.700000
443.126099	147.240000
443.219788	147.280000
443.313477	147.240000
443.407166	147.880000
443.500824	147.860000
443.594513	148.420000
443.688202	148.240000
443.781891	147.260000
443.875549	146.660000
443.969238	146.260000
444.062927	145.920000
444.156647	145.700000
444.250275	146.360000
444.343994	146.560000
444.437653	147.040000
444.531372	147.360000
444.625031	147.120000
444.718719	146.820000
444.812378	146.840000
444.906097	146.600000
444.999756	146.060000
445.093445	146.340000
445.187103	146.260000
445.280823	146.840000
445.374512	146.300000
445.468201	146.520000
445.561859	146.620000
445.655548	146.680000
445.749237	145.900000
445.842926	146.520000
445.936615	147.220000
446.030304	146.840000
446.123962	147.040000
446.217651	147.180000
446.311340	147.140000
446.405029	146.320000
446.498749	146.380000
446.592407	146.140000
446.686096	146.180000
446.779755	146.260000
446.873474	146.540000
446.967133	146.820000
447.060852	146.500000
447.154510	146.300000
447.248230	146.140000
447.341858	146.140000
447.435577	145.460000
447.529236	145.600000
447.622955	145.640000
447.716644	145.500000
447.810333	145.760000
447.904022	146.760000
447.997711	146.820000
448.091400	147.140000
448.185059	147.220000
448.278748	147.180000
448.372437	146.620000
448.466125	147.060000
448.559814	146.960000
448.653503	147.120000
448.747192	147.220000
448.840912	147.540000
448.934570	147.320000
449.028290	147.520000
449.121948	147.080000
449.215637	146.620000
449.309296	146.240000
449.403015	146.280000
449.496674	146.260000
449.590393	146.460000
449.684052	146.440000
449.777771	147.300000
449.871429	146.960000
449.965149	146.740000
450.058838	147.280000
450.152527	147.940000
450.246216	147.440000
450.339905	147.760000
450.433594	147.420000
450.527283	147.560000
450.620972	147.040000
450.714661	146.860000
450.808350	146.800000
450.902039	147.440000
450.995728	147.200000
451.089417	146.880000
451.183105	147.000000
451.276794	147.300000
451.370514	146.840000
451.464172	145.940000
451.557892	145.980000
451.651550	146.000000
451.745270	145.500000
451.838928	145.360000
451.932648	146.140000
452.026306	146.920000
452.120026	146.500000
452.213684	146.940000
452.307404	147.000000
452.401062	146.920000
452.494781	146.660000
452.588470	146.940000
452.682159	146.480000
452.775848	146.680000
452.869537	146.240000
452.963226	145.960000
453.056915	145.600000
453.150604	145.920000
453.244293	145.920000
453.337982	146.600000
453.431671	146.960000
453.525360	147.560000
453.619049	147.360000
453.712769	147.460000
453.806427	146.940000
453.900146	146.440000
453.993805	146.460000
454.087555	146.800000
454.181213	146.920000
454.274933	146.960000
454.368591	147.040000
454.462311	146.420000
454.555969	146.120000
454.649689	146.620000
454.743347	146.540000
454.837067	147.140000
454.930756	147.940000
455.024445	147.940000
455.118134	147.320000
455.211853	147.360000
455.305542	146.640000
455.399231	146.380000
455.492920	146.380000
455.586609	146.600000
455.680298	146.920000
455.773987	146.980000
455.867676	146.960000
455.961365	147.220000
456.055084	147.100000
456.148773	146.780000
456.242493	147.040000
456.336151	146.920000
456.429871	147.340000
456.523529	147.640000
456.617249	147.520000
456.710907	147.740000
456.804626	147.940000
456.898315	147.320000
456.992035	146.900000
457.085693	146.800000
457.179413	146.180000
457.273102	146.580000
457.366791	146.620000
457.460480	146.880000
457.554199	147.560000
457.647888	147.820000
457.741577	147.280000
457.835266	147.620000
457.928955	147.740000
458.022644	147.720000
458.116364	147.960000
458.210052	147.840000
458.303741	147.440000
458.397461	147.080000
458.491119	146.640000
458.584839	146.580000
458.678528	146.280000
458.772247	146.240000
458.865906	146.140000
458.959625	147.200000
459.053284	147.120000
459.147003	147.360000
459.240692	147.860000
459.334412	148.040000
459.428070	147.180000
459.521790	146.880000
459.615479	146.620000
459.709198	146.780000
459.802887	146.220000
459.896576	146.120000
459.990265	146.120000
460.083954	146.600000
460.177673	146.020000
460.271362	146.360000
460.365051	146.220000
460.458740	146.180000
460.552429	145.600000
460.646149	145.420000
460.739838	145.060000
460.833527	144.980000
460.927246	144.840000
461.020905	145.080000
461.114655	145.200000
461.208313	145.700000
461.302032	145.640000
461.395691	146.020000
461.489441	145.920000
461.583099	146.120000
461.676819	145.780000
461.770477	146.120000
461.864197	146.080000
461.957916	146.500000
462.051605	145.680000
462.145294	146.800000
462.238983	146.580000
462.332703	146.740000
462.426392	147.120000
462.520081	147.540000
462.613770	146.540000
462.707489	146.820000
462.801178	146.600000
462.894867	146.200000
462.988556	146.440000
463.082275	146.900000
463.175964	146.200000
463.269684	146.600000
463.363342	146.400000
463.457092	145.660000
463.550751	145.680000
463.644470	146.360000
463.738129	146.100000
463.831879	146.320000
463.925537	147.320000
464.019257	147.320000
464.112946	147.360000
464.206665	146.980000
464.300323	147.060000
464.394043	146.620000
464.487762	146.600000
464.581451	146.680000
464.675140	146.940000
464.768829	146.920000
464.862549	147.060000
464.956238	147.080000
465.049927	146.960000
465.143646	146.940000
465.237335	146.600000
465.331024	147.060000
465.424713	146.880000
465.518433	147.220000
465.612152	147.360000
465.705811	147.540000
465.799561	147.420000
465.893219	147.100000
465.986938	146.840000
466.080597	146.520000
466.174347	146.720000
466.268005	146.700000
466.361725	146.780000
466.455414	146.640000
466.549133	146.620000
466.642792	146.540000
466.736542	145.920000
466.830231	145.940000
466.923920	145.960000
467.017609	146.200000
467.111328	145.860000
467.205017	145.760000
467.298706	146.100000
467.392426	146.260000
467.486115	146.580000
467.579803	146.480000
467.673523	147.140000
467.767212	147.400000
467.860901	147.060000
467.954651	146.760000
468.048309	147.340000
468.142029	146.920000
468.235718	146.260000
468.329437	146.480000
468.423096	146.180000
468.516846	145.540000
468.610504	145.620000
468.704224	145.580000
468.797913	145.300000
468.891632	145.820000
468.985291	146.020000
469.079010	146.080000
469.172729	145.960000
469.266418	146.680000
469.360107	146.620000
469.453827	146.540000
469.547516	146.380000
469.641205	147.080000
469.734924	147.120000
469.828613	147.360000
469.922302	147.520000
470.016022	147.800000
470.109711	147.280000
470.203430	146.460000
470.297150	145.980000
470.390808	146.360000
470.484558	146.000000
470.578217	146.720000
470.671936	147.320000
470.765625	147.740000
470.859344	147.400000
470.953003	147.980000
471.046753	147.380000
471.140411	146.820000
471.234131	146.860000
471.327820	147.280000
471.421539	147.380000
471.515228	147.280000
471.608948	147.160000
471.702637	146.820000
471.796326	146.420000
471.890045	146.260000
471.983734	146.620000
472.077423	146.580000
472.171143	146.640000
472.264832	146.740000
472.358521	146.540000
472.452240	146.060000
472.545929	147.040000
472.639648	147.120000
472.733337	147.520000
472.827057	147.700000
472.920746	147.920000
473.014465	147.780000
473.108124	147.740000
473.201874	147.440000
473.295532	147.220000
473.389252	147.700000
473.482941	147.660000
473.576660	147.420000
473.670319	147.480000
473.764069	147.940000
473.857727	148.060000
473.951477	148.060000
474.045166	148.680000
474.138855	148.440000
474.232574	148.080000
474.326263	147.720000
474.419952	147.820000
474.513672	147.760000
474.607361	147.640000
474.701050	147.800000
474.794769	147.880000
474.888458	148.020000
474.982178	147.880000
475.075867	148.140000
475.169586	147.840000
475.263275	147.440000
475.356995	147.140000
475.450653	147.060000
475.544403	146.540000
475.638062	147.760000
475.731812	147.320000
475.825470	147.080000
475.919189	147.300000
476.012878	147.600000
476.106598	146.320000
476.200256	147.280000
476.294006	147.460000
476.387695	147.240000
476.481384	147.420000
476.575104	147.460000
476.668793	146.840000
476.762512	146.580000
476.856201	147.080000
476.949890	146.520000
477.043610	146.180000
477.137299	146.340000
477.230988	146.700000
477.324707	145.940000
477.418396	146.680000
477.512146	147.160000
477.605804	147.280000
477.699524	147.000000
477.793213	146.820000
477.886932	146.400000
477.980591	146.020000
478.074341	145.940000
478.167999	145.600000
478.261749	146.020000
478.355408	145.920000
478.449127	146.680000
478.542816	147.220000
478.636536	147.780000
478.730225	147.900000
478.823944	148.320000
478.917633	147.900000
479.011322	147.880000
479.105042	147.740000
479.198730	147.720000
479.292450	147.540000
479.386139	147.800000
479.479828	147.380000
479.573547	147.800000
479.667267	147.340000
479.760925	147.320000
479.854675	147.640000
479.948334	147.700000
480.042084	146.920000
480.135742	147.520000
480.229462	147.200000
480.323151	146.600000
480.416870	146.160000
480.510529	146.400000
480.604279	145.800000
480.697937	146.300000
480.791656	146.080000
480.885345	145.960000
480.979065	145.940000
481.072754	146.300000
481.166473	146.280000
481.260132	146.300000
481.353882	146.660000
481.447540	146.580000
481.541260	146.680000
481.635010	146.280000
481.728668	146.260000
481.822388	146.280000
481.916077	146.720000
482.009796	146.620000
482.103485	147.080000
482.197205	147.220000
482.290863	147.560000
482.384613	147.040000
482.478271	146.820000
482.571991	146.420000
482.665680	146.540000
482.759399	146.940000
482.853058	147.640000
482.946808	147.660000
483.040466	147.660000
483.134216	147.480000
483.227875	146.820000
483.321594	147.340000
483.415283	147.300000
483.509003	147.400000
483.602661	147.400000
483.696411	147.760000
483.790070	147.060000
483.883789	147.000000
483.977478	147.440000
484.071198	147.700000
484.164917	147.080000
484.258606	146.520000
484.352325	146.860000
484.445984	146.620000
484.539734	146.340000
484.633392	146.220000
484.727142	146.980000
484.820801	146.800000
484.914520	146.720000
485.008209	147.100000
485.101929	147.840000
485.195587	147.440000
485.289337	147.440000
485.382996	147.620000
485.476715	147.360000
485.570404	147.640000
485.664124	147.280000
485.757782	147.640000
485.851532	147.280000
485.945190	147.200000
486.038910	146.540000
486.132599	147.060000
486.226318	146.380000
486.319977	146.400000
486.413727	146.780000
486.507446	146.480000
486.601105	145.980000
486.694855	145.900000
486.788513	145.840000
486.882233	145.680000
486.975922	146.240000
487.069641	146.360000
487.163300	146.560000
487.257050	147.840000
487.350708	147.520000
487.444427	147.080000
487.538116	147.060000
487.631836	147.020000
487.725494	146.300000
487.819214	146.500000
487.912903	146.420000
488.006622	146.880000
488.100281	147.220000
488.194031	146.940000
488.287689	147.400000
488.381409	148.240000
488.475098	147.880000
488.568817	147.920000
488.662476	147.780000
488.756226	147.000000
488.849945	145.880000
488.943604	146.200000
489.037354	146.040000
489.131012	146.060000
489.224731	146.280000
489.318390	146.640000
489.412140	146.400000
489.505798	146.320000
489.599518	145.840000
489.693207	146.160000
489.786926	146.140000
489.880585	145.880000
489.974335	146.160000
490.067993	147.460000
490.161713	147.580000
490.255371	148.260000
490.349121	148.700000
490.442780	148.440000
490.536499	147.580000
490.630188	147.680000
490.723907	146.900000
490.817566	146.680000
490.911285	146.920000
491.004974	146.780000
491.098694	146.160000
491.192413	146.780000
491.286102	146.520000
491.379822	146.620000
491.473480	147.040000
491.567200	147.180000
491.660889	146.500000
491.754608	146.600000
491.848267	146.360000
491.941986	146.360000
492.035675	146.140000
492.129395	146.680000
492.223053	146.740000
492.316772	146.780000
492.410461	146.440000
492.504181	146.820000
492.597839	146.440000
492.691559	146.460000
492.785248	146.620000
492.878967	146.780000
492.972626	146.360000
493.066345	146.540000
493.160034	145.820000
493.253754	145.640000
493.347412	145.260000
493.441132	145.700000
493.534882	145.920000
493.628540	146.820000
493.722260	146.920000
493.815918	147.180000
493.909668	147.460000
494.003326	147.640000
494.097046	147.440000
494.190704	147.140000
494.284454	146.980000
494.378113	146.720000
494.471832	146.540000
494.565491	146.480000
494.659210	146.780000
494.752899	146.780000
494.846619	146.460000
494.940277	146.340000
495.033997	146.580000
495.127686	146.180000
495.221405	146.220000
495.315063	146.600000
495.408783	146.600000
495.502441	146.560000
495.596191	146.840000
495.689850	146.840000
495.783569	146.800000
495.877228	146.740000
495.970947	146.380000
496.064697	145.940000
496.158356	146.600000
496.252075	146.620000
496.345734	146.760000
496.439453	147.620000
496.533142	147.980000
496.626862	147.980000
496.720520	147.920000
496.814240	148.020000
496.907898	147.440000
497.001617	147.740000
497.095306	146.760000
497.189026	146.640000
497.282684	146.660000
497.376404	146.920000
497.470062	146.400000
497.563782	146.900000
497.657471	146.840000
497.751190	146.540000
497.844849	146.300000
497.938568	146.720000
498.032227	146.520000
498.125946	146.460000
498.219635	146.260000
498.313354	146.320000
498.407074	146.260000
498.500732	146.520000
498.594452	146.940000
498.688110	146.900000
498.781830	146.540000
498.875519	146.360000
498.969238	146.100000
499.062897	145.400000
499.156616	145.740000
499.250275	146.220000
499.343994	145.680000
499.437653	145.980000
499.531372	146.680000
499.625061	147.320000
499.718781	147.120000
499.812439	147.680000
499.906158	147.620000
499.999817	146.880000
500.093536	146.200000
500.187195	146.200000
500.280914	146.400000
500.374573	146.600000
500.468323	146.660000
500.561981	146.920000
500.655701	146.720000
500.749420	146.620000
500.843079	146.500000
500.936798	146.900000
501.030457	146.980000
501.124176	147.100000
501.217834	147.220000
501.311554	147.060000
501.405212	146.720000
501.498962	146.360000
501.592621	146.220000
501.686340	146.240000
501.779999	146.420000
501.873718	146.760000
501.967377	146.980000
502.061096	147.440000
502.154755	146.980000
502.248474	147.060000
502.342133	147.400000
502.435852	147.320000
502.529510	147.980000
502.623230	149.000000
502.716888	148.360000
502.810608	148.120000
502.904266	148.420000
502.997986	147.560000
503.091705	146.380000
503.185364	146.720000
503.279083	146.580000
503.372772	146.240000
503.466492	145.800000
503.560150	146.200000
503.653870	146.420000
503.747528	146.460000
503.841248	146.180000
503.934906	146.640000
504.028625	146.340000
504.122284	146.460000
504.216003	146.960000
504.309662	146.800000
504.403381	146.740000
504.497040	146.760000
504.590759	146.280000
504.684418	146.320000
504.778137	146.680000
504.871796	147.100000
504.965515	147.020000
505.059174	147.120000
505.152893	146.340000
505.246521	146.120000
505.340240	145.560000
505.433899	145.820000
505.527618	146.180000
505.621338	146.620000
505.714996	146.620000
505.808716	146.520000
505.902374	146.780000
505.996094	146.640000
506.089752	146.220000
506.183472	146.420000
506.277130	146.860000
506.370850	146.820000
506.464508	146.700000
506.558228	147.340000
506.651886	146.920000
506.745605	146.800000
506.839264	146.700000
506.932983	146.780000
507.026611	146.500000
507.120331	147.280000
507.213989	147.040000
507.307709	146.960000
507.401367	147.260000
507.495087	147.720000
507.588745	147.320000
507.682465	148.460000
507.776123	148.740000
507.869843	148.420000
507.963531	148.300000
508.057190	148.800000
508.150909	147.580000
508.244568	147.360000
508.338287	147.100000
508.431946	146.340000
508.525665	145.740000
508.619324	145.880000
508.713013	146.080000
508.806671	146.420000
508.900391	147.400000
508.994049	147.580000
509.087769	147.520000
509.181427	147.560000
509.275146	147.440000
509.368774	146.780000
509.462494	146.820000
509.556152	146.600000
509.649872	146.820000
509.743530	146.800000
509.837250	146.860000
509.930878	146.820000
510.024597	146.980000
510.118256	146.800000
510.211975	146.800000
510.305695	146.540000
510.399353	146.940000
510.493042	147.420000
510.586700	147.320000
510.680420	147.620000
510.774078	147.620000
510.867798	147.420000
510.961426	146.800000
511.055145	146.720000
511.148804	146.380000
511.242523	146.840000
511.336151	146.840000
511.429871	147.380000
511.523529	147.300000
511.617249	147.260000
511.710876	146.720000
511.804596	146.380000
511.898254	146.340000
511.991974	146.340000
512.085632	146.220000
512.179321	146.660000
512.272949	147.080000
512.366699	147.120000
512.460327	147.100000
512.554077	148.040000
512.647766	147.740000
512.741394	147.200000
512.835144	147.540000
512.928772	147.420000
513.022461	147.080000
513.116150	147.020000
513.209839	147.660000
513.303467	147.080000
513.397217	146.860000
513.490845	146.680000
513.584595	146.360000
513.678223	145.800000
513.771912	145.180000
513.865601	145.660000
513.959290	145.000000
514.052917	145.280000
514.146667	146.300000
514.240295	147.100000
514.333984	147.100000
514.427673	147.440000
514.521362	147.660000
514.614990	146.760000
514.708740	146.900000
514.802368	147.140000
514.896057	147.420000
514.989746	148.140000
515.083435	148.060000
515.177124	148.160000
515.270752	147.840000
515.364502	147.660000
515.458130	147.540000
515.551819	147.540000
515.645508	147.020000
515.739197	147.000000
515.832825	147.580000
515.926575	147.360000
516.020203	147.460000
516.113892	148.220000
516.207520	147.960000
516.301270	147.340000
516.394897	147.080000
516.488586	147.700000
516.582275	147.220000
516.675964	147.160000
516.769592	146.940000
516.863281	147.460000
516.956970	147.480000
517.050659	147.280000
517.144287	147.320000
517.238037	147.600000
517.331665	146.900000
517.425354	146.020000
517.519043	146.120000
517.612732	146.560000
517.706421	146.300000
517.800049	146.240000
517.893738	146.400000
517.987427	146.180000
518.081116	146.160000
518.174744	145.980000
518.268433	146.540000
518.362122	147.280000
518.455811	147.280000
518.549438	147.660000
518.643127	148.740000
518.736816	148.260000
518.830505	147.640000
518.924133	147.620000
519.017822	147.500000
519.111511	146.780000
519.205200	147.340000
519.298828	147.040000
519.392517	146.620000
519.486206	146.680000
519.579895	146.780000
519.673523	146.260000
519.767212	146.400000
519.860901	147.620000
519.954590	147.000000
520.048279	146.840000
520.141907	146.860000
520.235596	148.060000
520.329224	148.000000
520.422974	148.140000
520.516602	148.160000
520.610291	148.060000
520.703918	147.360000
520.797607	146.800000
520.891296	147.080000
520.984985	147.160000
521.078613	147.660000
521.172302	147.320000
521.265930	147.980000
521.359680	148.240000
521.453308	148.280000
521.546997	147.880000
521.640625	147.980000
521.734314	147.600000
521.827942	147.140000
521.921692	147.480000
522.015320	147.460000
522.109009	146.960000
522.202698	146.640000
522.296326	146.580000
522.390015	146.600000
522.483704	146.640000
522.577393	146.860000
522.671021	146.600000
522.764709	146.300000
522.858337	146.380000
522.952026	146.360000
523.045654	147.020000
523.139404	148.020000
523.233032	148.540000
523.326721	148.220000
523.420349	148.620000
523.514038	147.880000
523.607666	147.720000
523.701355	146.960000
523.795044	147.280000
523.888733	147.100000
523.982361	147.360000
524.076050	146.900000
524.169678	147.760000
524.263367	147.040000
524.356995	146.700000
524.450684	146.740000
524.544373	146.540000
524.638062	146.140000
524.731750	146.620000
524.825378	146.520000
524.919067	146.180000
525.012695	146.100000
525.106384	145.960000
525.200012	146.020000
525.293701	145.900000
525.387329	146.320000
525.481018	146.700000
525.574646	147.280000
525.668396	147.380000
525.762024	148.120000
525.855713	148.240000
525.949341	147.940000
526.043030	147.680000
526.136658	146.900000
526.230347	146.520000
526.323975	145.940000
526.417664	145.940000
526.511292	146.060000
526.604980	146.720000
526.698608	146.600000
526.792297	146.920000
526.885925	147.140000
526.979614	147.020000
527.073303	146.940000
527.166931	146.920000
527.260620	146.860000
527.354309	147.320000
527.447998	147.460000
527.541626	146.900000
527.635315	147.220000
527.728943	147.760000
527.822632	147.620000
527.916260	147.540000
528.009949	147.980000
528.103577	147.480000
528.197266	146.860000
528.290894	146.640000
528.384583	146.260000
528.478210	146.220000
528.571899	146.640000
528.665527	147.120000
528.759216	147.280000
528.852844	147.840000
528.946533	147.800000
529.040161	147.580000
529.133850	147.000000
529.227478	146.840000
529.321167	146.900000
529.414856	147.260000
529.508484	147.600000
529.602173	147.680000
529.695801	147.440000
529.789490	147.120000
529.883057	146.860000
529.976746	146.900000
530.070374	147.120000
530.164062	147.360000
530.257690	147.660000
530.351379	148.000000
530.445007	147.880000
530.538696	147.400000
530.632324	147.600000
530.726013	147.500000
530.819641	147.420000
530.913330	147.500000
531.006958	147.520000
531.100647	147.580000
531.194275	147.580000
531.287964	147.120000
531.381592	146.860000
531.475220	146.920000
531.568848	146.600000
531.662537	146.240000
531.756226	146.700000
531.849854	146.760000
531.943542	146.920000
532.037170	146.400000
532.130859	147.000000
532.224487	146.540000
532.318176	146.280000
532.411804	146.980000
532.505432	147.300000
532.599060	146.420000
532.692749	146.380000
532.786377	146.700000
532.880066	145.780000
532.973694	145.680000
533.067383	145.880000
533.161011	146.200000
533.254639	145.940000
533.348267	146.020000
533.441956	146.440000
533.535583	146.540000
533.629272	146.340000
533.722900	146.020000
533.816589	146.300000
533.910156	146.600000
534.003845	146.300000
534.097534	146.540000
534.191162	147.400000
534.284851	147.520000
534.378479	147.160000
534.472107	147.440000
534.565735	147.320000
534.659424	147.280000
534.753052	147.320000
534.846741	147.120000
534.940369	147.860000
535.033997	147.820000
535.127625	147.560000
535.221313	147.840000
535.314941	147.300000
535.408630	146.240000
535.502197	146.500000
535.595886	146.080000
535.689514	145.500000
535.783203	146.500000
535.876831	147.380000
535.970459	147.300000
536.064087	147.440000
536.157776	147.680000
536.251404	147.340000
536.345093	147.080000
536.438721	147.080000
536.532349	147.440000
536.626038	147.180000
536.719666	147.460000
536.813293	146.960000
536.906921	146.780000
537.000610	146.820000
537.094238	146.580000
537.187866	146.280000
537.281494	146.340000
537.375183	146.500000
537.468811	146.320000
537.562439	146.700000
537.656067	146.500000
537.749756	146.680000
537.843384	147.120000
537.937012	147.100000
538.030640	146.960000
538.124329	147.020000
538.217896	147.280000
538.311584	146.860000
538.405212	147.080000
538.498901	147.440000
538.592468	148.280000
538.686157	147.900000
538.779785	147.140000
538.873413	146.920000
538.967102	146.440000
539.060730	145.320000
539.154358	145.740000
539.247986	146.280000
539.341675	146.120000
539.435242	146.060000
539.528931	146.780000
539.622559	145.980000
539.716187	146.780000
539.809814	146.980000
539.903503	147.180000
539.997070	146.700000
540.090759	147.060000
540.184387	146.280000
540.278015	146.760000
540.371643	147.020000
540.465332	146.980000
540.558899	147.020000
540.652588	146.940000
540.746216	146.160000
540.839844	146.220000
540.933472	146.500000
541.027100	146.400000
541.120728	146.760000
541.214417	147.320000
541.308044	147.540000
541.401672	147.320000
541.495300	147.120000
541.588928	146.680000
541.682617	146.440000
541.776184	145.920000
541.869873	146.180000
541.963440	146.860000
542.057129	146.980000
542.150757	146.800000
542.244385	146.660000
542.338013	146.100000
542.431641	145.680000
542.525269	145.680000
542.618958	146.020000
542.712524	146.380000
542.806213	146.740000
542.899780	147.020000
542.993469	146.760000
543.087036	146.720000
543.180725	146.020000
543.274292	146.580000
543.367981	146.800000
543.461548	147.440000
543.555237	147.020000
543.648926	147.880000
543.742493	147.660000
543.836182	147.080000
543.929749	146.580000
544.023437	146.620000
544.117004	146.600000
544.210693	146.680000
544.304260	146.820000
544.397949	146.940000
544.491516	147.380000
544.585205	147.280000
544.678772	146.620000
544.772461	146.840000
544.866028	147.040000
544.959717	146.900000
545.053284	146.440000
545.146973	146.820000
545.240540	146.820000
545.334229	147.360000
545.427795	147.280000
545.521423	147.320000
545.615051	147.320000
545.708679	147.520000
545.802307	147.040000
545.895935	147.460000
545.989624	148.100000
546.083191	147.880000
546.176880	147.500000
546.270447	146.780000
546.364136	146.880000
546.457703	146.660000
546.551331	146.720000
546.644958	146.660000
546.738586	147.000000
546.832214	146.680000
546.925842	146.520000
547.019409	146.820000
547.113098	146.640000
547.206665	146.580000
547.300354	146.640000
547.393921	146.880000
547.487549	146.900000
547.581177	146.900000
547.674805	146.860000
547.768433	146.180000
547.862061	145.780000
547.955627	145.220000
548.049316	145.840000
548.142883	146.580000
548.236572	147.160000
548.330139	147.520000
548.423767	147.860000
548.517456	147.620000
548.611023	147.560000
548.704651	146.940000
548.798279	146.800000
548.891907	147.120000
548.985474	147.200000
549.079163	147.220000
549.172729	147.320000
549.266357	146.920000
549.359985	146.560000
549.453613	145.820000
549.547180	145.280000
549.640869	145.880000
549.734436	145.940000
549.828064	146.460000
549.921631	146.820000
550.015320	146.460000
550.108887	146.720000
550.202515	147.080000
550.296143	146.380000
550.389771	146.760000
550.483337	147.280000
550.576965	146.720000
550.670593	146.940000
550.764221	147.100000
550.857849	146.700000
550.951477	146.400000
551.045105	146.380000
551.138672	146.100000
551.232300	146.260000
551.325928	146.560000
551.419556	146.880000
551.513123	146.920000
551.606750	146.940000
551.700378	146.820000
551.794006	146.880000
551.887573	146.680000
551.981201	147.240000
552.074768	147.060000
552.168457	146.840000
552.262024	147.440000
552.355652	147.540000
552.449219	147.760000
552.542847	147.900000
552.636475	147.700000
552.730103	146.700000
552.823669	146.720000
552.917297	145.940000
553.010864	145.860000
553.104553	146.600000
553.198181	146.620000
553.291748	147.200000
553.385376	147.540000
553.478943	147.700000
553.572571	147.280000
553.666199	147.400000
553.759827	146.780000
553.853394	146.260000
553.947021	146.000000
554.040588	146.100000
554.134216	146.260000
554.227783	146.720000
554.321411	147.520000
554.415039	147.340000
554.508667	147.300000
554.602234	147.560000
554.695862	146.860000
554.789429	146.440000
554.883057	146.540000
554.976624	146.440000
555.070251	146.100000
555.163818	146.120000
555.257507	146.020000
555.351074	146.460000
555.444702	147.740000
555.538330	147.340000
555.631897	147.640000
555.725525	147.800000
555.819092	147.600000
555.912720	146.040000
556.006287	146.740000
556.099915	146.560000
556.193481	146.540000
556.287109	146.660000
556.380676	147.080000
556.474304	146.660000
556.567871	147.080000
556.661499	146.680000
556.755066	146.720000
556.848694	146.820000
556.942261	146.960000
557.035889	147.000000
557.129517	147.660000
557.223145	147.800000
557.316711	147.660000
557.410339	147.920000
557.503906	147.680000
557.597473	147.500000
557.691040	147.260000
557.784668	147.460000
557.878296	147.260000
557.971863	147.560000
558.065491	147.680000
558.159058	147.260000
558.252686	147.500000
558.346252	148.040000
558.439880	147.460000
558.533447	147.000000
558.627075	147.100000
558.720642	146.760000
558.814270	146.460000
558.907837	146.900000
559.001465	146.700000
559.095032	147.300000
559.188660	147.620000
559.282227	147.200000
559.375854	147.500000
559.469360	147.320000
559.562988	147.240000
559.656555	147.060000
559.750183	147.420000
559.843750	147.260000
559.937378	147.820000
560.030945	147.640000
560.124573	0.000000
560.218140	0.000000
560.311707	0.000000
560.405334	0.000000
560.498901	0.000000
560.592529	0.000000
560.686096	0.000000
560.779724	0.000000
560.873291	0.000000
560.966858	0.000000
561.060425	0.000000
561.154053	0.000000
561.247620	0.000000
561.341248	0.000000
561.434814	0.000000
561.528381	0.000000
561.621948	0.000000
561.715576	0.000000
561.809143	0.000000
561.902771	0.000000
561.996277	0.000000
562.089905	0.000000
562.183472	0.000000
562.277100	0.000000
