Model Number: SPM-002-B   
Serial Number: 70087108
Firmware Version: 004.15.4
Exposure Time: 100000.000000us
Data Taken on: 11-12-2020 18:47:38.623
Wavelength	Amplitude
221.570786	0.000000
221.663406	0.000000
221.756027	0.000000
221.848648	0.000000
221.941269	0.000000
222.033905	0.000000
222.126526	0.000000
222.219162	0.000000
222.311798	0.000000
222.404419	0.000000
222.497055	0.000000
222.589676	0.000000
222.682312	0.000000
222.774933	0.000000
222.867569	0.000000
222.960205	0.000000
223.052841	0.000000
223.145462	0.000000
223.238098	0.000000
223.330734	0.000000
223.423386	0.000000
223.516022	0.000000
223.608658	0.000000
223.701309	0.000000
223.793945	0.000000
223.886581	0.000000
223.979218	0.000000
224.071869	0.000000
224.164505	0.000000
224.257156	0.000000
224.349792	0.000000
224.442444	0.000000
224.535095	0.000000
224.627747	0.000000
224.720398	0.000000
224.813034	0.000000
224.905685	0.000000
224.998337	145.180000
225.090988	145.060000
225.183640	145.260000
225.276291	145.000000
225.368942	145.380000
225.461594	146.160000
225.554245	146.280000
225.646912	146.340000
225.739578	147.000000
225.832230	147.720000
225.924896	147.280000
226.017548	147.820000
226.110199	148.160000
226.202866	147.440000
226.295532	146.860000
226.388184	146.280000
226.480850	145.280000
226.573517	144.780000
226.666168	145.080000
226.758835	145.380000
226.851501	146.140000
226.944183	146.300000
227.036850	146.060000
227.129517	146.000000
227.222183	145.740000
227.314850	145.660000
227.407516	146.020000
227.500198	146.900000
227.592865	146.400000
227.685532	146.320000
227.778214	146.040000
227.870880	146.520000
227.963562	146.420000
228.056229	147.080000
228.148926	146.880000
228.241592	147.500000
228.334274	146.960000
228.426956	146.720000
228.519638	146.700000
228.612305	146.660000
228.704987	146.600000
228.797668	146.600000
228.890350	146.380000
228.983032	145.920000
229.075714	146.720000
229.168396	146.460000
229.261108	145.920000
229.353790	145.860000
229.446472	145.980000
229.539169	145.660000
229.631851	145.440000
229.724533	146.060000
229.817230	146.380000
229.909912	147.380000
230.002609	147.180000
230.095306	147.000000
230.187988	146.900000
230.280685	146.560000
230.373383	145.460000
230.466095	145.580000
230.558792	146.020000
230.651474	145.840000
230.744171	145.800000
230.836868	145.600000
230.929581	145.700000
231.022278	145.540000
231.114975	145.660000
231.207672	145.520000
231.300369	146.380000
231.393082	146.340000
231.485779	146.380000
231.578506	146.320000
231.671204	146.840000
231.763916	146.620000
231.856613	146.520000
231.949326	146.340000
232.042023	146.140000
232.134735	145.940000
232.227448	145.300000
232.320160	145.680000
232.412872	145.800000
232.505585	146.680000
232.598297	147.120000
232.691010	147.520000
232.783722	146.880000
232.876450	147.180000
232.969162	146.280000
233.061874	145.260000
233.154587	145.080000
233.247314	145.440000
233.340027	144.880000
233.432739	145.540000
233.525467	145.680000
233.618179	145.860000
233.710907	145.660000
233.803635	146.540000
233.896347	146.260000
233.989090	147.060000
234.081818	147.140000
234.174545	147.160000
234.267258	146.200000
234.359985	146.260000
234.452713	146.200000
234.545441	146.040000
234.638168	146.120000
234.730896	146.900000
234.823639	146.800000
234.916367	146.920000
235.009094	146.960000
235.101822	146.860000
235.194580	146.560000
235.287308	146.500000
235.380051	145.740000
235.472778	145.940000
235.565521	146.340000
235.658249	146.040000
235.750992	146.160000
235.843719	146.300000
235.936462	146.380000
236.029205	145.840000
236.121948	145.440000
236.214691	145.760000
236.307449	146.500000
236.400192	146.140000
236.492935	146.080000
236.585678	146.360000
236.678421	146.140000
236.771164	146.020000
236.863907	146.520000
236.956665	146.980000
237.049408	148.940000
237.142151	148.460000
237.234909	148.560000
237.327652	148.580000
237.420410	148.300000
237.513153	146.900000
237.605927	147.340000
237.698669	146.920000
237.791428	146.180000
237.884186	146.440000
237.976944	145.820000
238.069702	145.940000
238.162445	145.460000
238.255203	145.840000
238.347961	145.940000
238.440720	146.140000
238.533478	146.020000
238.626266	146.160000
238.719025	146.200000
238.811783	146.200000
238.904541	146.140000
238.997314	146.160000
239.090073	145.960000
239.182831	146.220000
239.275604	146.860000
239.368362	146.800000
239.461136	146.600000
239.553909	146.920000
239.646667	146.420000
239.739441	145.640000
239.832214	146.100000
239.925003	146.400000
240.017761	146.980000
240.110535	147.460000
240.203308	147.220000
240.296082	147.300000
240.388855	147.020000
240.481628	146.840000
240.574417	146.880000
240.667191	146.940000
240.759964	146.400000
240.852737	146.380000
240.945526	145.980000
241.038315	145.700000
241.131088	145.700000
241.223877	146.200000
241.316650	145.840000
241.409439	146.160000
241.502228	145.600000
241.595001	146.320000
241.687790	145.780000
241.780579	145.920000
241.873367	145.960000
241.966141	146.540000
242.058929	145.760000
242.151718	146.100000
242.244507	146.500000
242.337311	145.840000
242.430099	146.220000
242.522903	146.740000
242.615692	146.540000
242.708481	146.440000
242.801270	146.880000
242.894073	146.640000
242.986862	146.420000
243.079651	146.920000
243.172455	146.520000
243.265244	146.840000
243.358063	146.460000
243.450867	146.580000
243.543655	146.340000
243.636459	146.880000
243.729263	146.900000
243.822067	147.200000
243.914856	147.660000
244.007660	147.640000
244.100464	147.340000
244.193268	146.900000
244.286072	146.500000
244.378876	145.660000
244.471680	145.540000
244.564499	145.860000
244.657318	146.480000
244.750122	147.160000
244.842926	146.620000
244.935745	146.880000
245.028549	146.520000
245.121368	146.040000
245.214172	145.580000
245.306992	146.540000
245.399796	146.240000
245.492615	146.340000
245.585434	146.420000
245.678253	146.600000
245.771072	146.000000
245.863892	146.380000
245.956711	146.800000
246.049530	146.480000
246.142349	146.200000
246.235168	146.760000
246.327988	147.060000
246.420807	146.540000
246.513626	146.760000
246.606445	146.700000
246.699280	146.400000
246.792099	145.980000
246.884918	145.860000
246.977753	145.640000
247.070587	145.840000
247.163422	145.920000
247.256241	145.880000
247.349075	146.480000
247.441895	146.400000
247.534729	146.220000
247.627563	145.860000
247.720383	146.080000
247.813217	145.820000
247.906052	145.900000
247.998886	146.220000
248.091736	146.440000
248.184570	146.360000
248.277405	146.400000
248.370239	147.280000
248.463074	147.920000
248.555908	148.240000
248.648743	147.840000
248.741592	147.760000
248.834427	146.820000
248.927261	145.620000
249.020111	145.880000
249.112946	146.840000
249.205795	146.720000
249.298630	146.980000
249.391495	147.200000
249.484344	146.640000
249.577179	146.440000
249.670029	146.520000
249.762878	146.980000
249.855728	147.320000
249.948563	147.420000
250.041412	146.680000
250.134262	146.960000
250.227112	146.960000
250.319962	146.740000
250.412827	146.720000
250.505692	146.360000
250.598541	145.980000
250.691391	145.420000
250.784241	145.500000
250.877106	145.660000
250.969955	145.800000
251.062805	146.420000
251.155670	147.040000
251.248520	146.860000
251.341385	147.040000
251.434235	147.040000
251.527100	146.680000
251.619965	145.860000
251.712814	146.400000
251.805695	146.040000
251.898560	146.440000
251.991425	146.660000
252.084290	147.300000
252.177155	146.500000
252.270020	146.380000
252.362885	146.340000
252.455750	146.260000
252.548615	145.820000
252.641479	145.980000
252.734360	145.840000
252.827240	145.840000
252.920105	145.900000
253.012970	145.840000
253.105850	145.740000
253.198715	145.840000
253.291595	145.920000
253.384460	145.300000
253.477341	145.420000
253.570221	145.900000
253.663086	145.480000
253.755966	145.660000
253.848846	145.740000
253.941727	145.960000
254.034592	145.740000
254.127472	145.780000
254.220367	146.100000
254.313248	146.680000
254.406128	146.220000
254.499008	146.600000
254.591904	147.560000
254.684784	147.520000
254.777664	147.180000
254.870544	147.200000
254.963440	146.820000
255.056335	146.760000
255.149216	146.180000
255.242111	146.520000
255.334991	146.840000
255.427887	147.160000
255.520767	146.960000
255.613663	147.260000
255.706558	146.780000
255.799438	146.440000
255.892334	146.040000
255.985229	145.960000
256.078125	146.000000
256.171021	145.960000
256.263916	146.380000
256.356812	146.860000
256.449707	146.820000
256.542603	146.420000
256.635498	146.900000
256.728394	146.900000
256.821289	146.500000
256.914215	147.020000
257.007080	147.460000
257.100006	147.540000
257.192932	147.620000
257.285828	147.860000
257.378723	147.260000
257.471619	146.860000
257.564545	146.300000
257.657440	146.340000
257.750336	146.620000
257.843262	146.280000
257.936157	147.420000
258.029053	147.760000
258.121979	147.700000
258.214874	147.100000
258.307800	147.120000
258.400696	146.080000
258.493622	145.960000
258.586517	145.060000
258.679443	145.740000
258.772339	145.600000
258.865265	145.460000
258.958160	144.900000
259.051086	145.940000
259.144012	145.560000
259.236938	146.520000
259.329834	146.520000
259.422791	146.980000
259.515717	146.180000
259.608612	145.840000
259.701538	145.480000
259.794464	145.360000
259.887390	145.220000
259.980316	145.340000
260.073212	145.540000
260.166138	144.680000
260.259064	145.120000
260.351990	145.680000
260.444916	145.920000
260.537842	146.100000
260.630768	147.100000
260.723694	146.940000
260.816620	146.520000
260.909546	146.420000
261.002472	146.120000
261.095398	145.320000
261.188354	145.300000
261.281281	145.160000
261.374207	145.160000
261.467133	145.760000
261.560089	146.200000
261.653015	145.960000
261.745972	146.380000
261.838867	147.020000
261.931824	147.040000
262.024780	146.660000
262.117706	146.960000
262.210663	147.100000
262.303589	146.400000
262.396515	146.280000
262.489471	147.280000
262.582397	147.160000
262.675354	146.440000
262.768280	146.680000
262.861237	146.520000
262.954163	146.180000
263.047119	146.140000
263.140045	146.340000
263.233002	146.380000
263.325958	146.160000
263.418884	145.660000
263.511841	145.740000
263.604797	145.700000
263.697723	145.540000
263.790680	145.520000
263.883636	146.180000
263.976593	145.800000
264.069550	146.020000
264.162476	145.760000
264.255463	146.160000
264.348419	146.040000
264.441376	146.660000
264.534332	146.320000
264.627289	146.680000
264.720245	146.820000
264.813202	146.320000
264.906158	146.340000
264.999115	146.900000
265.092072	146.800000
265.185028	147.040000
265.277985	147.480000
265.370941	147.440000
265.463898	147.100000
265.556854	146.720000
265.649811	145.760000
265.742798	145.620000
265.835754	145.320000
265.928711	145.820000
266.021667	146.100000
266.114655	146.620000
266.207611	146.640000
266.300568	146.340000
266.393585	145.540000
266.486511	145.980000
266.579498	145.280000
266.672485	145.340000
266.765442	145.400000
266.858429	146.140000
266.951385	145.200000
267.044342	145.420000
267.137329	145.080000
267.230316	145.800000
267.323273	145.360000
267.416260	146.420000
267.509216	146.400000
267.602203	146.560000
267.695160	146.640000
267.788147	146.620000
267.881134	146.000000
267.974091	146.160000
268.067078	146.280000
268.160065	146.080000
268.253052	146.020000
268.346008	146.320000
268.438995	146.520000
268.531982	146.500000
268.624969	146.200000
268.717987	146.780000
268.810944	146.700000
268.903961	146.600000
268.996948	146.240000
269.089905	146.700000
269.182892	146.280000
269.275879	146.640000
269.368866	146.220000
269.461853	146.620000
269.554871	146.680000
269.647858	146.920000
269.740845	147.160000
269.833832	147.680000
269.926819	147.340000
270.019806	146.840000
270.112793	146.360000
270.205811	146.220000
270.298798	146.020000
270.391785	146.560000
270.484772	146.520000
270.577789	146.900000
270.670776	146.340000
270.763763	146.220000
270.856750	145.840000
270.949768	145.500000
271.042786	145.400000
271.135773	145.560000
271.228790	146.000000
271.321808	145.740000
271.414795	145.620000
271.507782	145.380000
271.600800	145.160000
271.693817	145.160000
271.786804	145.820000
271.879822	146.440000
271.972809	146.560000
272.065826	147.120000
272.158844	146.720000
272.251831	147.220000
272.344849	146.780000
272.437866	146.720000
272.530853	146.580000
272.623871	146.860000
272.716888	145.760000
272.809906	146.340000
272.902893	146.100000
272.995911	145.860000
273.088928	145.760000
273.181946	145.960000
273.274963	145.680000
273.367981	145.920000
273.460999	146.000000
273.554047	146.460000
273.647003	147.220000
273.740051	146.940000
273.833069	147.120000
273.926086	147.120000
274.019135	146.660000
274.112152	146.140000
274.205170	146.300000
274.298187	146.480000
274.391205	146.080000
274.484222	146.200000
274.577240	146.020000
274.670258	146.060000
274.763306	145.700000
274.856323	146.240000
274.949341	146.000000
275.042358	146.620000
275.135406	146.600000
275.228424	146.900000
275.321442	146.620000
275.414490	146.500000
275.507507	146.460000
275.600525	146.840000
275.693573	146.380000
275.786591	146.200000
275.879669	146.500000
275.972656	146.160000
276.065735	145.940000
276.158752	146.440000
276.251801	147.200000
276.344818	147.140000
276.437866	147.060000
276.530884	146.940000
276.623932	146.420000
276.716980	146.560000
276.809998	146.620000
276.903046	146.760000
276.996094	147.680000
277.089111	148.360000
277.182159	148.540000
277.275208	148.260000
277.368256	148.020000
277.461304	147.520000
277.554321	146.760000
277.647369	146.220000
277.740417	146.320000
277.833466	146.180000
277.926514	146.000000
278.019562	146.680000
278.112610	146.260000
278.205688	146.680000
278.298706	147.200000
278.391785	146.760000
278.484833	146.360000
278.577881	146.140000
278.670929	145.960000
278.763977	145.740000
278.857025	146.020000
278.950073	145.960000
279.043121	145.900000
279.136169	145.780000
279.229248	145.600000
279.322296	145.800000
279.415344	145.640000
279.508392	145.840000
279.601440	145.840000
279.694519	145.820000
279.787567	145.660000
279.880615	145.780000
279.973694	145.840000
280.066742	145.980000
280.159790	145.980000
280.252869	145.480000
280.345917	145.620000
280.438995	145.620000
280.532074	145.460000
280.625122	145.600000
280.718201	146.820000
280.811279	146.840000
280.904327	146.900000
280.997406	146.940000
281.090454	146.980000
281.183533	146.500000
281.276581	146.200000
281.369659	145.840000
281.462738	145.760000
281.555786	145.940000
281.648865	145.700000
281.741943	145.740000
281.835022	146.500000
281.928070	146.440000
282.021149	145.840000
282.114227	145.740000
282.207306	145.920000
282.300385	146.020000
282.393433	146.160000
282.486511	146.760000
282.579590	146.960000
282.672668	147.140000
282.765747	146.560000
282.858856	146.320000
282.951904	146.160000
283.045013	146.440000
283.138062	146.640000
283.231171	146.920000
283.324249	147.280000
283.417328	147.140000
283.510406	146.460000
283.603485	146.100000
283.696564	145.760000
283.789642	145.600000
283.882751	145.540000
283.975830	146.320000
284.068909	146.180000
284.161987	147.040000
284.255066	146.560000
284.348175	146.720000
284.441254	146.540000
284.534332	147.040000
284.627441	146.580000
284.720520	146.740000
284.813599	146.840000
284.906708	147.000000
284.999786	146.160000
285.092896	145.760000
285.185974	146.500000
285.279053	146.140000
285.372192	145.840000
285.465240	146.780000
285.558380	146.960000
285.651459	146.680000
285.744568	147.600000
285.837677	147.300000
285.930756	147.160000
286.023865	147.200000
286.116943	146.960000
286.210052	146.620000
286.303162	146.760000
286.396240	146.520000
286.489349	146.020000
286.582458	146.240000
286.675568	145.720000
286.768646	145.840000
286.861755	146.140000
286.954865	147.260000
287.047974	146.560000
287.141083	146.620000
287.234161	146.320000
287.327271	146.160000
287.420380	146.240000
287.513519	146.680000
287.606598	146.720000
287.699738	147.060000
287.792816	146.680000
287.885956	146.120000
287.979034	146.300000
288.072174	146.540000
288.165283	146.240000
288.258392	146.640000
288.351501	146.420000
288.444611	146.580000
288.537720	146.440000
288.630859	146.580000
288.723969	146.760000
288.817078	147.180000
288.910187	146.960000
289.003296	146.520000
289.096436	146.160000
289.189545	145.720000
289.282654	145.240000
289.375763	145.500000
289.468903	146.220000
289.562012	146.600000
289.655121	146.680000
289.748260	147.060000
289.841400	147.080000
289.934509	146.680000
290.027649	146.920000
290.120728	146.960000
290.213898	146.980000
290.306976	146.800000
290.400146	146.840000
290.493256	146.260000
290.586395	146.300000
290.679535	146.620000
290.772644	146.400000
290.865784	146.080000
290.958893	146.160000
291.052032	146.180000
291.145172	145.400000
291.238281	145.240000
291.331421	145.200000
291.424561	145.900000
291.517670	145.640000
291.610809	146.000000
291.703949	146.280000
291.797089	146.900000
291.890228	146.160000
291.983337	146.040000
292.076477	145.860000
292.169617	145.920000
292.262756	145.640000
292.355927	145.780000
292.449036	146.080000
292.542206	146.080000
292.635315	146.240000
292.728485	146.680000
292.821625	146.300000
292.914764	147.100000
293.007904	147.380000
293.101044	147.120000
293.194183	146.880000
293.287323	147.280000
293.380463	146.480000
293.473602	146.000000
293.566742	146.200000
293.659882	146.380000
293.753021	146.740000
293.846191	147.000000
293.939331	146.860000
294.032471	146.640000
294.125610	146.360000
294.218781	146.520000
294.311920	146.660000
294.405060	147.080000
294.498230	147.000000
294.591370	147.140000
294.684540	146.240000
294.777679	145.900000
294.870850	146.180000
294.963959	146.220000
295.057159	145.800000
295.150299	146.320000
295.243469	146.040000
295.336609	145.460000
295.429779	145.580000
295.522919	145.880000
295.616089	145.880000
295.709229	146.340000
295.802399	146.460000
295.895569	145.840000
295.988708	145.780000
296.081879	145.580000
296.175018	145.120000
296.268188	145.140000
296.361359	145.680000
296.454529	145.820000
296.547668	145.920000
296.640839	146.300000
296.734009	145.880000
296.827179	146.020000
296.920319	146.160000
297.013519	145.860000
297.106659	145.800000
297.199860	146.120000
297.292999	146.080000
297.386200	145.740000
297.479309	145.760000
297.572510	145.720000
297.665680	145.700000
297.758850	145.440000
297.852020	145.420000
297.945190	145.440000
298.038361	145.200000
298.131531	146.100000
298.224701	146.360000
298.317871	146.200000
298.411072	145.700000
298.504242	145.640000
298.597412	144.620000
298.690582	144.720000
298.783752	144.640000
298.876923	145.640000
298.970093	145.900000
299.063293	146.480000
299.156464	146.580000
299.249634	147.080000
299.342834	147.040000
299.436005	147.160000
299.529205	146.880000
299.622345	146.800000
299.715576	145.980000
299.808716	145.660000
299.901917	145.440000
299.995117	145.820000
300.088287	145.900000
300.181488	145.960000
300.274658	145.820000
300.367828	145.920000
300.461029	145.820000
300.554199	145.940000
300.647400	146.600000
300.740601	147.200000
300.833771	147.120000
300.926971	147.320000
301.020142	146.640000
301.113342	146.200000
301.206512	146.060000
301.299713	146.100000
301.392914	145.760000
301.486084	146.420000
301.579285	146.580000
301.672516	146.620000
301.765686	146.360000
301.858887	146.060000
301.952057	145.800000
302.045288	145.940000
302.138458	145.680000
302.231659	145.480000
302.324860	145.820000
302.418060	145.520000
302.511261	145.200000
302.604462	145.580000
302.697662	145.820000
302.790863	145.540000
302.884064	145.400000
302.977264	145.400000
303.070465	145.560000
303.163666	146.180000
303.256866	146.580000
303.350067	146.840000
303.443268	146.960000
303.536469	146.920000
303.629669	146.280000
303.722870	146.280000
303.816071	146.000000
303.909271	146.100000
304.002472	145.200000
304.095673	145.200000
304.188934	144.560000
304.282104	145.540000
304.375336	145.540000
304.468506	145.440000
304.561768	145.460000
304.654968	146.080000
304.748169	145.520000
304.841370	145.520000
304.934601	146.200000
305.027802	145.880000
305.121002	145.640000
305.214233	145.780000
305.307434	145.720000
305.400665	146.280000
305.493866	146.380000
305.587097	146.640000
305.680298	146.440000
305.773499	147.000000
305.866730	146.340000
305.959930	147.060000
306.053162	147.060000
306.146393	146.660000
306.239594	145.880000
306.332825	145.680000
306.426025	145.780000
306.519287	145.400000
306.612488	145.640000
306.705719	145.760000
306.798920	146.180000
306.892181	145.720000
306.985352	145.540000
307.078613	145.180000
307.171844	145.420000
307.265045	144.980000
307.358276	144.760000
307.451508	145.380000
307.544739	145.980000
307.637970	145.680000
307.731201	145.500000
307.824402	146.160000
307.917633	146.240000
308.010864	146.680000
308.104095	147.080000
308.197327	147.700000
308.290558	147.460000
308.383789	146.780000
308.477020	146.080000
308.570251	145.680000
308.663483	145.180000
308.756714	144.900000
308.849976	145.100000
308.943176	145.800000
309.036438	145.580000
309.129639	145.500000
309.222900	145.640000
309.316101	145.580000
309.409393	144.980000
309.502625	145.120000
309.595856	145.300000
309.689087	145.200000
309.782318	145.200000
309.875580	145.140000
309.968811	145.320000
310.062042	145.040000
310.155273	145.240000
310.248535	145.700000
310.341766	145.840000
310.434998	145.860000
310.528259	146.160000
310.621490	146.460000
310.714722	145.680000
310.807983	145.800000
310.901215	145.580000
310.994476	145.640000
311.087708	145.000000
311.181000	145.520000
311.274200	145.100000
311.367462	145.360000
311.460693	144.980000
311.553986	145.560000
311.647186	145.740000
311.740479	146.600000
311.833710	146.180000
311.926971	146.420000
312.020203	145.840000
312.113464	145.520000
312.206726	144.800000
312.299957	145.340000
312.393219	145.660000
312.486481	145.760000
312.579712	145.800000
312.672974	145.660000
312.766235	145.380000
312.859497	145.160000
312.952759	145.220000
313.045990	146.020000
313.139252	145.940000
313.232513	146.240000
313.325775	146.340000
313.419037	146.320000
313.512299	145.300000
313.605530	146.060000
313.698822	146.100000
313.792053	146.020000
313.885345	145.560000
313.978577	145.760000
314.071869	145.020000
314.165131	144.840000
314.258392	145.040000
314.351654	145.400000
314.444916	144.900000
314.538177	145.760000
314.631439	146.140000
314.724701	146.080000
314.817993	145.920000
314.911255	146.300000
315.004517	145.600000
315.097778	145.100000
315.191040	145.280000
315.284302	145.840000
315.377594	145.620000
315.470856	145.880000
315.564117	145.660000
315.657379	144.980000
315.750671	144.440000
315.843933	145.140000
315.937195	144.440000
316.030518	144.540000
316.123749	144.920000
316.217041	145.940000
316.310303	145.700000
316.403595	146.260000
316.496857	146.520000
316.590149	146.640000
316.683411	145.680000
316.776703	145.640000
316.869965	145.820000
316.963257	145.680000
317.056519	145.240000
317.149811	145.240000
317.243073	145.320000
317.336365	145.080000
317.429626	145.300000
317.522919	145.820000
317.616180	145.720000
317.709473	145.400000
317.802765	145.560000
317.896027	145.480000
317.989319	145.520000
318.082611	145.840000
318.175873	145.740000
318.269165	145.660000
318.362488	145.640000
318.455750	145.500000
318.549042	145.480000
318.642303	146.120000
318.735626	145.900000
318.828888	145.980000
318.922211	145.380000
319.015472	146.040000
319.108765	145.280000
319.202057	145.180000
319.295349	145.460000
319.388641	145.680000
319.481934	144.960000
319.575226	145.280000
319.668518	145.700000
319.761810	145.720000
319.855103	146.140000
319.948395	146.320000
320.041687	146.360000
320.134979	146.320000
320.228271	145.760000
320.321564	145.480000
320.414856	145.620000
320.508148	145.180000
320.601440	145.260000
320.694763	145.480000
320.788025	146.300000
320.881348	146.420000
320.974640	146.920000
321.067963	146.160000
321.161224	146.240000
321.254547	145.220000
321.347839	145.620000
321.441162	145.060000
321.534454	145.120000
321.627747	144.880000
321.721069	145.780000
321.814362	145.420000
321.907654	145.740000
322.000946	145.900000
322.094269	146.500000
322.187561	145.840000
322.280884	145.920000
322.374176	145.820000
322.467468	146.460000
322.560791	146.040000
322.654083	146.620000
322.747406	146.400000
322.840698	147.040000
322.934021	147.080000
323.027344	147.360000
323.120636	147.080000
323.213959	147.180000
323.307251	146.480000
323.400574	146.020000
323.493866	145.260000
323.587219	145.180000
323.680511	145.260000
323.773834	145.500000
323.867157	145.820000
323.960449	146.480000
324.053772	146.200000
324.147095	145.920000
324.240387	146.360000
324.333710	146.340000
324.427032	146.380000
324.520355	146.760000
324.613647	146.600000
324.706970	146.120000
324.800293	146.040000
324.893616	146.200000
324.986938	146.320000
325.080231	146.240000
325.173553	146.600000
325.266876	147.080000
325.360199	146.940000
325.453522	146.200000
325.546875	146.120000
325.640167	146.100000
325.733521	146.240000
325.826813	146.360000
325.920166	146.420000
326.013489	146.600000
326.106812	145.940000
326.200134	145.320000
326.293457	144.620000
326.386780	144.940000
326.480103	144.980000
326.573425	145.220000
326.666748	145.320000
326.760071	145.720000
326.853424	145.840000
326.946747	145.860000
327.040070	146.660000
327.133392	146.240000
327.226715	145.620000
327.320068	145.020000
327.413391	145.280000
327.506714	144.340000
327.600037	144.540000
327.693390	144.860000
327.786713	145.540000
327.880066	145.320000
327.973358	145.740000
328.066742	146.340000
328.160034	146.600000
328.253418	146.620000
328.346710	146.520000
328.440063	145.940000
328.533417	145.300000
328.626740	145.360000
328.720093	145.120000
328.813416	145.100000
328.906769	145.720000
329.000092	146.120000
329.093445	146.160000
329.186768	146.280000
329.280121	146.940000
329.373444	147.020000
329.466797	146.920000
329.560120	147.080000
329.653473	146.980000
329.746796	146.520000
329.840149	146.060000
329.933502	145.960000
330.026825	145.580000
330.120178	145.380000
330.213562	145.020000
330.306854	145.460000
330.400238	145.440000
330.493561	145.360000
330.586945	146.120000
330.680237	146.440000
330.773621	146.360000
330.866974	146.260000
330.960327	146.480000
331.053680	146.000000
331.147003	146.240000
331.240356	146.540000
331.333710	146.660000
331.427063	146.380000
331.520416	146.500000
331.613770	146.160000
331.707123	145.860000
331.800476	145.980000
331.893829	146.900000
331.987152	146.800000
332.080505	146.780000
332.173859	146.640000
332.267212	145.980000
332.360565	144.920000
332.453918	144.620000
332.547333	144.620000
332.640656	144.600000
332.734039	144.960000
332.827362	145.360000
332.920746	145.900000
333.014069	146.180000
333.107452	146.760000
333.200806	147.100000
333.294159	147.040000
333.387543	146.660000
333.480896	146.180000
333.574249	145.800000
333.667603	145.380000
333.760956	145.700000
333.854340	145.620000
333.947693	145.700000
334.041046	145.620000
334.134430	145.940000
334.227783	145.540000
334.321136	145.500000
334.414520	145.500000
334.507874	145.520000
334.601227	145.360000
334.694611	145.280000
334.787964	145.520000
334.881348	145.600000
334.974701	145.900000
335.068085	145.660000
335.161438	145.960000
335.254822	145.900000
335.348175	146.100000
335.441559	145.400000
335.534943	146.420000
335.628296	146.140000
335.721680	145.880000
335.815033	146.060000
335.908417	146.760000
336.001770	146.280000
336.095154	146.360000
336.188538	146.460000
336.281891	146.020000
336.375275	145.300000
336.468658	144.900000
336.562012	145.120000
336.655396	145.560000
336.748779	145.820000
336.842133	146.360000
336.935516	146.580000
337.028900	146.020000
337.122284	145.720000
337.215637	145.540000
337.309021	145.140000
337.402435	144.860000
337.495789	145.060000
337.589203	144.840000
337.682526	144.940000
337.775940	145.540000
337.869324	145.900000
337.962708	145.720000
338.056091	146.300000
338.149475	145.980000
338.242859	145.780000
338.336243	145.440000
338.429626	145.900000
338.523010	145.780000
338.616394	145.880000
338.709778	145.900000
338.803162	146.240000
338.896545	146.360000
338.989929	145.820000
339.083313	145.900000
339.176697	145.700000
339.270081	145.300000
339.363464	145.240000
339.456848	145.820000
339.550232	145.280000
339.643616	145.060000
339.737030	145.240000
339.830383	145.000000
339.923828	144.900000
340.017181	145.300000
340.110596	145.620000
340.203949	145.540000
340.297363	145.200000
340.390778	145.200000
340.484161	145.420000
340.577545	145.260000
340.670959	145.360000
340.764343	145.640000
340.857727	145.640000
340.951111	145.080000
341.044525	145.200000
341.137909	144.820000
341.231293	144.800000
341.324707	144.120000
341.418091	145.180000
341.511505	145.240000
341.604889	145.680000
341.698303	146.340000
341.791687	146.900000
341.885071	146.100000
341.978485	145.700000
342.071899	145.740000
342.165283	145.680000
342.258698	145.900000
342.352081	146.360000
342.445496	147.080000
342.538879	146.880000
342.632324	146.420000
342.725708	146.360000
342.819122	146.080000
342.912506	145.720000
343.005920	145.740000
343.099335	146.380000
343.192719	146.180000
343.286133	146.160000
343.379547	146.340000
343.472931	146.460000
343.566345	145.820000
343.659760	146.200000
343.753143	146.060000
343.846558	145.620000
343.939972	145.300000
344.033386	145.680000
344.126770	145.300000
344.220184	145.240000
344.313599	145.760000
344.407043	146.300000
344.500427	145.800000
344.593872	146.320000
344.687225	146.480000
344.780670	146.160000
344.874054	145.780000
344.967499	146.200000
345.060913	145.700000
345.154327	145.540000
345.247742	145.280000
345.341156	145.240000
345.434570	145.060000
345.527985	145.120000
345.621399	145.560000
345.714813	145.660000
345.808228	146.080000
345.901642	145.660000
345.995056	145.540000
346.088470	145.400000
346.181885	145.480000
346.275299	145.160000
346.368713	145.460000
346.462128	145.080000
346.555573	145.020000
346.648987	145.180000
346.742401	144.940000
346.835815	145.400000
346.929260	145.360000
347.022644	145.380000
347.116119	145.580000
347.209503	146.180000
347.302948	146.700000
347.396362	147.620000
347.489807	147.620000
347.583221	147.940000
347.676636	147.600000
347.770050	146.200000
347.863495	145.580000
347.956909	145.860000
348.050323	145.220000
348.143768	145.040000
348.237183	145.160000
348.330597	145.400000
348.424042	145.320000
348.517456	145.760000
348.610901	146.120000
348.704315	146.300000
348.797760	145.980000
348.891174	145.680000
348.984619	144.900000
349.078033	145.320000
349.171448	146.040000
349.264923	145.900000
349.358337	145.940000
349.451782	146.400000
349.545197	145.480000
349.638641	144.720000
349.732086	144.600000
349.825500	145.100000
349.918945	144.660000
350.012390	145.540000
350.105804	146.040000
350.199249	146.540000
350.292664	146.500000
350.386108	146.680000
350.479553	146.860000
350.572968	146.580000
350.666412	146.780000
350.759857	146.500000
350.853302	146.960000
350.946716	146.260000
351.040161	146.340000
351.133606	145.960000
351.227081	145.880000
351.320465	146.420000
351.413940	146.440000
351.507355	146.640000
351.600830	146.920000
351.694244	146.520000
351.787720	146.080000
351.881104	146.020000
351.974579	145.560000
352.067993	146.200000
352.161469	146.520000
352.254883	145.820000
352.348358	145.760000
352.441803	145.660000
352.535248	145.040000
352.628693	145.500000
352.722137	145.540000
352.815582	146.000000
352.909027	146.740000
353.002472	146.740000
353.095917	146.440000
353.189362	146.900000
353.282806	146.740000
353.376251	146.280000
353.469696	145.640000
353.563141	145.880000
353.656586	145.700000
353.750061	145.300000
353.843475	145.060000
353.936981	145.820000
354.030396	145.300000
354.123871	145.520000
354.217285	146.360000
354.310760	147.160000
354.404175	147.120000
354.497681	146.980000
354.591095	146.580000
354.684570	145.620000
354.777985	144.860000
354.871490	144.500000
354.964935	145.120000
355.058380	145.480000
355.151855	145.440000
355.245300	146.000000
355.338745	146.440000
355.432220	146.200000
355.525665	145.440000
355.619110	146.200000
355.712585	146.100000
355.806030	145.600000
355.899475	145.360000
355.992950	146.280000
356.086426	146.160000
356.179871	146.040000
356.273346	146.300000
356.366791	146.600000
356.460266	146.400000
356.553711	146.040000
356.647186	145.940000
356.740631	145.700000
356.834106	145.420000
356.927551	145.600000
357.021027	145.680000
357.114471	145.880000
357.207947	146.340000
357.301422	146.940000
357.394867	147.080000
357.488342	147.140000
357.581818	147.140000
357.675262	146.960000
357.768738	146.480000
357.862213	145.520000
357.955658	145.420000
358.049133	145.220000
358.142609	145.600000
358.236053	145.600000
358.329529	146.020000
358.423035	146.520000
358.516449	146.320000
358.609955	146.460000
358.703400	147.100000
358.796906	147.260000
358.890350	146.580000
358.983826	146.660000
359.077271	145.740000
359.170776	145.120000
359.264221	144.840000
359.357727	145.040000
359.451172	145.600000
359.544647	145.840000
359.638123	145.700000
359.731598	146.140000
359.825073	146.580000
359.918549	146.320000
360.012024	146.480000
360.105499	146.240000
360.198975	145.980000
360.292450	145.780000
360.385925	145.540000
360.479401	145.140000
360.572876	145.680000
360.666351	145.760000
360.759857	145.720000
360.853302	145.960000
360.946808	145.600000
361.040253	145.520000
361.133759	145.420000
361.227203	145.320000
361.320709	145.100000
361.414154	146.160000
361.507660	146.260000
361.601105	146.580000
361.694641	147.220000
361.788086	147.180000
361.881592	147.220000
361.975067	146.820000
362.068542	147.020000
362.162018	146.620000
362.255524	146.260000
362.348999	146.080000
362.442474	146.740000
362.535950	146.220000
362.629456	145.960000
362.722931	146.180000
362.816406	146.620000
362.909882	146.300000
363.003387	145.880000
363.096863	146.300000
363.190338	146.460000
363.283875	145.620000
363.377319	145.640000
363.470825	146.520000
363.564301	145.840000
363.657806	145.900000
363.751282	145.940000
363.844788	146.580000
363.938232	146.140000
364.031769	146.820000
364.125214	147.140000
364.218750	147.820000
364.312225	146.700000
364.405731	146.600000
364.499207	145.720000
364.592712	145.340000
364.686188	144.980000
364.779694	145.640000
364.873169	145.920000
364.966675	146.620000
365.060150	146.480000
365.153656	146.620000
365.247131	146.360000
365.340637	146.560000
365.434143	146.900000
365.527618	147.260000
365.621155	146.460000
365.714600	146.520000
365.808136	146.200000
365.901611	145.320000
365.995117	145.120000
366.088593	145.420000
366.182129	145.040000
366.275604	145.200000
366.369110	145.380000
366.462585	145.280000
366.556122	146.040000
366.649567	146.260000
366.743103	146.400000
366.836609	146.260000
366.930115	146.500000
367.023590	146.200000
367.117096	145.960000
367.210602	145.800000
367.304108	146.560000
367.397614	147.200000
367.491119	147.160000
367.584595	147.740000
367.678101	147.980000
367.771606	147.440000
367.865112	146.660000
367.958649	146.060000
368.052124	145.460000
368.145660	145.140000
368.239136	145.720000
368.332672	145.980000
368.426147	146.400000
368.519684	146.460000
368.613159	146.820000
368.706696	146.040000
368.800171	146.040000
368.893707	146.200000
368.987183	146.320000
369.080719	146.180000
369.174225	146.220000
369.267731	146.280000
369.361237	145.880000
369.454742	145.620000
369.548248	145.980000
369.641754	145.900000
369.735260	145.640000
369.828766	145.320000
369.922272	146.220000
370.015808	145.520000
370.109314	145.560000
370.202820	145.080000
370.296356	146.080000
370.389832	145.440000
370.483368	145.420000
370.576874	145.460000
370.670410	146.040000
370.763885	145.100000
370.857422	145.200000
370.950928	145.240000
371.044464	145.840000
371.137939	145.720000
371.231476	146.260000
371.324982	146.600000
371.418518	146.580000
371.512024	146.340000
371.605560	146.000000
371.699066	145.920000
371.792572	145.440000
371.886108	145.880000
371.979614	145.520000
372.073120	146.560000
372.166656	146.560000
372.260162	147.000000
372.353668	146.460000
372.447205	146.500000
372.540710	146.040000
372.634277	145.740000
372.727753	145.740000
372.821320	145.740000
372.914795	146.000000
373.008362	145.700000
373.101837	145.920000
373.195404	145.720000
373.288879	145.940000
373.382446	146.460000
373.475922	146.500000
373.569489	146.920000
373.662964	147.280000
373.756531	147.280000
373.850037	146.780000
373.943573	146.720000
374.037109	145.900000
374.130615	145.940000
374.224152	145.920000
374.317657	145.700000
374.411194	146.400000
374.504730	146.560000
374.598236	145.860000
374.691772	145.760000
374.785309	145.840000
374.878815	144.880000
374.972351	145.420000
375.065887	145.760000
375.159454	146.500000
375.252930	146.440000
375.346497	147.100000
375.440002	147.660000
375.533569	147.500000
375.627045	146.400000
375.720612	146.520000
375.814117	146.380000
375.907684	145.580000
376.001160	145.480000
376.094727	145.540000
376.188232	146.120000
376.281799	146.160000
376.375336	145.920000
376.468872	146.580000
376.562408	146.760000
376.655914	146.280000
376.749451	146.560000
376.842987	146.880000
376.936523	146.460000
377.030060	146.720000
377.123596	146.940000
377.217133	146.020000
377.310669	145.940000
377.404205	146.140000
377.497772	146.380000
377.591278	145.800000
377.684845	146.860000
377.778351	147.060000
377.871918	146.860000
377.965424	146.220000
378.058990	146.300000
378.152496	145.960000
378.246063	146.040000
378.339569	146.340000
378.433136	146.440000
378.526642	146.560000
378.620209	146.140000
378.713745	145.640000
378.807312	145.880000
378.900848	146.000000
378.994385	146.240000
379.087921	145.700000
379.181458	146.060000
379.274994	144.900000
379.368530	144.800000
379.462097	144.640000
379.555634	145.380000
379.649170	144.860000
379.742706	145.200000
379.836273	145.300000
379.929810	145.120000
380.023376	144.720000
380.116882	144.700000
380.210449	144.760000
380.303986	144.400000
380.397552	144.160000
380.491058	144.740000
380.584656	144.920000
380.678162	145.400000
380.771729	145.600000
380.865265	146.380000
380.958832	146.060000
381.052368	146.320000
381.145935	146.620000
381.239471	147.120000
381.333008	146.760000
381.426575	146.740000
381.520111	147.000000
381.613647	146.780000
381.707214	146.580000
381.800751	146.180000
381.894318	146.560000
381.987854	145.900000
382.081421	145.740000
382.174988	145.840000
382.268524	146.040000
382.362091	145.700000
382.455627	146.480000
382.549194	146.280000
382.642731	145.360000
382.736298	145.240000
382.829834	145.320000
382.923401	145.680000
383.016937	145.720000
383.110504	146.760000
383.204041	147.220000
383.297607	147.400000
383.391174	146.460000
383.484741	147.220000
383.578278	146.500000
383.671844	145.840000
383.765411	145.280000
383.858948	145.980000
383.952515	145.160000
384.046051	145.660000
384.139618	146.520000
384.233185	146.780000
384.326721	146.400000
384.420288	147.180000
384.513855	147.180000
384.607422	147.220000
384.700989	147.480000
384.794525	147.100000
384.888123	147.000000
384.981659	147.200000
385.075226	146.520000
385.168762	146.180000
385.262360	146.220000
385.355896	145.100000
385.449463	144.840000
385.542999	144.740000
385.636597	145.540000
385.730164	145.740000
385.823730	145.860000
385.917267	145.220000
386.010834	145.600000
386.104401	145.320000
386.197968	145.760000
386.291534	146.220000
386.385101	146.720000
386.478668	146.960000
386.572235	146.580000
386.665802	146.060000
386.759338	145.600000
386.852905	145.260000
386.946472	144.760000
387.040070	145.040000
387.133606	144.980000
387.227203	145.020000
387.320740	145.480000
387.414337	145.280000
387.507874	145.020000
387.601471	145.360000
387.695007	145.420000
387.788605	145.180000
387.882141	145.500000
387.975739	145.920000
388.069275	145.720000
388.162872	146.040000
388.256439	146.160000
388.350037	145.860000
388.443604	145.320000
388.537170	145.080000
388.630737	145.320000
388.724304	145.440000
388.817871	145.580000
388.911438	145.660000
389.005005	145.980000
389.098602	146.120000
389.192169	146.100000
389.285736	146.800000
389.379333	146.900000
389.472870	146.520000
389.566467	146.300000
389.660034	146.180000
389.753632	145.320000
389.847168	145.480000
389.940765	145.820000
390.034332	146.060000
390.127930	145.660000
390.221466	145.680000
390.315063	145.300000
390.408630	144.520000
390.502228	143.640000
390.595795	144.240000
390.689362	144.600000
390.782959	145.020000
390.876526	145.880000
390.970093	146.100000
391.063690	146.580000
391.157257	146.440000
391.250824	146.620000
391.344421	146.300000
391.437988	146.720000
391.531555	146.180000
391.625153	146.360000
391.718750	146.300000
391.812317	146.360000
391.905914	145.980000
391.999481	146.120000
392.093079	146.000000
392.186615	145.940000
392.280243	145.960000
392.373779	146.420000
392.467407	146.640000
392.560944	146.800000
392.654572	146.420000
392.748108	146.480000
392.841736	146.400000
392.935303	145.720000
393.028900	145.560000
393.122467	146.080000
393.216064	145.800000
393.309631	145.200000
393.403229	145.260000
393.496796	145.120000
393.590393	144.440000
393.683990	144.920000
393.777557	145.400000
393.871155	145.680000
393.964722	146.200000
394.058350	146.360000
394.151917	146.000000
394.245514	145.980000
394.339081	146.440000
394.432678	146.460000
394.526245	146.440000
394.619873	146.220000
394.713409	146.100000
394.807037	145.540000
394.900604	145.640000
394.994202	146.060000
395.087769	146.740000
395.181396	146.320000
395.274994	147.220000
395.368561	146.460000
395.462158	146.360000
395.555756	145.760000
395.649353	146.560000
395.742920	145.680000
395.836517	146.420000
395.930115	145.500000
396.023712	145.840000
396.117279	146.040000
396.210876	145.840000
396.304474	145.760000
396.398071	146.560000
396.491669	146.820000
396.585266	146.120000
396.678833	146.320000
396.772461	146.520000
396.866028	146.280000
396.959656	146.380000
397.053223	146.720000
397.146851	146.900000
397.240417	147.340000
397.334015	148.820000
397.427582	149.440000
397.521210	151.120000
397.614807	153.320000
397.708405	155.520000
397.802002	158.300000
397.895599	163.280000
397.989197	168.960000
398.082794	175.700000
398.176392	184.900000
398.269989	195.220000
398.363586	208.020000
398.457184	223.140000
398.550781	240.460000
398.644379	257.560000
398.737976	276.680000
398.831573	295.660000
398.925201	313.180000
399.018768	331.180000
399.112396	349.120000
399.205963	367.360000
399.299591	385.320000
399.393158	404.660000
399.486786	424.120000
399.580353	444.540000
399.673981	462.960000
399.767578	480.520000
399.861206	495.420000
399.954773	505.280000
400.048401	508.560000
400.141998	506.620000
400.235596	499.660000
400.329193	488.020000
400.422791	474.600000
400.516418	460.780000
400.610016	447.180000
400.703613	433.780000
400.797211	418.240000
400.890808	402.540000
400.984436	385.560000
401.078033	366.000000
401.171631	344.160000
401.265259	322.520000
401.358826	299.700000
401.452484	276.560000
401.546051	256.040000
401.639679	235.800000
401.733246	219.820000
401.826904	205.400000
401.920471	193.600000
402.014099	183.160000
402.107697	175.320000
402.201324	168.120000
402.294891	162.740000
402.388550	158.400000
402.482147	155.120000
402.575745	152.460000
402.669373	150.160000
402.762970	148.580000
402.856567	147.820000
402.950195	147.540000
403.043793	147.260000
403.137390	147.900000
403.231018	147.140000
403.324615	147.460000
403.418243	146.660000
403.511841	147.060000
403.605469	146.520000
403.699066	147.320000
403.792694	146.920000
403.886292	147.180000
403.979919	146.920000
404.073517	146.400000
404.167145	146.240000
404.260712	146.360000
404.354370	146.280000
404.447937	146.440000
404.541595	146.740000
404.635162	146.840000
404.728821	147.320000
404.822418	147.000000
404.916046	146.440000
405.009644	146.660000
405.103271	146.900000
405.196899	146.420000
405.290497	146.760000
405.384125	147.160000
405.477722	146.700000
405.571350	145.680000
405.664948	145.460000
405.758575	145.100000
405.852203	144.520000
405.945801	144.840000
406.039429	145.300000
406.133057	145.300000
406.226654	145.340000
406.320312	145.780000
406.413879	145.660000
406.507538	145.840000
406.601135	145.400000
406.694763	145.960000
406.788361	145.660000
406.882019	145.280000
406.975586	145.560000
407.069244	146.500000
407.162872	146.300000
407.256470	146.280000
407.350098	146.520000
407.443726	145.960000
407.537323	145.360000
407.630951	145.380000
407.724579	145.180000
407.818207	145.480000
407.911804	145.560000
408.005432	145.740000
408.099060	146.060000
408.192688	146.640000
408.286285	146.520000
408.379913	146.220000
408.473572	146.060000
408.567169	145.380000
408.660828	145.360000
408.754395	145.060000
408.848053	145.400000
408.941650	145.820000
409.035309	145.700000
409.128906	145.640000
409.222565	146.060000
409.316132	146.220000
409.409790	145.780000
409.503387	146.180000
409.597046	146.260000
409.690674	146.000000
409.784302	145.680000
409.877930	145.580000
409.971558	145.360000
410.065186	145.060000
410.158783	145.140000
410.252411	145.220000
410.346039	145.660000
410.439667	145.740000
410.533295	146.100000
410.626923	146.140000
410.720551	145.720000
410.814209	146.040000
410.907806	146.140000
411.001465	145.320000
411.095062	145.560000
411.188721	146.000000
411.282318	145.400000
411.375977	145.260000
411.469574	145.620000
411.563232	145.260000
411.656830	145.080000
411.750488	145.100000
411.844086	144.860000
411.937744	144.900000
412.031372	144.720000
412.125000	144.780000
412.218628	144.660000
412.312256	145.460000
412.405884	146.060000
412.499512	146.160000
412.593170	146.320000
412.686798	146.600000
412.780426	145.920000
412.874054	145.920000
412.967682	146.260000
413.061310	146.960000
413.154968	147.280000
413.248566	147.440000
413.342224	147.040000
413.435852	146.920000
413.529510	146.300000
413.623108	145.460000
413.716766	145.840000
413.810364	146.500000
413.904022	146.340000
413.997650	145.820000
414.091309	146.840000
414.184906	146.400000
414.278564	145.500000
414.372192	145.880000
414.465851	146.380000
414.559479	145.740000
414.653107	146.820000
414.746735	147.040000
414.840393	146.860000
414.934021	147.280000
415.027649	147.140000
415.121277	146.540000
415.214935	146.920000
415.308563	147.040000
415.402191	146.120000
415.495850	146.100000
415.589478	145.900000
415.683136	145.460000
415.776733	145.740000
415.870422	146.260000
415.964020	145.880000
416.057678	145.860000
416.151306	146.120000
416.244965	145.920000
416.338562	146.060000
416.432251	146.960000
416.525848	147.680000
416.619507	147.960000
416.713165	148.020000
416.806793	147.540000
416.900421	147.360000
416.994080	146.300000
417.087708	145.960000
417.181366	145.300000
417.274994	145.420000
417.368622	145.680000
417.462280	146.520000
417.555908	146.480000
417.649567	146.500000
417.743195	146.940000
417.836853	146.480000
417.930481	146.260000
418.024170	146.420000
418.117767	147.140000
418.211426	147.220000
418.305054	147.800000
418.398712	147.220000
418.492340	147.240000
418.585999	147.140000
418.679626	147.280000
418.773285	147.180000
418.866913	147.500000
418.960571	147.880000
419.054230	148.060000
419.147858	147.860000
419.241516	147.580000
419.335144	147.420000
419.428802	147.000000
419.522461	146.420000
419.616089	145.900000
419.709747	145.940000
419.803375	146.300000
419.897034	146.000000
419.990662	146.300000
420.084320	146.900000
420.177979	147.100000
420.271606	147.120000
420.365295	147.700000
420.458893	147.740000
420.552582	147.920000
420.646210	147.680000
420.739868	147.380000
420.833496	146.880000
420.927155	146.400000
421.020782	145.380000
421.114471	144.940000
421.208069	145.080000
421.301758	145.460000
421.395386	145.600000
421.489044	146.220000
421.582703	146.720000
421.676361	147.060000
421.769989	146.420000
421.863647	146.700000
421.957306	146.620000
422.050934	146.500000
422.144592	146.300000
422.238251	146.120000
422.331909	145.880000
422.425537	145.740000
422.519196	145.680000
422.612854	145.300000
422.706543	145.380000
422.800140	145.680000
422.893829	145.400000
422.987457	145.180000
423.081146	145.480000
423.174744	146.360000
423.268433	145.900000
423.362061	145.980000
423.455750	145.980000
423.549347	145.700000
423.643036	144.840000
423.736664	145.440000
423.830353	145.540000
423.924011	145.960000
424.017639	146.080000
424.111298	146.180000
424.204956	145.900000
424.298615	145.840000
424.392273	145.280000
424.485931	145.300000
424.579559	145.540000
424.673218	145.380000
424.766876	145.680000
424.860535	145.820000
424.954193	145.780000
425.047882	146.240000
425.141510	146.520000
425.235199	146.420000
425.328796	146.400000
425.422485	146.160000
425.516113	145.200000
425.609802	145.260000
425.703430	145.380000
425.797119	145.300000
425.890747	145.420000
425.984436	145.740000
426.078064	145.600000
426.171753	145.420000
426.265411	145.440000
426.359070	145.420000
426.452728	145.280000
426.546356	145.380000
426.640015	145.160000
426.733673	145.180000
426.827332	144.920000
426.920990	145.780000
427.014648	145.060000
427.108307	145.540000
427.201965	145.980000
427.295624	146.460000
427.389282	145.700000
427.482941	146.040000
427.576630	145.880000
427.670258	145.220000
427.763947	144.740000
427.857574	144.760000
427.951263	144.760000
428.044922	144.460000
428.138611	144.580000
428.232239	145.140000
428.325928	145.500000
428.419556	145.880000
428.513245	145.720000
428.606903	146.140000
428.700562	145.900000
428.794220	145.260000
428.887878	144.740000
428.981537	145.120000
429.075195	144.760000
429.168854	144.860000
429.262512	144.980000
429.356201	145.260000
429.449860	145.280000
429.543518	145.360000
429.637177	145.160000
429.730835	145.460000
429.824493	145.140000
429.918182	145.360000
430.011810	145.140000
430.105530	144.860000
430.199158	144.920000
430.292847	144.920000
430.386475	144.540000
430.480164	144.320000
430.573792	144.280000
430.667511	144.220000
430.761139	144.540000
430.854828	145.060000
430.948456	145.680000
431.042145	146.160000
431.135834	146.040000
431.229492	146.000000
431.323151	146.120000
431.416809	145.840000
431.510468	145.800000
431.604156	145.740000
431.697815	145.840000
431.791473	145.080000
431.885132	144.880000
431.978821	145.440000
432.072479	145.620000
432.166138	146.020000
432.259827	146.060000
432.353485	146.340000
432.447174	145.920000
432.540802	145.940000
432.634491	145.840000
432.728149	145.980000
432.821838	146.420000
432.915466	146.000000
433.009186	146.080000
433.102814	145.400000
433.196503	145.660000
433.290131	145.260000
433.383850	145.700000
433.477509	145.680000
433.571167	146.580000
433.664856	146.680000
433.758514	147.060000
433.852173	146.880000
433.945862	146.840000
434.039520	146.620000
434.133179	146.160000
434.226868	145.760000
434.320526	145.440000
434.414185	145.860000
434.507874	145.320000
434.601562	145.500000
434.695221	145.620000
434.788910	145.820000
434.882538	145.620000
434.976257	145.380000
435.069885	145.600000
435.163574	145.480000
435.257233	145.240000
435.350922	145.260000
435.444580	145.520000
435.538269	144.840000
435.631897	145.320000
435.725616	145.740000
435.819275	145.960000
435.912964	146.280000
436.006622	146.960000
436.100311	146.760000
436.193970	146.280000
436.287628	145.360000
436.381317	145.200000
436.474976	144.760000
436.568665	144.260000
436.662323	144.960000
436.756012	145.440000
436.849670	144.960000
436.943390	144.960000
437.037018	145.220000
437.130737	144.920000
437.224365	144.740000
437.318085	145.540000
437.411713	145.920000
437.505432	146.340000
437.599060	146.620000
437.692780	147.220000
437.786407	146.860000
437.880127	146.580000
437.973755	146.180000
438.067474	145.420000
438.161133	145.060000
438.254822	145.460000
438.348480	145.380000
438.442169	145.760000
438.535828	146.340000
438.629517	146.140000
438.723175	145.340000
438.816864	145.880000
438.910553	145.520000
439.004211	145.260000
439.097900	145.140000
439.191559	145.300000
439.285248	144.460000
439.378906	144.680000
439.472626	144.540000
439.566284	144.460000
439.659973	144.740000
439.753632	145.020000
439.847321	145.440000
439.940979	145.940000
440.034698	146.240000
440.128326	145.960000
440.222046	145.920000
440.315674	144.880000
440.409393	144.920000
440.503082	144.880000
440.596741	145.240000
440.690430	145.480000
440.784088	145.340000
440.877777	144.840000
440.971466	144.780000
441.065125	144.260000
441.158813	143.940000
441.252502	144.480000
441.346161	144.620000
441.439850	145.100000
441.533539	145.100000
441.627197	145.440000
441.720886	145.260000
441.814606	145.540000
441.908234	145.380000
442.001953	145.360000
442.095612	145.120000
442.189301	145.520000
442.282959	145.200000
442.376678	144.660000
442.470306	145.620000
442.564026	145.700000
442.657684	145.660000
442.751404	145.960000
442.845032	147.100000
442.938751	146.420000
443.032440	146.560000
443.126099	146.240000
443.219788	146.480000
443.313477	145.800000
443.407166	146.140000
443.500824	146.160000
443.594513	146.480000
443.688202	146.320000
443.781891	145.920000
443.875549	145.480000
443.969238	145.360000
444.062927	145.220000
444.156647	145.080000
444.250275	145.520000
444.343994	145.780000
444.437653	145.820000
444.531372	145.660000
444.625031	145.240000
444.718719	144.560000
444.812378	144.200000
444.906097	144.000000
444.999756	143.780000
445.093445	144.260000
445.187103	144.860000
445.280823	145.760000
445.374512	145.520000
445.468201	145.560000
445.561859	145.340000
445.655548	145.520000
445.749237	144.780000
445.842926	145.220000
445.936615	145.900000
446.030304	145.860000
446.123962	146.180000
446.217651	146.160000
446.311340	146.340000
446.405029	145.560000
446.498749	145.340000
446.592407	144.500000
446.686096	144.640000
446.779755	144.600000
446.873474	144.980000
446.967133	145.380000
447.060852	145.420000
447.154510	145.400000
447.248230	145.300000
447.341858	145.200000
447.435577	144.580000
447.529236	144.600000
447.622955	144.620000
447.716644	144.640000
447.810333	145.000000
447.904022	145.980000
447.997711	146.000000
448.091400	146.340000
448.185059	146.280000
448.278748	146.160000
448.372437	145.640000
448.466125	146.060000
448.559814	145.800000
448.653503	146.260000
448.747192	146.360000
448.840912	146.720000
448.934570	146.540000
449.028290	147.060000
449.121948	146.520000
449.215637	146.280000
449.309296	145.980000
449.403015	146.100000
449.496674	145.680000
449.590393	146.020000
449.684052	145.740000
449.777771	146.380000
449.871429	145.680000
449.965149	145.700000
450.058838	145.620000
450.152527	146.040000
450.246216	145.600000
450.339905	145.880000
450.433594	145.700000
450.527283	146.340000
450.620972	146.060000
450.714661	145.880000
450.808350	145.880000
450.902039	146.360000
450.995728	145.660000
451.089417	145.700000
451.183105	145.980000
451.276794	146.580000
451.370514	145.960000
451.464172	145.400000
451.557892	145.460000
451.651550	145.520000
451.745270	145.060000
451.838928	144.980000
451.932648	145.600000
452.026306	145.960000
452.120026	145.680000
452.213684	146.040000
452.307404	146.060000
452.401062	146.200000
452.494781	146.680000
452.588470	146.720000
452.682159	146.120000
452.775848	146.260000
452.869537	145.420000
452.963226	144.540000
453.056915	144.480000
453.150604	144.840000
453.244293	145.000000
453.337982	145.780000
453.431671	146.060000
453.525360	146.420000
453.619049	146.100000
453.712769	146.020000
453.806427	146.000000
453.900146	145.240000
453.993805	145.020000
454.087555	145.820000
454.181213	146.140000
454.274933	145.720000
454.368591	146.160000
454.462311	146.000000
454.555969	145.340000
454.649689	145.680000
454.743347	145.580000
454.837067	146.260000
454.930756	146.840000
455.024445	146.980000
455.118134	146.480000
455.211853	147.180000
455.305542	146.560000
455.399231	146.100000
455.492920	145.980000
455.586609	146.080000
455.680298	146.020000
455.773987	145.860000
455.867676	146.100000
455.961365	146.420000
456.055084	145.980000
456.148773	145.480000
456.242493	145.840000
456.336151	145.580000
456.429871	145.500000
456.523529	146.040000
456.617249	145.800000
456.710907	146.020000
456.804626	146.160000
456.898315	145.640000
456.992035	145.160000
457.085693	145.100000
457.179413	144.240000
457.273102	144.700000
457.366791	144.900000
457.460480	145.340000
457.554199	146.400000
457.647888	146.940000
457.741577	146.500000
457.835266	146.560000
457.928955	146.380000
458.022644	146.060000
458.116364	146.380000
458.210052	146.400000
458.303741	146.640000
458.397461	146.200000
458.491119	145.640000
458.584839	145.280000
458.678528	144.840000
458.772247	144.520000
458.865906	144.840000
458.959625	145.780000
459.053284	145.660000
459.147003	145.660000
459.240692	146.220000
459.334412	146.560000
459.428070	145.880000
459.521790	145.900000
459.615479	145.780000
459.709198	146.120000
459.802887	145.460000
459.896576	145.340000
459.990265	145.720000
460.083954	146.120000
460.177673	145.160000
460.271362	145.320000
460.365051	145.300000
460.458740	144.760000
460.552429	143.960000
460.646149	144.060000
460.739838	143.880000
460.833527	144.040000
460.927246	143.860000
461.020905	144.140000
461.114655	144.320000
461.208313	144.720000
461.302032	144.320000
461.395691	144.940000
461.489441	145.380000
461.583099	145.240000
461.676819	144.920000
461.770477	145.380000
461.864197	144.980000
461.957916	144.700000
462.051605	144.580000
462.145294	145.500000
462.238983	145.240000
462.332703	145.680000
462.426392	146.340000
462.520081	146.460000
462.613770	145.760000
462.707489	146.180000
462.801178	145.980000
462.894867	145.800000
462.988556	145.700000
463.082275	145.800000
463.175964	145.160000
463.269684	145.220000
463.363342	144.920000
463.457092	144.540000
463.550751	144.620000
463.644470	145.320000
463.738129	145.420000
463.831879	145.600000
463.925537	146.360000
464.019257	146.360000
464.112946	145.940000
464.206665	145.500000
464.300323	145.480000
464.394043	145.220000
464.487762	145.200000
464.581451	145.620000
464.675140	145.820000
464.768829	145.580000
464.862549	145.680000
464.956238	145.860000
465.049927	145.600000
465.143646	145.820000
465.237335	145.720000
465.331024	146.040000
465.424713	145.820000
465.518433	145.680000
465.612152	145.380000
465.705811	145.440000
465.799561	144.960000
465.893219	144.760000
465.986938	144.940000
466.080597	144.960000
466.174347	145.420000
466.268005	145.700000
466.361725	145.780000
466.455414	145.580000
466.549133	145.300000
466.642792	145.420000
466.736542	145.100000
466.830231	145.200000
466.923920	145.200000
467.017609	145.360000
467.111328	144.540000
467.205017	144.540000
467.298706	144.480000
467.392426	144.620000
467.486115	145.420000
467.579803	145.680000
467.673523	146.020000
467.767212	146.140000
467.860901	146.140000
467.954651	145.880000
468.048309	146.020000
468.142029	145.900000
468.235718	145.900000
468.329437	145.540000
468.423096	145.240000
468.516846	145.100000
468.610504	144.940000
468.704224	144.560000
468.797913	144.740000
468.891632	144.540000
468.985291	144.680000
469.079010	144.960000
469.172729	144.860000
469.266418	145.680000
469.360107	146.080000
469.453827	145.840000
469.547516	145.640000
469.641205	146.240000
469.734924	145.880000
469.828613	145.960000
469.922302	146.220000
470.016022	146.140000
470.109711	145.920000
470.203430	145.120000
470.297150	144.620000
470.390808	145.000000
470.484558	145.020000
470.578217	145.460000
470.671936	146.160000
470.765625	146.700000
470.859344	146.360000
470.953003	146.740000
471.046753	146.400000
471.140411	145.900000
471.234131	145.920000
471.327820	146.320000
471.421539	146.200000
471.515228	145.580000
471.608948	145.500000
471.702637	145.080000
471.796326	144.520000
471.890045	144.800000
471.983734	145.400000
472.077423	145.380000
472.171143	145.520000
472.264832	145.620000
472.358521	144.820000
472.452240	144.480000
472.545929	145.640000
472.639648	145.840000
472.733337	146.220000
472.827057	146.540000
472.920746	146.640000
473.014465	146.300000
473.108124	146.380000
473.201874	146.120000
473.295532	146.340000
473.389252	146.920000
473.482941	147.020000
473.576660	146.520000
473.670319	146.380000
473.764069	146.580000
473.857727	146.480000
473.951477	146.380000
474.045166	147.080000
474.138855	147.280000
474.232574	147.200000
474.326263	146.840000
474.419952	146.900000
474.513672	146.640000
474.607361	146.340000
474.701050	146.000000
474.794769	146.260000
474.888458	146.240000
474.982178	146.100000
475.075867	146.060000
475.169586	146.220000
475.263275	146.020000
475.356995	145.680000
475.450653	145.560000
475.544403	145.360000
475.638062	145.940000
475.731812	145.620000
475.825470	145.520000
475.919189	145.540000
476.012878	146.000000
476.106598	145.360000
476.200256	145.920000
476.294006	146.100000
476.387695	146.020000
476.481384	146.160000
476.575104	146.260000
476.668793	146.040000
476.762512	145.680000
476.856201	146.240000
476.949890	145.720000
477.043610	145.180000
477.137299	145.040000
477.230988	145.320000
477.324707	145.000000
477.418396	145.600000
477.512146	146.100000
477.605804	145.980000
477.699524	146.220000
477.793213	145.960000
477.886932	145.720000
477.980591	145.300000
478.074341	145.360000
478.167999	144.660000
478.261749	144.940000
478.355408	144.660000
478.449127	145.360000
478.542816	146.160000
478.636536	147.020000
478.730225	147.040000
478.823944	147.500000
478.917633	147.060000
479.011322	146.640000
479.105042	146.420000
479.198730	146.400000
479.292450	146.280000
479.386139	146.480000
479.479828	146.560000
479.573547	146.860000
479.667267	146.680000
479.760925	146.360000
479.854675	146.420000
479.948334	146.460000
480.042084	145.580000
480.135742	145.860000
480.229462	145.680000
480.323151	145.500000
480.416870	144.940000
480.510529	145.360000
480.604279	144.880000
480.697937	145.420000
480.791656	145.280000
480.885345	144.980000
480.979065	144.880000
481.072754	145.400000
481.166473	145.860000
481.260132	145.640000
481.353882	145.940000
481.447540	145.780000
481.541260	145.680000
481.635010	144.880000
481.728668	145.040000
481.822388	145.160000
481.916077	145.360000
482.009796	145.180000
482.103485	145.620000
482.197205	145.820000
482.290863	145.660000
482.384613	145.320000
482.478271	144.900000
482.571991	144.580000
482.665680	144.500000
482.759399	145.100000
482.853058	145.920000
482.946808	146.200000
483.040466	146.120000
483.134216	146.060000
483.227875	145.380000
483.321594	145.460000
483.415283	145.300000
483.509003	145.500000
483.602661	145.220000
483.696411	145.820000
483.790070	145.400000
483.883789	145.200000
483.977478	145.180000
484.071198	145.580000
484.164917	145.020000
484.258606	144.340000
484.352325	145.140000
484.445984	144.980000
484.539734	144.880000
484.633392	144.860000
484.727142	145.700000
484.820801	145.500000
484.914520	145.600000
485.008209	145.860000
485.101929	146.300000
485.195587	145.900000
485.289337	145.580000
485.382996	145.640000
485.476715	145.580000
485.570404	145.920000
485.664124	145.860000
485.757782	146.520000
485.851532	146.440000
485.945190	146.200000
486.038910	145.800000
486.132599	146.140000
486.226318	145.360000
486.319977	145.140000
486.413727	145.460000
486.507446	145.520000
486.601105	145.180000
486.694855	145.260000
486.788513	145.520000
486.882233	145.500000
486.975922	145.320000
487.069641	145.260000
487.163300	145.400000
487.257050	146.240000
487.350708	146.080000
487.444427	146.120000
487.538116	146.280000
487.631836	146.260000
487.725494	145.720000
487.819214	145.740000
487.912903	145.440000
488.006622	145.780000
488.100281	146.020000
488.194031	145.840000
488.287689	146.320000
488.381409	147.220000
488.475098	146.640000
488.568817	146.580000
488.662476	146.600000
488.756226	145.700000
488.849945	144.480000
488.943604	144.820000
489.037354	144.800000
489.131012	144.560000
489.224731	144.400000
489.318390	144.800000
489.412140	144.640000
489.505798	144.500000
489.599518	144.320000
489.693207	145.000000
489.786926	144.820000
489.880585	144.660000
489.974335	145.060000
490.067993	146.160000
490.161713	146.260000
490.255371	146.780000
490.349121	147.240000
490.442780	146.800000
490.536499	145.880000
490.630188	145.740000
490.723907	145.360000
490.817566	145.260000
490.911285	145.580000
491.004974	145.580000
491.098694	145.120000
491.192413	146.040000
491.286102	145.700000
491.379822	145.520000
491.473480	145.600000
491.567200	145.640000
491.660889	144.720000
491.754608	144.900000
491.848267	144.980000
491.941986	144.920000
492.035675	145.160000
492.129395	145.820000
492.223053	145.640000
492.316772	145.660000
492.410461	145.560000
492.504181	145.320000
492.597839	144.820000
492.691559	145.140000
492.785248	145.060000
492.878967	145.200000
492.972626	145.240000
493.066345	145.400000
493.160034	145.000000
493.253754	144.960000
493.347412	144.820000
493.441132	145.100000
493.534882	145.220000
493.628540	145.500000
493.722260	145.800000
493.815918	145.940000
493.909668	146.380000
494.003326	146.680000
494.097046	146.400000
494.190704	146.040000
494.284454	146.200000
494.378113	146.220000
494.471832	145.820000
494.565491	145.580000
494.659210	145.940000
494.752899	145.880000
494.846619	145.420000
494.940277	145.500000
495.033997	145.660000
495.127686	145.060000
495.221405	144.840000
495.315063	145.080000
495.408783	144.800000
495.502441	144.960000
495.596191	145.460000
495.689850	145.280000
495.783569	145.280000
495.877228	145.560000
495.970947	145.560000
496.064697	145.220000
496.158356	146.240000
496.252075	146.140000
496.345734	145.800000
496.439453	146.680000
496.533142	146.820000
496.626862	146.520000
496.720520	146.360000
496.814240	146.940000
496.907898	146.420000
497.001617	146.540000
497.095306	145.780000
497.189026	145.720000
497.282684	145.580000
497.376404	145.740000
497.470062	145.480000
497.563782	145.780000
497.657471	145.880000
497.751190	145.400000
497.844849	145.060000
497.938568	145.400000
498.032227	145.580000
498.125946	145.420000
498.219635	145.540000
498.313354	145.680000
498.407074	145.540000
498.500732	145.720000
498.594452	146.060000
498.688110	145.740000
498.781830	145.580000
498.875519	145.580000
498.969238	145.300000
499.062897	144.780000
499.156616	145.320000
499.250275	145.420000
499.343994	144.860000
499.437653	144.660000
499.531372	145.020000
499.625061	145.580000
499.718781	145.760000
499.812439	146.520000
499.906158	146.700000
499.999817	146.440000
500.093536	145.780000
500.187195	145.480000
500.280914	145.060000
500.374573	145.100000
500.468323	145.160000
500.561981	145.240000
500.655701	145.080000
500.749420	145.480000
500.843079	145.620000
500.936798	145.740000
501.030457	146.360000
501.124176	146.600000
501.217834	146.180000
501.311554	146.140000
501.405212	146.080000
501.498962	145.240000
501.592621	145.220000
501.686340	145.580000
501.779999	145.420000
501.873718	145.420000
501.967377	145.860000
502.061096	146.020000
502.154755	145.480000
502.248474	145.260000
502.342133	145.660000
502.435852	145.260000
502.529510	145.920000
502.623230	146.560000
502.716888	146.660000
502.810608	146.180000
502.904266	146.700000
502.997986	145.960000
503.091705	145.500000
503.185364	145.380000
503.279083	145.660000
503.372772	145.140000
503.466492	144.780000
503.560150	144.900000
503.653870	145.340000
503.747528	145.280000
503.841248	145.340000
503.934906	145.580000
504.028625	145.260000
504.122284	145.300000
504.216003	145.980000
504.309662	145.820000
504.403381	146.220000
504.497040	146.160000
504.590759	145.640000
504.684418	145.440000
504.778137	146.220000
504.871796	146.200000
504.965515	146.140000
505.059174	146.560000
505.152893	145.820000
505.246521	144.800000
505.340240	144.120000
505.433899	144.420000
505.527618	144.420000
505.621338	144.740000
505.714996	144.660000
505.808716	145.080000
505.902374	145.720000
505.996094	145.960000
506.089752	145.900000
506.183472	146.340000
506.277130	146.440000
506.370850	146.160000
506.464508	145.840000
506.558228	146.240000
506.651886	146.060000
506.745605	146.200000
506.839264	146.140000
506.932983	146.300000
507.026611	145.600000
507.120331	146.220000
507.213989	145.480000
507.307709	145.580000
507.401367	145.660000
507.495087	146.740000
507.588745	146.120000
507.682465	147.100000
507.776123	146.840000
507.869843	146.840000
507.963531	146.240000
508.057190	146.780000
508.150909	145.940000
508.244568	145.980000
508.338287	145.280000
508.431946	145.020000
508.525665	144.540000
508.619324	144.820000
508.713013	144.960000
508.806671	145.920000
508.900391	146.460000
508.994049	146.700000
509.087769	146.480000
509.181427	146.740000
509.275146	146.040000
509.368774	145.260000
509.462494	145.420000
509.556152	145.520000
509.649872	145.240000
509.743530	145.520000
509.837250	146.040000
509.930878	145.880000
510.024597	145.820000
510.118256	145.560000
510.211975	145.520000
510.305695	145.320000
510.399353	145.620000
510.493042	146.100000
510.586700	146.280000
510.680420	146.900000
510.774078	146.640000
510.867798	146.600000
510.961426	145.820000
511.055145	146.020000
511.148804	145.320000
511.242523	146.100000
511.336151	145.780000
511.429871	146.500000
511.523529	146.360000
511.617249	146.160000
511.710876	145.780000
511.804596	145.700000
511.898254	145.300000
511.991974	145.500000
512.085632	145.400000
512.179321	145.340000
512.272949	145.860000
512.366699	146.480000
512.460327	146.240000
512.554077	147.220000
512.647766	147.220000
512.741394	146.660000
512.835144	146.760000
512.928772	146.640000
513.022461	146.140000
513.116150	146.000000
513.209839	146.820000
513.303467	146.140000
513.397217	145.860000
513.490845	145.920000
513.584595	145.680000
513.678223	144.800000
513.771912	144.400000
513.865601	144.840000
513.959290	144.440000
514.052917	144.660000
514.146667	145.460000
514.240295	146.140000
514.333984	146.160000
514.427673	146.060000
514.521362	146.480000
514.614990	145.560000
514.708740	145.520000
514.802368	145.660000
514.896057	145.580000
514.989746	145.980000
515.083435	146.060000
515.177124	146.460000
515.270752	146.420000
515.364502	146.920000
515.458130	146.760000
515.551819	146.740000
515.645508	146.160000
515.739197	146.060000
515.832825	145.920000
515.926575	145.000000
516.020203	145.400000
516.113892	146.140000
516.207520	145.900000
516.301270	145.960000
516.394897	146.260000
516.488586	146.340000
516.582275	145.820000
516.675964	145.440000
516.769592	145.420000
516.863281	146.280000
516.956970	146.660000
517.050659	146.820000
517.144287	147.420000
517.238037	147.240000
517.331665	146.320000
517.425354	145.420000
517.519043	145.060000
517.612732	145.420000
517.706421	145.260000
517.800049	145.200000
517.893738	145.000000
517.987427	144.880000
518.081116	144.280000
518.174744	144.320000
518.268433	144.840000
518.362122	145.800000
518.455811	146.020000
518.549438	146.460000
518.643127	147.260000
518.736816	146.660000
518.830505	146.180000
518.924133	145.940000
519.017822	145.980000
519.111511	145.700000
519.205200	146.620000
519.298828	146.760000
519.392517	146.680000
519.486206	146.760000
519.579895	146.640000
519.673523	146.040000
519.767212	145.740000
519.860901	146.260000
519.954590	145.780000
520.048279	145.600000
520.141907	145.320000
520.235596	146.360000
520.329224	146.600000
520.422974	146.880000
520.516602	146.940000
520.610291	146.700000
520.703918	146.280000
520.797607	145.680000
520.891296	145.540000
520.984985	145.860000
521.078613	146.800000
521.172302	146.280000
521.265930	147.180000
521.359680	147.500000
521.453308	147.020000
521.546997	146.520000
521.640625	146.760000
521.734314	145.860000
521.827942	145.880000
521.921692	146.060000
522.015320	146.460000
522.109009	146.160000
522.202698	146.380000
522.296326	146.380000
522.390015	146.880000
522.483704	146.560000
522.577393	146.420000
522.671021	146.240000
522.764709	145.860000
522.858337	146.040000
522.952026	146.180000
523.045654	147.220000
523.139404	147.940000
523.233032	148.020000
523.326721	147.460000
523.420349	147.400000
523.514038	146.440000
523.607666	146.260000
523.701355	145.560000
523.795044	145.540000
523.888733	145.780000
523.982361	146.280000
524.076050	145.800000
524.169678	146.720000
524.263367	146.260000
524.356995	145.640000
524.450684	145.200000
524.544373	145.100000
524.638062	144.760000
524.731750	145.160000
524.825378	145.240000
524.919067	145.060000
525.012695	145.220000
525.106384	144.800000
525.200012	144.900000
525.293701	145.140000
525.387329	145.760000
525.481018	145.920000
525.574646	146.500000
525.668396	146.320000
525.762024	146.640000
525.855713	146.580000
525.949341	146.120000
526.043030	146.060000
526.136658	145.960000
526.230347	145.440000
526.323975	144.960000
526.417664	145.020000
526.511292	144.880000
526.604980	145.160000
526.698608	145.440000
526.792297	145.440000
526.885925	145.760000
526.979614	145.920000
527.073303	145.760000
527.166931	145.540000
527.260620	145.880000
527.354309	146.220000
527.447998	146.060000
527.541626	145.860000
527.635315	145.960000
527.728943	146.320000
527.822632	146.200000
527.916260	146.680000
528.009949	147.000000
528.103577	146.920000
528.197266	146.400000
528.290894	146.300000
528.384583	145.880000
528.478210	145.900000
528.571899	146.080000
528.665527	146.540000
528.759216	146.640000
528.852844	147.000000
528.946533	146.840000
529.040161	146.920000
529.133850	146.600000
529.227478	146.580000
529.321167	146.500000
529.414856	147.020000
529.508484	147.300000
529.602173	146.920000
529.695801	147.000000
529.789490	146.800000
529.883057	146.260000
529.976746	146.120000
530.070374	146.660000
530.164062	146.220000
530.257690	146.640000
530.351379	147.080000
530.445007	146.660000
530.538696	146.040000
530.632324	146.360000
530.726013	145.880000
530.819641	145.220000
530.913330	145.280000
531.006958	145.500000
531.100647	145.580000
531.194275	145.520000
531.287964	145.800000
531.381592	145.720000
531.475220	145.820000
531.568848	145.540000
531.662537	145.560000
531.756226	145.940000
531.849854	146.440000
531.943542	146.480000
532.037170	146.060000
532.130859	146.340000
532.224487	145.800000
532.318176	145.000000
532.411804	145.540000
532.505432	146.120000
532.599060	145.900000
532.692749	145.940000
532.786377	146.520000
532.880066	145.900000
532.973694	145.380000
533.067383	145.440000
533.161011	145.580000
533.254639	145.380000
533.348267	145.000000
533.441956	145.340000
533.535583	145.080000
533.629272	145.120000
533.722900	144.780000
533.816589	145.020000
533.910156	145.120000
534.003845	145.060000
534.097534	145.600000
534.191162	146.460000
534.284851	146.980000
534.378479	146.760000
534.472107	146.880000
534.565735	146.120000
534.659424	145.780000
534.753052	145.720000
534.846741	145.640000
534.940369	146.200000
535.033997	146.420000
535.127625	146.420000
535.221313	146.560000
535.314941	146.680000
535.408630	145.860000
535.502197	146.200000
535.595886	145.820000
535.689514	145.500000
535.783203	145.920000
535.876831	146.780000
535.970459	146.580000
536.064087	146.660000
536.157776	146.460000
536.251404	146.260000
536.345093	145.660000
536.438721	145.500000
536.532349	145.700000
536.626038	145.760000
536.719666	145.980000
536.813293	146.160000
536.906921	146.080000
537.000610	146.420000
537.094238	146.520000
537.187866	146.380000
537.281494	146.140000
537.375183	146.320000
537.468811	146.040000
537.562439	146.080000
537.656067	145.720000
537.749756	145.960000
537.843384	146.540000
537.937012	146.480000
538.030640	146.440000
538.124329	146.980000
538.217896	147.260000
538.311584	146.860000
538.405212	146.640000
538.498901	146.760000
538.592468	146.720000
538.686157	146.100000
538.779785	145.540000
538.873413	145.540000
538.967102	145.060000
539.060730	144.700000
539.154358	145.100000
539.247986	145.440000
539.341675	145.700000
539.435242	145.980000
539.528931	146.100000
539.622559	145.680000
539.716187	146.160000
539.809814	146.020000
539.903503	145.860000
539.997070	145.700000
540.090759	146.020000
540.184387	145.900000
540.278015	146.400000
540.371643	146.740000
540.465332	146.960000
540.558899	146.880000
540.652588	146.420000
540.746216	145.920000
540.839844	146.040000
540.933472	145.920000
541.027100	145.980000
541.120728	146.140000
541.214417	146.680000
541.308044	146.640000
541.401672	146.640000
541.495300	146.460000
541.588928	146.380000
541.682617	145.820000
541.776184	145.440000
541.869873	145.720000
541.963440	145.880000
542.057129	146.020000
542.150757	146.060000
542.244385	146.080000
542.338013	145.420000
542.431641	145.200000
542.525269	145.120000
542.618958	145.560000
542.712524	146.060000
542.806213	146.320000
542.899780	146.700000
542.993469	146.640000
543.087036	146.180000
543.180725	145.240000
543.274292	145.360000
543.367981	145.560000
543.461548	145.540000
543.555237	145.760000
543.648926	146.580000
543.742493	147.500000
543.836182	147.460000
543.929749	147.400000
544.023437	147.220000
544.117004	147.060000
544.210693	146.520000
544.304260	146.040000
544.397949	146.020000
544.491516	146.320000
544.585205	146.340000
544.678772	145.980000
544.772461	146.500000
544.866028	146.520000
544.959717	146.400000
545.053284	145.940000
545.146973	146.160000
545.240540	145.840000
545.334229	146.340000
545.427795	146.420000
545.521423	146.900000
545.615051	146.500000
545.708679	146.940000
545.802307	146.600000
545.895935	146.800000
545.989624	147.300000
546.083191	147.400000
546.176880	146.960000
546.270447	146.640000
546.364136	146.920000
546.457703	146.340000
546.551331	146.520000
546.644958	146.620000
546.738586	147.280000
546.832214	146.640000
546.925842	146.400000
547.019409	146.500000
547.113098	146.380000
547.206665	145.880000
547.300354	145.840000
547.393921	146.240000
547.487549	146.200000
547.581177	145.940000
547.674805	145.860000
547.768433	145.300000
547.862061	145.260000
547.955627	144.880000
548.049316	145.480000
548.142883	145.520000
548.236572	146.380000
548.330139	146.340000
548.423767	146.080000
548.517456	146.100000
548.611023	146.400000
548.704651	145.720000
548.798279	145.900000
548.891907	146.540000
548.985474	146.260000
549.079163	146.240000
549.172729	146.380000
549.266357	145.940000
549.359985	145.900000
549.453613	145.580000
549.547180	145.340000
549.640869	145.900000
549.734436	146.080000
549.828064	146.100000
549.921631	146.080000
550.015320	146.020000
550.108887	146.060000
550.202515	146.020000
550.296143	146.020000
550.389771	146.380000
550.483337	146.620000
550.576965	146.420000
550.670593	146.900000
550.764221	146.900000
550.857849	146.600000
550.951477	146.100000
551.045105	145.780000
551.138672	145.780000
551.232300	145.180000
551.325928	145.800000
551.419556	146.240000
551.513123	146.440000
551.606750	145.940000
551.700378	146.340000
551.794006	145.920000
551.887573	145.800000
551.981201	146.140000
552.074768	146.160000
552.168457	145.960000
552.262024	146.540000
552.355652	146.620000
552.449219	146.760000
552.542847	146.800000
552.636475	146.480000
552.730103	145.680000
552.823669	145.400000
552.917297	144.680000
553.010864	144.460000
553.104553	145.180000
553.198181	145.080000
553.291748	145.540000
553.385376	146.060000
553.478943	146.120000
553.572571	146.120000
553.666199	146.580000
553.759827	146.160000
553.853394	145.520000
553.947021	145.440000
554.040588	145.260000
554.134216	145.040000
554.227783	146.120000
554.321411	146.900000
554.415039	146.860000
554.508667	146.780000
554.602234	147.080000
554.695862	146.060000
554.789429	145.880000
554.883057	145.860000
554.976624	145.780000
555.070251	145.840000
555.163818	145.820000
555.257507	145.540000
555.351074	145.880000
555.444702	147.000000
555.538330	146.540000
555.631897	146.920000
555.725525	146.820000
555.819092	146.820000
555.912720	145.600000
556.006287	146.220000
556.099915	145.720000
556.193481	145.780000
556.287109	146.060000
556.380676	146.300000
556.474304	146.020000
556.567871	146.500000
556.661499	146.420000
556.755066	146.100000
556.848694	146.160000
556.942261	145.960000
557.035889	146.040000
557.129517	146.020000
557.223145	146.240000
557.316711	146.120000
557.410339	146.360000
557.503906	145.960000
557.597473	146.540000
557.691040	145.920000
557.784668	146.120000
557.878296	145.980000
557.971863	146.300000
558.065491	146.100000
558.159058	146.340000
558.252686	146.640000
558.346252	147.180000
558.439880	146.700000
558.533447	146.240000
558.627075	145.940000
558.720642	145.440000
558.814270	145.060000
558.907837	145.220000
559.001465	145.340000
559.095032	146.220000
559.188660	146.520000
559.282227	146.140000
559.375854	146.740000
559.469360	146.680000
559.562988	146.700000
559.656555	146.900000
559.750183	147.280000
559.843750	147.020000
559.937378	147.200000
560.030945	146.920000
560.124573	0.000000
560.218140	0.000000
560.311707	0.000000
560.405334	0.000000
560.498901	0.000000
560.592529	0.000000
560.686096	0.000000
560.779724	0.000000
560.873291	0.000000
560.966858	0.000000
561.060425	0.000000
561.154053	0.000000
561.247620	0.000000
561.341248	0.000000
561.434814	0.000000
561.528381	0.000000
561.621948	0.000000
561.715576	0.000000
561.809143	0.000000
561.902771	0.000000
561.996277	0.000000
562.089905	0.000000
562.183472	0.000000
562.277100	0.000000
