Model Number: SPM-002-B   
Serial Number: 70087108
Firmware Version: 004.15.4
Exposure Time: 100000.000000us
Data Taken on: 11-12-2020 18:47:45.025
Wavelength	Amplitude
221.570786	0.000000
221.663406	0.000000
221.756027	0.000000
221.848648	0.000000
221.941269	0.000000
222.033905	0.000000
222.126526	0.000000
222.219162	0.000000
222.311798	0.000000
222.404419	0.000000
222.497055	0.000000
222.589676	0.000000
222.682312	0.000000
222.774933	0.000000
222.867569	0.000000
222.960205	0.000000
223.052841	0.000000
223.145462	0.000000
223.238098	0.000000
223.330734	0.000000
223.423386	0.000000
223.516022	0.000000
223.608658	0.000000
223.701309	0.000000
223.793945	0.000000
223.886581	0.000000
223.979218	0.000000
224.071869	0.000000
224.164505	0.000000
224.257156	0.000000
224.349792	0.000000
224.442444	0.000000
224.535095	0.000000
224.627747	0.000000
224.720398	0.000000
224.813034	0.000000
224.905685	0.000000
224.998337	145.680000
225.090988	145.540000
225.183640	145.740000
225.276291	145.560000
225.368942	146.240000
225.461594	146.540000
225.554245	146.900000
225.646912	146.500000
225.739578	147.140000
225.832230	147.320000
225.924896	146.400000
226.017548	146.800000
226.110199	147.240000
226.202866	146.440000
226.295532	145.960000
226.388184	145.920000
226.480850	145.260000
226.573517	144.780000
226.666168	145.340000
226.758835	146.080000
226.851501	146.980000
226.944183	147.280000
227.036850	147.140000
227.129517	147.220000
227.222183	147.000000
227.314850	146.600000
227.407516	146.800000
227.500198	147.400000
227.592865	146.820000
227.685532	146.400000
227.778214	146.320000
227.870880	146.220000
227.963562	146.660000
228.056229	147.180000
228.148926	147.400000
228.241592	147.700000
228.334274	147.460000
228.426956	147.000000
228.519638	147.340000
228.612305	146.760000
228.704987	146.840000
228.797668	146.840000
228.890350	146.700000
228.983032	145.740000
229.075714	146.600000
229.168396	146.000000
229.261108	145.580000
229.353790	145.460000
229.446472	145.880000
229.539169	145.580000
229.631851	145.420000
229.724533	145.980000
229.817230	146.220000
229.909912	147.040000
230.002609	146.960000
230.095306	147.000000
230.187988	146.820000
230.280685	146.820000
230.373383	145.660000
230.466095	145.360000
230.558792	145.740000
230.651474	145.760000
230.744171	145.460000
230.836868	145.600000
230.929581	146.040000
231.022278	146.240000
231.114975	146.420000
231.207672	146.440000
231.300369	146.680000
231.393082	146.600000
231.485779	146.040000
231.578506	145.940000
231.671204	146.280000
231.763916	146.480000
231.856613	146.380000
231.949326	146.800000
232.042023	146.580000
232.134735	146.320000
232.227448	146.160000
232.320160	146.440000
232.412872	146.320000
232.505585	147.240000
232.598297	147.600000
232.691010	147.260000
232.783722	147.120000
232.876450	147.900000
232.969162	147.060000
233.061874	146.540000
233.154587	146.520000
233.247314	146.740000
233.340027	145.880000
233.432739	146.480000
233.525467	146.160000
233.618179	146.560000
233.710907	146.060000
233.803635	146.640000
233.896347	145.980000
233.989090	147.000000
234.081818	146.640000
234.174545	146.880000
234.267258	146.140000
234.359985	146.700000
234.452713	146.320000
234.545441	146.380000
234.638168	146.100000
234.730896	146.660000
234.823639	146.460000
234.916367	146.960000
235.009094	147.020000
235.101822	147.400000
235.194580	147.200000
235.287308	147.180000
235.380051	146.340000
235.472778	146.580000
235.565521	146.600000
235.658249	146.360000
235.750992	146.500000
235.843719	146.500000
235.936462	146.640000
236.029205	146.120000
236.121948	146.120000
236.214691	146.360000
236.307449	147.200000
236.400192	146.620000
236.492935	146.640000
236.585678	146.700000
236.678421	146.480000
236.771164	145.820000
236.863907	146.780000
236.956665	147.200000
237.049408	148.600000
237.142151	148.060000
237.234909	149.060000
237.327652	148.540000
237.420410	148.240000
237.513153	147.380000
237.605927	147.660000
237.698669	146.800000
237.791428	146.220000
237.884186	146.760000
237.976944	146.300000
238.069702	146.620000
238.162445	146.080000
238.255203	146.520000
238.347961	146.380000
238.440720	146.440000
238.533478	146.120000
238.626266	146.320000
238.719025	146.480000
238.811783	146.360000
238.904541	146.080000
238.997314	145.980000
239.090073	145.880000
239.182831	145.960000
239.275604	146.660000
239.368362	146.700000
239.461136	146.840000
239.553909	146.680000
239.646667	146.400000
239.739441	145.920000
239.832214	146.220000
239.925003	146.420000
240.017761	147.280000
240.110535	147.960000
240.203308	147.380000
240.296082	147.280000
240.388855	146.860000
240.481628	146.860000
240.574417	146.640000
240.667191	147.040000
240.759964	147.340000
240.852737	147.360000
240.945526	146.840000
241.038315	146.520000
241.131088	146.520000
241.223877	146.380000
241.316650	146.300000
241.409439	146.540000
241.502228	146.200000
241.595001	146.840000
241.687790	146.700000
241.780579	146.820000
241.873367	147.080000
241.966141	147.600000
242.058929	146.720000
242.151718	147.140000
242.244507	147.640000
242.337311	146.840000
242.430099	147.080000
242.522903	147.220000
242.615692	146.580000
242.708481	146.340000
242.801270	147.220000
242.894073	146.960000
242.986862	147.280000
243.079651	147.740000
243.172455	147.560000
243.265244	147.260000
243.358063	146.640000
243.450867	146.560000
243.543655	146.500000
243.636459	146.500000
243.729263	146.740000
243.822067	147.420000
243.914856	147.760000
244.007660	147.840000
244.100464	147.700000
244.193268	147.240000
244.286072	146.880000
244.378876	146.440000
244.471680	146.060000
244.564499	146.340000
244.657318	147.100000
244.750122	146.940000
244.842926	146.240000
244.935745	146.680000
245.028549	146.520000
245.121368	145.940000
245.214172	146.260000
245.306992	146.940000
245.399796	146.540000
245.492615	146.400000
245.585434	146.520000
245.678253	146.360000
245.771072	146.360000
245.863892	146.800000
245.956711	147.000000
246.049530	146.620000
246.142349	146.400000
246.235168	146.220000
246.327988	146.580000
246.420807	146.560000
246.513626	146.620000
246.606445	146.700000
246.699280	147.120000
246.792099	146.660000
246.884918	146.300000
246.977753	145.940000
247.070587	146.020000
247.163422	145.740000
247.256241	145.720000
247.349075	146.220000
247.441895	146.660000
247.534729	146.780000
247.627563	146.440000
247.720383	146.780000
247.813217	146.860000
247.906052	146.600000
247.998886	146.320000
248.091736	146.260000
248.184570	145.840000
248.277405	145.740000
248.370239	146.800000
248.463074	147.680000
248.555908	148.140000
248.648743	148.320000
248.741592	148.160000
248.834427	147.240000
248.927261	146.320000
249.020111	146.620000
249.112946	147.160000
249.205795	146.920000
249.298630	147.080000
249.391495	147.440000
249.484344	147.100000
249.577179	146.540000
249.670029	146.820000
249.762878	147.120000
249.855728	147.100000
249.948563	146.920000
250.041412	146.340000
250.134262	146.360000
250.227112	146.580000
250.319962	146.460000
250.412827	146.620000
250.505692	146.280000
250.598541	146.380000
250.691391	145.840000
250.784241	145.940000
250.877106	146.180000
250.969955	146.460000
251.062805	146.760000
251.155670	147.320000
251.248520	147.180000
251.341385	147.220000
251.434235	147.380000
251.527100	146.800000
251.619965	146.040000
251.712814	146.920000
251.805695	146.680000
251.898560	146.680000
251.991425	147.420000
252.084290	147.920000
252.177155	147.060000
252.270020	147.160000
252.362885	147.280000
252.455750	146.980000
252.548615	146.920000
252.641479	146.660000
252.734360	146.600000
252.827240	146.580000
252.920105	146.700000
253.012970	146.440000
253.105850	146.540000
253.198715	146.180000
253.291595	146.140000
253.384460	145.820000
253.477341	145.900000
253.570221	146.480000
253.663086	146.520000
253.755966	147.240000
253.848846	147.160000
253.941727	147.160000
254.034592	146.660000
254.127472	146.500000
254.220367	146.180000
254.313248	146.100000
254.406128	145.600000
254.499008	145.660000
254.591904	146.340000
254.684784	146.560000
254.777664	146.520000
254.870544	146.640000
254.963440	146.820000
255.056335	146.460000
255.149216	145.900000
255.242111	146.580000
255.334991	146.960000
255.427887	147.120000
255.520767	147.420000
255.613663	147.860000
255.706558	146.920000
255.799438	146.640000
255.892334	146.280000
255.985229	145.920000
256.078125	145.480000
256.171021	146.120000
256.263916	146.660000
256.356812	146.960000
256.449707	147.260000
256.542603	147.200000
256.635498	147.540000
256.728394	147.300000
256.821289	146.720000
256.914215	146.740000
257.007080	147.000000
257.100006	147.000000
257.192932	147.500000
257.285828	148.100000
257.378723	147.920000
257.471619	147.800000
257.564545	146.940000
257.657440	146.540000
257.750336	146.720000
257.843262	146.220000
257.936157	147.320000
258.029053	147.660000
258.121979	147.780000
258.214874	147.380000
258.307800	147.480000
258.400696	146.320000
258.493622	146.440000
258.586517	145.920000
258.679443	146.320000
258.772339	146.200000
258.865265	145.980000
258.958160	145.520000
259.051086	146.200000
259.144012	146.300000
259.236938	146.980000
259.329834	147.700000
259.422791	147.760000
259.515717	147.260000
259.608612	146.520000
259.701538	146.640000
259.794464	146.000000
259.887390	146.260000
259.980316	146.000000
260.073212	145.840000
260.166138	144.900000
260.259064	145.120000
260.351990	145.320000
260.444916	145.700000
260.537842	146.340000
260.630768	147.120000
260.723694	147.320000
260.816620	147.000000
260.909546	146.860000
261.002472	146.180000
261.095398	145.500000
261.188354	145.380000
261.281281	145.220000
261.374207	145.340000
261.467133	146.280000
261.560089	146.920000
261.653015	146.580000
261.745972	147.240000
261.838867	147.460000
261.931824	147.400000
262.024780	146.780000
262.117706	147.120000
262.210663	146.760000
262.303589	146.740000
262.396515	146.720000
262.489471	147.960000
262.582397	147.740000
262.675354	147.600000
262.768280	147.120000
262.861237	147.380000
262.954163	146.860000
263.047119	147.220000
263.140045	146.960000
263.233002	147.100000
263.325958	146.600000
263.418884	146.080000
263.511841	146.100000
263.604797	146.300000
263.697723	146.400000
263.790680	146.480000
263.883636	147.020000
263.976593	146.620000
264.069550	146.780000
264.162476	146.540000
264.255463	146.620000
264.348419	146.240000
264.441376	146.660000
264.534332	146.300000
264.627289	146.380000
264.720245	146.480000
264.813202	146.340000
264.906158	146.360000
264.999115	147.040000
265.092072	147.280000
265.185028	147.400000
265.277985	147.620000
265.370941	147.440000
265.463898	147.220000
265.556854	147.120000
265.649811	146.100000
265.742798	146.020000
265.835754	146.240000
265.928711	146.280000
266.021667	146.400000
266.114655	147.180000
266.207611	147.580000
266.300568	146.880000
266.393585	146.700000
266.486511	146.880000
266.579498	146.160000
266.672485	146.160000
266.765442	146.400000
266.858429	146.640000
266.951385	145.920000
267.044342	146.260000
267.137329	145.900000
267.230316	146.080000
267.323273	145.720000
267.416260	146.900000
267.509216	146.940000
267.602203	147.000000
267.695160	147.440000
267.788147	147.600000
267.881134	146.700000
267.974091	146.980000
268.067078	146.780000
268.160065	146.280000
268.253052	146.160000
268.346008	146.560000
268.438995	146.180000
268.531982	146.560000
268.624969	146.280000
268.717987	146.520000
268.810944	146.180000
268.903961	146.340000
268.996948	145.900000
269.089905	146.560000
269.182892	146.280000
269.275879	146.660000
269.368866	146.100000
269.461853	146.460000
269.554871	146.360000
269.647858	146.420000
269.740845	146.680000
269.833832	147.440000
269.926819	146.960000
270.019806	147.020000
270.112793	146.760000
270.205811	146.480000
270.298798	146.240000
270.391785	146.820000
270.484772	146.440000
270.577789	146.600000
270.670776	146.100000
270.763763	145.920000
270.856750	145.660000
270.949768	145.720000
271.042786	145.760000
271.135773	146.060000
271.228790	146.580000
271.321808	146.360000
271.414795	145.960000
271.507782	146.000000
271.600800	145.480000
271.693817	145.360000
271.786804	145.920000
271.879822	146.600000
271.972809	146.500000
272.065826	147.140000
272.158844	146.740000
272.251831	146.800000
272.344849	146.360000
272.437866	146.140000
272.530853	146.020000
272.623871	146.060000
272.716888	144.860000
272.809906	145.180000
272.902893	145.180000
272.995911	145.080000
273.088928	145.380000
273.181946	146.220000
273.274963	145.820000
273.367981	146.040000
273.460999	146.140000
273.554047	146.520000
273.647003	147.180000
273.740051	147.260000
273.833069	147.440000
273.926086	147.520000
274.019135	146.760000
274.112152	146.160000
274.205170	146.080000
274.298187	146.240000
274.391205	145.520000
274.484222	145.880000
274.577240	145.640000
274.670258	145.660000
274.763306	145.380000
274.856323	146.080000
274.949341	146.000000
275.042358	146.560000
275.135406	146.420000
275.228424	146.400000
275.321442	146.180000
275.414490	146.140000
275.507507	146.180000
275.600525	146.800000
275.693573	146.620000
275.786591	146.200000
275.879669	146.380000
275.972656	146.040000
276.065735	145.660000
276.158752	146.060000
276.251801	147.140000
276.344818	147.080000
276.437866	147.120000
276.530884	146.880000
276.623932	146.540000
276.716980	146.240000
276.809998	146.480000
276.903046	146.440000
276.996094	147.580000
277.089111	148.160000
277.182159	148.500000
277.275208	148.120000
277.368256	147.960000
277.461304	147.200000
277.554321	146.320000
277.647369	146.080000
277.740417	146.060000
277.833466	146.100000
277.926514	145.900000
278.019562	146.920000
278.112610	146.320000
278.205688	146.300000
278.298706	146.580000
278.391785	146.680000
278.484833	145.780000
278.577881	145.880000
278.670929	146.520000
278.763977	146.400000
278.857025	146.680000
278.950073	147.040000
279.043121	146.900000
279.136169	146.300000
279.229248	146.100000
279.322296	145.700000
279.415344	145.580000
279.508392	145.600000
279.601440	145.720000
279.694519	145.520000
279.787567	145.680000
279.880615	145.880000
279.973694	145.840000
280.066742	145.660000
280.159790	145.960000
280.252869	145.840000
280.345917	145.900000
280.438995	145.960000
280.532074	146.060000
280.625122	146.600000
280.718201	147.500000
280.811279	147.500000
280.904327	147.500000
280.997406	147.900000
281.090454	147.780000
281.183533	147.100000
281.276581	146.860000
281.369659	146.740000
281.462738	146.460000
281.555786	146.200000
281.648865	146.220000
281.741943	146.100000
281.835022	146.840000
281.928070	146.340000
282.021149	146.040000
282.114227	145.820000
282.207306	146.080000
282.300385	145.960000
282.393433	146.360000
282.486511	146.500000
282.579590	146.900000
282.672668	146.900000
282.765747	146.260000
282.858856	146.040000
282.951904	146.200000
283.045013	146.200000
283.138062	146.460000
283.231171	146.980000
283.324249	147.540000
283.417328	147.520000
283.510406	147.320000
283.603485	146.940000
283.696564	146.760000
283.789642	146.760000
283.882751	146.320000
283.975830	146.780000
284.068909	146.660000
284.161987	147.400000
284.255066	146.560000
284.348175	147.000000
284.441254	146.700000
284.534332	147.140000
284.627441	146.400000
284.720520	146.560000
284.813599	146.520000
284.906708	146.520000
284.999786	145.680000
285.092896	145.200000
285.185974	146.280000
285.279053	145.660000
285.372192	145.840000
285.465240	146.820000
285.558380	147.100000
285.651459	146.720000
285.744568	148.020000
285.837677	147.500000
285.930756	147.220000
286.023865	147.440000
286.116943	146.940000
286.210052	146.460000
286.303162	146.600000
286.396240	146.460000
286.489349	146.140000
286.582458	146.500000
286.675568	146.320000
286.768646	146.180000
286.861755	146.620000
286.954865	147.360000
287.047974	146.980000
287.141083	146.800000
287.234161	146.600000
287.327271	146.240000
287.420380	146.420000
287.513519	146.080000
287.606598	146.240000
287.699738	146.700000
287.792816	146.620000
287.885956	146.280000
287.979034	146.500000
288.072174	146.420000
288.165283	146.280000
288.258392	146.540000
288.351501	146.040000
288.444611	146.260000
288.537720	146.860000
288.630859	146.740000
288.723969	146.580000
288.817078	147.180000
288.910187	147.280000
289.003296	146.620000
289.096436	146.400000
289.189545	146.260000
289.282654	145.440000
289.375763	145.760000
289.468903	146.020000
289.562012	146.400000
289.655121	146.520000
289.748260	146.960000
289.841400	147.100000
289.934509	146.880000
290.027649	147.060000
290.120728	146.960000
290.213898	146.960000
290.306976	146.280000
290.400146	146.740000
290.493256	146.120000
290.586395	146.100000
290.679535	146.560000
290.772644	146.580000
290.865784	145.600000
290.958893	145.920000
291.052032	145.880000
291.145172	145.380000
291.238281	145.140000
291.331421	145.680000
291.424561	146.020000
291.517670	145.860000
291.610809	146.180000
291.703949	146.260000
291.797089	146.480000
291.890228	146.260000
291.983337	146.340000
292.076477	146.040000
292.169617	146.280000
292.262756	145.900000
292.355927	145.580000
292.449036	145.500000
292.542206	145.480000
292.635315	145.720000
292.728485	146.100000
292.821625	146.280000
292.914764	147.500000
293.007904	147.780000
293.101044	147.400000
293.194183	147.140000
293.287323	146.920000
293.380463	145.820000
293.473602	145.640000
293.566742	146.020000
293.659882	146.500000
293.753021	146.760000
293.846191	146.900000
293.939331	146.400000
294.032471	146.360000
294.125610	145.900000
294.218781	146.520000
294.311920	147.100000
294.405060	147.480000
294.498230	147.040000
294.591370	147.240000
294.684540	146.220000
294.777679	145.440000
294.870850	145.860000
294.963959	146.140000
295.057159	145.940000
295.150299	146.440000
295.243469	146.540000
295.336609	146.100000
295.429779	146.260000
295.522919	146.640000
295.616089	146.740000
295.709229	147.460000
295.802399	147.460000
295.895569	147.080000
295.988708	146.760000
296.081879	146.880000
296.175018	146.300000
296.268188	146.040000
296.361359	146.520000
296.454529	146.620000
296.547668	146.340000
296.640839	146.680000
296.734009	147.000000
296.827179	146.860000
296.920319	147.120000
297.013519	146.780000
297.106659	146.840000
297.199860	146.780000
297.292999	146.720000
297.386200	146.400000
297.479309	146.520000
297.572510	145.900000
297.665680	145.820000
297.758850	145.960000
297.852020	145.920000
297.945190	145.860000
298.038361	145.960000
298.131531	146.900000
298.224701	146.540000
298.317871	146.120000
298.411072	145.620000
298.504242	145.400000
298.597412	144.420000
298.690582	144.440000
298.783752	144.960000
298.876923	146.000000
298.970093	146.220000
299.063293	146.720000
299.156464	147.460000
299.249634	147.620000
299.342834	147.440000
299.436005	147.620000
299.529205	147.400000
299.622345	147.160000
299.715576	146.680000
299.808716	146.460000
299.901917	146.540000
299.995117	146.720000
300.088287	146.700000
300.181488	146.540000
300.274658	146.560000
300.367828	146.700000
300.461029	146.600000
300.554199	146.580000
300.647400	146.460000
300.740601	146.940000
300.833771	146.380000
300.926971	146.660000
301.020142	146.140000
301.113342	146.520000
301.206512	146.240000
301.299713	146.620000
301.392914	146.180000
301.486084	146.600000
301.579285	146.460000
301.672516	146.920000
301.765686	146.960000
301.858887	147.140000
301.952057	147.120000
302.045288	147.280000
302.138458	147.120000
302.231659	146.860000
302.324860	146.640000
302.418060	146.220000
302.511261	146.120000
302.604462	145.880000
302.697662	145.540000
302.790863	145.420000
302.884064	145.540000
302.977264	145.760000
303.070465	145.980000
303.163666	147.000000
303.256866	147.560000
303.350067	147.660000
303.443268	147.380000
303.536469	147.380000
303.629669	146.620000
303.722870	146.540000
303.816071	146.360000
303.909271	146.740000
304.002472	146.160000
304.095673	146.140000
304.188934	145.640000
304.282104	146.560000
304.375336	146.380000
304.468506	146.180000
304.561768	146.000000
304.654968	146.400000
304.748169	145.520000
304.841370	145.160000
304.934601	145.700000
305.027802	145.480000
305.121002	145.060000
305.214233	145.500000
305.307434	145.780000
305.400665	146.220000
305.493866	146.420000
305.587097	146.860000
305.680298	146.700000
305.773499	147.000000
305.866730	146.600000
305.959930	147.160000
306.053162	147.420000
306.146393	147.200000
306.239594	146.420000
306.332825	146.320000
306.426025	146.520000
306.519287	145.900000
306.612488	146.040000
306.705719	146.580000
306.798920	146.680000
306.892181	145.900000
306.985352	145.860000
307.078613	145.340000
307.171844	145.300000
307.265045	144.820000
307.358276	144.700000
307.451508	144.940000
307.544739	145.500000
307.637970	145.260000
307.731201	145.500000
307.824402	146.200000
307.917633	146.560000
308.010864	147.060000
308.104095	147.840000
308.197327	147.820000
308.290558	147.500000
308.383789	146.900000
308.477020	146.180000
308.570251	145.140000
308.663483	144.940000
308.756714	145.100000
308.849976	145.280000
308.943176	146.020000
309.036438	146.160000
309.129639	145.980000
309.222900	145.900000
309.316101	145.740000
309.409393	144.760000
309.502625	144.740000
309.595856	145.240000
309.689087	145.280000
309.782318	145.300000
309.875580	145.840000
309.968811	146.120000
310.062042	145.800000
310.155273	145.680000
310.248535	146.080000
310.341766	145.820000
310.434998	145.600000
310.528259	145.740000
310.621490	146.220000
310.714722	145.900000
310.807983	146.200000
310.901215	146.280000
310.994476	146.160000
311.087708	145.800000
311.181000	145.960000
311.274200	145.680000
311.367462	145.760000
311.460693	145.640000
311.553986	146.220000
311.647186	146.380000
311.740479	147.140000
311.833710	146.880000
311.926971	146.920000
312.020203	146.260000
312.113464	145.860000
312.206726	144.820000
312.299957	145.180000
312.393219	145.860000
312.486481	146.240000
312.579712	146.640000
312.672974	146.680000
312.766235	146.740000
312.859497	146.300000
312.952759	146.040000
313.045990	146.380000
313.139252	146.160000
313.232513	146.400000
313.325775	146.480000
313.419037	146.180000
313.512299	145.400000
313.605530	146.380000
313.698822	146.220000
313.792053	146.520000
313.885345	146.360000
313.978577	146.600000
314.071869	145.800000
314.165131	146.100000
314.258392	146.240000
314.351654	146.460000
314.444916	146.040000
314.538177	146.580000
314.631439	146.460000
314.724701	145.980000
314.817993	146.040000
314.911255	146.680000
315.004517	146.380000
315.097778	146.260000
315.191040	146.380000
315.284302	146.720000
315.377594	146.280000
315.470856	145.960000
315.564117	145.400000
315.657379	145.160000
315.750671	144.660000
315.843933	144.980000
315.937195	144.920000
316.030518	145.100000
316.123749	145.400000
316.217041	146.260000
316.310303	146.220000
316.403595	146.700000
316.496857	147.200000
316.590149	147.380000
316.683411	146.560000
316.776703	146.220000
316.869965	146.220000
316.963257	145.700000
317.056519	145.060000
317.149811	145.000000
317.243073	145.160000
317.336365	145.120000
317.429626	145.600000
317.522919	145.960000
317.616180	146.060000
317.709473	145.940000
317.802765	145.760000
317.896027	145.380000
317.989319	145.600000
318.082611	145.360000
318.175873	145.400000
318.269165	145.600000
318.362488	145.680000
318.455750	145.520000
318.549042	146.240000
318.642303	146.780000
318.735626	146.840000
318.828888	146.940000
318.922211	146.560000
319.015472	147.000000
319.108765	146.060000
319.202057	145.300000
319.295349	145.460000
319.388641	145.560000
319.481934	144.880000
319.575226	145.100000
319.668518	145.840000
319.761810	145.780000
319.855103	146.360000
319.948395	146.200000
320.041687	146.320000
320.134979	146.340000
320.228271	145.960000
320.321564	145.580000
320.414856	145.720000
320.508148	145.400000
320.601440	145.100000
320.694763	145.200000
320.788025	145.740000
320.881348	145.700000
320.974640	145.900000
321.067963	145.640000
321.161224	145.820000
321.254547	145.040000
321.347839	145.880000
321.441162	145.780000
321.534454	146.180000
321.627747	146.000000
321.721069	146.720000
321.814362	146.520000
321.907654	146.800000
322.000946	146.820000
322.094269	147.560000
322.187561	146.940000
322.280884	146.960000
322.374176	147.220000
322.467468	147.580000
322.560791	147.120000
322.654083	147.780000
322.747406	147.520000
322.840698	147.480000
322.934021	147.520000
323.027344	147.800000
323.120636	147.100000
323.213959	146.940000
323.307251	146.520000
323.400574	146.020000
323.493866	145.580000
323.587219	145.900000
323.680511	146.420000
323.773834	146.660000
323.867157	147.000000
323.960449	147.120000
324.053772	146.800000
324.147095	146.420000
324.240387	146.900000
324.333710	146.800000
324.427032	147.000000
324.520355	147.140000
324.613647	146.740000
324.706970	146.380000
324.800293	146.320000
324.893616	146.240000
324.986938	146.480000
325.080231	146.380000
325.173553	146.460000
325.266876	146.820000
325.360199	146.620000
325.453522	146.380000
325.546875	146.560000
325.640167	146.740000
325.733521	146.800000
325.826813	147.140000
325.920166	147.080000
326.013489	146.880000
326.106812	146.200000
326.200134	145.800000
326.293457	145.060000
326.386780	144.980000
326.480103	145.160000
326.573425	145.140000
326.666748	145.040000
326.760071	145.780000
326.853424	145.940000
326.946747	146.080000
327.040070	147.060000
327.133392	147.060000
327.226715	146.260000
327.320068	145.800000
327.413391	146.340000
327.506714	145.320000
327.600037	145.380000
327.693390	145.860000
327.786713	146.080000
327.880066	145.500000
327.973358	145.960000
328.066742	146.200000
328.160034	146.300000
328.253418	146.600000
328.346710	146.400000
328.440063	146.180000
328.533417	146.060000
328.626740	146.300000
328.720093	146.140000
328.813416	146.100000
328.906769	145.840000
329.000092	145.760000
329.093445	145.500000
329.186768	145.220000
329.280121	145.860000
329.373444	146.580000
329.466797	146.600000
329.560120	146.520000
329.653473	146.840000
329.746796	146.280000
329.840149	145.620000
329.933502	145.620000
330.026825	145.380000
330.120178	144.840000
330.213562	144.740000
330.306854	144.940000
330.400238	144.880000
330.493561	144.620000
330.586945	145.800000
330.680237	146.120000
330.773621	146.400000
330.866974	146.200000
330.960327	147.060000
331.053680	146.500000
331.147003	146.440000
331.240356	146.500000
331.333710	146.740000
331.427063	146.160000
331.520416	146.100000
331.613770	145.960000
331.707123	145.940000
331.800476	146.280000
331.893829	147.280000
331.987152	147.660000
332.080505	147.500000
332.173859	147.280000
332.267212	146.640000
332.360565	145.760000
332.453918	145.340000
332.547333	145.460000
332.640656	145.620000
332.734039	146.020000
332.827362	146.060000
332.920746	146.060000
333.014069	146.360000
333.107452	146.620000
333.200806	146.720000
333.294159	146.840000
333.387543	146.420000
333.480896	145.800000
333.574249	145.340000
333.667603	144.760000
333.760956	145.100000
333.854340	145.420000
333.947693	145.840000
334.041046	146.020000
334.134430	146.680000
334.227783	146.060000
334.321136	146.080000
334.414520	145.680000
334.507874	145.480000
334.601227	145.240000
334.694611	145.200000
334.787964	145.420000
334.881348	145.900000
334.974701	145.940000
335.068085	145.780000
335.161438	146.140000
335.254822	146.120000
335.348175	146.080000
335.441559	145.580000
335.534943	146.080000
335.628296	145.840000
335.721680	145.300000
335.815033	145.700000
335.908417	146.400000
336.001770	146.100000
336.095154	146.140000
336.188538	146.180000
336.281891	145.460000
336.375275	145.060000
336.468658	144.920000
336.562012	144.900000
336.655396	145.040000
336.748779	145.480000
336.842133	145.760000
336.935516	145.880000
337.028900	145.780000
337.122284	145.780000
337.215637	145.940000
337.309021	145.620000
337.402435	145.200000
337.495789	145.380000
337.589203	145.360000
337.682526	144.920000
337.775940	145.560000
337.869324	145.900000
337.962708	145.420000
338.056091	146.100000
338.149475	145.860000
338.242859	145.560000
338.336243	145.300000
338.429626	146.060000
338.523010	145.660000
338.616394	146.120000
338.709778	146.180000
338.803162	146.760000
338.896545	146.560000
338.989929	146.200000
339.083313	146.200000
339.176697	145.980000
339.270081	145.520000
339.363464	145.840000
339.456848	146.380000
339.550232	145.840000
339.643616	145.700000
339.737030	145.800000
339.830383	145.100000
339.923828	144.880000
340.017181	145.160000
340.110596	145.700000
340.203949	145.620000
340.297363	145.660000
340.390778	145.700000
340.484161	145.680000
340.577545	145.320000
340.670959	145.420000
340.764343	145.280000
340.857727	145.380000
340.951111	145.120000
341.044525	145.440000
341.137909	144.900000
341.231293	145.260000
341.324707	144.680000
341.418091	145.460000
341.511505	145.420000
341.604889	145.960000
341.698303	145.680000
341.791687	146.020000
341.885071	145.300000
341.978485	145.040000
342.071899	145.140000
342.165283	145.520000
342.258698	145.960000
342.352081	146.400000
342.445496	146.780000
342.538879	146.660000
342.632324	146.460000
342.725708	145.880000
342.819122	145.460000
342.912506	145.160000
343.005920	145.260000
343.099335	146.060000
343.192719	146.400000
343.286133	146.520000
343.379547	146.700000
343.472931	146.740000
343.566345	145.820000
343.659760	146.120000
343.753143	145.860000
343.846558	145.540000
343.939972	145.360000
344.033386	146.100000
344.126770	145.500000
344.220184	145.900000
344.313599	146.300000
344.407043	146.380000
344.500427	145.720000
344.593872	146.560000
344.687225	146.300000
344.780670	145.780000
344.874054	145.560000
344.967499	146.020000
345.060913	145.620000
345.154327	145.840000
345.247742	145.800000
345.341156	145.680000
345.434570	145.380000
345.527985	145.380000
345.621399	145.320000
345.714813	145.360000
345.808228	145.780000
345.901642	145.500000
345.995056	145.080000
346.088470	145.120000
346.181885	145.540000
346.275299	145.240000
346.368713	145.500000
346.462128	145.400000
346.555573	145.660000
346.648987	145.620000
346.742401	145.860000
346.835815	146.140000
346.929260	146.400000
347.022644	146.380000
347.116119	146.540000
347.209503	146.640000
347.302948	147.240000
347.396362	147.480000
347.489807	147.380000
347.583221	147.420000
347.676636	147.080000
347.770050	145.780000
347.863495	145.400000
347.956909	145.440000
348.050323	145.020000
348.143768	145.220000
348.237183	145.260000
348.330597	145.740000
348.424042	146.060000
348.517456	146.860000
348.610901	147.180000
348.704315	147.540000
348.797760	147.040000
348.891174	146.260000
348.984619	145.520000
349.078033	145.420000
349.171448	146.000000
349.264923	145.920000
349.358337	146.100000
349.451782	145.920000
349.545197	145.540000
349.638641	144.640000
349.732086	144.340000
349.825500	144.800000
349.918945	144.740000
350.012390	145.140000
350.105804	145.780000
350.199249	146.180000
350.292664	146.420000
350.386108	146.680000
350.479553	147.020000
350.572968	146.620000
350.666412	146.780000
350.759857	146.280000
350.853302	146.720000
350.946716	146.080000
351.040161	146.240000
351.133606	146.040000
351.227081	146.060000
351.320465	146.780000
351.413940	146.680000
351.507355	147.100000
351.600830	147.180000
351.694244	146.800000
351.787720	145.940000
351.881104	145.900000
351.974579	145.300000
352.067993	146.200000
352.161469	146.420000
352.254883	146.000000
352.348358	146.240000
352.441803	146.200000
352.535248	145.540000
352.628693	146.160000
352.722137	146.200000
352.815582	146.200000
352.909027	146.480000
353.002472	146.120000
353.095917	145.740000
353.189362	145.960000
353.282806	145.840000
353.376251	145.660000
353.469696	145.620000
353.563141	146.160000
353.656586	145.860000
353.750061	145.520000
353.843475	145.380000
353.936981	145.760000
354.030396	144.920000
354.123871	145.180000
354.217285	146.080000
354.310760	146.460000
354.404175	146.740000
354.497681	146.900000
354.591095	146.980000
354.684570	146.200000
354.777985	145.760000
354.871490	145.120000
354.964935	145.480000
355.058380	145.480000
355.151855	145.420000
355.245300	146.000000
355.338745	146.400000
355.432220	146.080000
355.525665	145.660000
355.619110	146.140000
355.712585	145.600000
355.806030	145.420000
355.899475	145.340000
355.992950	145.680000
356.086426	146.040000
356.179871	146.420000
356.273346	146.560000
356.366791	146.780000
356.460266	146.800000
356.553711	145.900000
356.647186	145.900000
356.740631	145.460000
356.834106	145.260000
356.927551	145.240000
357.021027	145.400000
357.114471	145.340000
357.207947	145.680000
357.301422	145.740000
357.394867	145.720000
357.488342	146.220000
357.581818	146.340000
357.675262	146.540000
357.768738	146.360000
357.862213	145.680000
357.955658	145.580000
358.049133	145.360000
358.142609	145.600000
358.236053	145.580000
358.329529	145.960000
358.423035	146.280000
358.516449	145.960000
358.609955	146.140000
358.703400	146.880000
358.796906	147.400000
358.890350	146.760000
358.983826	147.340000
359.077271	146.580000
359.170776	145.800000
359.264221	145.340000
359.357727	145.820000
359.451172	146.020000
359.544647	146.180000
359.638123	146.420000
359.731598	147.020000
359.825073	146.760000
359.918549	146.400000
360.012024	146.740000
360.105499	146.160000
360.198975	145.960000
360.292450	146.180000
360.385925	146.180000
360.479401	145.440000
360.572876	145.980000
360.666351	145.780000
360.759857	145.580000
360.853302	145.540000
360.946808	145.500000
361.040253	145.440000
361.133759	145.500000
361.227203	145.600000
361.320709	145.320000
361.414154	145.640000
361.507660	146.000000
361.601105	146.520000
361.694641	146.780000
361.788086	146.920000
361.881592	147.820000
361.975067	147.360000
362.068542	147.380000
362.162018	147.220000
362.255524	147.080000
362.348999	146.540000
362.442474	146.780000
362.535950	146.120000
362.629456	145.840000
362.722931	145.720000
362.816406	145.880000
362.909882	146.220000
363.003387	145.960000
363.096863	146.500000
363.190338	146.540000
363.283875	146.160000
363.377319	145.960000
363.470825	146.840000
363.564301	146.240000
363.657806	146.440000
363.751282	145.900000
363.844788	146.680000
363.938232	145.640000
364.031769	146.700000
364.125214	147.120000
364.218750	147.940000
364.312225	146.700000
364.405731	147.220000
364.499207	146.200000
364.592712	145.560000
364.686188	145.560000
364.779694	146.060000
364.873169	146.000000
364.966675	145.800000
365.060150	145.920000
365.153656	145.940000
365.247131	145.720000
365.340637	145.920000
365.434143	146.520000
365.527618	147.000000
365.621155	146.140000
365.714600	146.080000
365.808136	146.040000
365.901611	144.900000
365.995117	144.420000
366.088593	144.800000
366.182129	144.720000
366.275604	144.740000
366.369110	145.240000
366.462585	145.380000
366.556122	146.260000
366.649567	146.460000
366.743103	146.500000
366.836609	146.420000
366.930115	146.520000
367.023590	146.340000
367.117096	146.100000
367.210602	146.040000
367.304108	146.660000
367.397614	147.200000
367.491119	147.100000
367.584595	147.160000
367.678101	147.140000
367.771606	146.840000
367.865112	146.240000
367.958649	145.500000
368.052124	145.620000
368.145660	145.460000
368.239136	145.780000
368.332672	145.960000
368.426147	146.200000
368.519684	146.040000
368.613159	146.480000
368.706696	145.980000
368.800171	145.560000
368.893707	145.420000
368.987183	145.320000
369.080719	145.140000
369.174225	145.380000
369.267731	145.680000
369.361237	145.700000
369.454742	145.740000
369.548248	146.200000
369.641754	146.020000
369.735260	146.020000
369.828766	145.500000
369.922272	146.420000
370.015808	145.780000
370.109314	145.760000
370.202820	145.340000
370.296356	146.860000
370.389832	146.120000
370.483368	145.800000
370.576874	145.640000
370.670410	146.080000
370.763885	144.540000
370.857422	144.520000
370.950928	144.600000
371.044464	145.440000
371.137939	145.580000
371.231476	146.480000
371.324982	146.780000
371.418518	147.120000
371.512024	146.420000
371.605560	145.980000
371.699066	145.900000
371.792572	145.500000
371.886108	145.520000
371.979614	145.640000
372.073120	146.300000
372.166656	146.120000
372.260162	146.440000
372.353668	146.340000
372.447205	146.300000
372.540710	145.800000
372.634277	145.580000
372.727753	145.480000
372.821320	145.520000
372.914795	145.700000
373.008362	145.880000
373.101837	146.120000
373.195404	145.940000
373.288879	145.880000
373.382446	146.180000
373.475922	146.100000
373.569489	146.380000
373.662964	147.200000
373.756531	147.240000
373.850037	147.320000
373.943573	147.460000
374.037109	146.680000
374.130615	146.200000
374.224152	146.500000
374.317657	146.120000
374.411194	146.720000
374.504730	146.860000
374.598236	146.580000
374.691772	145.900000
374.785309	145.900000
374.878815	145.000000
374.972351	145.540000
375.065887	145.720000
375.159454	146.800000
375.252930	146.740000
375.346497	147.100000
375.440002	147.500000
375.533569	147.280000
375.627045	146.440000
375.720612	146.620000
375.814117	146.780000
375.907684	146.300000
376.001160	146.120000
376.094727	145.940000
376.188232	146.360000
376.281799	146.320000
376.375336	146.520000
376.468872	147.260000
376.562408	147.500000
376.655914	146.980000
376.749451	146.840000
376.842987	146.940000
376.936523	146.480000
377.030060	146.540000
377.123596	146.820000
377.217133	146.380000
377.310669	146.280000
377.404205	146.560000
377.497772	146.960000
377.591278	146.380000
377.684845	147.020000
377.778351	146.860000
377.871918	146.580000
377.965424	145.620000
378.058990	145.840000
378.152496	145.520000
378.246063	146.120000
378.339569	146.340000
378.433136	146.620000
378.526642	146.680000
378.620209	146.600000
378.713745	145.940000
378.807312	146.300000
378.900848	146.640000
378.994385	147.100000
379.087921	146.780000
379.181458	146.840000
379.274994	146.300000
379.368530	146.100000
379.462097	145.900000
379.555634	146.300000
379.649170	145.960000
379.742706	146.040000
379.836273	146.020000
379.929810	145.740000
380.023376	145.440000
380.116882	145.660000
380.210449	145.500000
380.303986	145.380000
380.397552	145.000000
380.491058	145.460000
380.584656	145.060000
380.678162	145.360000
380.771729	145.580000
380.865265	146.660000
380.958832	146.740000
381.052368	147.300000
381.145935	147.600000
381.239471	147.900000
381.333008	147.500000
381.426575	146.960000
381.520111	146.940000
381.613647	146.780000
381.707214	146.380000
381.800751	145.540000
381.894318	146.080000
381.987854	145.660000
382.081421	145.480000
382.174988	145.620000
382.268524	145.740000
382.362091	145.720000
382.455627	146.840000
382.549194	146.400000
382.642731	145.760000
382.736298	145.720000
382.829834	145.580000
382.923401	145.640000
383.016937	145.880000
383.110504	146.760000
383.204041	147.040000
383.297607	147.160000
383.391174	146.160000
383.484741	146.960000
383.578278	146.300000
383.671844	146.140000
383.765411	145.620000
383.858948	146.220000
383.952515	145.660000
384.046051	146.100000
384.139618	146.620000
384.233185	147.040000
384.326721	146.560000
384.420288	146.980000
384.513855	146.920000
384.607422	146.880000
384.700989	147.080000
384.794525	146.740000
384.888123	146.480000
384.981659	146.720000
385.075226	146.400000
385.168762	145.820000
385.262360	146.400000
385.355896	145.440000
385.449463	145.120000
385.542999	145.180000
385.636597	146.080000
385.730164	146.180000
385.823730	146.580000
385.917267	146.260000
386.010834	146.180000
386.104401	145.740000
386.197968	145.940000
386.291534	146.180000
386.385101	146.480000
386.478668	146.760000
386.572235	146.420000
386.665802	145.560000
386.759338	145.180000
386.852905	145.280000
386.946472	144.940000
387.040070	145.280000
387.133606	145.720000
387.227203	145.860000
387.320740	146.060000
387.414337	145.900000
387.507874	145.460000
387.601471	145.560000
387.695007	145.360000
387.788605	144.960000
387.882141	145.520000
387.975739	145.600000
388.069275	145.260000
388.162872	145.720000
388.256439	145.720000
388.350037	145.400000
388.443604	145.440000
388.537170	145.440000
388.630737	145.740000
388.724304	145.920000
388.817871	145.680000
388.911438	145.760000
389.005005	146.020000
389.098602	146.080000
389.192169	145.640000
389.285736	146.480000
389.379333	146.480000
389.472870	145.900000
389.566467	145.800000
389.660034	146.040000
389.753632	145.300000
389.847168	145.720000
389.940765	146.460000
390.034332	146.440000
390.127930	146.120000
390.221466	146.140000
390.315063	145.580000
390.408630	144.820000
390.502228	144.140000
390.595795	144.540000
390.689362	144.940000
390.782959	145.420000
390.876526	145.920000
390.970093	145.920000
391.063690	146.500000
391.157257	146.540000
391.250824	146.760000
391.344421	146.520000
391.437988	147.160000
391.531555	147.000000
391.625153	146.780000
391.718750	146.720000
391.812317	146.800000
391.905914	146.320000
391.999481	146.200000
392.093079	146.400000
392.186615	146.620000
392.280243	146.600000
392.373779	146.800000
392.467407	147.160000
392.560944	146.800000
392.654572	145.940000
392.748108	145.900000
392.841736	146.160000
392.935303	145.580000
393.028900	145.480000
393.122467	146.000000
393.216064	145.680000
393.309631	145.140000
393.403229	145.040000
393.496796	145.120000
393.590393	144.380000
393.683990	144.940000
393.777557	145.720000
393.871155	145.680000
393.964722	146.140000
394.058350	146.480000
394.151917	146.420000
394.245514	145.640000
394.339081	146.140000
394.432678	146.220000
394.526245	146.140000
394.619873	145.540000
394.713409	145.860000
394.807037	145.480000
394.900604	145.360000
394.994202	145.880000
395.087769	146.460000
395.181396	145.980000
395.274994	146.540000
395.368561	146.080000
395.462158	145.940000
395.555756	145.480000
395.649353	146.000000
395.742920	145.560000
395.836517	146.100000
395.930115	145.080000
396.023712	145.760000
396.117279	145.980000
396.210876	145.700000
396.304474	145.520000
396.398071	146.000000
396.491669	145.940000
396.585266	145.840000
396.678833	145.980000
396.772461	146.520000
396.866028	146.940000
396.959656	147.220000
397.053223	147.280000
397.146851	147.540000
397.240417	147.760000
397.334015	149.020000
397.427582	149.720000
397.521210	151.280000
397.614807	153.620000
397.708405	155.840000
397.802002	158.440000
397.895599	162.800000
397.989197	168.260000
398.082794	174.780000
398.176392	183.520000
398.269989	193.780000
398.363586	205.820000
398.457184	220.340000
398.550781	237.040000
398.644379	253.240000
398.737976	272.040000
398.831573	290.240000
398.925201	307.140000
399.018768	323.760000
399.112396	341.040000
399.205963	356.900000
399.299591	373.860000
399.393158	391.720000
399.486786	409.920000
399.580353	428.840000
399.673981	445.420000
399.767578	461.880000
399.861206	475.220000
399.954773	484.200000
400.048401	487.040000
400.141998	487.080000
400.235596	481.300000
400.329193	472.720000
400.422791	461.960000
400.516418	450.900000
400.610016	439.080000
400.703613	427.720000
400.797211	414.000000
400.890808	398.460000
400.984436	382.480000
401.078033	363.680000
401.171631	342.220000
401.265259	320.120000
401.358826	298.880000
401.452484	276.520000
401.546051	256.400000
401.639679	237.300000
401.733246	221.080000
401.826904	206.100000
401.920471	193.160000
402.014099	182.720000
402.107697	174.160000
402.201324	167.260000
402.294891	162.020000
402.388550	158.460000
402.482147	155.180000
402.575745	152.980000
402.669373	150.640000
402.762970	149.260000
402.856567	148.280000
402.950195	147.960000
403.043793	147.440000
403.137390	147.860000
403.231018	147.060000
403.324615	147.560000
403.418243	146.880000
403.511841	147.060000
403.605469	146.940000
403.699066	147.500000
403.792694	147.160000
403.886292	147.200000
403.979919	147.160000
404.073517	146.560000
404.167145	146.700000
404.260712	146.660000
404.354370	146.600000
404.447937	146.640000
404.541595	146.880000
404.635162	146.860000
404.728821	147.020000
404.822418	146.620000
404.916046	146.380000
405.009644	146.860000
405.103271	147.140000
405.196899	146.700000
405.290497	147.300000
405.384125	147.600000
405.477722	146.940000
405.571350	146.400000
405.664948	146.900000
405.758575	146.480000
405.852203	146.200000
405.945801	146.560000
406.039429	146.700000
406.133057	146.240000
406.226654	146.240000
406.320312	145.860000
406.413879	145.660000
406.507538	145.820000
406.601135	145.340000
406.694763	145.800000
406.788361	145.720000
406.882019	145.580000
406.975586	145.760000
407.069244	146.600000
407.162872	146.500000
407.256470	146.740000
407.350098	146.980000
407.443726	146.560000
407.537323	146.120000
407.630951	146.140000
407.724579	145.860000
407.818207	145.960000
407.911804	146.080000
408.005432	146.040000
408.099060	146.080000
408.192688	146.460000
408.286285	146.280000
408.379913	145.740000
408.473572	145.940000
408.567169	145.320000
408.660828	145.320000
408.754395	145.240000
408.848053	145.420000
408.941650	145.420000
409.035309	145.500000
409.128906	145.360000
409.222565	145.320000
409.316132	146.020000
409.409790	145.680000
409.503387	145.840000
409.597046	146.080000
409.690674	146.060000
409.784302	145.740000
409.877930	146.000000
409.971558	146.240000
410.065186	145.980000
410.158783	146.120000
410.252411	146.060000
410.346039	146.380000
410.439667	146.400000
410.533295	146.880000
410.626923	147.120000
410.720551	146.520000
410.814209	146.860000
410.907806	146.720000
411.001465	146.200000
411.095062	146.020000
411.188721	146.600000
411.282318	145.800000
411.375977	145.400000
411.469574	145.500000
411.563232	145.380000
411.656830	145.280000
411.750488	145.060000
411.844086	145.100000
411.937744	145.100000
412.031372	144.980000
412.125000	144.880000
412.218628	144.960000
412.312256	145.640000
412.405884	146.100000
412.499512	146.240000
412.593170	146.700000
412.686798	147.140000
412.780426	146.620000
412.874054	146.600000
412.967682	146.720000
413.061310	146.980000
413.154968	147.000000
413.248566	147.200000
413.342224	146.740000
413.435852	146.500000
413.529510	145.960000
413.623108	145.620000
413.716766	145.420000
413.810364	145.800000
413.904022	145.700000
413.997650	145.160000
414.091309	145.700000
414.184906	145.820000
414.278564	145.440000
414.372192	145.880000
414.465851	146.460000
414.559479	146.200000
414.653107	146.780000
414.746735	146.920000
414.840393	146.920000
414.934021	147.000000
415.027649	146.740000
415.121277	146.600000
415.214935	146.960000
415.308563	146.960000
415.402191	146.280000
415.495850	146.340000
415.589478	145.840000
415.683136	145.580000
415.776733	145.740000
415.870422	146.600000
415.964020	146.520000
416.057678	146.860000
416.151306	146.680000
416.244965	146.500000
416.338562	146.300000
416.432251	146.820000
416.525848	147.600000
416.619507	148.100000
416.713165	148.320000
416.806793	148.160000
416.900421	147.960000
416.994080	146.700000
417.087708	146.380000
417.181366	146.000000
417.274994	146.060000
417.368622	146.480000
417.462280	147.280000
417.555908	147.140000
417.649567	146.740000
417.743195	146.880000
417.836853	146.420000
417.930481	146.440000
418.024170	146.740000
418.117767	147.760000
418.211426	147.680000
418.305054	147.880000
418.398712	146.920000
418.492340	146.660000
418.585999	146.400000
418.679626	146.780000
418.773285	146.720000
418.866913	147.540000
418.960571	147.960000
419.054230	147.780000
419.147858	147.440000
419.241516	147.540000
419.335144	146.800000
419.428802	146.640000
419.522461	146.380000
419.616089	145.980000
419.709747	145.900000
419.803375	146.340000
419.897034	145.900000
419.990662	146.140000
420.084320	147.100000
420.177979	147.260000
420.271606	147.520000
420.365295	148.040000
420.458893	147.880000
420.552582	147.560000
420.646210	147.140000
420.739868	146.640000
420.833496	146.240000
420.927155	145.940000
421.020782	145.700000
421.114471	145.460000
421.208069	145.700000
421.301758	146.000000
421.395386	146.580000
421.489044	146.600000
421.582703	146.900000
421.676361	147.200000
421.769989	147.080000
421.863647	147.220000
421.957306	147.000000
422.050934	147.080000
422.144592	146.840000
422.238251	146.560000
422.331909	145.940000
422.425537	145.960000
422.519196	145.880000
422.612854	145.520000
422.706543	145.340000
422.800140	145.600000
422.893829	145.400000
422.987457	144.980000
423.081146	145.260000
423.174744	145.760000
423.268433	145.480000
423.362061	145.600000
423.455750	145.700000
423.549347	145.740000
423.643036	145.260000
423.736664	146.080000
423.830353	146.060000
423.924011	146.660000
424.017639	146.200000
424.111298	146.320000
424.204956	145.620000
424.298615	145.620000
424.392273	145.200000
424.485931	145.500000
424.579559	145.740000
424.673218	145.980000
424.766876	146.100000
424.860535	145.860000
424.954193	145.880000
425.047882	146.220000
425.141510	146.080000
425.235199	146.120000
425.328796	146.080000
425.422485	145.780000
425.516113	145.260000
425.609802	145.300000
425.703430	145.180000
425.797119	145.060000
425.890747	145.160000
425.984436	145.320000
426.078064	145.320000
426.171753	145.440000
426.265411	145.580000
426.359070	145.800000
426.452728	145.760000
426.546356	145.880000
426.640015	145.720000
426.733673	145.740000
426.827332	145.260000
426.920990	145.900000
427.014648	145.540000
427.108307	145.780000
427.201965	146.460000
427.295624	147.060000
427.389282	146.220000
427.482941	146.780000
427.576630	146.620000
427.670258	145.740000
427.763947	145.600000
427.857574	145.700000
427.951263	145.100000
428.044922	144.540000
428.138611	145.060000
428.232239	145.140000
428.325928	145.520000
428.419556	146.420000
428.513245	146.440000
428.606903	146.640000
428.700562	146.280000
428.794220	145.760000
428.887878	144.980000
428.981537	145.580000
429.075195	145.320000
429.168854	145.920000
429.262512	146.160000
429.356201	146.360000
429.449860	146.140000
429.543518	146.120000
429.637177	146.100000
429.730835	146.040000
429.824493	145.980000
429.918182	146.320000
430.011810	145.860000
430.105530	144.960000
430.199158	144.940000
430.292847	144.840000
430.386475	144.440000
430.480164	144.640000
430.573792	144.840000
430.667511	144.660000
430.761139	144.840000
430.854828	145.460000
430.948456	145.440000
431.042145	146.080000
431.135834	145.940000
431.229492	145.760000
431.323151	145.620000
431.416809	145.560000
431.510468	145.160000
431.604156	145.240000
431.697815	145.380000
431.791473	145.020000
431.885132	144.760000
431.978821	145.340000
432.072479	145.560000
432.166138	146.160000
432.259827	145.820000
432.353485	146.360000
432.447174	146.260000
432.540802	146.380000
432.634491	146.140000
432.728149	146.920000
432.821838	147.400000
432.915466	146.780000
433.009186	146.640000
433.102814	146.140000
433.196503	145.540000
433.290131	144.880000
433.383850	145.340000
433.477509	145.420000
433.571167	146.160000
433.664856	146.480000
433.758514	146.940000
433.852173	146.700000
433.945862	146.600000
434.039520	146.140000
434.133179	145.620000
434.226868	145.340000
434.320526	144.940000
434.414185	145.560000
434.507874	145.380000
434.601562	145.680000
434.695221	145.700000
434.788910	146.120000
434.882538	145.960000
434.976257	145.620000
435.069885	145.840000
435.163574	145.900000
435.257233	145.480000
435.350922	145.220000
435.444580	145.200000
435.538269	145.060000
435.631897	145.560000
435.725616	146.340000
435.819275	146.720000
435.912964	147.020000
436.006622	147.380000
436.100311	146.940000
436.193970	146.240000
436.287628	145.600000
436.381317	145.420000
436.474976	144.860000
436.568665	144.400000
436.662323	144.600000
436.756012	144.720000
436.849670	144.600000
436.943390	144.500000
437.037018	144.740000
437.130737	144.980000
437.224365	145.100000
437.318085	145.400000
437.411713	145.900000
437.505432	146.340000
437.599060	146.720000
437.692780	147.520000
437.786407	147.400000
437.880127	147.140000
437.973755	146.860000
438.067474	146.240000
438.161133	145.620000
438.254822	146.140000
438.348480	146.180000
438.442169	146.500000
438.535828	146.820000
438.629517	146.540000
438.723175	145.860000
438.816864	146.140000
438.910553	145.380000
439.004211	145.020000
439.097900	144.960000
439.191559	145.280000
439.285248	144.560000
439.378906	145.240000
439.472626	145.360000
439.566284	145.280000
439.659973	145.720000
439.753632	145.980000
439.847321	146.120000
439.940979	146.300000
440.034698	146.420000
440.128326	145.420000
440.222046	145.220000
440.315674	144.540000
440.409393	144.500000
440.503082	144.580000
440.596741	145.220000
440.690430	145.620000
440.784088	145.860000
440.877777	145.540000
440.971466	145.280000
441.065125	145.140000
441.158813	144.740000
441.252502	144.740000
441.346161	145.320000
441.439850	145.740000
441.533539	145.500000
441.627197	146.220000
441.720886	146.060000
441.814606	146.240000
441.908234	146.500000
442.001953	146.660000
442.095612	146.320000
442.189301	146.520000
442.282959	146.320000
442.376678	145.520000
442.470306	146.220000
442.564026	146.180000
442.657684	146.680000
442.751404	146.600000
442.845032	147.900000
442.938751	146.680000
443.032440	146.720000
443.126099	146.200000
443.219788	146.320000
443.313477	145.680000
443.407166	146.580000
443.500824	146.580000
443.594513	146.660000
443.688202	146.500000
443.781891	145.940000
443.875549	145.460000
443.969238	145.500000
444.062927	145.420000
444.156647	145.080000
444.250275	145.780000
444.343994	146.080000
444.437653	146.300000
444.531372	146.340000
444.625031	146.560000
444.718719	145.880000
444.812378	145.940000
444.906097	145.880000
444.999756	145.500000
445.093445	145.720000
445.187103	145.960000
445.280823	146.300000
445.374512	145.720000
445.468201	145.780000
445.561859	145.520000
445.655548	145.460000
445.749237	144.820000
445.842926	145.360000
445.936615	145.860000
446.030304	145.880000
446.123962	146.080000
446.217651	145.800000
446.311340	145.540000
446.405029	144.880000
446.498749	144.700000
446.592407	144.480000
446.686096	145.180000
446.779755	145.500000
446.873474	146.080000
446.967133	146.420000
447.060852	146.460000
447.154510	145.940000
447.248230	145.820000
447.341858	145.720000
447.435577	145.160000
447.529236	144.900000
447.622955	145.040000
447.716644	145.140000
447.810333	145.360000
447.904022	146.060000
447.997711	146.180000
448.091400	146.520000
448.185059	146.160000
448.278748	145.940000
448.372437	145.500000
448.466125	145.840000
448.559814	145.600000
448.653503	146.040000
448.747192	146.600000
448.840912	147.040000
448.934570	146.780000
449.028290	147.260000
449.121948	146.980000
449.215637	146.180000
449.309296	145.600000
449.403015	145.600000
449.496674	145.180000
449.590393	145.180000
449.684052	145.020000
449.777771	145.980000
449.871429	145.620000
449.965149	145.560000
450.058838	145.780000
450.152527	146.240000
450.246216	145.600000
450.339905	145.660000
450.433594	145.380000
450.527283	146.140000
450.620972	145.860000
450.714661	145.960000
450.808350	146.400000
450.902039	147.160000
450.995728	146.280000
451.089417	146.000000
451.183105	145.920000
451.276794	146.380000
451.370514	145.600000
451.464172	144.800000
451.557892	144.940000
451.651550	144.960000
451.745270	144.180000
451.838928	144.000000
451.932648	145.020000
452.026306	145.640000
452.120026	145.520000
452.213684	146.000000
452.307404	146.320000
452.401062	146.180000
452.494781	146.140000
452.588470	146.300000
452.682159	145.820000
452.775848	145.980000
452.869537	145.600000
452.963226	145.200000
453.056915	144.800000
453.150604	145.040000
453.244293	145.140000
453.337982	145.780000
453.431671	146.140000
453.525360	147.000000
453.619049	147.120000
453.712769	147.240000
453.806427	146.740000
453.900146	146.380000
453.993805	145.920000
454.087555	146.100000
454.181213	145.980000
454.274933	145.880000
454.368591	146.180000
454.462311	145.880000
454.555969	145.360000
454.649689	146.000000
454.743347	145.760000
454.837067	146.300000
454.930756	146.760000
455.024445	147.200000
455.118134	146.620000
455.211853	147.220000
455.305542	146.720000
455.399231	146.440000
455.492920	146.320000
455.586609	146.460000
455.680298	146.460000
455.773987	146.240000
455.867676	146.200000
455.961365	146.700000
456.055084	146.180000
456.148773	145.840000
456.242493	145.960000
456.336151	146.280000
456.429871	146.040000
456.523529	146.440000
456.617249	146.160000
456.710907	146.240000
456.804626	145.960000
456.898315	145.340000
456.992035	145.280000
457.085693	145.540000
457.179413	144.980000
457.273102	145.960000
457.366791	146.120000
457.460480	146.160000
457.554199	146.800000
457.647888	147.040000
457.741577	146.100000
457.835266	146.220000
457.928955	146.520000
458.022644	146.500000
458.116364	147.000000
458.210052	146.900000
458.303741	147.020000
458.397461	146.320000
458.491119	145.640000
458.584839	145.300000
458.678528	145.300000
458.772247	145.040000
458.865906	145.460000
458.959625	146.560000
459.053284	146.760000
459.147003	146.600000
459.240692	147.000000
459.334412	147.080000
459.428070	146.220000
459.521790	146.120000
459.615479	146.120000
459.709198	146.660000
459.802887	146.080000
459.896576	145.740000
459.990265	145.900000
460.083954	146.040000
460.177673	145.000000
460.271362	144.980000
460.365051	145.140000
460.458740	144.560000
460.552429	144.120000
460.646149	143.920000
460.739838	144.020000
460.833527	144.180000
460.927246	144.180000
461.020905	144.280000
461.114655	144.740000
461.208313	145.160000
461.302032	144.760000
461.395691	145.160000
461.489441	145.540000
461.583099	145.640000
461.676819	145.200000
461.770477	145.900000
461.864197	145.460000
461.957916	145.140000
462.051605	144.660000
462.145294	145.700000
462.238983	145.320000
462.332703	146.200000
462.426392	146.760000
462.520081	146.980000
462.613770	146.100000
462.707489	146.380000
462.801178	146.040000
462.894867	145.960000
462.988556	146.180000
463.082275	146.640000
463.175964	146.140000
463.269684	146.220000
463.363342	146.140000
463.457092	145.480000
463.550751	145.500000
463.644470	145.900000
463.738129	145.620000
463.831879	145.800000
463.925537	146.780000
464.019257	146.740000
464.112946	146.580000
464.206665	146.420000
464.300323	146.120000
464.394043	145.720000
464.487762	145.640000
464.581451	145.800000
464.675140	145.940000
464.768829	146.320000
464.862549	146.540000
464.956238	146.500000
465.049927	146.460000
465.143646	146.200000
465.237335	145.940000
465.331024	146.240000
465.424713	146.120000
465.518433	146.280000
465.612152	146.500000
465.705811	146.520000
465.799561	146.060000
465.893219	145.980000
465.986938	145.620000
466.080597	145.540000
466.174347	145.880000
466.268005	146.040000
466.361725	146.260000
466.455414	146.260000
466.549133	146.060000
466.642792	146.100000
466.736542	145.460000
466.830231	145.620000
466.923920	145.760000
467.017609	145.880000
467.111328	145.320000
467.205017	145.480000
467.298706	145.160000
467.392426	145.400000
467.486115	145.960000
467.579803	145.780000
467.673523	146.320000
467.767212	146.400000
467.860901	146.100000
467.954651	146.000000
468.048309	146.420000
468.142029	146.100000
468.235718	146.300000
468.329437	146.220000
468.423096	145.960000
468.516846	145.920000
468.610504	145.820000
468.704224	145.300000
468.797913	145.460000
468.891632	145.700000
468.985291	145.560000
469.079010	145.700000
469.172729	145.440000
469.266418	146.060000
469.360107	146.000000
469.453827	145.900000
469.547516	145.800000
469.641205	146.520000
469.734924	146.120000
469.828613	146.400000
469.922302	146.740000
470.016022	146.840000
470.109711	146.780000
470.203430	146.220000
470.297150	145.480000
470.390808	145.500000
470.484558	145.320000
470.578217	145.820000
470.671936	146.540000
470.765625	147.120000
470.859344	147.020000
470.953003	147.360000
471.046753	146.820000
471.140411	146.100000
471.234131	146.300000
471.327820	146.660000
471.421539	146.620000
471.515228	146.240000
471.608948	146.580000
471.702637	145.900000
471.796326	145.340000
471.890045	145.620000
471.983734	145.880000
472.077423	145.640000
472.171143	146.000000
472.264832	146.180000
472.358521	145.400000
472.452240	145.240000
472.545929	146.060000
472.639648	146.140000
472.733337	146.540000
472.827057	147.080000
472.920746	147.020000
473.014465	146.980000
473.108124	146.900000
473.201874	146.780000
473.295532	146.540000
473.389252	146.900000
473.482941	146.860000
473.576660	146.540000
473.670319	146.060000
473.764069	146.520000
473.857727	146.560000
473.951477	146.540000
474.045166	147.120000
474.138855	147.340000
474.232574	147.120000
474.326263	146.840000
474.419952	146.940000
474.513672	146.840000
474.607361	146.800000
474.701050	147.060000
474.794769	147.560000
474.888458	147.340000
474.982178	147.340000
475.075867	147.380000
475.169586	147.080000
475.263275	146.600000
475.356995	146.460000
475.450653	146.160000
475.544403	145.880000
475.638062	146.340000
475.731812	146.200000
475.825470	146.280000
475.919189	146.200000
476.012878	146.440000
476.106598	145.560000
476.200256	146.080000
476.294006	145.840000
476.387695	145.800000
476.481384	145.860000
476.575104	146.080000
476.668793	145.580000
476.762512	145.340000
476.856201	146.200000
476.949890	146.020000
477.043610	145.900000
477.137299	146.080000
477.230988	146.660000
477.324707	145.800000
477.418396	146.160000
477.512146	146.480000
477.605804	146.460000
477.699524	146.520000
477.793213	146.560000
477.886932	146.420000
477.980591	146.000000
478.074341	145.780000
478.167999	145.200000
478.261749	145.240000
478.355408	145.040000
478.449127	145.680000
478.542816	146.740000
478.636536	147.440000
478.730225	147.480000
478.823944	147.640000
478.917633	147.320000
479.011322	147.000000
479.105042	146.760000
479.198730	147.040000
479.292450	147.060000
479.386139	147.240000
479.479828	147.040000
479.573547	147.260000
479.667267	146.900000
479.760925	146.720000
479.854675	146.680000
479.948334	146.480000
480.042084	145.800000
480.135742	146.300000
480.229462	146.000000
480.323151	145.940000
480.416870	145.340000
480.510529	145.560000
480.604279	144.860000
480.697937	145.660000
480.791656	145.400000
480.885345	145.760000
480.979065	145.740000
481.072754	146.500000
481.166473	146.460000
481.260132	146.500000
481.353882	146.560000
481.447540	146.400000
481.541260	146.120000
481.635010	145.300000
481.728668	145.200000
481.822388	145.040000
481.916077	144.920000
482.009796	144.700000
482.103485	145.500000
482.197205	145.800000
482.290863	145.780000
482.384613	145.960000
482.478271	145.580000
482.571991	145.340000
482.665680	145.260000
482.759399	146.060000
482.853058	146.420000
482.946808	146.500000
483.040466	146.260000
483.134216	146.080000
483.227875	145.500000
483.321594	145.740000
483.415283	146.100000
483.509003	146.080000
483.602661	145.960000
483.696411	146.240000
483.790070	145.900000
483.883789	145.820000
483.977478	146.420000
484.071198	146.720000
484.164917	146.340000
484.258606	146.060000
484.352325	146.500000
484.445984	146.120000
484.539734	146.080000
484.633392	145.900000
484.727142	146.320000
484.820801	145.840000
484.914520	145.820000
485.008209	146.000000
485.101929	146.300000
485.195587	146.100000
485.289337	146.100000
485.382996	145.920000
485.476715	145.840000
485.570404	146.180000
485.664124	146.060000
485.757782	146.880000
485.851532	146.560000
485.945190	146.400000
486.038910	146.380000
486.132599	146.800000
486.226318	145.480000
486.319977	145.700000
486.413727	146.320000
486.507446	145.700000
486.601105	145.020000
486.694855	145.300000
486.788513	145.320000
486.882233	144.880000
486.975922	145.000000
487.069641	145.280000
487.163300	145.200000
487.257050	146.380000
487.350708	146.020000
487.444427	145.980000
487.538116	145.720000
487.631836	145.820000
487.725494	144.860000
487.819214	145.120000
487.912903	144.960000
488.006622	145.320000
488.100281	145.840000
488.194031	146.160000
488.287689	146.420000
488.381409	147.220000
488.475098	147.080000
488.568817	146.920000
488.662476	146.420000
488.756226	145.760000
488.849945	144.760000
488.943604	144.940000
489.037354	145.100000
489.131012	145.060000
489.224731	145.200000
489.318390	145.340000
489.412140	145.020000
489.505798	144.780000
489.599518	144.880000
489.693207	145.140000
489.786926	145.100000
489.880585	145.140000
489.974335	145.480000
490.067993	146.320000
490.161713	146.540000
490.255371	147.260000
490.349121	147.460000
490.442780	146.900000
490.536499	145.720000
490.630188	145.880000
490.723907	145.200000
490.817566	145.100000
490.911285	145.380000
491.004974	145.480000
491.098694	145.000000
491.192413	145.920000
491.286102	145.880000
491.379822	146.020000
491.473480	146.280000
491.567200	146.240000
491.660889	145.480000
491.754608	145.680000
491.848267	145.420000
491.941986	145.380000
492.035675	145.600000
492.129395	145.960000
492.223053	145.620000
492.316772	145.960000
492.410461	145.920000
492.504181	145.720000
492.597839	145.340000
492.691559	145.700000
492.785248	145.760000
492.878967	146.020000
492.972626	145.920000
493.066345	146.280000
493.160034	145.820000
493.253754	145.800000
493.347412	145.260000
493.441132	145.300000
493.534882	145.700000
493.628540	146.140000
493.722260	146.200000
493.815918	146.780000
493.909668	147.540000
494.003326	147.480000
494.097046	147.120000
494.190704	146.820000
494.284454	146.820000
494.378113	146.540000
494.471832	146.400000
494.565491	146.440000
494.659210	146.360000
494.752899	146.220000
494.846619	145.840000
494.940277	145.720000
495.033997	145.900000
495.127686	145.420000
495.221405	145.400000
495.315063	145.880000
495.408783	146.020000
495.502441	145.960000
495.596191	146.580000
495.689850	146.460000
495.783569	146.280000
495.877228	146.380000
495.970947	146.060000
496.064697	146.060000
496.158356	146.740000
496.252075	146.820000
496.345734	146.340000
496.439453	147.180000
496.533142	146.760000
496.626862	146.800000
496.720520	146.580000
496.814240	146.720000
496.907898	146.160000
497.001617	146.560000
497.095306	145.700000
497.189026	145.780000
497.282684	146.000000
497.376404	146.660000
497.470062	146.080000
497.563782	146.400000
497.657471	146.200000
497.751190	145.960000
497.844849	145.360000
497.938568	145.920000
498.032227	146.020000
498.125946	146.160000
498.219635	145.840000
498.313354	146.200000
498.407074	145.940000
498.500732	145.880000
498.594452	145.740000
498.688110	145.760000
498.781830	145.120000
498.875519	145.080000
498.969238	145.000000
499.062897	145.140000
499.156616	145.660000
499.250275	145.880000
499.343994	145.540000
499.437653	145.360000
499.531372	145.440000
499.625061	145.860000
499.718781	145.940000
499.812439	146.680000
499.906158	146.700000
499.999817	146.500000
500.093536	145.800000
500.187195	145.820000
500.280914	145.640000
500.374573	145.760000
500.468323	145.380000
500.561981	145.780000
500.655701	145.260000
500.749420	145.260000
500.843079	145.620000
500.936798	146.080000
501.030457	146.120000
501.124176	146.880000
501.217834	146.680000
501.311554	146.200000
501.405212	145.960000
501.498962	145.160000
501.592621	145.100000
501.686340	145.500000
501.779999	145.760000
501.873718	146.000000
501.967377	146.640000
502.061096	146.800000
502.154755	146.400000
502.248474	146.220000
502.342133	146.340000
502.435852	145.940000
502.529510	146.360000
502.623230	146.840000
502.716888	146.560000
502.810608	146.340000
502.904266	146.900000
502.997986	146.120000
503.091705	145.660000
503.185364	145.780000
503.279083	145.640000
503.372772	145.040000
503.466492	144.860000
503.560150	144.820000
503.653870	145.080000
503.747528	145.180000
503.841248	145.700000
503.934906	146.100000
504.028625	145.820000
504.122284	145.900000
504.216003	146.600000
504.309662	145.840000
504.403381	146.080000
504.497040	146.240000
504.590759	145.860000
504.684418	145.520000
504.778137	146.520000
504.871796	146.480000
504.965515	146.460000
505.059174	146.840000
505.152893	146.460000
505.246521	145.520000
505.340240	145.080000
505.433899	145.380000
505.527618	145.440000
505.621338	145.740000
505.714996	145.900000
505.808716	145.780000
505.902374	146.080000
505.996094	146.140000
506.089752	145.880000
506.183472	146.160000
506.277130	146.500000
506.370850	146.420000
506.464508	146.080000
506.558228	146.180000
506.651886	145.920000
506.745605	145.800000
506.839264	145.720000
506.932983	145.900000
507.026611	145.780000
507.120331	146.480000
507.213989	146.400000
507.307709	146.420000
507.401367	146.460000
507.495087	147.360000
507.588745	146.660000
507.682465	147.260000
507.776123	147.100000
507.869843	146.880000
507.963531	146.600000
508.057190	147.220000
508.150909	146.480000
508.244568	146.720000
508.338287	146.500000
508.431946	145.780000
508.525665	145.280000
508.619324	145.340000
508.713013	145.480000
508.806671	146.100000
508.900391	147.220000
508.994049	147.600000
509.087769	147.440000
509.181427	147.240000
509.275146	147.000000
509.368774	145.740000
509.462494	145.560000
509.556152	145.740000
509.649872	146.000000
509.743530	146.020000
509.837250	146.520000
509.930878	146.380000
510.024597	146.300000
510.118256	145.820000
510.211975	145.400000
510.305695	145.020000
510.399353	145.580000
510.493042	146.240000
510.586700	146.620000
510.680420	147.400000
510.774078	147.600000
510.867798	147.540000
510.961426	146.620000
511.055145	146.220000
511.148804	145.740000
511.242523	146.100000
511.336151	145.840000
511.429871	146.560000
511.523529	146.800000
511.617249	146.560000
511.710876	146.260000
511.804596	145.900000
511.898254	145.460000
511.991974	145.620000
512.085632	145.720000
512.179321	145.760000
512.272949	146.260000
512.366699	146.540000
512.460327	146.260000
512.554077	147.220000
512.647766	147.140000
512.741394	146.880000
512.835144	147.520000
512.928772	147.200000
513.022461	146.420000
513.116150	146.440000
513.209839	146.800000
513.303467	145.860000
513.397217	145.640000
513.490845	145.480000
513.584595	145.100000
513.678223	144.580000
513.771912	144.080000
513.865601	144.520000
513.959290	144.360000
514.052917	144.700000
514.146667	145.160000
514.240295	145.960000
514.333984	146.260000
514.427673	146.180000
514.521362	146.520000
514.614990	145.920000
514.708740	145.900000
514.802368	145.860000
514.896057	146.320000
514.989746	146.800000
515.083435	146.860000
515.177124	146.760000
515.270752	146.200000
515.364502	145.920000
515.458130	145.680000
515.551819	145.700000
515.645508	145.700000
515.739197	146.080000
515.832825	146.200000
515.926575	145.460000
516.020203	145.760000
516.113892	145.960000
516.207520	145.840000
516.301270	145.860000
516.394897	146.160000
516.488586	146.440000
516.582275	146.480000
516.675964	145.900000
516.769592	145.880000
516.863281	146.500000
516.956970	146.620000
517.050659	146.220000
517.144287	146.680000
517.238037	146.820000
517.331665	145.980000
517.425354	145.200000
517.519043	145.300000
517.612732	145.900000
517.706421	145.780000
517.800049	145.580000
517.893738	145.560000
517.987427	145.620000
518.081116	145.140000
518.174744	144.920000
518.268433	145.520000
518.362122	146.640000
518.455811	146.680000
518.549438	147.060000
518.643127	148.120000
518.736816	147.760000
518.830505	146.800000
518.924133	146.800000
519.017822	146.880000
519.111511	146.100000
519.205200	146.500000
519.298828	146.660000
519.392517	146.240000
519.486206	146.400000
519.579895	146.520000
519.673523	146.180000
519.767212	146.100000
519.860901	146.640000
519.954590	146.400000
520.048279	145.700000
520.141907	145.580000
520.235596	146.640000
520.329224	146.820000
520.422974	146.760000
520.516602	147.160000
520.610291	146.820000
520.703918	146.200000
520.797607	145.820000
520.891296	145.480000
520.984985	145.700000
521.078613	146.640000
521.172302	145.980000
521.265930	146.700000
521.359680	147.320000
521.453308	147.040000
521.546997	146.880000
521.640625	147.160000
521.734314	146.400000
521.827942	146.180000
521.921692	146.760000
522.015320	146.780000
522.109009	146.640000
522.202698	146.700000
522.296326	146.520000
522.390015	146.640000
522.483704	146.520000
522.577393	146.420000
522.671021	146.020000
522.764709	145.900000
522.858337	146.080000
522.952026	146.020000
523.045654	147.020000
523.139404	147.860000
523.233032	148.060000
523.326721	147.420000
523.420349	147.520000
523.514038	146.740000
523.607666	146.900000
523.701355	146.620000
523.795044	146.740000
523.888733	146.620000
523.982361	146.820000
524.076050	146.220000
524.169678	146.520000
524.263367	146.160000
524.356995	145.820000
524.450684	145.460000
524.544373	145.460000
524.638062	145.360000
524.731750	145.380000
524.825378	145.620000
524.919067	145.300000
525.012695	145.320000
525.106384	145.120000
525.200012	145.360000
525.293701	145.260000
525.387329	145.900000
525.481018	145.980000
525.574646	146.480000
525.668396	146.560000
525.762024	146.800000
525.855713	146.840000
525.949341	146.680000
526.043030	146.520000
526.136658	146.380000
526.230347	146.240000
526.323975	145.860000
526.417664	145.740000
526.511292	145.560000
526.604980	145.560000
526.698608	145.560000
526.792297	145.780000
526.885925	146.240000
526.979614	146.460000
527.073303	146.400000
527.166931	146.220000
527.260620	146.180000
527.354309	146.380000
527.447998	145.880000
527.541626	145.620000
527.635315	145.760000
527.728943	146.680000
527.822632	146.640000
527.916260	146.920000
528.009949	147.420000
528.103577	147.200000
528.197266	145.840000
528.290894	145.700000
528.384583	145.440000
528.478210	145.500000
528.571899	145.980000
528.665527	146.560000
528.759216	146.780000
528.852844	147.540000
528.946533	147.300000
529.040161	147.100000
529.133850	146.580000
529.227478	146.580000
529.321167	146.660000
529.414856	147.240000
529.508484	147.440000
529.602173	147.520000
529.695801	147.080000
529.789490	146.660000
529.883057	145.980000
529.976746	146.420000
530.070374	146.840000
530.164062	146.940000
530.257690	147.280000
530.351379	147.540000
530.445007	147.060000
530.538696	146.400000
530.632324	146.480000
530.726013	146.060000
530.819641	146.080000
530.913330	146.300000
531.006958	146.680000
531.100647	146.680000
531.194275	146.680000
531.287964	146.420000
531.381592	145.820000
531.475220	145.940000
531.568848	145.580000
531.662537	145.360000
531.756226	145.560000
531.849854	145.620000
531.943542	145.620000
532.037170	145.140000
532.130859	145.820000
532.224487	145.680000
532.318176	145.620000
532.411804	146.160000
532.505432	146.700000
532.599060	145.960000
532.692749	146.000000
532.786377	146.440000
532.880066	145.560000
532.973694	145.240000
533.067383	145.020000
533.161011	145.160000
533.254639	144.680000
533.348267	144.700000
533.441956	145.080000
533.535583	145.200000
533.629272	145.120000
533.722900	144.740000
533.816589	144.960000
533.910156	145.040000
534.003845	145.080000
534.097534	145.300000
534.191162	146.080000
534.284851	146.180000
534.378479	146.180000
534.472107	146.380000
534.565735	145.980000
534.659424	146.260000
534.753052	146.520000
534.846741	146.060000
534.940369	146.760000
535.033997	146.660000
535.127625	146.320000
535.221313	146.680000
535.314941	147.000000
535.408630	145.900000
535.502197	146.300000
535.595886	146.280000
535.689514	145.800000
535.783203	146.060000
535.876831	146.640000
535.970459	146.600000
536.064087	146.380000
536.157776	146.180000
536.251404	145.960000
536.345093	145.960000
536.438721	145.500000
536.532349	145.780000
536.626038	145.780000
536.719666	146.140000
536.813293	145.800000
536.906921	146.280000
537.000610	146.420000
537.094238	146.520000
537.187866	146.600000
537.281494	146.800000
537.375183	146.860000
537.468811	146.600000
537.562439	146.460000
537.656067	145.860000
537.749756	145.920000
537.843384	146.380000
537.937012	146.520000
538.030640	146.400000
538.124329	146.720000
538.217896	146.960000
538.311584	146.700000
538.405212	146.500000
538.498901	146.880000
538.592468	147.400000
538.686157	146.940000
538.779785	146.180000
538.873413	146.040000
538.967102	145.480000
539.060730	144.800000
539.154358	145.120000
539.247986	145.460000
539.341675	145.720000
539.435242	145.840000
539.528931	145.840000
539.622559	145.280000
539.716187	146.000000
539.809814	146.000000
539.903503	146.040000
539.997070	145.880000
540.090759	146.200000
540.184387	145.680000
540.278015	146.040000
540.371643	146.440000
540.465332	146.740000
540.558899	146.520000
540.652588	146.460000
540.746216	145.940000
540.839844	146.060000
540.933472	146.260000
541.027100	146.400000
541.120728	146.680000
541.214417	147.080000
541.308044	147.160000
541.401672	146.660000
541.495300	146.500000
541.588928	146.180000
541.682617	145.760000
541.776184	145.140000
541.869873	145.320000
541.963440	145.620000
542.057129	145.520000
542.150757	145.680000
542.244385	145.700000
542.338013	145.340000
542.431641	145.240000
542.525269	145.260000
542.618958	145.520000
542.712524	145.740000
542.806213	145.800000
542.899780	145.880000
542.993469	145.700000
543.087036	145.480000
543.180725	145.040000
543.274292	145.700000
543.367981	145.760000
543.461548	146.280000
543.555237	146.140000
543.648926	147.080000
543.742493	147.320000
543.836182	147.040000
543.929749	146.880000
544.023437	147.040000
544.117004	146.540000
544.210693	146.200000
544.304260	146.340000
544.397949	145.880000
544.491516	145.840000
544.585205	145.860000
544.678772	145.460000
544.772461	145.720000
544.866028	145.720000
544.959717	145.840000
545.053284	145.480000
545.146973	145.760000
545.240540	145.640000
545.334229	146.440000
545.427795	146.380000
545.521423	146.500000
545.615051	146.520000
545.708679	146.980000
545.802307	146.540000
545.895935	146.840000
545.989624	147.660000
546.083191	147.380000
546.176880	147.200000
546.270447	146.760000
546.364136	146.740000
546.457703	146.100000
546.551331	146.160000
546.644958	146.040000
546.738586	146.380000
546.832214	145.900000
546.925842	145.780000
547.019409	146.200000
547.113098	145.900000
547.206665	145.960000
547.300354	146.140000
547.393921	146.540000
547.487549	146.820000
547.581177	146.780000
547.674805	146.720000
547.768433	146.100000
547.862061	146.240000
547.955627	145.380000
548.049316	146.060000
548.142883	146.420000
548.236572	147.300000
548.330139	146.920000
548.423767	146.960000
548.517456	146.540000
548.611023	146.480000
548.704651	145.660000
548.798279	145.900000
548.891907	146.700000
548.985474	146.440000
549.079163	146.540000
549.172729	146.680000
549.266357	146.100000
549.359985	145.920000
549.453613	145.640000
549.547180	145.260000
549.640869	145.860000
549.734436	146.040000
549.828064	146.020000
549.921631	146.220000
550.015320	146.020000
550.108887	146.100000
550.202515	146.320000
550.296143	146.040000
550.389771	146.080000
550.483337	146.300000
550.576965	146.020000
550.670593	146.700000
550.764221	146.440000
550.857849	146.420000
550.951477	146.220000
551.045105	145.980000
551.138672	145.320000
551.232300	145.160000
551.325928	145.800000
551.419556	145.980000
551.513123	146.020000
551.606750	145.780000
551.700378	146.160000
551.794006	145.780000
551.887573	145.600000
551.981201	146.140000
552.074768	146.180000
552.168457	146.020000
552.262024	146.600000
552.355652	146.780000
552.449219	147.100000
552.542847	147.220000
552.636475	146.920000
552.730103	145.960000
552.823669	145.780000
552.917297	144.740000
553.010864	144.900000
553.104553	145.340000
553.198181	145.460000
553.291748	145.860000
553.385376	146.240000
553.478943	146.060000
553.572571	145.880000
553.666199	146.180000
553.759827	145.700000
553.853394	145.180000
553.947021	145.200000
554.040588	145.380000
554.134216	145.220000
554.227783	146.160000
554.321411	147.160000
554.415039	147.020000
554.508667	146.880000
554.602234	147.220000
554.695862	146.560000
554.789429	146.300000
554.883057	146.260000
554.976624	146.140000
555.070251	145.880000
555.163818	145.700000
555.257507	145.500000
555.351074	145.640000
555.444702	147.000000
555.538330	146.720000
555.631897	147.280000
555.725525	147.360000
555.819092	147.320000
555.912720	145.920000
556.006287	146.460000
556.099915	146.040000
556.193481	145.820000
556.287109	146.100000
556.380676	146.120000
556.474304	145.880000
556.567871	146.220000
556.661499	145.680000
556.755066	145.700000
556.848694	145.840000
556.942261	145.780000
557.035889	145.680000
557.129517	146.320000
557.223145	146.560000
557.316711	146.620000
557.410339	146.980000
557.503906	146.760000
557.597473	146.760000
557.691040	146.380000
557.784668	146.220000
557.878296	145.780000
557.971863	145.980000
558.065491	145.980000
558.159058	145.660000
558.252686	146.460000
558.346252	147.120000
558.439880	146.520000
558.533447	146.460000
558.627075	146.100000
558.720642	145.420000
558.814270	145.100000
558.907837	145.660000
559.001465	145.060000
559.095032	146.280000
559.188660	146.540000
559.282227	145.920000
559.375854	146.040000
559.469360	146.220000
559.562988	146.180000
559.656555	146.020000
559.750183	146.360000
559.843750	146.380000
559.937378	146.640000
560.030945	146.300000
560.124573	0.000000
560.218140	0.000000
560.311707	0.000000
560.405334	0.000000
560.498901	0.000000
560.592529	0.000000
560.686096	0.000000
560.779724	0.000000
560.873291	0.000000
560.966858	0.000000
561.060425	0.000000
561.154053	0.000000
561.247620	0.000000
561.341248	0.000000
561.434814	0.000000
561.528381	0.000000
561.621948	0.000000
561.715576	0.000000
561.809143	0.000000
561.902771	0.000000
561.996277	0.000000
562.089905	0.000000
562.183472	0.000000
562.277100	0.000000
