Model Number: SPM-002-B   
Serial Number: 70087108
Firmware Version: 004.15.4
Exposure Time: 100000.000000us
Data Taken on: 11-12-2020 18:48:09.777
Wavelength	Amplitude
221.570786	0.000000
221.663406	0.000000
221.756027	0.000000
221.848648	0.000000
221.941269	0.000000
222.033905	0.000000
222.126526	0.000000
222.219162	0.000000
222.311798	0.000000
222.404419	0.000000
222.497055	0.000000
222.589676	0.000000
222.682312	0.000000
222.774933	0.000000
222.867569	0.000000
222.960205	0.000000
223.052841	0.000000
223.145462	0.000000
223.238098	0.000000
223.330734	0.000000
223.423386	0.000000
223.516022	0.000000
223.608658	0.000000
223.701309	0.000000
223.793945	0.000000
223.886581	0.000000
223.979218	0.000000
224.071869	0.000000
224.164505	0.000000
224.257156	0.000000
224.349792	0.000000
224.442444	0.000000
224.535095	0.000000
224.627747	0.000000
224.720398	0.000000
224.813034	0.000000
224.905685	0.000000
224.998337	146.020000
225.090988	145.780000
225.183640	145.640000
225.276291	145.420000
225.368942	145.620000
225.461594	146.160000
225.554245	146.260000
225.646912	146.480000
225.739578	147.000000
225.832230	147.280000
225.924896	146.220000
226.017548	146.880000
226.110199	147.440000
226.202866	146.760000
226.295532	146.660000
226.388184	147.000000
226.480850	145.880000
226.573517	145.380000
226.666168	145.880000
226.758835	146.120000
226.851501	146.660000
226.944183	147.080000
227.036850	146.400000
227.129517	146.160000
227.222183	145.900000
227.314850	145.920000
227.407516	146.120000
227.500198	147.120000
227.592865	146.900000
227.685532	146.780000
227.778214	146.380000
227.870880	146.780000
227.963562	147.000000
228.056229	147.280000
228.148926	147.140000
228.241592	147.880000
228.334274	147.260000
228.426956	147.000000
228.519638	147.200000
228.612305	146.900000
228.704987	146.680000
228.797668	146.540000
228.890350	146.120000
228.983032	145.320000
229.075714	146.300000
229.168396	146.280000
229.261108	146.040000
229.353790	146.140000
229.446472	146.620000
229.539169	146.360000
229.631851	146.000000
229.724533	146.380000
229.817230	146.620000
229.909912	147.440000
230.002609	147.140000
230.095306	146.960000
230.187988	147.020000
230.280685	146.800000
230.373383	145.880000
230.466095	145.720000
230.558792	146.020000
230.651474	145.980000
230.744171	146.100000
230.836868	145.820000
230.929581	146.300000
231.022278	146.140000
231.114975	146.360000
231.207672	146.100000
231.300369	146.840000
231.393082	146.700000
231.485779	146.760000
231.578506	146.480000
231.671204	146.920000
231.763916	146.520000
231.856613	146.240000
231.949326	146.260000
232.042023	146.120000
232.134735	146.020000
232.227448	146.060000
232.320160	146.500000
232.412872	146.680000
232.505585	147.460000
232.598297	147.600000
232.691010	147.380000
232.783722	146.980000
232.876450	147.400000
232.969162	146.760000
233.061874	146.340000
233.154587	146.020000
233.247314	146.420000
233.340027	145.720000
233.432739	145.900000
233.525467	145.920000
233.618179	146.360000
233.710907	145.940000
233.803635	146.480000
233.896347	146.120000
233.989090	146.660000
234.081818	146.660000
234.174545	146.980000
234.267258	146.380000
234.359985	146.920000
234.452713	146.580000
234.545441	146.340000
234.638168	146.280000
234.730896	146.840000
234.823639	146.780000
234.916367	147.100000
235.009094	147.300000
235.101822	147.120000
235.194580	146.800000
235.287308	146.700000
235.380051	145.920000
235.472778	146.240000
235.565521	146.520000
235.658249	146.280000
235.750992	146.280000
235.843719	146.860000
235.936462	146.560000
236.029205	145.880000
236.121948	145.720000
236.214691	146.180000
236.307449	146.620000
236.400192	146.180000
236.492935	146.380000
236.585678	146.780000
236.678421	146.340000
236.771164	145.960000
236.863907	146.620000
236.956665	147.140000
237.049408	148.820000
237.142151	148.640000
237.234909	148.920000
237.327652	148.800000
237.420410	148.360000
237.513153	146.900000
237.605927	146.680000
237.698669	146.280000
237.791428	146.060000
237.884186	146.600000
237.976944	146.000000
238.069702	146.340000
238.162445	145.620000
238.255203	145.660000
238.347961	145.680000
238.440720	146.120000
238.533478	146.240000
238.626266	146.560000
238.719025	147.200000
238.811783	146.720000
238.904541	146.360000
238.997314	146.180000
239.090073	145.860000
239.182831	145.560000
239.275604	146.400000
239.368362	146.440000
239.461136	146.340000
239.553909	146.540000
239.646667	146.400000
239.739441	146.040000
239.832214	146.520000
239.925003	146.780000
240.017761	147.680000
240.110535	148.240000
240.203308	147.700000
240.296082	147.820000
240.388855	147.760000
240.481628	147.760000
240.574417	147.620000
240.667191	147.940000
240.759964	147.540000
240.852737	147.560000
240.945526	146.920000
241.038315	146.560000
241.131088	146.360000
241.223877	146.840000
241.316650	146.460000
241.409439	146.900000
241.502228	146.780000
241.595001	147.180000
241.687790	146.640000
241.780579	146.660000
241.873367	146.400000
241.966141	146.460000
242.058929	145.980000
242.151718	146.180000
242.244507	146.680000
242.337311	146.100000
242.430099	146.760000
242.522903	147.180000
242.615692	146.940000
242.708481	146.780000
242.801270	147.640000
242.894073	147.060000
242.986862	147.200000
243.079651	147.600000
243.172455	147.300000
243.265244	147.200000
243.358063	146.580000
243.450867	146.600000
243.543655	146.540000
243.636459	146.520000
243.729263	146.880000
243.822067	147.500000
243.914856	147.580000
244.007660	147.580000
244.100464	147.800000
244.193268	147.040000
244.286072	146.820000
244.378876	146.280000
244.471680	145.880000
244.564499	146.100000
244.657318	146.900000
244.750122	147.060000
244.842926	146.740000
244.935745	147.000000
245.028549	146.420000
245.121368	145.540000
245.214172	145.680000
245.306992	146.340000
245.399796	146.180000
245.492615	146.680000
245.585434	146.680000
245.678253	146.440000
245.771072	146.100000
245.863892	146.460000
245.956711	146.340000
246.049530	146.660000
246.142349	146.620000
246.235168	146.780000
246.327988	147.160000
246.420807	147.080000
246.513626	147.040000
246.606445	146.820000
246.699280	146.780000
246.792099	146.160000
246.884918	145.800000
246.977753	145.360000
247.070587	145.760000
247.163422	145.700000
247.256241	145.880000
247.349075	146.460000
247.441895	146.680000
247.534729	146.640000
247.627563	146.460000
247.720383	146.740000
247.813217	146.440000
247.906052	146.260000
247.998886	146.300000
248.091736	146.380000
248.184570	145.900000
248.277405	146.060000
248.370239	147.120000
248.463074	147.780000
248.555908	147.840000
248.648743	147.780000
248.741592	147.900000
248.834427	147.120000
248.927261	146.000000
249.020111	146.520000
249.112946	147.200000
249.205795	146.740000
249.298630	146.840000
249.391495	146.960000
249.484344	146.500000
249.577179	146.400000
249.670029	146.920000
249.762878	147.580000
249.855728	147.960000
249.948563	148.000000
250.041412	147.380000
250.134262	147.360000
250.227112	147.100000
250.319962	147.260000
250.412827	147.360000
250.505692	147.060000
250.598541	147.020000
250.691391	146.680000
250.784241	146.460000
250.877106	146.540000
250.969955	146.800000
251.062805	147.320000
251.155670	147.800000
251.248520	147.420000
251.341385	147.480000
251.434235	147.580000
251.527100	147.080000
251.619965	146.560000
251.712814	147.540000
251.805695	147.660000
251.898560	147.740000
251.991425	147.880000
252.084290	148.040000
252.177155	147.220000
252.270020	146.820000
252.362885	146.640000
252.455750	146.880000
252.548615	146.500000
252.641479	146.600000
252.734360	146.540000
252.827240	146.540000
252.920105	146.140000
253.012970	146.340000
253.105850	146.260000
253.198715	146.060000
253.291595	146.140000
253.384460	145.680000
253.477341	145.500000
253.570221	145.720000
253.663086	145.400000
253.755966	145.740000
253.848846	145.840000
253.941727	146.180000
254.034592	145.920000
254.127472	146.000000
254.220367	146.120000
254.313248	146.620000
254.406128	146.360000
254.499008	146.720000
254.591904	147.260000
254.684784	147.240000
254.777664	146.940000
254.870544	146.640000
254.963440	146.540000
255.056335	146.600000
255.149216	146.240000
255.242111	146.520000
255.334991	147.260000
255.427887	147.520000
255.520767	147.340000
255.613663	147.780000
255.706558	147.420000
255.799438	147.080000
255.892334	146.740000
255.985229	146.860000
256.078125	146.420000
256.171021	146.540000
256.263916	146.780000
256.356812	147.060000
256.449707	147.280000
256.542603	147.140000
256.635498	147.640000
256.728394	147.420000
256.821289	146.860000
256.914215	146.880000
257.007080	147.480000
257.100006	147.200000
257.192932	147.540000
257.285828	148.040000
257.378723	147.560000
257.471619	147.220000
257.564545	146.860000
257.657440	146.680000
257.750336	147.040000
257.843262	146.900000
257.936157	147.980000
258.029053	148.500000
258.121979	148.600000
258.214874	147.600000
258.307800	147.600000
258.400696	146.300000
258.493622	146.060000
258.586517	145.160000
258.679443	145.680000
258.772339	145.440000
258.865265	145.300000
258.958160	145.020000
259.051086	146.240000
259.144012	146.340000
259.236938	147.520000
259.329834	147.800000
259.422791	147.860000
259.515717	146.960000
259.608612	146.620000
259.701538	146.320000
259.794464	146.300000
259.887390	146.260000
259.980316	146.440000
260.073212	146.040000
260.166138	145.060000
260.259064	145.480000
260.351990	146.040000
260.444916	146.040000
260.537842	146.760000
260.630768	147.680000
260.723694	147.360000
260.816620	147.120000
260.909546	146.900000
261.002472	146.560000
261.095398	146.160000
261.188354	146.260000
261.281281	145.820000
261.374207	146.020000
261.467133	146.780000
261.560089	146.680000
261.653015	146.140000
261.745972	146.660000
261.838867	146.900000
261.931824	147.040000
262.024780	146.420000
262.117706	146.980000
262.210663	147.040000
262.303589	146.980000
262.396515	146.400000
262.489471	147.680000
262.582397	147.580000
262.675354	146.980000
262.768280	147.060000
262.861237	147.200000
262.954163	146.920000
263.047119	146.740000
263.140045	146.880000
263.233002	146.740000
263.325958	146.400000
263.418884	146.000000
263.511841	146.240000
263.604797	146.360000
263.697723	146.340000
263.790680	146.220000
263.883636	146.780000
263.976593	146.420000
264.069550	146.400000
264.162476	146.320000
264.255463	146.700000
264.348419	146.360000
264.441376	146.740000
264.534332	146.360000
264.627289	146.480000
264.720245	147.060000
264.813202	146.820000
264.906158	146.840000
264.999115	147.540000
265.092072	147.320000
265.185028	147.160000
265.277985	147.500000
265.370941	147.240000
265.463898	146.940000
265.556854	146.820000
265.649811	145.640000
265.742798	145.440000
265.835754	145.900000
265.928711	146.100000
266.021667	146.240000
266.114655	146.860000
266.207611	147.040000
266.300568	146.200000
266.393585	145.880000
266.486511	146.300000
266.579498	145.660000
266.672485	145.180000
266.765442	145.220000
266.858429	145.660000
266.951385	145.260000
267.044342	145.820000
267.137329	145.980000
267.230316	146.660000
267.323273	145.860000
267.416260	146.860000
267.509216	146.580000
267.602203	146.660000
267.695160	146.680000
267.788147	147.220000
267.881134	146.040000
267.974091	146.300000
268.067078	146.280000
268.160065	146.080000
268.253052	146.000000
268.346008	146.440000
268.438995	146.280000
268.531982	146.400000
268.624969	146.060000
268.717987	146.420000
268.810944	146.360000
268.903961	146.620000
268.996948	146.320000
269.089905	146.920000
269.182892	146.920000
269.275879	147.140000
269.368866	146.620000
269.461853	147.160000
269.554871	147.060000
269.647858	147.100000
269.740845	147.560000
269.833832	148.320000
269.926819	147.680000
270.019806	147.440000
270.112793	146.740000
270.205811	146.380000
270.298798	146.000000
270.391785	146.700000
270.484772	146.580000
270.577789	147.060000
270.670776	146.380000
270.763763	146.320000
270.856750	146.160000
270.949768	145.860000
271.042786	145.840000
271.135773	146.460000
271.228790	146.840000
271.321808	146.860000
271.414795	146.820000
271.507782	146.380000
271.600800	145.740000
271.693817	145.620000
271.786804	145.900000
271.879822	146.600000
271.972809	146.900000
272.065826	147.340000
272.158844	146.880000
272.251831	147.020000
272.344849	146.800000
272.437866	146.380000
272.530853	146.460000
272.623871	146.860000
272.716888	145.740000
272.809906	145.780000
272.902893	145.860000
272.995911	145.340000
273.088928	145.340000
273.181946	145.840000
273.274963	145.540000
273.367981	145.860000
273.460999	146.140000
273.554047	146.700000
273.647003	147.180000
273.740051	147.320000
273.833069	147.400000
273.926086	147.820000
274.019135	147.120000
274.112152	146.720000
274.205170	147.040000
274.298187	147.600000
274.391205	147.040000
274.484222	146.940000
274.577240	147.160000
274.670258	147.040000
274.763306	146.680000
274.856323	147.280000
274.949341	147.640000
275.042358	148.120000
275.135406	147.840000
275.228424	147.620000
275.321442	147.440000
275.414490	147.000000
275.507507	146.700000
275.600525	147.160000
275.693573	146.940000
275.786591	146.380000
275.879669	146.900000
275.972656	146.400000
276.065735	146.040000
276.158752	146.580000
276.251801	147.260000
276.344818	146.980000
276.437866	147.300000
276.530884	147.300000
276.623932	146.660000
276.716980	146.940000
276.809998	147.020000
276.903046	147.100000
276.996094	147.700000
277.089111	148.140000
277.182159	148.440000
277.275208	148.140000
277.368256	147.980000
277.461304	147.560000
277.554321	147.020000
277.647369	146.300000
277.740417	146.380000
277.833466	146.360000
277.926514	145.960000
278.019562	146.760000
278.112610	146.180000
278.205688	146.520000
278.298706	146.680000
278.391785	146.940000
278.484833	146.280000
278.577881	146.680000
278.670929	146.800000
278.763977	146.780000
278.857025	146.980000
278.950073	147.100000
279.043121	146.840000
279.136169	146.860000
279.229248	146.520000
279.322296	146.420000
279.415344	146.060000
279.508392	146.100000
279.601440	145.780000
279.694519	145.760000
279.787567	145.820000
279.880615	145.940000
279.973694	145.920000
280.066742	145.980000
280.159790	146.380000
280.252869	145.960000
280.345917	146.000000
280.438995	145.940000
280.532074	145.600000
280.625122	145.740000
280.718201	146.520000
280.811279	146.920000
280.904327	146.980000
280.997406	147.220000
281.090454	147.040000
281.183533	146.420000
281.276581	146.340000
281.369659	145.940000
281.462738	145.980000
281.555786	145.980000
281.648865	146.060000
281.741943	145.900000
281.835022	146.800000
281.928070	146.600000
282.021149	146.280000
282.114227	146.200000
282.207306	146.000000
282.300385	146.180000
282.393433	146.240000
282.486511	146.540000
282.579590	147.240000
282.672668	147.660000
282.765747	146.740000
282.858856	146.640000
282.951904	146.760000
283.045013	146.600000
283.138062	146.840000
283.231171	147.380000
283.324249	148.000000
283.417328	147.800000
283.510406	147.300000
283.603485	146.880000
283.696564	146.620000
283.789642	146.360000
283.882751	145.900000
283.975830	146.500000
284.068909	146.260000
284.161987	147.060000
284.255066	146.500000
284.348175	146.900000
284.441254	146.540000
284.534332	147.120000
284.627441	146.560000
284.720520	146.660000
284.813599	146.800000
284.906708	146.920000
284.999786	146.120000
285.092896	145.840000
285.185974	146.920000
285.279053	146.340000
285.372192	146.380000
285.465240	147.300000
285.558380	147.080000
285.651459	146.240000
285.744568	147.200000
285.837677	146.540000
285.930756	146.180000
286.023865	146.380000
286.116943	145.860000
286.210052	145.780000
286.303162	145.980000
286.396240	145.960000
286.489349	146.120000
286.582458	147.020000
286.675568	146.640000
286.768646	146.840000
286.861755	147.340000
286.954865	147.840000
287.047974	147.420000
287.141083	147.220000
287.234161	147.120000
287.327271	146.700000
287.420380	146.760000
287.513519	146.680000
287.606598	146.840000
287.699738	147.100000
287.792816	146.780000
287.885956	146.400000
287.979034	146.560000
288.072174	146.720000
288.165283	146.360000
288.258392	146.660000
288.351501	146.160000
288.444611	146.400000
288.537720	146.700000
288.630859	146.680000
288.723969	146.660000
288.817078	147.280000
288.910187	147.140000
289.003296	146.280000
289.096436	146.240000
289.189545	146.060000
289.282654	145.460000
289.375763	145.420000
289.468903	145.700000
289.562012	145.900000
289.655121	146.020000
289.748260	146.320000
289.841400	146.880000
289.934509	147.040000
290.027649	147.160000
290.120728	146.920000
290.213898	146.840000
290.306976	146.340000
290.400146	146.520000
290.493256	146.100000
290.586395	146.540000
290.679535	147.080000
290.772644	146.800000
290.865784	145.940000
290.958893	146.160000
291.052032	145.660000
291.145172	145.480000
291.238281	145.540000
291.331421	145.860000
291.424561	146.400000
291.517670	146.540000
291.610809	146.700000
291.703949	146.600000
291.797089	147.000000
291.890228	146.320000
291.983337	146.180000
292.076477	145.680000
292.169617	145.960000
292.262756	145.920000
292.355927	145.620000
292.449036	145.740000
292.542206	146.020000
292.635315	146.100000
292.728485	145.820000
292.821625	145.840000
292.914764	146.720000
293.007904	146.700000
293.101044	146.500000
293.194183	146.640000
293.287323	146.700000
293.380463	146.100000
293.473602	145.900000
293.566742	146.300000
293.659882	146.860000
293.753021	147.440000
293.846191	147.180000
293.939331	146.660000
294.032471	146.520000
294.125610	145.780000
294.218781	146.120000
294.311920	146.680000
294.405060	147.260000
294.498230	146.920000
294.591370	147.320000
294.684540	146.480000
294.777679	145.920000
294.870850	146.160000
294.963959	146.120000
295.057159	145.780000
295.150299	146.260000
295.243469	146.140000
295.336609	145.560000
295.429779	145.700000
295.522919	145.980000
295.616089	145.680000
295.709229	146.480000
295.802399	146.700000
295.895569	146.320000
295.988708	146.020000
296.081879	146.160000
296.175018	145.300000
296.268188	145.460000
296.361359	145.960000
296.454529	146.280000
296.547668	146.240000
296.640839	146.800000
296.734009	146.380000
296.827179	146.340000
296.920319	146.460000
297.013519	146.280000
297.106659	145.820000
297.199860	146.020000
297.292999	146.040000
297.386200	145.680000
297.479309	145.540000
297.572510	145.780000
297.665680	145.660000
297.758850	145.480000
297.852020	145.600000
297.945190	145.820000
298.038361	145.580000
298.131531	146.500000
298.224701	146.500000
298.317871	146.200000
298.411072	145.620000
298.504242	145.820000
298.597412	145.120000
298.690582	145.380000
298.783752	145.700000
298.876923	146.500000
298.970093	146.200000
299.063293	146.400000
299.156464	146.560000
299.249634	146.620000
299.342834	146.580000
299.436005	147.200000
299.529205	147.080000
299.622345	146.840000
299.715576	146.380000
299.808716	146.340000
299.901917	145.920000
299.995117	146.080000
300.088287	146.320000
300.181488	146.360000
300.274658	146.060000
300.367828	146.260000
300.461029	146.180000
300.554199	146.280000
300.647400	146.400000
300.740601	146.960000
300.833771	146.960000
300.926971	147.340000
301.020142	146.780000
301.113342	146.680000
301.206512	146.420000
301.299713	146.540000
301.392914	146.480000
301.486084	146.800000
301.579285	146.700000
301.672516	147.120000
301.765686	146.800000
301.858887	146.420000
301.952057	146.220000
302.045288	146.500000
302.138458	146.360000
302.231659	146.360000
302.324860	146.300000
302.418060	146.200000
302.511261	146.100000
302.604462	145.940000
302.697662	145.860000
302.790863	145.780000
302.884064	145.680000
302.977264	145.580000
303.070465	145.820000
303.163666	146.540000
303.256866	146.880000
303.350067	147.120000
303.443268	147.180000
303.536469	146.880000
303.629669	146.120000
303.722870	146.020000
303.816071	145.860000
303.909271	146.260000
304.002472	145.800000
304.095673	145.920000
304.188934	145.360000
304.282104	146.320000
304.375336	146.280000
304.468506	146.440000
304.561768	146.540000
304.654968	147.360000
304.748169	146.720000
304.841370	146.060000
304.934601	146.560000
305.027802	146.200000
305.121002	145.580000
305.214233	145.640000
305.307434	145.900000
305.400665	146.180000
305.493866	146.160000
305.587097	146.500000
305.680298	146.180000
305.773499	146.860000
305.866730	146.440000
305.959930	147.040000
306.053162	147.340000
306.146393	147.180000
306.239594	146.260000
306.332825	146.100000
306.426025	146.140000
306.519287	145.300000
306.612488	145.520000
306.705719	145.720000
306.798920	145.840000
306.892181	145.420000
306.985352	145.520000
307.078613	145.380000
307.171844	145.660000
307.265045	145.180000
307.358276	145.060000
307.451508	145.500000
307.544739	145.940000
307.637970	145.600000
307.731201	145.900000
307.824402	146.640000
307.917633	146.940000
308.010864	147.200000
308.104095	147.900000
308.197327	147.900000
308.290558	147.700000
308.383789	146.900000
308.477020	146.380000
308.570251	145.420000
308.663483	145.280000
308.756714	145.260000
308.849976	145.600000
308.943176	145.980000
309.036438	146.200000
309.129639	146.240000
309.222900	145.920000
309.316101	146.040000
309.409393	145.580000
309.502625	145.360000
309.595856	145.400000
309.689087	145.720000
309.782318	145.700000
309.875580	145.980000
309.968811	146.420000
310.062042	146.340000
310.155273	145.920000
310.248535	146.240000
310.341766	146.060000
310.434998	145.860000
310.528259	145.820000
310.621490	146.320000
310.714722	145.620000
310.807983	145.560000
310.901215	145.720000
310.994476	146.040000
311.087708	145.380000
311.181000	145.860000
311.274200	145.620000
311.367462	145.760000
311.460693	145.300000
311.553986	146.220000
311.647186	146.600000
311.740479	147.320000
311.833710	146.900000
311.926971	146.960000
312.020203	146.060000
312.113464	145.700000
312.206726	145.160000
312.299957	145.640000
312.393219	146.360000
312.486481	146.780000
312.579712	146.640000
312.672974	146.540000
312.766235	146.580000
312.859497	145.940000
312.952759	145.900000
313.045990	146.680000
313.139252	146.500000
313.232513	146.680000
313.325775	146.820000
313.419037	146.440000
313.512299	145.420000
313.605530	146.080000
313.698822	145.900000
313.792053	146.040000
313.885345	145.760000
313.978577	145.780000
314.071869	145.060000
314.165131	145.220000
314.258392	145.540000
314.351654	145.900000
314.444916	145.660000
314.538177	146.600000
314.631439	146.980000
314.724701	146.360000
314.817993	146.380000
314.911255	146.780000
315.004517	146.040000
315.097778	145.600000
315.191040	146.320000
315.284302	146.840000
315.377594	146.580000
315.470856	146.880000
315.564117	146.460000
315.657379	145.820000
315.750671	145.220000
315.843933	145.720000
315.937195	145.160000
316.030518	145.100000
316.123749	145.600000
316.217041	146.320000
316.310303	146.160000
316.403595	146.340000
316.496857	146.720000
316.590149	146.540000
316.683411	145.860000
316.776703	145.860000
316.869965	145.940000
316.963257	145.380000
317.056519	144.580000
317.149811	144.540000
317.243073	144.480000
317.336365	144.940000
317.429626	145.700000
317.522919	146.680000
317.616180	146.560000
317.709473	146.180000
317.802765	145.700000
317.896027	145.320000
317.989319	145.380000
318.082611	145.700000
318.175873	145.960000
318.269165	146.340000
318.362488	146.220000
318.455750	145.700000
318.549042	145.900000
318.642303	146.240000
318.735626	145.620000
318.828888	145.940000
318.922211	145.840000
319.015472	146.480000
319.108765	145.620000
319.202057	145.700000
319.295349	145.900000
319.388641	146.040000
319.481934	145.340000
319.575226	145.740000
319.668518	146.200000
319.761810	146.100000
319.855103	146.380000
319.948395	146.600000
320.041687	147.040000
320.134979	146.940000
320.228271	146.580000
320.321564	146.200000
320.414856	145.960000
320.508148	145.420000
320.601440	145.200000
320.694763	145.180000
320.788025	146.000000
320.881348	146.180000
320.974640	146.300000
321.067963	146.100000
321.161224	146.180000
321.254547	145.400000
321.347839	145.960000
321.441162	145.780000
321.534454	146.280000
321.627747	146.240000
321.721069	147.020000
321.814362	146.740000
321.907654	147.020000
322.000946	146.800000
322.094269	147.300000
322.187561	146.640000
322.280884	146.640000
322.374176	146.760000
322.467468	146.880000
322.560791	146.900000
322.654083	147.260000
322.747406	147.080000
322.840698	147.280000
322.934021	147.640000
323.027344	147.560000
323.120636	147.000000
323.213959	146.960000
323.307251	146.360000
323.400574	145.880000
323.493866	145.340000
323.587219	146.120000
323.680511	146.500000
323.773834	146.740000
323.867157	146.880000
323.960449	147.140000
324.053772	146.860000
324.147095	146.660000
324.240387	147.040000
324.333710	147.360000
324.427032	147.460000
324.520355	147.420000
324.613647	147.060000
324.706970	146.880000
324.800293	146.640000
324.893616	147.020000
324.986938	147.120000
325.080231	147.060000
325.173553	147.120000
325.266876	147.720000
325.360199	147.280000
325.453522	146.780000
325.546875	146.740000
325.640167	146.980000
325.733521	146.560000
325.826813	146.980000
325.920166	146.920000
326.013489	146.760000
326.106812	146.000000
326.200134	145.960000
326.293457	145.380000
326.386780	145.520000
326.480103	145.600000
326.573425	146.020000
326.666748	146.180000
326.760071	146.560000
326.853424	146.680000
326.946747	147.040000
327.040070	147.660000
327.133392	147.180000
327.226715	146.360000
327.320068	146.000000
327.413391	146.520000
327.506714	145.420000
327.600037	145.480000
327.693390	146.140000
327.786713	146.360000
327.880066	145.920000
327.973358	146.580000
328.066742	146.900000
328.160034	146.900000
328.253418	147.180000
328.346710	146.820000
328.440063	146.360000
328.533417	145.960000
328.626740	146.160000
328.720093	145.900000
328.813416	145.940000
328.906769	145.860000
329.000092	146.120000
329.093445	145.920000
329.186768	145.940000
329.280121	146.460000
329.373444	146.780000
329.466797	147.120000
329.560120	147.360000
329.653473	147.360000
329.746796	146.740000
329.840149	146.640000
329.933502	146.500000
330.026825	146.060000
330.120178	146.120000
330.213562	146.360000
330.306854	146.300000
330.400238	146.100000
330.493561	146.060000
330.586945	146.660000
330.680237	146.700000
330.773621	146.820000
330.866974	146.560000
330.960327	146.700000
331.053680	145.820000
331.147003	145.820000
331.240356	145.980000
331.333710	146.500000
331.427063	146.100000
331.520416	146.460000
331.613770	146.060000
331.707123	145.900000
331.800476	145.840000
331.893829	147.180000
331.987152	147.060000
332.080505	147.160000
332.173859	147.340000
332.267212	146.800000
332.360565	146.100000
332.453918	145.720000
332.547333	145.640000
332.640656	145.780000
332.734039	146.060000
332.827362	145.620000
332.920746	146.020000
333.014069	146.240000
333.107452	146.240000
333.200806	146.320000
333.294159	146.640000
333.387543	146.520000
333.480896	146.180000
333.574249	146.040000
333.667603	145.620000
333.760956	145.700000
333.854340	145.540000
333.947693	145.820000
334.041046	145.480000
334.134430	146.160000
334.227783	145.900000
334.321136	145.940000
334.414520	145.600000
334.507874	146.120000
334.601227	146.080000
334.694611	146.040000
334.787964	146.340000
334.881348	146.680000
334.974701	146.620000
335.068085	146.200000
335.161438	146.620000
335.254822	146.580000
335.348175	146.520000
335.441559	146.180000
335.534943	147.000000
335.628296	146.580000
335.721680	146.540000
335.815033	146.980000
335.908417	147.540000
336.001770	147.000000
336.095154	146.900000
336.188538	146.520000
336.281891	145.840000
336.375275	145.020000
336.468658	144.680000
336.562012	145.100000
336.655396	145.660000
336.748779	146.320000
336.842133	146.580000
336.935516	147.080000
337.028900	146.660000
337.122284	146.440000
337.215637	146.260000
337.309021	146.120000
337.402435	145.660000
337.495789	145.620000
337.589203	145.540000
337.682526	145.160000
337.775940	145.500000
337.869324	145.620000
337.962708	145.620000
338.056091	146.220000
338.149475	146.160000
338.242859	146.260000
338.336243	145.960000
338.429626	145.920000
338.523010	145.620000
338.616394	145.800000
338.709778	145.640000
338.803162	145.980000
338.896545	146.320000
338.989929	146.060000
339.083313	146.340000
339.176697	146.000000
339.270081	145.740000
339.363464	145.940000
339.456848	146.180000
339.550232	145.680000
339.643616	145.600000
339.737030	145.660000
339.830383	145.280000
339.923828	145.520000
340.017181	145.680000
340.110596	145.960000
340.203949	146.260000
340.297363	146.240000
340.390778	145.980000
340.484161	146.040000
340.577545	145.820000
340.670959	145.680000
340.764343	145.540000
340.857727	145.500000
340.951111	144.920000
341.044525	145.180000
341.137909	144.940000
341.231293	144.700000
341.324707	144.060000
341.418091	145.220000
341.511505	145.400000
341.604889	145.560000
341.698303	145.560000
341.791687	146.120000
341.885071	145.460000
341.978485	145.020000
342.071899	145.160000
342.165283	145.760000
342.258698	146.100000
342.352081	146.500000
342.445496	147.340000
342.538879	147.080000
342.632324	146.620000
342.725708	146.220000
342.819122	145.680000
342.912506	144.900000
343.005920	145.120000
343.099335	146.280000
343.192719	146.420000
343.286133	146.760000
343.379547	147.220000
343.472931	147.040000
343.566345	146.040000
343.659760	146.140000
343.753143	145.800000
343.846558	145.540000
343.939972	145.720000
344.033386	146.460000
344.126770	146.240000
344.220184	146.420000
344.313599	146.840000
344.407043	147.000000
344.500427	146.020000
344.593872	146.420000
344.687225	146.040000
344.780670	145.540000
344.874054	145.280000
344.967499	146.060000
345.060913	145.800000
345.154327	146.200000
345.247742	146.140000
345.341156	146.300000
345.434570	145.980000
345.527985	145.960000
345.621399	146.120000
345.714813	146.180000
345.808228	146.160000
345.901642	145.820000
345.995056	145.500000
346.088470	145.440000
346.181885	145.640000
346.275299	145.140000
346.368713	145.380000
346.462128	145.440000
346.555573	145.320000
346.648987	145.580000
346.742401	146.100000
346.835815	146.580000
346.929260	146.400000
347.022644	146.420000
347.116119	146.220000
347.209503	146.560000
347.302948	147.000000
347.396362	147.620000
347.489807	147.740000
347.583221	148.020000
347.676636	147.260000
347.770050	146.220000
347.863495	145.660000
347.956909	145.680000
348.050323	145.080000
348.143768	145.000000
348.237183	145.000000
348.330597	145.780000
348.424042	145.820000
348.517456	146.200000
348.610901	146.900000
348.704315	147.000000
348.797760	146.380000
348.891174	145.920000
348.984619	145.660000
349.078033	145.760000
349.171448	146.380000
349.264923	146.420000
349.358337	146.500000
349.451782	146.600000
349.545197	145.720000
349.638641	145.000000
349.732086	144.580000
349.825500	145.120000
349.918945	144.980000
350.012390	145.900000
350.105804	146.240000
350.199249	146.360000
350.292664	146.440000
350.386108	146.580000
350.479553	146.660000
350.572968	146.520000
350.666412	147.280000
350.759857	146.940000
350.853302	147.420000
350.946716	146.840000
351.040161	147.040000
351.133606	146.600000
351.227081	146.740000
351.320465	147.080000
351.413940	147.160000
351.507355	147.300000
351.600830	147.340000
351.694244	147.280000
351.787720	146.880000
351.881104	146.820000
351.974579	146.600000
352.067993	147.400000
352.161469	147.460000
352.254883	146.840000
352.348358	146.640000
352.441803	146.520000
352.535248	146.080000
352.628693	146.080000
352.722137	146.280000
352.815582	146.560000
352.909027	146.780000
353.002472	146.260000
353.095917	146.440000
353.189362	146.920000
353.282806	147.000000
353.376251	146.760000
353.469696	146.520000
353.563141	146.760000
353.656586	146.440000
353.750061	146.040000
353.843475	145.980000
353.936981	146.640000
354.030396	146.060000
354.123871	145.860000
354.217285	146.520000
354.310760	147.020000
354.404175	146.980000
354.497681	146.840000
354.591095	147.080000
354.684570	146.440000
354.777985	145.720000
354.871490	145.400000
354.964935	145.600000
355.058380	145.560000
355.151855	145.360000
355.245300	145.900000
355.338745	146.240000
355.432220	146.340000
355.525665	145.880000
355.619110	146.700000
355.712585	146.380000
355.806030	146.020000
355.899475	145.760000
355.992950	146.080000
356.086426	146.020000
356.179871	146.340000
356.273346	146.640000
356.366791	146.960000
356.460266	147.260000
356.553711	146.840000
356.647186	146.740000
356.740631	146.300000
356.834106	146.140000
356.927551	146.140000
357.021027	146.120000
357.114471	146.180000
357.207947	146.580000
357.301422	146.820000
357.394867	146.740000
357.488342	147.160000
357.581818	147.080000
357.675262	147.240000
357.768738	146.980000
357.862213	146.280000
357.955658	146.100000
358.049133	145.880000
358.142609	145.960000
358.236053	145.480000
358.329529	145.740000
358.423035	146.020000
358.516449	145.820000
358.609955	145.940000
358.703400	146.700000
358.796906	146.840000
358.890350	146.300000
358.983826	146.840000
359.077271	145.820000
359.170776	145.620000
359.264221	145.540000
359.357727	145.880000
359.451172	146.160000
359.544647	146.780000
359.638123	146.520000
359.731598	146.680000
359.825073	146.760000
359.918549	146.200000
360.012024	146.300000
360.105499	145.980000
360.198975	146.100000
360.292450	146.180000
360.385925	146.220000
360.479401	145.880000
360.572876	146.320000
360.666351	146.520000
360.759857	146.320000
360.853302	146.380000
360.946808	146.040000
361.040253	145.980000
361.133759	145.640000
361.227203	145.900000
361.320709	145.680000
361.414154	146.420000
361.507660	146.800000
361.601105	147.160000
361.694641	147.320000
361.788086	147.380000
361.881592	147.480000
361.975067	147.200000
362.068542	147.280000
362.162018	146.820000
362.255524	146.320000
362.348999	146.120000
362.442474	146.300000
362.535950	145.840000
362.629456	145.660000
362.722931	146.200000
362.816406	146.740000
362.909882	147.140000
363.003387	146.960000
363.096863	147.480000
363.190338	147.440000
363.283875	146.960000
363.377319	146.560000
363.470825	147.120000
363.564301	146.360000
363.657806	146.660000
363.751282	146.460000
363.844788	147.280000
363.938232	146.800000
364.031769	147.440000
364.125214	147.560000
364.218750	148.040000
364.312225	146.600000
364.405731	146.960000
364.499207	146.640000
364.592712	146.180000
364.686188	145.700000
364.779694	146.160000
364.873169	145.960000
364.966675	145.920000
365.060150	146.140000
365.153656	146.580000
365.247131	146.680000
365.340637	146.940000
365.434143	147.820000
365.527618	147.420000
365.621155	146.580000
365.714600	146.520000
365.808136	146.500000
365.901611	145.040000
365.995117	145.320000
366.088593	145.860000
366.182129	145.820000
366.275604	145.980000
366.369110	146.640000
366.462585	146.280000
366.556122	147.000000
366.649567	147.380000
366.743103	147.060000
366.836609	146.900000
366.930115	147.420000
367.023590	146.720000
367.117096	146.500000
367.210602	146.720000
367.304108	147.140000
367.397614	147.520000
367.491119	147.380000
367.584595	147.340000
367.678101	147.520000
367.771606	147.120000
367.865112	146.660000
367.958649	146.440000
368.052124	146.220000
368.145660	145.680000
368.239136	146.500000
368.332672	146.540000
368.426147	146.880000
368.519684	146.800000
368.613159	147.260000
368.706696	146.720000
368.800171	146.640000
368.893707	146.700000
368.987183	146.900000
369.080719	146.740000
369.174225	146.540000
369.267731	146.780000
369.361237	146.740000
369.454742	146.460000
369.548248	147.060000
369.641754	146.940000
369.735260	146.740000
369.828766	145.920000
369.922272	146.760000
370.015808	146.200000
370.109314	146.120000
370.202820	145.940000
370.296356	147.520000
370.389832	147.220000
370.483368	147.040000
370.576874	147.000000
370.670410	147.200000
370.763885	145.840000
370.857422	145.540000
370.950928	145.400000
371.044464	146.460000
371.137939	146.800000
371.231476	147.440000
371.324982	147.860000
371.418518	147.960000
371.512024	147.200000
371.605560	146.900000
371.699066	147.120000
371.792572	146.660000
371.886108	147.120000
371.979614	146.900000
372.073120	147.000000
372.166656	146.460000
372.260162	146.620000
372.353668	146.220000
372.447205	146.260000
372.540710	146.340000
372.634277	146.120000
372.727753	146.240000
372.821320	146.100000
372.914795	146.140000
373.008362	145.960000
373.101837	146.360000
373.195404	146.100000
373.288879	146.060000
373.382446	146.660000
373.475922	146.420000
373.569489	146.760000
373.662964	147.340000
373.756531	147.440000
373.850037	147.520000
373.943573	147.380000
374.037109	146.620000
374.130615	146.400000
374.224152	146.420000
374.317657	145.960000
374.411194	147.020000
374.504730	146.960000
374.598236	146.460000
374.691772	146.460000
374.785309	146.500000
374.878815	145.360000
374.972351	146.180000
375.065887	146.140000
375.159454	146.580000
375.252930	146.280000
375.346497	146.720000
375.440002	146.920000
375.533569	147.100000
375.627045	146.320000
375.720612	146.480000
375.814117	146.840000
375.907684	146.260000
376.001160	146.060000
376.094727	145.800000
376.188232	146.500000
376.281799	146.340000
376.375336	146.080000
376.468872	146.800000
376.562408	147.340000
376.655914	146.860000
376.749451	146.840000
376.842987	147.400000
376.936523	146.720000
377.030060	146.720000
377.123596	146.640000
377.217133	146.160000
377.310669	146.080000
377.404205	146.460000
377.497772	147.200000
377.591278	147.180000
377.684845	148.000000
377.778351	148.220000
377.871918	148.380000
377.965424	147.240000
378.058990	147.300000
378.152496	146.880000
378.246063	146.780000
378.339569	146.800000
378.433136	147.220000
378.526642	146.920000
378.620209	146.720000
378.713745	146.240000
378.807312	146.420000
378.900848	146.280000
378.994385	146.760000
379.087921	146.180000
379.181458	146.600000
379.274994	145.800000
379.368530	145.180000
379.462097	145.160000
379.555634	145.780000
379.649170	145.000000
379.742706	145.020000
379.836273	145.820000
379.929810	145.580000
380.023376	145.440000
380.116882	145.740000
380.210449	146.000000
380.303986	145.780000
380.397552	145.400000
380.491058	145.900000
380.584656	145.860000
380.678162	145.900000
380.771729	145.920000
380.865265	147.040000
380.958832	146.600000
381.052368	146.980000
381.145935	147.280000
381.239471	147.760000
381.333008	147.200000
381.426575	147.180000
381.520111	147.600000
381.613647	147.680000
381.707214	147.000000
381.800751	146.020000
381.894318	146.300000
381.987854	145.320000
382.081421	145.060000
382.174988	145.220000
382.268524	145.800000
382.362091	145.620000
382.455627	146.540000
382.549194	146.360000
382.642731	146.080000
382.736298	145.780000
382.829834	145.700000
382.923401	146.140000
383.016937	146.700000
383.110504	147.340000
383.204041	147.800000
383.297607	148.220000
383.391174	147.140000
383.484741	147.360000
383.578278	146.660000
383.671844	146.420000
383.765411	145.780000
383.858948	146.460000
383.952515	146.000000
384.046051	146.680000
384.139618	147.020000
384.233185	147.300000
384.326721	147.140000
384.420288	147.640000
384.513855	147.520000
384.607422	147.900000
384.700989	148.160000
384.794525	147.440000
384.888123	147.100000
384.981659	147.260000
385.075226	146.380000
385.168762	146.040000
385.262360	146.420000
385.355896	145.780000
385.449463	145.420000
385.542999	145.720000
385.636597	146.500000
385.730164	146.880000
385.823730	146.960000
385.917267	146.940000
386.010834	147.080000
386.104401	146.960000
386.197968	146.880000
386.291534	146.900000
386.385101	146.920000
386.478668	147.440000
386.572235	147.020000
386.665802	146.640000
386.759338	146.600000
386.852905	146.480000
386.946472	145.820000
387.040070	145.880000
387.133606	145.840000
387.227203	145.680000
387.320740	146.200000
387.414337	146.240000
387.507874	146.040000
387.601471	146.640000
387.695007	146.800000
387.788605	146.360000
387.882141	146.400000
387.975739	146.680000
388.069275	146.140000
388.162872	146.560000
388.256439	146.500000
388.350037	146.400000
388.443604	146.180000
388.537170	146.320000
388.630737	146.480000
388.724304	146.580000
388.817871	146.380000
388.911438	146.500000
389.005005	146.860000
389.098602	146.840000
389.192169	146.580000
389.285736	147.520000
389.379333	147.360000
389.472870	146.540000
389.566467	146.640000
389.660034	146.920000
389.753632	145.960000
389.847168	146.380000
389.940765	146.840000
390.034332	146.820000
390.127930	146.400000
390.221466	146.580000
390.315063	145.980000
390.408630	145.360000
390.502228	144.540000
390.595795	144.960000
390.689362	145.160000
390.782959	145.700000
390.876526	146.180000
390.970093	146.060000
391.063690	146.280000
391.157257	146.120000
391.250824	145.900000
391.344421	145.740000
391.437988	146.520000
391.531555	146.580000
391.625153	146.620000
391.718750	147.000000
391.812317	147.080000
391.905914	146.580000
391.999481	146.580000
392.093079	146.680000
392.186615	146.740000
392.280243	146.840000
392.373779	147.300000
392.467407	147.580000
392.560944	147.320000
392.654572	146.860000
392.748108	146.660000
392.841736	146.600000
392.935303	146.040000
393.028900	146.180000
393.122467	146.600000
393.216064	146.320000
393.309631	145.820000
393.403229	145.620000
393.496796	145.520000
393.590393	144.420000
393.683990	144.980000
393.777557	145.380000
393.871155	145.800000
393.964722	146.200000
394.058350	147.060000
394.151917	147.160000
394.245514	147.060000
394.339081	147.440000
394.432678	147.780000
394.526245	147.340000
394.619873	146.480000
394.713409	146.560000
394.807037	146.140000
394.900604	146.200000
394.994202	146.400000
395.087769	147.220000
395.181396	146.740000
395.274994	147.480000
395.368561	146.400000
395.462158	146.680000
395.555756	146.460000
395.649353	146.980000
395.742920	146.480000
395.836517	147.400000
395.930115	146.580000
396.023712	147.080000
396.117279	147.520000
396.210876	146.940000
396.304474	146.640000
396.398071	147.160000
396.491669	147.060000
396.585266	146.740000
396.678833	146.740000
396.772461	146.980000
396.866028	147.020000
396.959656	146.760000
397.053223	146.780000
397.146851	147.060000
397.240417	147.320000
397.334015	148.300000
397.427582	149.080000
397.521210	150.320000
397.614807	152.160000
397.708405	153.820000
397.802002	155.880000
397.895599	159.440000
397.989197	163.080000
398.082794	167.460000
398.176392	173.980000
398.269989	181.520000
398.363586	190.240000
398.457184	201.460000
398.550781	214.720000
398.644379	227.500000
398.737976	242.620000
398.831573	258.580000
398.925201	274.140000
399.018768	289.440000
399.112396	305.660000
399.205963	321.060000
399.299591	338.200000
399.393158	356.060000
399.486786	375.740000
399.580353	395.340000
399.673981	414.580000
399.767578	431.480000
399.861206	446.260000
399.954773	456.860000
400.048401	462.360000
400.141998	463.500000
400.235596	461.320000
400.329193	455.640000
400.422791	447.920000
400.516418	439.840000
400.610016	432.680000
400.703613	424.480000
400.797211	414.000000
400.890808	402.580000
400.984436	389.720000
401.078033	372.580000
401.171631	353.340000
401.265259	332.460000
401.358826	310.560000
401.452484	287.660000
401.546051	266.480000
401.639679	245.220000
401.733246	228.060000
401.826904	211.360000
401.920471	197.320000
402.014099	185.660000
402.107697	176.940000
402.201324	169.140000
402.294891	163.880000
402.388550	160.160000
402.482147	157.000000
402.575745	154.100000
402.669373	151.580000
402.762970	150.040000
402.856567	149.160000
402.950195	148.460000
403.043793	148.020000
403.137390	148.500000
403.231018	147.660000
403.324615	147.960000
403.418243	147.300000
403.511841	147.740000
403.605469	147.620000
403.699066	148.180000
403.792694	147.700000
403.886292	148.100000
403.979919	147.640000
404.073517	147.120000
404.167145	147.000000
404.260712	146.900000
404.354370	146.900000
404.447937	146.960000
404.541595	147.140000
404.635162	147.260000
404.728821	147.760000
404.822418	147.040000
404.916046	146.940000
405.009644	147.120000
405.103271	147.200000
405.196899	146.460000
405.290497	147.020000
405.384125	147.260000
405.477722	146.560000
405.571350	146.100000
405.664948	146.200000
405.758575	145.920000
405.852203	145.320000
405.945801	145.560000
406.039429	145.480000
406.133057	145.620000
406.226654	145.620000
406.320312	145.820000
406.413879	146.100000
406.507538	146.820000
406.601135	146.360000
406.694763	146.920000
406.788361	146.640000
406.882019	146.460000
406.975586	146.580000
407.069244	147.480000
407.162872	147.400000
407.256470	147.740000
407.350098	147.740000
407.443726	147.200000
407.537323	146.480000
407.630951	146.720000
407.724579	146.320000
407.818207	146.920000
407.911804	146.660000
408.005432	146.640000
408.099060	146.340000
408.192688	146.920000
408.286285	146.240000
408.379913	146.080000
408.473572	146.080000
408.567169	145.440000
408.660828	145.300000
408.754395	145.180000
408.848053	145.160000
408.941650	145.440000
409.035309	145.700000
409.128906	145.520000
409.222565	145.800000
409.316132	145.940000
409.409790	145.720000
409.503387	145.680000
409.597046	145.860000
409.690674	145.940000
409.784302	146.120000
409.877930	146.100000
409.971558	146.420000
410.065186	146.240000
410.158783	145.880000
410.252411	145.900000
410.346039	146.180000
410.439667	145.940000
410.533295	146.060000
410.626923	146.560000
410.720551	146.260000
410.814209	146.640000
410.907806	146.640000
411.001465	146.340000
411.095062	146.180000
411.188721	146.400000
411.282318	146.020000
411.375977	145.640000
411.469574	146.040000
411.563232	145.980000
411.656830	146.000000
411.750488	145.720000
411.844086	145.900000
411.937744	145.640000
412.031372	145.280000
412.125000	145.260000
412.218628	145.260000
412.312256	146.000000
412.405884	146.700000
412.499512	146.900000
412.593170	147.100000
412.686798	147.180000
412.780426	146.560000
412.874054	146.420000
412.967682	146.480000
413.061310	146.840000
413.154968	147.300000
413.248566	147.560000
413.342224	147.160000
413.435852	147.260000
413.529510	146.580000
413.623108	145.820000
413.716766	145.400000
413.810364	145.860000
413.904022	145.480000
413.997650	145.500000
414.091309	146.340000
414.184906	146.520000
414.278564	145.840000
414.372192	146.440000
414.465851	146.700000
414.559479	146.380000
414.653107	147.280000
414.746735	147.440000
414.840393	147.140000
414.934021	147.600000
415.027649	146.780000
415.121277	146.440000
415.214935	146.880000
415.308563	147.140000
415.402191	146.180000
415.495850	146.600000
415.589478	145.740000
415.683136	145.380000
415.776733	145.380000
415.870422	146.240000
415.964020	145.860000
416.057678	146.200000
416.151306	146.060000
416.244965	146.100000
416.338562	145.840000
416.432251	146.800000
416.525848	147.820000
416.619507	148.280000
416.713165	148.680000
416.806793	148.640000
416.900421	148.500000
416.994080	147.280000
417.087708	147.160000
417.181366	146.620000
417.274994	146.600000
417.368622	146.600000
417.462280	147.360000
417.555908	147.260000
417.649567	147.120000
417.743195	147.140000
417.836853	146.920000
417.930481	146.720000
418.024170	146.620000
418.117767	146.900000
418.211426	147.000000
418.305054	147.360000
418.398712	147.120000
418.492340	147.520000
418.585999	147.700000
418.679626	147.780000
418.773285	147.720000
418.866913	147.860000
418.960571	147.840000
419.054230	148.020000
419.147858	147.920000
419.241516	148.040000
419.335144	148.000000
419.428802	147.820000
419.522461	147.300000
419.616089	146.800000
419.709747	146.440000
419.803375	146.540000
419.897034	146.260000
419.990662	146.120000
420.084320	146.660000
420.177979	147.020000
420.271606	146.820000
420.365295	147.440000
420.458893	147.760000
420.552582	147.780000
420.646210	147.460000
420.739868	147.260000
420.833496	146.660000
420.927155	146.360000
421.020782	146.160000
421.114471	145.820000
421.208069	145.960000
421.301758	146.300000
421.395386	146.280000
421.489044	146.140000
421.582703	146.380000
421.676361	147.020000
421.769989	146.640000
421.863647	147.160000
421.957306	147.380000
422.050934	147.420000
422.144592	146.900000
422.238251	146.620000
422.331909	146.080000
422.425537	146.000000
422.519196	146.140000
422.612854	145.700000
422.706543	145.640000
422.800140	146.100000
422.893829	145.760000
422.987457	145.400000
423.081146	145.620000
423.174744	146.500000
423.268433	145.960000
423.362061	146.080000
423.455750	146.160000
423.549347	146.520000
423.643036	145.680000
423.736664	146.420000
423.830353	146.500000
423.924011	147.040000
424.017639	146.480000
424.111298	146.580000
424.204956	146.100000
424.298615	146.480000
424.392273	146.320000
424.485931	146.560000
424.579559	146.820000
424.673218	146.800000
424.766876	146.520000
424.860535	145.920000
424.954193	145.820000
425.047882	146.120000
425.141510	146.200000
425.235199	146.240000
425.328796	146.280000
425.422485	146.100000
425.516113	145.620000
425.609802	145.600000
425.703430	145.520000
425.797119	145.460000
425.890747	145.820000
425.984436	145.980000
426.078064	145.960000
426.171753	145.920000
426.265411	145.940000
426.359070	146.220000
426.452728	145.960000
426.546356	145.720000
426.640015	145.740000
426.733673	145.700000
426.827332	145.080000
426.920990	146.020000
427.014648	145.740000
427.108307	146.060000
427.201965	146.800000
427.295624	147.080000
427.389282	146.020000
427.482941	146.740000
427.576630	146.480000
427.670258	145.800000
427.763947	145.660000
427.857574	146.080000
427.951263	145.760000
428.044922	145.580000
428.138611	145.860000
428.232239	146.460000
428.325928	146.720000
428.419556	147.180000
428.513245	146.960000
428.606903	147.040000
428.700562	146.220000
428.794220	145.700000
428.887878	144.880000
428.981537	145.240000
429.075195	145.200000
429.168854	145.980000
429.262512	146.060000
429.356201	146.280000
429.449860	146.260000
429.543518	146.140000
429.637177	146.020000
429.730835	146.100000
429.824493	146.340000
429.918182	146.340000
430.011810	145.760000
430.105530	145.040000
430.199158	145.260000
430.292847	144.980000
430.386475	144.620000
430.480164	144.680000
430.573792	144.820000
430.667511	144.640000
430.761139	144.720000
430.854828	145.500000
430.948456	145.740000
431.042145	146.600000
431.135834	146.300000
431.229492	146.220000
431.323151	146.180000
431.416809	145.860000
431.510468	145.240000
431.604156	145.320000
431.697815	145.260000
431.791473	144.600000
431.885132	144.900000
431.978821	145.240000
432.072479	145.420000
432.166138	145.880000
432.259827	145.860000
432.353485	146.380000
432.447174	146.220000
432.540802	146.140000
432.634491	146.300000
432.728149	146.760000
432.821838	146.840000
432.915466	146.540000
433.009186	146.760000
433.102814	145.920000
433.196503	145.760000
433.290131	145.480000
433.383850	145.960000
433.477509	145.820000
433.571167	146.920000
433.664856	147.220000
433.758514	147.720000
433.852173	147.300000
433.945862	147.260000
434.039520	147.040000
434.133179	146.600000
434.226868	146.180000
434.320526	145.760000
434.414185	146.340000
434.507874	145.940000
434.601562	146.060000
434.695221	145.760000
434.788910	146.400000
434.882538	146.660000
434.976257	146.300000
435.069885	146.400000
435.163574	146.800000
435.257233	146.180000
435.350922	145.660000
435.444580	145.760000
435.538269	145.500000
435.631897	145.620000
435.725616	146.580000
435.819275	146.960000
435.912964	147.560000
436.006622	148.240000
436.100311	148.080000
436.193970	147.160000
436.287628	146.480000
436.381317	146.140000
436.474976	145.480000
436.568665	145.240000
436.662323	145.420000
436.756012	145.820000
436.849670	145.660000
436.943390	145.540000
437.037018	145.360000
437.130737	145.460000
437.224365	144.900000
437.318085	144.960000
437.411713	145.420000
437.505432	145.780000
437.599060	146.340000
437.692780	147.300000
437.786407	147.360000
437.880127	147.260000
437.973755	146.960000
438.067474	146.180000
438.161133	145.460000
438.254822	145.720000
438.348480	145.600000
438.442169	146.520000
438.535828	146.900000
438.629517	146.940000
438.723175	146.320000
438.816864	146.740000
438.910553	145.780000
439.004211	145.580000
439.097900	145.320000
439.191559	145.640000
439.285248	145.080000
439.378906	145.760000
439.472626	145.840000
439.566284	146.040000
439.659973	146.500000
439.753632	146.500000
439.847321	146.660000
439.940979	146.780000
440.034698	146.920000
440.128326	146.360000
440.222046	146.260000
440.315674	145.320000
440.409393	145.460000
440.503082	145.320000
440.596741	145.660000
440.690430	145.960000
440.784088	146.180000
440.877777	145.420000
440.971466	145.520000
441.065125	145.020000
441.158813	144.800000
441.252502	144.700000
441.346161	145.380000
441.439850	145.480000
441.533539	145.820000
441.627197	146.120000
441.720886	146.420000
441.814606	146.460000
441.908234	146.720000
442.001953	146.600000
442.095612	146.440000
442.189301	146.300000
442.282959	146.380000
442.376678	145.660000
442.470306	146.160000
442.564026	145.880000
442.657684	145.840000
442.751404	145.940000
442.845032	146.800000
442.938751	146.060000
443.032440	146.360000
443.126099	146.240000
443.219788	146.560000
443.313477	146.380000
443.407166	146.940000
443.500824	146.940000
443.594513	147.280000
443.688202	146.740000
443.781891	146.120000
443.875549	145.700000
443.969238	145.820000
444.062927	145.660000
444.156647	145.440000
444.250275	145.940000
444.343994	146.100000
444.437653	145.940000
444.531372	145.860000
444.625031	145.860000
444.718719	145.360000
444.812378	145.460000
444.906097	145.320000
444.999756	145.100000
445.093445	145.220000
445.187103	145.680000
445.280823	146.200000
445.374512	145.900000
445.468201	146.300000
445.561859	146.400000
445.655548	146.360000
445.749237	145.800000
445.842926	146.100000
445.936615	146.600000
446.030304	146.200000
446.123962	146.580000
446.217651	146.480000
446.311340	146.660000
446.405029	145.980000
446.498749	146.280000
446.592407	145.460000
446.686096	145.820000
446.779755	145.880000
446.873474	146.080000
446.967133	146.220000
447.060852	146.240000
447.154510	145.740000
447.248230	145.820000
447.341858	145.880000
447.435577	145.360000
447.529236	145.080000
447.622955	145.180000
447.716644	145.080000
447.810333	144.980000
447.904022	145.640000
447.997711	145.740000
448.091400	146.040000
448.185059	145.980000
448.278748	146.320000
448.372437	145.860000
448.466125	146.420000
448.559814	146.400000
448.653503	146.900000
448.747192	146.720000
448.840912	147.260000
448.934570	147.280000
449.028290	147.520000
449.121948	147.040000
449.215637	146.820000
449.309296	146.380000
449.403015	146.420000
449.496674	145.920000
449.590393	145.740000
449.684052	145.860000
449.777771	146.660000
449.871429	146.320000
449.965149	146.700000
450.058838	147.060000
450.152527	147.280000
450.246216	146.660000
450.339905	146.340000
450.433594	146.020000
450.527283	146.660000
450.620972	146.460000
450.714661	146.280000
450.808350	146.740000
450.902039	147.000000
450.995728	146.240000
451.089417	145.840000
451.183105	146.180000
451.276794	146.380000
451.370514	145.540000
451.464172	144.920000
451.557892	144.920000
451.651550	144.860000
451.745270	144.380000
451.838928	144.420000
451.932648	144.840000
452.026306	145.460000
452.120026	145.040000
452.213684	145.460000
452.307404	146.000000
452.401062	146.180000
452.494781	146.180000
452.588470	146.520000
452.682159	146.020000
452.775848	145.860000
452.869537	145.180000
452.963226	144.720000
453.056915	144.840000
453.150604	145.120000
453.244293	145.440000
453.337982	146.740000
453.431671	147.220000
453.525360	147.680000
453.619049	147.760000
453.712769	147.400000
453.806427	146.640000
453.900146	146.060000
453.993805	145.320000
454.087555	145.480000
454.181213	145.880000
454.274933	145.700000
454.368591	145.740000
454.462311	145.580000
454.555969	145.500000
454.649689	145.920000
454.743347	145.980000
454.837067	146.960000
454.930756	147.640000
455.024445	147.720000
455.118134	147.360000
455.211853	147.740000
455.305542	147.080000
455.399231	146.940000
455.492920	146.800000
455.586609	146.660000
455.680298	146.760000
455.773987	146.020000
455.867676	145.960000
455.961365	145.940000
456.055084	145.860000
456.148773	145.300000
456.242493	146.000000
456.336151	145.820000
456.429871	146.160000
456.523529	146.360000
456.617249	146.300000
456.710907	146.780000
456.804626	146.520000
456.898315	145.840000
456.992035	145.720000
457.085693	145.820000
457.179413	145.000000
457.273102	146.020000
457.366791	146.140000
457.460480	146.740000
457.554199	147.460000
457.647888	147.580000
457.741577	146.880000
457.835266	147.160000
457.928955	146.680000
458.022644	146.380000
458.116364	146.800000
458.210052	146.800000
458.303741	147.040000
458.397461	146.560000
458.491119	146.080000
458.584839	145.720000
458.678528	145.300000
458.772247	144.720000
458.865906	145.020000
458.959625	145.720000
459.053284	145.740000
459.147003	145.960000
459.240692	146.820000
459.334412	146.900000
459.428070	146.760000
459.521790	146.900000
459.615479	146.780000
459.709198	146.820000
459.802887	146.540000
459.896576	146.140000
459.990265	146.300000
460.083954	146.700000
460.177673	146.280000
460.271362	146.700000
460.365051	146.660000
460.458740	146.300000
460.552429	145.640000
460.646149	145.480000
460.739838	144.920000
460.833527	145.060000
460.927246	144.960000
461.020905	145.240000
461.114655	145.140000
461.208313	145.760000
461.302032	145.540000
461.395691	145.780000
461.489441	146.040000
461.583099	145.820000
461.676819	145.400000
461.770477	145.900000
461.864197	145.640000
461.957916	145.360000
462.051605	145.100000
462.145294	145.900000
462.238983	145.560000
462.332703	146.220000
462.426392	146.820000
462.520081	147.100000
462.613770	146.320000
462.707489	146.480000
462.801178	146.040000
462.894867	145.640000
462.988556	145.660000
463.082275	145.960000
463.175964	145.800000
463.269684	146.120000
463.363342	146.140000
463.457092	145.820000
463.550751	145.900000
463.644470	146.040000
463.738129	145.880000
463.831879	146.180000
463.925537	147.080000
464.019257	147.200000
464.112946	147.200000
464.206665	146.940000
464.300323	146.720000
464.394043	146.440000
464.487762	146.140000
464.581451	146.400000
464.675140	146.260000
464.768829	146.500000
464.862549	146.460000
464.956238	146.640000
465.049927	146.500000
465.143646	146.900000
465.237335	146.540000
465.331024	147.040000
465.424713	147.140000
465.518433	147.080000
465.612152	146.940000
465.705811	147.140000
465.799561	146.460000
465.893219	146.020000
465.986938	145.980000
466.080597	146.100000
466.174347	146.540000
466.268005	146.800000
466.361725	146.900000
466.455414	146.880000
466.549133	146.540000
466.642792	146.500000
466.736542	146.200000
466.830231	146.100000
466.923920	146.160000
467.017609	146.340000
467.111328	145.580000
467.205017	145.560000
467.298706	145.820000
467.392426	145.680000
467.486115	145.620000
467.579803	145.760000
467.673523	146.100000
467.767212	145.800000
467.860901	145.860000
467.954651	146.140000
468.048309	146.200000
468.142029	145.900000
468.235718	146.140000
468.329437	145.800000
468.423096	145.600000
468.516846	145.520000
468.610504	145.220000
468.704224	145.000000
468.797913	145.180000
468.891632	145.360000
468.985291	145.440000
469.079010	146.240000
469.172729	146.060000
469.266418	146.540000
469.360107	146.400000
469.453827	146.460000
469.547516	146.160000
469.641205	146.620000
469.734924	146.500000
469.828613	146.920000
469.922302	146.840000
470.016022	147.020000
470.109711	146.900000
470.203430	146.520000
470.297150	145.880000
470.390808	146.300000
470.484558	145.980000
470.578217	146.500000
470.671936	146.900000
470.765625	147.480000
470.859344	147.020000
470.953003	147.320000
471.046753	146.620000
471.140411	145.780000
471.234131	145.620000
471.327820	146.300000
471.421539	146.480000
471.515228	146.220000
471.608948	146.900000
471.702637	146.600000
471.796326	145.920000
471.890045	145.760000
471.983734	146.300000
472.077423	145.960000
472.171143	146.140000
472.264832	146.100000
472.358521	145.760000
472.452240	145.240000
472.545929	146.000000
472.639648	146.360000
472.733337	146.980000
472.827057	147.520000
472.920746	147.580000
473.014465	147.620000
473.108124	147.280000
473.201874	147.020000
473.295532	146.540000
473.389252	147.060000
473.482941	146.900000
473.576660	146.780000
473.670319	146.300000
473.764069	146.540000
473.857727	146.700000
473.951477	146.860000
474.045166	147.460000
474.138855	147.460000
474.232574	147.200000
474.326263	147.140000
474.419952	147.180000
474.513672	146.920000
474.607361	147.260000
474.701050	147.760000
474.794769	147.820000
474.888458	147.920000
474.982178	147.740000
475.075867	147.960000
475.169586	147.620000
475.263275	147.500000
475.356995	147.140000
475.450653	146.780000
475.544403	146.080000
475.638062	146.780000
475.731812	146.060000
475.825470	145.900000
475.919189	146.340000
476.012878	146.940000
476.106598	146.020000
476.200256	146.880000
476.294006	146.780000
476.387695	147.000000
476.481384	146.600000
476.575104	146.900000
476.668793	146.240000
476.762512	146.080000
476.856201	146.040000
476.949890	146.020000
477.043610	145.600000
477.137299	145.840000
477.230988	146.000000
477.324707	145.560000
477.418396	146.020000
477.512146	146.280000
477.605804	146.180000
477.699524	146.460000
477.793213	146.320000
477.886932	145.920000
477.980591	145.640000
478.074341	145.680000
478.167999	145.120000
478.261749	145.340000
478.355408	145.300000
478.449127	145.760000
478.542816	146.660000
478.636536	147.540000
478.730225	147.820000
478.823944	148.220000
478.917633	148.180000
479.011322	147.640000
479.105042	147.240000
479.198730	147.220000
479.292450	146.980000
479.386139	147.240000
479.479828	147.460000
479.573547	147.740000
479.667267	147.540000
479.760925	147.480000
479.854675	147.380000
479.948334	147.240000
480.042084	146.860000
480.135742	147.120000
480.229462	146.920000
480.323151	147.000000
480.416870	146.260000
480.510529	145.980000
480.604279	145.460000
480.697937	145.920000
480.791656	145.180000
480.885345	145.320000
480.979065	145.540000
481.072754	145.860000
481.166473	145.860000
481.260132	146.000000
481.353882	146.280000
481.447540	146.220000
481.541260	146.260000
481.635010	145.960000
481.728668	145.920000
481.822388	145.720000
481.916077	145.820000
482.009796	145.660000
482.103485	146.240000
482.197205	146.360000
482.290863	146.720000
482.384613	146.580000
482.478271	146.380000
482.571991	146.020000
482.665680	146.080000
482.759399	146.460000
482.853058	146.960000
482.946808	147.120000
483.040466	147.040000
483.134216	147.160000
483.227875	146.600000
483.321594	146.640000
483.415283	146.680000
483.509003	146.560000
483.602661	146.300000
483.696411	146.560000
483.790070	146.400000
483.883789	146.160000
483.977478	146.420000
484.071198	146.680000
484.164917	146.060000
484.258606	145.380000
484.352325	145.860000
484.445984	146.020000
484.539734	146.000000
484.633392	146.060000
484.727142	146.800000
484.820801	146.500000
484.914520	146.040000
485.008209	146.120000
485.101929	146.400000
485.195587	145.780000
485.289337	145.620000
485.382996	145.760000
485.476715	145.960000
485.570404	146.300000
485.664124	146.520000
485.757782	147.340000
485.851532	147.000000
485.945190	146.500000
486.038910	146.500000
486.132599	146.940000
486.226318	145.960000
486.319977	146.120000
486.413727	146.760000
486.507446	146.260000
486.601105	145.580000
486.694855	145.700000
486.788513	145.480000
486.882233	144.920000
486.975922	145.120000
487.069641	145.120000
487.163300	145.180000
487.257050	146.300000
487.350708	146.100000
487.444427	145.640000
487.538116	145.860000
487.631836	145.780000
487.725494	145.280000
487.819214	145.480000
487.912903	145.960000
488.006622	146.380000
488.100281	146.520000
488.194031	146.380000
488.287689	146.660000
488.381409	146.880000
488.475098	146.620000
488.568817	146.920000
488.662476	146.680000
488.756226	146.140000
488.849945	145.100000
488.943604	145.200000
489.037354	145.220000
489.131012	145.360000
489.224731	145.560000
489.318390	146.020000
489.412140	145.780000
489.505798	145.760000
489.599518	145.760000
489.693207	146.100000
489.786926	146.200000
489.880585	145.900000
489.974335	145.600000
490.067993	146.520000
490.161713	146.600000
490.255371	147.320000
490.349121	147.700000
490.442780	147.920000
490.536499	146.840000
490.630188	146.580000
490.723907	145.720000
490.817566	145.760000
490.911285	145.660000
491.004974	145.580000
491.098694	145.520000
491.192413	146.320000
491.286102	146.100000
491.379822	146.420000
491.473480	146.900000
491.567200	147.060000
491.660889	146.340000
491.754608	146.580000
491.848267	146.200000
491.941986	146.080000
492.035675	145.700000
492.129395	146.220000
492.223053	145.920000
492.316772	146.100000
492.410461	145.940000
492.504181	146.120000
492.597839	145.640000
492.691559	145.960000
492.785248	146.160000
492.878967	146.360000
492.972626	146.020000
493.066345	146.080000
493.160034	145.660000
493.253754	145.480000
493.347412	144.780000
493.441132	145.160000
493.534882	145.780000
493.628540	146.360000
493.722260	146.420000
493.815918	147.100000
493.909668	147.560000
494.003326	147.600000
494.097046	147.120000
494.190704	146.900000
494.284454	146.780000
494.378113	146.600000
494.471832	146.100000
494.565491	146.340000
494.659210	146.720000
494.752899	146.600000
494.846619	146.160000
494.940277	146.580000
495.033997	146.400000
495.127686	145.880000
495.221405	145.720000
495.315063	146.000000
495.408783	145.760000
495.502441	146.120000
495.596191	146.460000
495.689850	146.120000
495.783569	146.460000
495.877228	146.700000
495.970947	146.180000
496.064697	146.140000
496.158356	147.620000
496.252075	147.160000
496.345734	147.040000
496.439453	148.080000
496.533142	148.100000
496.626862	147.580000
496.720520	147.960000
496.814240	147.800000
496.907898	146.920000
497.001617	147.040000
497.095306	146.360000
497.189026	146.120000
497.282684	146.120000
497.376404	146.300000
497.470062	145.960000
497.563782	146.420000
497.657471	146.520000
497.751190	146.540000
497.844849	146.480000
497.938568	146.700000
498.032227	146.400000
498.125946	146.260000
498.219635	146.080000
498.313354	146.180000
498.407074	145.880000
498.500732	146.340000
498.594452	146.600000
498.688110	146.280000
498.781830	145.740000
498.875519	145.780000
498.969238	145.460000
499.062897	145.180000
499.156616	145.600000
499.250275	146.220000
499.343994	145.860000
499.437653	145.840000
499.531372	145.860000
499.625061	146.380000
499.718781	146.180000
499.812439	146.720000
499.906158	146.620000
499.999817	146.440000
500.093536	145.700000
500.187195	145.900000
500.280914	145.620000
500.374573	145.840000
500.468323	145.720000
500.561981	146.160000
500.655701	145.860000
500.749420	146.000000
500.843079	146.240000
500.936798	146.740000
501.030457	146.960000
501.124176	147.160000
501.217834	147.060000
501.311554	146.480000
501.405212	146.060000
501.498962	145.200000
501.592621	145.100000
501.686340	145.540000
501.779999	146.440000
501.873718	146.500000
501.967377	146.940000
502.061096	147.220000
502.154755	146.540000
502.248474	145.860000
502.342133	146.060000
502.435852	146.020000
502.529510	146.240000
502.623230	147.080000
502.716888	146.820000
502.810608	146.620000
502.904266	146.980000
502.997986	146.340000
503.091705	145.720000
503.185364	145.920000
503.279083	146.120000
503.372772	145.780000
503.466492	145.360000
503.560150	145.520000
503.653870	145.720000
503.747528	145.520000
503.841248	145.580000
503.934906	146.240000
504.028625	146.040000
504.122284	146.120000
504.216003	146.900000
504.309662	146.320000
504.403381	146.560000
504.497040	146.720000
504.590759	146.460000
504.684418	146.500000
504.778137	147.480000
504.871796	147.420000
504.965515	147.380000
505.059174	147.480000
505.152893	146.540000
505.246521	145.800000
505.340240	145.360000
505.433899	145.600000
505.527618	145.640000
505.621338	146.000000
505.714996	145.880000
505.808716	146.180000
505.902374	146.660000
505.996094	146.720000
506.089752	146.380000
506.183472	146.840000
506.277130	146.700000
506.370850	146.120000
506.464508	145.700000
506.558228	146.060000
506.651886	145.660000
506.745605	145.920000
506.839264	146.020000
506.932983	146.360000
507.026611	145.980000
507.120331	146.460000
507.213989	145.860000
507.307709	146.060000
507.401367	146.220000
507.495087	147.220000
507.588745	146.940000
507.682465	148.020000
507.776123	147.380000
507.869843	147.200000
507.963531	146.620000
508.057190	147.160000
508.150909	146.340000
508.244568	146.740000
508.338287	146.500000
508.431946	146.540000
508.525665	145.940000
508.619324	145.880000
508.713013	146.080000
508.806671	146.620000
508.900391	147.260000
508.994049	147.580000
509.087769	147.440000
509.181427	147.180000
509.275146	146.840000
509.368774	145.820000
509.462494	145.400000
509.556152	145.820000
509.649872	145.960000
509.743530	146.360000
509.837250	146.740000
509.930878	147.180000
510.024597	146.900000
510.118256	146.920000
510.211975	146.340000
510.305695	145.900000
510.399353	145.960000
510.493042	146.680000
510.586700	146.500000
510.680420	147.360000
510.774078	147.440000
510.867798	147.360000
510.961426	146.280000
511.055145	146.420000
511.148804	145.800000
511.242523	146.220000
511.336151	146.240000
511.429871	146.820000
511.523529	146.740000
511.617249	146.460000
511.710876	146.140000
511.804596	145.720000
511.898254	145.700000
511.991974	145.920000
512.085632	145.900000
512.179321	146.320000
512.272949	146.980000
512.366699	147.440000
512.460327	147.240000
512.554077	148.340000
512.647766	147.820000
512.741394	147.560000
512.835144	147.600000
512.928772	147.320000
513.022461	146.740000
513.116150	146.800000
513.209839	146.960000
513.303467	146.340000
513.397217	146.340000
513.490845	146.160000
513.584595	145.980000
513.678223	145.560000
513.771912	145.160000
513.865601	145.220000
513.959290	144.900000
514.052917	144.960000
514.146667	145.660000
514.240295	146.540000
514.333984	147.120000
514.427673	147.220000
514.521362	147.760000
514.614990	146.800000
514.708740	146.540000
514.802368	146.240000
514.896057	146.540000
514.989746	146.920000
515.083435	147.260000
515.177124	147.440000
515.270752	147.020000
515.364502	146.860000
515.458130	146.720000
515.551819	146.540000
515.645508	146.220000
515.739197	146.560000
515.832825	146.700000
515.926575	146.120000
516.020203	146.560000
516.113892	147.140000
516.207520	146.780000
516.301270	146.760000
516.394897	146.800000
516.488586	147.060000
516.582275	146.740000
516.675964	146.360000
516.769592	146.080000
516.863281	146.540000
516.956970	146.540000
517.050659	146.260000
517.144287	146.820000
517.238037	147.120000
517.331665	146.520000
517.425354	146.080000
517.519043	146.120000
517.612732	146.380000
517.706421	146.320000
517.800049	146.300000
517.893738	146.060000
517.987427	145.960000
518.081116	145.400000
518.174744	144.840000
518.268433	145.160000
518.362122	145.900000
518.455811	145.820000
518.549438	146.460000
518.643127	147.740000
518.736816	147.460000
518.830505	146.740000
518.924133	146.520000
519.017822	146.700000
519.111511	146.180000
519.205200	146.740000
519.298828	147.020000
519.392517	147.120000
519.486206	147.220000
519.579895	147.060000
519.673523	146.580000
519.767212	146.500000
519.860901	147.160000
519.954590	146.660000
520.048279	146.100000
520.141907	146.120000
520.235596	147.040000
520.329224	146.980000
520.422974	147.200000
520.516602	147.400000
520.610291	147.020000
520.703918	146.420000
520.797607	146.220000
520.891296	146.080000
520.984985	146.360000
521.078613	147.320000
521.172302	146.760000
521.265930	147.720000
521.359680	148.280000
521.453308	148.060000
521.546997	147.760000
521.640625	148.160000
521.734314	147.140000
521.827942	146.460000
521.921692	146.960000
522.015320	146.840000
522.109009	146.640000
522.202698	146.540000
522.296326	146.240000
522.390015	146.280000
522.483704	146.340000
522.577393	146.080000
522.671021	145.840000
522.764709	145.600000
522.858337	145.600000
522.952026	145.660000
523.045654	146.380000
523.139404	147.080000
523.233032	147.680000
523.326721	147.380000
523.420349	147.100000
523.514038	146.480000
523.607666	146.680000
523.701355	146.100000
523.795044	146.160000
523.888733	146.660000
523.982361	146.900000
524.076050	146.260000
524.169678	147.020000
524.263367	146.680000
524.356995	146.140000
524.450684	146.060000
524.544373	146.000000
524.638062	145.900000
524.731750	146.220000
524.825378	146.140000
524.919067	145.800000
525.012695	145.720000
525.106384	145.280000
525.200012	145.500000
525.293701	145.740000
525.387329	146.380000
525.481018	146.480000
525.574646	146.760000
525.668396	146.500000
525.762024	146.640000
525.855713	146.660000
525.949341	146.240000
526.043030	146.640000
526.136658	146.460000
526.230347	146.160000
526.323975	145.660000
526.417664	146.140000
526.511292	145.940000
526.604980	146.100000
526.698608	146.020000
526.792297	146.160000
526.885925	146.160000
526.979614	146.200000
527.073303	146.140000
527.166931	146.140000
527.260620	146.340000
527.354309	146.700000
527.447998	146.440000
527.541626	146.140000
527.635315	146.500000
527.728943	146.800000
527.822632	146.760000
527.916260	146.800000
528.009949	147.300000
528.103577	146.820000
528.197266	146.140000
528.290894	145.920000
528.384583	145.820000
528.478210	145.700000
528.571899	146.180000
528.665527	146.680000
528.759216	146.760000
528.852844	147.180000
528.946533	147.180000
529.040161	147.360000
529.133850	147.080000
529.227478	147.320000
529.321167	147.380000
529.414856	147.660000
529.508484	147.740000
529.602173	147.160000
529.695801	146.660000
529.789490	146.580000
529.883057	146.320000
529.976746	146.600000
530.070374	147.540000
530.164062	147.840000
530.257690	147.740000
530.351379	147.800000
530.445007	147.260000
530.538696	146.580000
530.632324	146.820000
530.726013	146.880000
530.819641	147.000000
530.913330	146.920000
531.006958	146.940000
531.100647	146.780000
531.194275	146.720000
531.287964	146.280000
531.381592	145.800000
531.475220	145.920000
531.568848	145.800000
531.662537	145.520000
531.756226	146.100000
531.849854	146.500000
531.943542	146.580000
532.037170	146.020000
532.130859	146.880000
532.224487	146.580000
532.318176	146.480000
532.411804	147.020000
532.505432	147.520000
532.599060	146.920000
532.692749	146.820000
532.786377	147.080000
532.880066	146.340000
532.973694	145.960000
533.067383	145.800000
533.161011	145.860000
533.254639	145.800000
533.348267	145.760000
533.441956	146.300000
533.535583	146.340000
533.629272	146.560000
533.722900	146.120000
533.816589	146.240000
533.910156	146.300000
534.003845	146.000000
534.097534	146.020000
534.191162	146.560000
534.284851	147.000000
534.378479	146.600000
534.472107	146.900000
534.565735	146.640000
534.659424	146.920000
534.753052	147.060000
534.846741	146.720000
534.940369	147.240000
535.033997	147.220000
535.127625	146.760000
535.221313	146.860000
535.314941	147.240000
535.408630	146.440000
535.502197	146.740000
535.595886	146.640000
535.689514	146.360000
535.783203	146.680000
535.876831	147.320000
535.970459	147.060000
536.064087	147.000000
536.157776	147.000000
536.251404	146.780000
536.345093	146.340000
536.438721	146.440000
536.532349	146.900000
536.626038	146.640000
536.719666	146.780000
536.813293	146.900000
536.906921	146.940000
537.000610	147.060000
537.094238	146.800000
537.187866	146.860000
537.281494	146.700000
537.375183	146.860000
537.468811	146.280000
537.562439	146.780000
537.656067	146.460000
537.749756	146.660000
537.843384	146.900000
537.937012	147.260000
538.030640	146.800000
538.124329	146.660000
538.217896	146.940000
538.311584	146.520000
538.405212	146.200000
538.498901	146.980000
538.592468	147.680000
538.686157	147.000000
538.779785	146.200000
538.873413	146.240000
538.967102	145.500000
539.060730	145.080000
539.154358	145.640000
539.247986	146.540000
539.341675	146.600000
539.435242	146.580000
539.528931	146.920000
539.622559	146.160000
539.716187	146.340000
539.809814	146.260000
539.903503	146.520000
539.997070	146.160000
540.090759	146.580000
540.184387	146.400000
540.278015	146.700000
540.371643	146.900000
540.465332	147.060000
540.558899	146.840000
540.652588	146.540000
540.746216	146.260000
540.839844	146.680000
540.933472	146.660000
541.027100	146.700000
541.120728	147.280000
541.214417	147.200000
541.308044	146.780000
541.401672	146.360000
541.495300	146.320000
541.588928	145.720000
541.682617	145.840000
541.776184	145.520000
541.869873	145.800000
541.963440	146.000000
542.057129	146.080000
542.150757	146.020000
542.244385	145.900000
542.338013	145.800000
542.431641	145.980000
542.525269	146.100000
542.618958	146.820000
542.712524	147.180000
542.806213	146.840000
542.899780	146.840000
542.993469	146.660000
543.087036	146.020000
543.180725	145.600000
543.274292	146.440000
543.367981	146.620000
543.461548	146.860000
543.555237	146.760000
543.648926	147.360000
543.742493	147.500000
543.836182	147.200000
543.929749	147.280000
544.023437	147.240000
544.117004	147.040000
544.210693	146.680000
544.304260	146.580000
544.397949	146.300000
544.491516	146.820000
544.585205	146.760000
544.678772	146.100000
544.772461	146.460000
544.866028	146.360000
544.959717	146.360000
545.053284	146.020000
545.146973	146.500000
545.240540	146.360000
545.334229	146.940000
545.427795	146.780000
545.521423	146.860000
545.615051	146.880000
545.708679	147.180000
545.802307	146.880000
545.895935	147.180000
545.989624	147.880000
546.083191	147.580000
546.176880	147.600000
546.270447	147.120000
546.364136	147.240000
546.457703	146.680000
546.551331	146.940000
546.644958	146.920000
546.738586	147.420000
546.832214	146.780000
546.925842	146.680000
547.019409	147.000000
547.113098	146.520000
547.206665	146.500000
547.300354	146.340000
547.393921	146.520000
547.487549	146.700000
547.581177	146.680000
547.674805	146.260000
547.768433	146.160000
547.862061	146.180000
547.955627	145.440000
548.049316	145.780000
548.142883	145.980000
548.236572	146.620000
548.330139	146.740000
548.423767	146.780000
548.517456	146.820000
548.611023	147.140000
548.704651	146.180000
548.798279	146.240000
548.891907	146.820000
548.985474	146.540000
549.079163	146.600000
549.172729	146.940000
549.266357	146.200000
549.359985	146.060000
549.453613	145.440000
549.547180	145.160000
549.640869	145.600000
549.734436	145.960000
549.828064	145.980000
549.921631	146.380000
550.015320	146.220000
550.108887	146.340000
550.202515	146.600000
550.296143	146.280000
550.389771	146.560000
550.483337	146.460000
550.576965	146.300000
550.670593	146.780000
550.764221	146.760000
550.857849	146.560000
550.951477	146.640000
551.045105	146.240000
551.138672	145.640000
551.232300	145.520000
551.325928	145.760000
551.419556	145.820000
551.513123	145.920000
551.606750	145.720000
551.700378	146.060000
551.794006	145.780000
551.887573	145.720000
551.981201	146.220000
552.074768	146.160000
552.168457	145.660000
552.262024	146.580000
552.355652	146.780000
552.449219	147.120000
552.542847	147.340000
552.636475	147.400000
552.730103	146.360000
552.823669	145.920000
552.917297	145.240000
553.010864	145.080000
553.104553	145.280000
553.198181	145.200000
553.291748	145.800000
553.385376	145.960000
553.478943	145.840000
553.572571	146.140000
553.666199	146.580000
553.759827	146.180000
553.853394	145.540000
553.947021	145.960000
554.040588	145.740000
554.134216	145.540000
554.227783	146.420000
554.321411	147.120000
554.415039	146.660000
554.508667	146.600000
554.602234	147.020000
554.695862	145.920000
554.789429	145.780000
554.883057	145.960000
554.976624	146.040000
555.070251	145.840000
555.163818	145.900000
555.257507	146.100000
555.351074	145.980000
555.444702	146.720000
555.538330	146.140000
555.631897	146.800000
555.725525	146.580000
555.819092	146.480000
555.912720	145.360000
556.006287	146.360000
556.099915	145.800000
556.193481	145.960000
556.287109	146.640000
556.380676	146.800000
556.474304	146.420000
556.567871	146.740000
556.661499	146.440000
556.755066	146.220000
556.848694	146.660000
556.942261	146.560000
557.035889	146.500000
557.129517	146.680000
557.223145	147.120000
557.316711	147.180000
557.410339	147.240000
557.503906	147.220000
557.597473	147.380000
557.691040	147.020000
557.784668	146.720000
557.878296	146.740000
557.971863	146.780000
558.065491	146.680000
558.159058	146.500000
558.252686	147.460000
558.346252	148.120000
558.439880	147.660000
558.533447	147.460000
558.627075	147.080000
558.720642	146.060000
558.814270	145.340000
558.907837	145.680000
559.001465	145.320000
559.095032	146.080000
559.188660	146.320000
559.282227	145.900000
559.375854	146.320000
559.469360	146.480000
559.562988	146.540000
559.656555	146.260000
559.750183	146.660000
559.843750	146.640000
559.937378	146.880000
560.030945	146.460000
560.124573	0.000000
560.218140	0.000000
560.311707	0.000000
560.405334	0.000000
560.498901	0.000000
560.592529	0.000000
560.686096	0.000000
560.779724	0.000000
560.873291	0.000000
560.966858	0.000000
561.060425	0.000000
561.154053	0.000000
561.247620	0.000000
561.341248	0.000000
561.434814	0.000000
561.528381	0.000000
561.621948	0.000000
561.715576	0.000000
561.809143	0.000000
561.902771	0.000000
561.996277	0.000000
562.089905	0.000000
562.183472	0.000000
562.277100	0.000000
