Model Number: SPM-002-B   
Serial Number: 70087108
Firmware Version: 004.15.4
Exposure Time: 100000.000000us
Data Taken on: 11-12-2020 18:48:23.979
Wavelength	Amplitude
221.570786	0.000000
221.663406	0.000000
221.756027	0.000000
221.848648	0.000000
221.941269	0.000000
222.033905	0.000000
222.126526	0.000000
222.219162	0.000000
222.311798	0.000000
222.404419	0.000000
222.497055	0.000000
222.589676	0.000000
222.682312	0.000000
222.774933	0.000000
222.867569	0.000000
222.960205	0.000000
223.052841	0.000000
223.145462	0.000000
223.238098	0.000000
223.330734	0.000000
223.423386	0.000000
223.516022	0.000000
223.608658	0.000000
223.701309	0.000000
223.793945	0.000000
223.886581	0.000000
223.979218	0.000000
224.071869	0.000000
224.164505	0.000000
224.257156	0.000000
224.349792	0.000000
224.442444	0.000000
224.535095	0.000000
224.627747	0.000000
224.720398	0.000000
224.813034	0.000000
224.905685	0.000000
224.998337	145.540000
225.090988	145.420000
225.183640	145.480000
225.276291	145.340000
225.368942	145.840000
225.461594	146.120000
225.554245	146.140000
225.646912	146.180000
225.739578	146.840000
225.832230	146.800000
225.924896	145.960000
226.017548	146.280000
226.110199	146.560000
226.202866	145.500000
226.295532	145.400000
226.388184	145.700000
226.480850	145.160000
226.573517	144.740000
226.666168	145.680000
226.758835	145.800000
226.851501	146.240000
226.944183	146.380000
227.036850	146.160000
227.129517	145.860000
227.222183	146.060000
227.314850	146.100000
227.407516	146.320000
227.500198	147.000000
227.592865	146.660000
227.685532	146.280000
227.778214	145.720000
227.870880	146.080000
227.963562	146.400000
228.056229	147.040000
228.148926	147.000000
228.241592	147.740000
228.334274	147.160000
228.426956	146.960000
228.519638	146.780000
228.612305	146.500000
228.704987	146.260000
228.797668	146.380000
228.890350	145.880000
228.983032	145.320000
229.075714	145.940000
229.168396	145.760000
229.261108	145.200000
229.353790	145.040000
229.446472	145.260000
229.539169	145.220000
229.631851	144.660000
229.724533	145.140000
229.817230	145.700000
229.909912	146.440000
230.002609	146.200000
230.095306	146.600000
230.187988	146.800000
230.280685	146.380000
230.373383	145.360000
230.466095	145.380000
230.558792	145.760000
230.651474	145.380000
230.744171	145.280000
230.836868	145.100000
230.929581	145.360000
231.022278	145.320000
231.114975	145.720000
231.207672	145.740000
231.300369	146.580000
231.393082	146.700000
231.485779	146.480000
231.578506	146.000000
231.671204	146.260000
231.763916	146.200000
231.856613	145.800000
231.949326	145.900000
232.042023	146.100000
232.134735	145.920000
232.227448	145.540000
232.320160	146.120000
232.412872	146.140000
232.505585	146.960000
232.598297	147.500000
232.691010	147.480000
232.783722	146.980000
232.876450	147.420000
232.969162	146.700000
233.061874	146.000000
233.154587	145.860000
233.247314	146.360000
233.340027	145.860000
233.432739	146.180000
233.525467	146.500000
233.618179	146.940000
233.710907	146.260000
233.803635	146.860000
233.896347	146.660000
233.989090	147.280000
234.081818	147.120000
234.174545	147.700000
234.267258	146.820000
234.359985	146.960000
234.452713	146.300000
234.545441	146.160000
234.638168	145.580000
234.730896	146.180000
234.823639	145.840000
234.916367	146.300000
235.009094	146.240000
235.101822	146.360000
235.194580	145.780000
235.287308	145.900000
235.380051	145.380000
235.472778	145.760000
235.565521	146.280000
235.658249	146.400000
235.750992	146.500000
235.843719	146.740000
235.936462	146.780000
236.029205	146.000000
236.121948	145.820000
236.214691	145.960000
236.307449	146.120000
236.400192	145.700000
236.492935	145.800000
236.585678	146.020000
236.678421	146.080000
236.771164	145.720000
236.863907	146.420000
236.956665	146.880000
237.049408	148.340000
237.142151	147.840000
237.234909	148.720000
237.327652	148.360000
237.420410	147.840000
237.513153	146.920000
237.605927	146.860000
237.698669	146.060000
237.791428	145.680000
237.884186	146.300000
237.976944	145.820000
238.069702	146.140000
238.162445	145.820000
238.255203	146.040000
238.347961	146.200000
238.440720	146.360000
238.533478	146.040000
238.626266	145.880000
238.719025	145.940000
238.811783	145.600000
238.904541	145.320000
238.997314	145.580000
239.090073	145.520000
239.182831	145.620000
239.275604	146.100000
239.368362	146.000000
239.461136	146.100000
239.553909	146.320000
239.646667	146.220000
239.739441	145.720000
239.832214	146.060000
239.925003	146.000000
240.017761	146.760000
240.110535	147.100000
240.203308	146.800000
240.296082	146.980000
240.388855	147.020000
240.481628	146.780000
240.574417	146.480000
240.667191	146.900000
240.759964	146.380000
240.852737	146.160000
240.945526	145.880000
241.038315	145.920000
241.131088	145.780000
241.223877	146.200000
241.316650	146.060000
241.409439	146.220000
241.502228	145.900000
241.595001	146.480000
241.687790	146.520000
241.780579	146.660000
241.873367	146.920000
241.966141	147.240000
242.058929	146.540000
242.151718	146.380000
242.244507	146.900000
242.337311	146.020000
242.430099	146.360000
242.522903	146.780000
242.615692	146.500000
242.708481	146.020000
242.801270	146.880000
242.894073	146.720000
242.986862	146.800000
243.079651	147.480000
243.172455	147.460000
243.265244	147.100000
243.358063	146.360000
243.450867	146.540000
243.543655	146.160000
243.636459	146.480000
243.729263	146.740000
243.822067	147.080000
243.914856	147.080000
244.007660	147.280000
244.100464	146.920000
244.193268	146.480000
244.286072	146.780000
244.378876	146.440000
244.471680	146.240000
244.564499	146.440000
244.657318	147.320000
244.750122	147.660000
244.842926	146.900000
244.935745	147.140000
245.028549	146.900000
245.121368	146.180000
245.214172	145.920000
245.306992	146.780000
245.399796	146.200000
245.492615	146.560000
245.585434	146.360000
245.678253	146.320000
245.771072	145.940000
245.863892	146.920000
245.956711	146.960000
246.049530	146.820000
246.142349	146.400000
246.235168	146.620000
246.327988	146.700000
246.420807	146.480000
246.513626	146.640000
246.606445	146.740000
246.699280	146.600000
246.792099	146.060000
246.884918	145.780000
246.977753	145.600000
247.070587	145.560000
247.163422	145.500000
247.256241	145.520000
247.349075	146.100000
247.441895	146.240000
247.534729	146.480000
247.627563	146.460000
247.720383	146.980000
247.813217	146.520000
247.906052	146.440000
247.998886	146.140000
248.091736	146.020000
248.184570	145.320000
248.277405	145.400000
248.370239	146.320000
248.463074	147.340000
248.555908	147.740000
248.648743	147.920000
248.741592	148.400000
248.834427	147.720000
248.927261	146.620000
249.020111	147.100000
249.112946	147.580000
249.205795	147.120000
249.298630	147.280000
249.391495	147.540000
249.484344	146.740000
249.577179	146.320000
249.670029	146.440000
249.762878	146.920000
249.855728	147.100000
249.948563	147.180000
250.041412	146.640000
250.134262	146.420000
250.227112	146.100000
250.319962	146.100000
250.412827	145.940000
250.505692	145.800000
250.598541	145.980000
250.691391	145.600000
250.784241	145.220000
250.877106	145.540000
250.969955	145.800000
251.062805	146.060000
251.155670	146.680000
251.248520	146.800000
251.341385	146.820000
251.434235	146.760000
251.527100	146.620000
251.619965	146.060000
251.712814	146.780000
251.805695	146.780000
251.898560	147.100000
251.991425	147.240000
252.084290	147.340000
252.177155	146.400000
252.270020	145.880000
252.362885	145.800000
252.455750	145.460000
252.548615	145.480000
252.641479	145.720000
252.734360	145.960000
252.827240	145.780000
252.920105	146.120000
253.012970	145.760000
253.105850	145.840000
253.198715	145.840000
253.291595	145.860000
253.384460	145.300000
253.477341	145.300000
253.570221	145.560000
253.663086	145.160000
253.755966	145.800000
253.848846	145.900000
253.941727	146.600000
254.034592	146.120000
254.127472	145.980000
254.220367	145.780000
254.313248	146.140000
254.406128	145.440000
254.499008	145.900000
254.591904	146.880000
254.684784	147.000000
254.777664	147.060000
254.870544	147.000000
254.963440	146.800000
255.056335	146.920000
255.149216	146.820000
255.242111	147.100000
255.334991	147.760000
255.427887	147.840000
255.520767	147.340000
255.613663	147.300000
255.706558	146.620000
255.799438	146.100000
255.892334	145.740000
255.985229	145.720000
256.078125	145.380000
256.171021	145.480000
256.263916	146.280000
256.356812	146.580000
256.449707	146.780000
256.542603	146.760000
256.635498	147.380000
256.728394	146.820000
256.821289	146.620000
256.914215	146.480000
257.007080	146.900000
257.100006	146.860000
257.192932	147.160000
257.285828	147.560000
257.378723	147.160000
257.471619	146.820000
257.564545	146.320000
257.657440	146.380000
257.750336	146.440000
257.843262	146.380000
257.936157	147.500000
258.029053	147.680000
258.121979	147.740000
258.214874	147.600000
258.307800	147.900000
258.400696	146.340000
258.493622	146.280000
258.586517	145.340000
258.679443	145.560000
258.772339	145.280000
258.865265	145.620000
258.958160	145.080000
259.051086	146.320000
259.144012	145.840000
259.236938	146.340000
259.329834	146.580000
259.422791	146.480000
259.515717	145.240000
259.608612	145.100000
259.701538	145.180000
259.794464	144.820000
259.887390	145.040000
259.980316	145.460000
260.073212	145.620000
260.166138	144.840000
260.259064	145.360000
260.351990	146.020000
260.444916	145.980000
260.537842	146.400000
260.630768	147.140000
260.723694	146.960000
260.816620	146.660000
260.909546	146.840000
261.002472	146.140000
261.095398	145.740000
261.188354	145.540000
261.281281	145.280000
261.374207	145.380000
261.467133	146.300000
261.560089	146.560000
261.653015	146.360000
261.745972	147.180000
261.838867	147.300000
261.931824	147.060000
262.024780	146.420000
262.117706	146.820000
262.210663	146.600000
262.303589	146.380000
262.396515	146.220000
262.489471	147.280000
262.582397	147.300000
262.675354	146.800000
262.768280	146.960000
262.861237	147.200000
262.954163	146.800000
263.047119	146.680000
263.140045	146.660000
263.233002	146.340000
263.325958	146.000000
263.418884	145.580000
263.511841	145.700000
263.604797	145.840000
263.697723	145.800000
263.790680	145.960000
263.883636	146.300000
263.976593	145.940000
264.069550	145.640000
264.162476	145.380000
264.255463	145.420000
264.348419	145.480000
264.441376	145.780000
264.534332	145.860000
264.627289	146.200000
264.720245	146.660000
264.813202	146.120000
264.906158	146.380000
264.999115	146.780000
265.092072	147.000000
265.185028	147.060000
265.277985	147.560000
265.370941	147.360000
265.463898	147.060000
265.556854	146.700000
265.649811	145.460000
265.742798	145.480000
265.835754	145.560000
265.928711	145.960000
266.021667	145.980000
266.114655	146.540000
266.207611	146.780000
266.300568	146.240000
266.393585	145.660000
266.486511	146.100000
266.579498	145.500000
266.672485	145.220000
266.765442	145.440000
266.858429	146.080000
266.951385	145.880000
267.044342	146.540000
267.137329	146.600000
267.230316	146.960000
267.323273	146.560000
267.416260	147.040000
267.509216	146.660000
267.602203	146.600000
267.695160	146.920000
267.788147	146.980000
267.881134	146.120000
267.974091	146.520000
268.067078	146.420000
268.160065	145.760000
268.253052	145.840000
268.346008	145.880000
268.438995	145.360000
268.531982	145.800000
268.624969	145.860000
268.717987	145.660000
268.810944	146.180000
268.903961	146.540000
268.996948	145.960000
269.089905	146.460000
269.182892	146.500000
269.275879	146.360000
269.368866	146.260000
269.461853	146.400000
269.554871	146.160000
269.647858	146.260000
269.740845	146.720000
269.833832	147.160000
269.926819	146.820000
270.019806	146.660000
270.112793	146.460000
270.205811	146.280000
270.298798	145.880000
270.391785	146.800000
270.484772	146.700000
270.577789	146.720000
270.670776	146.280000
270.763763	146.080000
270.856750	145.960000
270.949768	145.760000
271.042786	145.660000
271.135773	145.660000
271.228790	146.280000
271.321808	145.720000
271.414795	145.460000
271.507782	145.440000
271.600800	145.420000
271.693817	145.120000
271.786804	145.500000
271.879822	145.980000
271.972809	146.120000
272.065826	146.600000
272.158844	146.380000
272.251831	146.980000
272.344849	147.020000
272.437866	146.800000
272.530853	146.400000
272.623871	146.580000
272.716888	145.620000
272.809906	145.760000
272.902893	145.940000
272.995911	145.580000
273.088928	145.380000
273.181946	145.640000
273.274963	145.640000
273.367981	145.580000
273.460999	145.980000
273.554047	146.380000
273.647003	147.080000
273.740051	146.700000
273.833069	147.160000
273.926086	147.060000
274.019135	146.660000
274.112152	146.040000
274.205170	146.080000
274.298187	146.300000
274.391205	146.260000
274.484222	146.480000
274.577240	146.460000
274.670258	146.500000
274.763306	145.720000
274.856323	145.660000
274.949341	145.680000
275.042358	146.140000
275.135406	146.000000
275.228424	146.220000
275.321442	146.320000
275.414490	145.960000
275.507507	146.040000
275.600525	146.300000
275.693573	146.300000
275.786591	146.060000
275.879669	146.440000
275.972656	145.680000
276.065735	146.060000
276.158752	146.340000
276.251801	147.160000
276.344818	147.060000
276.437866	147.080000
276.530884	146.500000
276.623932	145.700000
276.716980	145.620000
276.809998	145.780000
276.903046	146.240000
276.996094	147.180000
277.089111	148.320000
277.182159	148.620000
277.275208	148.180000
277.368256	147.820000
277.461304	147.620000
277.554321	146.760000
277.647369	146.300000
277.740417	146.280000
277.833466	146.200000
277.926514	145.680000
278.019562	146.260000
278.112610	145.820000
278.205688	146.420000
278.298706	146.720000
278.391785	146.480000
278.484833	145.880000
278.577881	145.960000
278.670929	145.720000
278.763977	145.660000
278.857025	146.120000
278.950073	146.240000
279.043121	145.940000
279.136169	146.080000
279.229248	146.000000
279.322296	145.880000
279.415344	145.880000
279.508392	146.020000
279.601440	146.060000
279.694519	145.940000
279.787567	145.760000
279.880615	145.640000
279.973694	145.720000
280.066742	145.740000
280.159790	145.920000
280.252869	145.780000
280.345917	146.280000
280.438995	146.340000
280.532074	145.780000
280.625122	146.040000
280.718201	147.020000
280.811279	146.820000
280.904327	147.020000
280.997406	147.440000
281.090454	147.360000
281.183533	146.480000
281.276581	146.500000
281.369659	146.160000
281.462738	146.080000
281.555786	146.080000
281.648865	146.120000
281.741943	145.900000
281.835022	146.420000
281.928070	146.500000
282.021149	146.260000
282.114227	146.460000
282.207306	146.560000
282.300385	146.600000
282.393433	146.540000
282.486511	146.580000
282.579590	147.060000
282.672668	147.500000
282.765747	147.120000
282.858856	146.800000
282.951904	146.680000
283.045013	146.400000
283.138062	146.520000
283.231171	146.840000
283.324249	147.460000
283.417328	147.600000
283.510406	147.220000
283.603485	146.900000
283.696564	146.640000
283.789642	146.520000
283.882751	146.140000
283.975830	146.860000
284.068909	146.660000
284.161987	147.460000
284.255066	146.680000
284.348175	147.240000
284.441254	146.900000
284.534332	147.340000
284.627441	146.620000
284.720520	146.660000
284.813599	146.340000
284.906708	146.220000
284.999786	145.500000
285.092896	145.200000
285.185974	146.540000
285.279053	146.060000
285.372192	146.000000
285.465240	146.660000
285.558380	146.720000
285.651459	145.860000
285.744568	146.880000
285.837677	146.840000
285.930756	146.700000
286.023865	146.560000
286.116943	146.280000
286.210052	146.120000
286.303162	146.000000
286.396240	146.000000
286.489349	146.100000
286.582458	146.520000
286.675568	146.260000
286.768646	146.200000
286.861755	146.340000
286.954865	146.980000
287.047974	146.400000
287.141083	146.480000
287.234161	146.520000
287.327271	146.140000
287.420380	146.080000
287.513519	146.460000
287.606598	146.340000
287.699738	146.640000
287.792816	146.700000
287.885956	146.460000
287.979034	146.480000
288.072174	146.600000
288.165283	146.080000
288.258392	146.300000
288.351501	146.000000
288.444611	146.140000
288.537720	146.280000
288.630859	146.560000
288.723969	146.660000
288.817078	146.860000
288.910187	146.800000
289.003296	146.220000
289.096436	145.660000
289.189545	145.040000
289.282654	144.680000
289.375763	144.840000
289.468903	145.360000
289.562012	146.020000
289.655121	146.320000
289.748260	146.660000
289.841400	146.720000
289.934509	146.680000
290.027649	146.960000
290.120728	147.000000
290.213898	146.920000
290.306976	146.820000
290.400146	146.980000
290.493256	146.320000
290.586395	146.420000
290.679535	146.460000
290.772644	146.120000
290.865784	145.280000
290.958893	145.380000
291.052032	145.140000
291.145172	145.280000
291.238281	145.080000
291.331421	145.440000
291.424561	146.220000
291.517670	146.160000
291.610809	145.920000
291.703949	145.980000
291.797089	146.120000
291.890228	145.200000
291.983337	145.240000
292.076477	145.120000
292.169617	145.820000
292.262756	146.020000
292.355927	146.220000
292.449036	146.100000
292.542206	146.520000
292.635315	146.400000
292.728485	146.640000
292.821625	146.300000
292.914764	147.380000
293.007904	147.740000
293.101044	147.700000
293.194183	147.240000
293.287323	147.520000
293.380463	146.860000
293.473602	146.440000
293.566742	146.560000
293.659882	147.260000
293.753021	147.440000
293.846191	147.000000
293.939331	146.800000
294.032471	146.660000
294.125610	145.960000
294.218781	146.480000
294.311920	147.120000
294.405060	147.220000
294.498230	147.100000
294.591370	147.220000
294.684540	146.360000
294.777679	145.920000
294.870850	146.100000
294.963959	146.120000
295.057159	146.000000
295.150299	146.620000
295.243469	146.600000
295.336609	146.280000
295.429779	146.080000
295.522919	146.460000
295.616089	146.400000
295.709229	147.080000
295.802399	147.120000
295.895569	147.220000
295.988708	146.940000
296.081879	146.740000
296.175018	145.900000
296.268188	145.880000
296.361359	146.480000
296.454529	146.740000
296.547668	146.760000
296.640839	147.300000
296.734009	147.020000
296.827179	146.620000
296.920319	146.700000
297.013519	146.720000
297.106659	146.400000
297.199860	146.780000
297.292999	146.800000
297.386200	146.320000
297.479309	146.200000
297.572510	146.180000
297.665680	145.740000
297.758850	145.640000
297.852020	145.780000
297.945190	145.460000
298.038361	145.120000
298.131531	146.240000
298.224701	145.860000
298.317871	145.660000
298.411072	145.700000
298.504242	145.680000
298.597412	144.960000
298.690582	145.600000
298.783752	145.380000
298.876923	145.980000
298.970093	146.420000
299.063293	146.740000
299.156464	146.780000
299.249634	147.240000
299.342834	146.820000
299.436005	147.040000
299.529205	146.860000
299.622345	146.700000
299.715576	146.120000
299.808716	146.120000
299.901917	145.800000
299.995117	145.860000
300.088287	146.120000
300.181488	146.220000
300.274658	146.340000
300.367828	146.580000
300.461029	146.540000
300.554199	146.480000
300.647400	146.540000
300.740601	146.680000
300.833771	146.260000
300.926971	146.520000
301.020142	145.780000
301.113342	145.900000
301.206512	145.900000
301.299713	146.420000
301.392914	146.280000
301.486084	147.020000
301.579285	146.800000
301.672516	147.140000
301.765686	146.800000
301.858887	146.420000
301.952057	146.280000
302.045288	146.460000
302.138458	146.160000
302.231659	146.100000
302.324860	146.400000
302.418060	146.020000
302.511261	146.040000
302.604462	146.020000
302.697662	145.600000
302.790863	145.180000
302.884064	144.860000
302.977264	144.900000
303.070465	145.060000
303.163666	145.880000
303.256866	146.340000
303.350067	146.840000
303.443268	146.980000
303.536469	146.940000
303.629669	146.620000
303.722870	146.820000
303.816071	146.160000
303.909271	146.300000
304.002472	145.680000
304.095673	145.320000
304.188934	144.720000
304.282104	146.060000
304.375336	145.800000
304.468506	146.100000
304.561768	146.400000
304.654968	146.920000
304.748169	146.120000
304.841370	146.080000
304.934601	146.200000
305.027802	145.840000
305.121002	145.400000
305.214233	145.600000
305.307434	145.560000
305.400665	146.140000
305.493866	146.380000
305.587097	146.580000
305.680298	146.260000
305.773499	146.820000
305.866730	146.220000
305.959930	146.740000
306.053162	147.060000
306.146393	147.100000
306.239594	146.360000
306.332825	146.280000
306.426025	146.280000
306.519287	145.940000
306.612488	146.220000
306.705719	146.580000
306.798920	146.800000
306.892181	146.320000
306.985352	146.040000
307.078613	145.480000
307.171844	145.440000
307.265045	145.180000
307.358276	144.840000
307.451508	145.040000
307.544739	145.920000
307.637970	145.760000
307.731201	145.440000
307.824402	146.280000
307.917633	146.800000
308.010864	146.960000
308.104095	147.540000
308.197327	148.120000
308.290558	148.100000
308.383789	147.540000
308.477020	146.880000
308.570251	145.920000
308.663483	145.440000
308.756714	145.240000
308.849976	145.320000
308.943176	146.020000
309.036438	146.140000
309.129639	146.100000
309.222900	145.860000
309.316101	145.760000
309.409393	145.100000
309.502625	145.280000
309.595856	145.360000
309.689087	145.300000
309.782318	145.360000
309.875580	145.540000
309.968811	145.600000
310.062042	145.680000
310.155273	145.920000
310.248535	146.220000
310.341766	145.920000
310.434998	145.860000
310.528259	145.540000
310.621490	145.900000
310.714722	145.520000
310.807983	145.640000
310.901215	145.840000
310.994476	146.400000
311.087708	145.560000
311.181000	146.000000
311.274200	145.680000
311.367462	145.320000
311.460693	144.920000
311.553986	145.820000
311.647186	145.820000
311.740479	146.280000
311.833710	146.360000
311.926971	146.520000
312.020203	145.860000
312.113464	145.660000
312.206726	145.020000
312.299957	145.540000
312.393219	146.260000
312.486481	146.320000
312.579712	146.000000
312.672974	146.440000
312.766235	145.980000
312.859497	145.640000
312.952759	145.800000
313.045990	146.420000
313.139252	145.700000
313.232513	145.960000
313.325775	145.760000
313.419037	145.580000
313.512299	144.760000
313.605530	145.820000
313.698822	145.980000
313.792053	145.940000
313.885345	145.720000
313.978577	146.300000
314.071869	145.580000
314.165131	145.500000
314.258392	145.700000
314.351654	145.980000
314.444916	145.300000
314.538177	146.160000
314.631439	146.460000
314.724701	146.360000
314.817993	146.380000
314.911255	147.060000
315.004517	146.220000
315.097778	145.980000
315.191040	146.480000
315.284302	146.640000
315.377594	146.440000
315.470856	146.820000
315.564117	145.940000
315.657379	145.260000
315.750671	144.840000
315.843933	144.960000
315.937195	144.600000
316.030518	145.060000
316.123749	145.160000
316.217041	145.960000
316.310303	145.960000
316.403595	146.260000
316.496857	146.760000
316.590149	147.100000
316.683411	146.340000
316.776703	146.180000
316.869965	146.360000
316.963257	145.700000
317.056519	144.940000
317.149811	144.900000
317.243073	144.760000
317.336365	144.800000
317.429626	145.380000
317.522919	146.060000
317.616180	146.220000
317.709473	146.240000
317.802765	146.040000
317.896027	145.980000
317.989319	146.160000
318.082611	146.180000
318.175873	146.300000
318.269165	146.380000
318.362488	146.180000
318.455750	145.840000
318.549042	146.180000
318.642303	146.600000
318.735626	146.600000
318.828888	147.020000
318.922211	146.820000
319.015472	147.480000
319.108765	146.600000
319.202057	146.140000
319.295349	146.000000
319.388641	146.060000
319.481934	145.360000
319.575226	145.800000
319.668518	146.440000
319.761810	146.440000
319.855103	146.580000
319.948395	146.600000
320.041687	146.420000
320.134979	146.220000
320.228271	145.980000
320.321564	145.860000
320.414856	145.800000
320.508148	145.660000
320.601440	145.600000
320.694763	145.860000
320.788025	146.460000
320.881348	146.300000
320.974640	146.620000
321.067963	146.220000
321.161224	146.180000
321.254547	145.380000
321.347839	146.000000
321.441162	145.680000
321.534454	145.920000
321.627747	145.680000
321.721069	146.360000
321.814362	146.120000
321.907654	146.300000
322.000946	146.340000
322.094269	147.000000
322.187561	146.480000
322.280884	146.600000
322.374176	146.880000
322.467468	147.280000
322.560791	146.880000
322.654083	147.360000
322.747406	147.480000
322.840698	147.420000
322.934021	147.420000
323.027344	148.000000
323.120636	147.640000
323.213959	147.400000
323.307251	146.900000
323.400574	146.900000
323.493866	145.860000
323.587219	146.080000
323.680511	146.380000
323.773834	146.740000
323.867157	146.540000
323.960449	147.020000
324.053772	146.760000
324.147095	146.580000
324.240387	146.980000
324.333710	147.240000
324.427032	147.160000
324.520355	147.280000
324.613647	146.560000
324.706970	146.180000
324.800293	145.800000
324.893616	146.080000
324.986938	146.060000
325.080231	146.220000
325.173553	146.320000
325.266876	146.940000
325.360199	146.600000
325.453522	146.040000
325.546875	146.120000
325.640167	146.220000
325.733521	145.980000
325.826813	146.660000
325.920166	146.920000
326.013489	146.820000
326.106812	146.100000
326.200134	145.700000
326.293457	144.740000
326.386780	145.060000
326.480103	145.060000
326.573425	145.360000
326.666748	145.540000
326.760071	145.900000
326.853424	145.700000
326.946747	145.800000
327.040070	146.460000
327.133392	145.960000
327.226715	145.400000
327.320068	145.080000
327.413391	145.580000
327.506714	144.880000
327.600037	145.200000
327.693390	145.740000
327.786713	146.120000
327.880066	145.880000
327.973358	146.320000
328.066742	146.780000
328.160034	146.740000
328.253418	147.140000
328.346710	146.640000
328.440063	146.000000
328.533417	145.460000
328.626740	145.900000
328.720093	145.140000
328.813416	145.280000
328.906769	145.820000
329.000092	146.240000
329.093445	145.780000
329.186768	146.240000
329.280121	146.940000
329.373444	146.960000
329.466797	146.920000
329.560120	146.780000
329.653473	146.620000
329.746796	146.160000
329.840149	145.640000
329.933502	145.380000
330.026825	145.400000
330.120178	145.300000
330.213562	145.260000
330.306854	145.740000
330.400238	145.620000
330.493561	145.280000
330.586945	145.880000
330.680237	146.240000
330.773621	146.280000
330.866974	146.620000
330.960327	147.220000
331.053680	146.740000
331.147003	146.620000
331.240356	146.880000
331.333710	146.720000
331.427063	146.560000
331.520416	146.380000
331.613770	146.320000
331.707123	146.260000
331.800476	146.460000
331.893829	147.220000
331.987152	147.500000
332.080505	147.220000
332.173859	146.700000
332.267212	146.500000
332.360565	145.760000
332.453918	145.520000
332.547333	145.500000
332.640656	145.480000
332.734039	145.660000
332.827362	145.640000
332.920746	146.300000
333.014069	146.720000
333.107452	147.180000
333.200806	146.960000
333.294159	147.180000
333.387543	146.560000
333.480896	145.900000
333.574249	145.740000
333.667603	145.660000
333.760956	145.820000
333.854340	145.920000
333.947693	146.400000
334.041046	146.460000
334.134430	146.680000
334.227783	146.260000
334.321136	146.040000
334.414520	145.520000
334.507874	145.480000
334.601227	145.460000
334.694611	145.340000
334.787964	145.900000
334.881348	146.360000
334.974701	146.240000
335.068085	145.940000
335.161438	146.440000
335.254822	145.940000
335.348175	146.000000
335.441559	145.700000
335.534943	146.220000
335.628296	145.760000
335.721680	145.680000
335.815033	145.760000
335.908417	146.280000
336.001770	146.020000
336.095154	146.100000
336.188538	145.940000
336.281891	145.520000
336.375275	145.140000
336.468658	145.000000
336.562012	145.020000
336.655396	145.780000
336.748779	146.240000
336.842133	146.460000
336.935516	146.620000
337.028900	146.260000
337.122284	145.900000
337.215637	146.060000
337.309021	145.960000
337.402435	145.880000
337.495789	146.200000
337.589203	146.140000
337.682526	145.740000
337.775940	146.120000
337.869324	146.400000
337.962708	146.060000
338.056091	146.540000
338.149475	146.480000
338.242859	146.240000
338.336243	145.660000
338.429626	145.900000
338.523010	145.440000
338.616394	145.040000
338.709778	145.340000
338.803162	145.640000
338.896545	145.640000
338.989929	145.380000
339.083313	145.560000
339.176697	145.160000
339.270081	145.060000
339.363464	145.320000
339.456848	145.820000
339.550232	145.660000
339.643616	145.460000
339.737030	145.500000
339.830383	145.540000
339.923828	145.560000
340.017181	145.820000
340.110596	146.380000
340.203949	146.160000
340.297363	145.600000
340.390778	145.420000
340.484161	145.540000
340.577545	144.860000
340.670959	145.400000
340.764343	145.780000
340.857727	145.820000
340.951111	145.160000
341.044525	145.360000
341.137909	144.680000
341.231293	144.540000
341.324707	144.020000
341.418091	144.980000
341.511505	145.400000
341.604889	145.760000
341.698303	146.060000
341.791687	146.620000
341.885071	146.100000
341.978485	145.460000
342.071899	145.760000
342.165283	145.780000
342.258698	145.860000
342.352081	146.200000
342.445496	146.960000
342.538879	146.920000
342.632324	146.420000
342.725708	146.120000
342.819122	145.540000
342.912506	144.980000
343.005920	144.600000
343.099335	145.740000
343.192719	146.160000
343.286133	146.420000
343.379547	146.980000
343.472931	147.360000
343.566345	146.300000
343.659760	145.960000
343.753143	145.700000
343.846558	145.300000
343.939972	145.000000
344.033386	145.740000
344.126770	145.520000
344.220184	145.600000
344.313599	146.240000
344.407043	146.420000
344.500427	145.660000
344.593872	146.640000
344.687225	146.440000
344.780670	145.580000
344.874054	145.500000
344.967499	145.880000
345.060913	145.120000
345.154327	145.360000
345.247742	145.300000
345.341156	145.060000
345.434570	144.980000
345.527985	144.760000
345.621399	145.080000
345.714813	145.220000
345.808228	145.580000
345.901642	145.280000
345.995056	145.240000
346.088470	145.300000
346.181885	145.280000
346.275299	144.820000
346.368713	145.000000
346.462128	144.920000
346.555573	144.660000
346.648987	144.860000
346.742401	144.800000
346.835815	145.080000
346.929260	144.980000
347.022644	144.980000
347.116119	145.400000
347.209503	146.000000
347.302948	146.240000
347.396362	147.080000
347.489807	147.120000
347.583221	147.320000
347.676636	146.860000
347.770050	146.040000
347.863495	145.320000
347.956909	145.440000
348.050323	144.680000
348.143768	144.600000
348.237183	144.740000
348.330597	145.200000
348.424042	145.280000
348.517456	145.640000
348.610901	145.600000
348.704315	145.600000
348.797760	145.240000
348.891174	144.760000
348.984619	143.940000
349.078033	144.800000
349.171448	145.340000
349.264923	145.420000
349.358337	145.700000
349.451782	145.980000
349.545197	144.920000
349.638641	144.440000
349.732086	144.020000
349.825500	144.360000
349.918945	144.220000
350.012390	145.000000
350.105804	145.520000
350.199249	146.040000
350.292664	146.340000
350.386108	146.520000
350.479553	146.960000
350.572968	146.580000
350.666412	146.420000
350.759857	146.020000
350.853302	146.560000
350.946716	145.800000
351.040161	145.860000
351.133606	146.020000
351.227081	145.840000
351.320465	146.640000
351.413940	146.620000
351.507355	146.900000
351.600830	147.100000
351.694244	146.740000
351.787720	145.800000
351.881104	145.940000
351.974579	145.360000
352.067993	145.780000
352.161469	146.360000
352.254883	146.000000
352.348358	145.620000
352.441803	145.860000
352.535248	145.340000
352.628693	145.580000
352.722137	145.620000
352.815582	146.100000
352.909027	146.060000
353.002472	145.840000
353.095917	145.480000
353.189362	146.000000
353.282806	145.980000
353.376251	146.020000
353.469696	145.720000
353.563141	146.200000
353.656586	145.700000
353.750061	145.580000
353.843475	145.680000
353.936981	146.460000
354.030396	145.720000
354.123871	145.960000
354.217285	146.620000
354.310760	147.000000
354.404175	146.700000
354.497681	146.560000
354.591095	146.700000
354.684570	145.860000
354.777985	145.060000
354.871490	145.040000
354.964935	145.660000
355.058380	145.400000
355.151855	145.340000
355.245300	146.080000
355.338745	146.180000
355.432220	146.160000
355.525665	145.800000
355.619110	146.080000
355.712585	145.780000
355.806030	145.520000
355.899475	144.840000
355.992950	145.280000
356.086426	145.520000
356.179871	145.520000
356.273346	145.640000
356.366791	146.080000
356.460266	146.600000
356.553711	146.120000
356.647186	146.460000
356.740631	146.240000
356.834106	146.040000
356.927551	145.880000
357.021027	145.960000
357.114471	145.700000
357.207947	146.040000
357.301422	146.460000
357.394867	146.060000
357.488342	146.880000
357.581818	146.720000
357.675262	146.840000
357.768738	146.340000
357.862213	146.000000
357.955658	145.540000
358.049133	145.500000
358.142609	145.520000
358.236053	145.460000
358.329529	145.740000
358.423035	145.900000
358.516449	145.360000
358.609955	145.660000
358.703400	146.320000
358.796906	146.460000
358.890350	145.760000
358.983826	146.500000
359.077271	145.760000
359.170776	145.420000
359.264221	145.140000
359.357727	145.580000
359.451172	145.940000
359.544647	146.060000
359.638123	145.900000
359.731598	146.460000
359.825073	146.700000
359.918549	146.300000
360.012024	146.600000
360.105499	146.540000
360.198975	146.300000
360.292450	146.400000
360.385925	146.320000
360.479401	145.860000
360.572876	146.080000
360.666351	146.260000
360.759857	145.720000
360.853302	145.880000
360.946808	145.560000
361.040253	145.800000
361.133759	145.440000
361.227203	145.860000
361.320709	145.620000
361.414154	146.580000
361.507660	146.700000
361.601105	146.920000
361.694641	147.300000
361.788086	146.960000
361.881592	146.960000
361.975067	146.460000
362.068542	146.680000
362.162018	146.120000
362.255524	146.140000
362.348999	145.860000
362.442474	146.300000
362.535950	145.840000
362.629456	145.700000
362.722931	145.640000
362.816406	146.300000
362.909882	146.460000
363.003387	146.280000
363.096863	146.640000
363.190338	146.940000
363.283875	146.240000
363.377319	145.880000
363.470825	146.320000
363.564301	145.660000
363.657806	145.840000
363.751282	145.460000
363.844788	146.140000
363.938232	146.060000
364.031769	146.780000
364.125214	146.660000
364.218750	147.260000
364.312225	146.360000
364.405731	146.500000
364.499207	145.960000
364.592712	145.640000
364.686188	145.640000
364.779694	145.740000
364.873169	145.200000
364.966675	145.200000
365.060150	145.340000
365.153656	145.520000
365.247131	145.520000
365.340637	146.240000
365.434143	146.840000
365.527618	147.140000
365.621155	146.400000
365.714600	146.360000
365.808136	146.040000
365.901611	145.140000
365.995117	144.800000
366.088593	144.880000
366.182129	144.640000
366.275604	144.680000
366.369110	145.240000
366.462585	145.160000
366.556122	145.700000
366.649567	146.100000
366.743103	146.260000
366.836609	145.880000
366.930115	146.280000
367.023590	146.120000
367.117096	145.700000
367.210602	145.320000
367.304108	145.780000
367.397614	146.000000
367.491119	146.100000
367.584595	146.740000
367.678101	147.280000
367.771606	146.700000
367.865112	146.380000
367.958649	145.720000
368.052124	145.300000
368.145660	145.080000
368.239136	146.020000
368.332672	146.220000
368.426147	146.960000
368.519684	146.980000
368.613159	147.160000
368.706696	146.500000
368.800171	146.280000
368.893707	145.720000
368.987183	145.560000
369.080719	145.400000
369.174225	145.320000
369.267731	145.700000
369.361237	145.920000
369.454742	145.880000
369.548248	146.360000
369.641754	146.000000
369.735260	145.560000
369.828766	145.080000
369.922272	145.720000
370.015808	145.140000
370.109314	145.380000
370.202820	145.140000
370.296356	146.040000
370.389832	145.660000
370.483368	145.240000
370.576874	145.500000
370.670410	145.840000
370.763885	144.740000
370.857422	144.560000
370.950928	144.600000
371.044464	145.040000
371.137939	145.280000
371.231476	146.060000
371.324982	146.760000
371.418518	147.140000
371.512024	147.040000
371.605560	146.540000
371.699066	146.620000
371.792572	146.100000
371.886108	146.500000
371.979614	146.120000
372.073120	146.900000
372.166656	146.740000
372.260162	146.940000
372.353668	146.360000
372.447205	146.180000
372.540710	145.720000
372.634277	145.400000
372.727753	145.500000
372.821320	145.640000
372.914795	145.820000
373.008362	145.720000
373.101837	146.160000
373.195404	145.820000
373.288879	145.780000
373.382446	146.380000
373.475922	146.380000
373.569489	146.600000
373.662964	147.240000
373.756531	147.480000
373.850037	147.060000
373.943573	146.920000
374.037109	146.160000
374.130615	145.920000
374.224152	145.880000
374.317657	145.780000
374.411194	146.600000
374.504730	146.440000
374.598236	146.140000
374.691772	145.800000
374.785309	146.220000
374.878815	145.400000
374.972351	145.980000
375.065887	145.840000
375.159454	146.660000
375.252930	146.240000
375.346497	146.540000
375.440002	147.380000
375.533569	147.260000
375.627045	146.400000
375.720612	146.520000
375.814117	146.700000
375.907684	145.640000
376.001160	145.560000
376.094727	145.080000
376.188232	145.560000
376.281799	145.600000
376.375336	145.880000
376.468872	146.600000
376.562408	147.360000
376.655914	146.760000
376.749451	146.700000
376.842987	146.920000
376.936523	146.720000
377.030060	146.860000
377.123596	147.280000
377.217133	146.740000
377.310669	146.540000
377.404205	146.860000
377.497772	146.900000
377.591278	146.340000
377.684845	147.480000
377.778351	147.640000
377.871918	147.120000
377.965424	146.340000
378.058990	146.460000
378.152496	145.720000
378.246063	146.100000
378.339569	146.600000
378.433136	146.840000
378.526642	146.820000
378.620209	147.080000
378.713745	146.600000
378.807312	146.520000
378.900848	146.860000
378.994385	147.160000
379.087921	146.260000
379.181458	146.480000
379.274994	145.780000
379.368530	145.420000
379.462097	145.480000
379.555634	146.140000
379.649170	145.540000
379.742706	145.720000
379.836273	145.880000
379.929810	145.480000
380.023376	145.180000
380.116882	145.140000
380.210449	145.360000
380.303986	145.080000
380.397552	144.580000
380.491058	144.920000
380.584656	144.920000
380.678162	144.960000
380.771729	145.240000
380.865265	146.440000
380.958832	146.220000
381.052368	146.640000
381.145935	146.740000
381.239471	147.120000
381.333008	146.740000
381.426575	147.060000
381.520111	147.140000
381.613647	147.480000
381.707214	147.060000
381.800751	146.440000
381.894318	146.280000
381.987854	145.760000
382.081421	145.240000
382.174988	145.340000
382.268524	145.280000
382.362091	145.260000
382.455627	146.080000
382.549194	145.580000
382.642731	145.300000
382.736298	145.280000
382.829834	145.180000
382.923401	145.500000
383.016937	146.260000
383.110504	146.620000
383.204041	146.780000
383.297607	147.160000
383.391174	146.020000
383.484741	146.280000
383.578278	146.020000
383.671844	145.740000
383.765411	144.840000
383.858948	145.620000
383.952515	145.160000
384.046051	145.500000
384.139618	146.360000
384.233185	146.900000
384.326721	146.580000
384.420288	147.280000
384.513855	147.080000
384.607422	147.300000
384.700989	147.660000
384.794525	147.400000
384.888123	147.040000
384.981659	147.360000
385.075226	146.420000
385.168762	146.080000
385.262360	146.040000
385.355896	145.180000
385.449463	145.140000
385.542999	145.180000
385.636597	145.740000
385.730164	146.140000
385.823730	146.240000
385.917267	145.680000
386.010834	146.220000
386.104401	146.000000
386.197968	145.960000
386.291534	146.500000
386.385101	146.920000
386.478668	146.940000
386.572235	146.720000
386.665802	146.360000
386.759338	145.980000
386.852905	145.520000
386.946472	145.340000
387.040070	145.140000
387.133606	145.220000
387.227203	145.360000
387.320740	145.880000
387.414337	145.520000
387.507874	145.860000
387.601471	145.560000
387.695007	145.380000
387.788605	145.100000
387.882141	145.480000
387.975739	145.120000
388.069275	145.480000
388.162872	145.780000
388.256439	145.900000
388.350037	145.540000
388.443604	145.580000
388.537170	145.580000
388.630737	146.040000
388.724304	145.720000
388.817871	145.540000
388.911438	145.520000
389.005005	145.800000
389.098602	145.620000
389.192169	145.760000
389.285736	146.440000
389.379333	146.600000
389.472870	146.120000
389.566467	145.940000
389.660034	146.140000
389.753632	145.600000
389.847168	145.820000
389.940765	146.080000
390.034332	146.360000
390.127930	145.660000
390.221466	145.900000
390.315063	145.440000
390.408630	144.560000
390.502228	143.700000
390.595795	144.400000
390.689362	144.480000
390.782959	144.960000
390.876526	145.820000
390.970093	146.020000
391.063690	146.520000
391.157257	146.520000
391.250824	146.660000
391.344421	146.300000
391.437988	146.600000
391.531555	146.300000
391.625153	146.500000
391.718750	146.540000
391.812317	146.360000
391.905914	146.020000
391.999481	145.960000
392.093079	145.900000
392.186615	145.840000
392.280243	146.240000
392.373779	146.480000
392.467407	146.940000
392.560944	146.840000
392.654572	146.560000
392.748108	146.540000
392.841736	146.780000
392.935303	146.060000
393.028900	146.060000
393.122467	146.100000
393.216064	146.020000
393.309631	145.280000
393.403229	145.180000
393.496796	144.740000
393.590393	143.960000
393.683990	144.280000
393.777557	144.980000
393.871155	145.100000
393.964722	145.720000
394.058350	146.340000
394.151917	146.140000
394.245514	145.920000
394.339081	146.400000
394.432678	146.540000
394.526245	146.500000
394.619873	146.060000
394.713409	146.120000
394.807037	145.520000
394.900604	145.460000
394.994202	145.420000
395.087769	145.960000
395.181396	145.560000
395.274994	146.700000
395.368561	146.100000
395.462158	146.380000
395.555756	146.160000
395.649353	146.780000
395.742920	145.940000
395.836517	146.740000
395.930115	146.060000
396.023712	146.060000
396.117279	146.260000
396.210876	145.860000
396.304474	145.620000
396.398071	146.080000
396.491669	146.420000
396.585266	146.140000
396.678833	146.160000
396.772461	146.300000
396.866028	146.120000
396.959656	146.620000
397.053223	146.900000
397.146851	146.840000
397.240417	147.280000
397.334015	148.620000
397.427582	148.640000
397.521210	149.720000
397.614807	151.700000
397.708405	153.260000
397.802002	155.160000
397.895599	158.680000
397.989197	162.100000
398.082794	166.920000
398.176392	173.800000
398.269989	181.200000
398.363586	190.100000
398.457184	201.020000
398.550781	213.120000
398.644379	225.100000
398.737976	238.720000
398.831573	252.980000
398.925201	267.580000
399.018768	282.140000
399.112396	297.220000
399.205963	312.860000
399.299591	329.020000
399.393158	345.980000
399.486786	364.020000
399.580353	382.400000
399.673981	399.660000
399.767578	416.480000
399.861206	430.600000
399.954773	442.340000
400.048401	448.340000
400.141998	450.540000
400.235596	448.420000
400.329193	442.460000
400.422791	433.780000
400.516418	425.460000
400.610016	417.320000
400.703613	408.520000
400.797211	398.220000
400.890808	387.740000
400.984436	375.720000
401.078033	360.240000
401.171631	342.660000
401.265259	324.220000
401.358826	303.380000
401.452484	281.620000
401.546051	261.680000
401.639679	241.960000
401.733246	225.200000
401.826904	209.760000
401.920471	196.580000
402.014099	185.680000
402.107697	177.200000
402.201324	169.480000
402.294891	163.900000
402.388550	160.000000
402.482147	156.580000
402.575745	153.480000
402.669373	151.420000
402.762970	150.140000
402.856567	148.920000
402.950195	148.280000
403.043793	147.800000
403.137390	148.240000
403.231018	147.320000
403.324615	147.760000
403.418243	146.940000
403.511841	147.520000
403.605469	146.960000
403.699066	147.480000
403.792694	147.040000
403.886292	147.460000
403.979919	147.060000
404.073517	146.740000
404.167145	146.780000
404.260712	146.880000
404.354370	146.620000
404.447937	146.700000
404.541595	146.840000
404.635162	147.360000
404.728821	147.600000
404.822418	147.380000
404.916046	146.960000
405.009644	147.200000
405.103271	146.900000
405.196899	146.320000
405.290497	146.340000
405.384125	146.760000
405.477722	146.340000
405.571350	145.880000
405.664948	146.480000
405.758575	146.500000
405.852203	145.960000
405.945801	146.200000
406.039429	146.200000
406.133057	145.520000
406.226654	145.460000
406.320312	145.700000
406.413879	145.760000
406.507538	145.800000
406.601135	145.740000
406.694763	146.480000
406.788361	146.280000
406.882019	146.160000
406.975586	146.600000
407.069244	147.200000
407.162872	146.860000
407.256470	146.660000
407.350098	146.600000
407.443726	146.300000
407.537323	145.700000
407.630951	145.680000
407.724579	145.740000
407.818207	146.020000
407.911804	145.440000
408.005432	145.660000
408.099060	145.920000
408.192688	146.300000
408.286285	145.980000
408.379913	146.120000
408.473572	145.920000
408.567169	145.400000
408.660828	145.280000
408.754395	145.360000
408.848053	145.420000
408.941650	145.380000
409.035309	145.120000
409.128906	145.360000
409.222565	145.100000
409.316132	145.200000
409.409790	145.340000
409.503387	145.600000
409.597046	145.440000
409.690674	145.600000
409.784302	145.860000
409.877930	145.640000
409.971558	145.640000
410.065186	145.640000
410.158783	145.600000
410.252411	145.520000
410.346039	145.760000
410.439667	145.680000
410.533295	145.600000
410.626923	145.760000
410.720551	145.720000
410.814209	146.140000
410.907806	146.480000
411.001465	146.240000
411.095062	146.480000
411.188721	146.640000
411.282318	146.320000
411.375977	145.740000
411.469574	145.780000
411.563232	145.460000
411.656830	145.180000
411.750488	144.940000
411.844086	144.900000
411.937744	145.040000
412.031372	145.160000
412.125000	145.160000
412.218628	145.460000
412.312256	146.200000
412.405884	146.800000
412.499512	146.500000
412.593170	146.840000
412.686798	146.980000
412.780426	146.620000
412.874054	146.300000
412.967682	146.380000
413.061310	146.980000
413.154968	146.760000
413.248566	146.760000
413.342224	146.920000
413.435852	147.200000
413.529510	146.360000
413.623108	146.120000
413.716766	146.220000
413.810364	146.020000
413.904022	145.920000
413.997650	145.640000
414.091309	146.660000
414.184906	146.500000
414.278564	146.460000
414.372192	146.620000
414.465851	147.220000
414.559479	146.380000
414.653107	147.260000
414.746735	147.200000
414.840393	146.920000
414.934021	147.040000
415.027649	146.760000
415.121277	146.400000
415.214935	146.660000
415.308563	146.940000
415.402191	146.080000
415.495850	146.040000
415.589478	145.640000
415.683136	145.000000
415.776733	145.040000
415.870422	145.720000
415.964020	145.540000
416.057678	145.560000
416.151306	146.120000
416.244965	145.720000
416.338562	145.480000
416.432251	146.420000
416.525848	146.860000
416.619507	146.960000
416.713165	147.640000
416.806793	147.640000
416.900421	147.520000
416.994080	147.120000
417.087708	146.520000
417.181366	145.900000
417.274994	146.020000
417.368622	145.880000
417.462280	146.560000
417.555908	146.820000
417.649567	146.640000
417.743195	146.440000
417.836853	146.500000
417.930481	146.260000
418.024170	146.420000
418.117767	147.140000
418.211426	147.600000
418.305054	147.820000
418.398712	147.320000
418.492340	147.260000
418.585999	147.660000
418.679626	147.600000
418.773285	147.260000
418.866913	147.660000
418.960571	148.000000
419.054230	147.100000
419.147858	147.080000
419.241516	147.060000
419.335144	146.700000
419.428802	146.440000
419.522461	146.680000
419.616089	145.960000
419.709747	146.240000
419.803375	146.340000
419.897034	146.200000
419.990662	146.120000
420.084320	146.720000
420.177979	146.800000
420.271606	146.820000
420.365295	147.260000
420.458893	147.340000
420.552582	147.480000
420.646210	147.100000
420.739868	146.900000
420.833496	146.440000
420.927155	145.920000
421.020782	145.500000
421.114471	145.440000
421.208069	145.780000
421.301758	146.260000
421.395386	146.700000
421.489044	146.760000
421.582703	146.740000
421.676361	146.940000
421.769989	146.240000
421.863647	146.340000
421.957306	146.380000
422.050934	146.660000
422.144592	146.340000
422.238251	146.180000
422.331909	145.980000
422.425537	145.720000
422.519196	145.780000
422.612854	145.660000
422.706543	145.660000
422.800140	145.860000
422.893829	145.760000
422.987457	145.200000
423.081146	145.140000
423.174744	145.720000
423.268433	145.360000
423.362061	145.660000
423.455750	145.620000
423.549347	145.820000
423.643036	145.320000
423.736664	145.960000
423.830353	145.880000
423.924011	146.440000
424.017639	146.040000
424.111298	146.120000
424.204956	145.760000
424.298615	145.940000
424.392273	145.500000
424.485931	145.720000
424.579559	146.060000
424.673218	145.680000
424.766876	145.760000
424.860535	145.460000
424.954193	145.380000
425.047882	145.800000
425.141510	146.180000
425.235199	145.980000
425.328796	146.020000
425.422485	146.060000
425.516113	145.280000
425.609802	145.200000
425.703430	145.300000
425.797119	145.600000
425.890747	145.500000
425.984436	145.780000
426.078064	145.540000
426.171753	145.460000
426.265411	145.260000
426.359070	145.400000
426.452728	145.180000
426.546356	145.280000
426.640015	145.140000
426.733673	145.180000
426.827332	145.100000
426.920990	145.740000
427.014648	145.320000
427.108307	145.720000
427.201965	146.420000
427.295624	146.420000
427.389282	145.800000
427.482941	146.320000
427.576630	146.200000
427.670258	145.540000
427.763947	145.360000
427.857574	145.460000
427.951263	145.420000
428.044922	145.020000
428.138611	145.100000
428.232239	145.680000
428.325928	146.240000
428.419556	146.740000
428.513245	146.540000
428.606903	146.800000
428.700562	146.100000
428.794220	145.300000
428.887878	144.400000
428.981537	145.040000
429.075195	144.920000
429.168854	145.400000
429.262512	145.400000
429.356201	145.720000
429.449860	145.460000
429.543518	145.520000
429.637177	145.660000
429.730835	145.780000
429.824493	145.780000
429.918182	145.960000
430.011810	145.460000
430.105530	144.760000
430.199158	145.240000
430.292847	144.920000
430.386475	144.580000
430.480164	144.720000
430.573792	144.760000
430.667511	144.500000
430.761139	144.880000
430.854828	145.520000
430.948456	145.640000
431.042145	146.500000
431.135834	146.220000
431.229492	146.260000
431.323151	146.220000
431.416809	146.020000
431.510468	145.520000
431.604156	145.740000
431.697815	145.880000
431.791473	145.260000
431.885132	145.240000
431.978821	145.460000
432.072479	145.560000
432.166138	145.900000
432.259827	145.960000
432.353485	146.140000
432.447174	146.280000
432.540802	145.960000
432.634491	145.800000
432.728149	146.240000
432.821838	146.820000
432.915466	146.380000
433.009186	146.420000
433.102814	145.920000
433.196503	145.480000
433.290131	145.020000
433.383850	145.580000
433.477509	145.820000
433.571167	146.700000
433.664856	147.200000
433.758514	147.800000
433.852173	147.560000
433.945862	147.340000
434.039520	147.020000
434.133179	146.320000
434.226868	145.540000
434.320526	144.900000
434.414185	145.580000
434.507874	145.000000
434.601562	145.360000
434.695221	145.340000
434.788910	145.840000
434.882538	145.440000
434.976257	145.300000
435.069885	145.420000
435.163574	145.380000
435.257233	144.940000
435.350922	144.800000
435.444580	144.800000
435.538269	144.560000
435.631897	145.060000
435.725616	145.580000
435.819275	146.280000
435.912964	147.020000
436.006622	147.400000
436.100311	147.280000
436.193970	146.680000
436.287628	145.900000
436.381317	145.420000
436.474976	144.980000
436.568665	144.620000
436.662323	145.120000
436.756012	145.060000
436.849670	145.000000
436.943390	145.120000
437.037018	145.380000
437.130737	145.100000
437.224365	145.280000
437.318085	145.160000
437.411713	145.280000
437.505432	145.800000
437.599060	146.400000
437.692780	147.220000
437.786407	147.560000
437.880127	147.440000
437.973755	146.840000
438.067474	146.260000
438.161133	145.760000
438.254822	146.000000
438.348480	145.940000
438.442169	146.520000
438.535828	147.060000
438.629517	146.620000
438.723175	145.900000
438.816864	146.460000
438.910553	145.880000
439.004211	145.740000
439.097900	145.740000
439.191559	146.220000
439.285248	145.520000
439.378906	145.740000
439.472626	145.500000
439.566284	145.460000
439.659973	145.520000
439.753632	145.660000
439.847321	146.160000
439.940979	146.180000
440.034698	146.520000
440.128326	146.020000
440.222046	145.780000
440.315674	144.800000
440.409393	144.700000
440.503082	144.280000
440.596741	144.860000
440.690430	145.360000
440.784088	145.560000
440.877777	145.340000
440.971466	145.560000
441.065125	145.100000
441.158813	144.900000
441.252502	144.860000
441.346161	145.240000
441.439850	145.200000
441.533539	145.020000
441.627197	145.480000
441.720886	145.280000
441.814606	145.460000
441.908234	145.860000
442.001953	146.180000
442.095612	145.800000
442.189301	146.460000
442.282959	146.460000
442.376678	145.760000
442.470306	146.420000
442.564026	146.300000
442.657684	146.100000
442.751404	145.980000
442.845032	146.820000
442.938751	145.920000
443.032440	146.100000
443.126099	145.940000
443.219788	146.060000
443.313477	145.780000
443.407166	146.360000
443.500824	146.280000
443.594513	146.260000
443.688202	146.320000
443.781891	145.900000
443.875549	145.260000
443.969238	145.360000
444.062927	145.440000
444.156647	145.280000
444.250275	145.580000
444.343994	145.860000
444.437653	145.940000
444.531372	145.960000
444.625031	145.940000
444.718719	145.620000
444.812378	145.800000
444.906097	145.240000
444.999756	144.760000
445.093445	144.860000
445.187103	145.360000
445.280823	145.860000
445.374512	145.780000
445.468201	146.120000
445.561859	146.100000
445.655548	146.020000
445.749237	144.940000
445.842926	145.260000
445.936615	145.740000
446.030304	145.180000
446.123962	145.200000
446.217651	145.600000
446.311340	145.860000
446.405029	145.340000
446.498749	145.520000
446.592407	145.020000
446.686096	145.280000
446.779755	145.160000
446.873474	145.360000
446.967133	145.640000
447.060852	145.660000
447.154510	145.460000
447.248230	145.460000
447.341858	145.620000
447.435577	145.300000
447.529236	145.260000
447.622955	145.220000
447.716644	145.240000
447.810333	145.140000
447.904022	145.720000
447.997711	145.720000
448.091400	146.040000
448.185059	146.140000
448.278748	146.260000
448.372437	145.740000
448.466125	146.360000
448.559814	146.020000
448.653503	146.300000
448.747192	146.340000
448.840912	146.600000
448.934570	146.260000
449.028290	146.800000
449.121948	146.200000
449.215637	145.480000
449.309296	145.380000
449.403015	145.620000
449.496674	145.440000
449.590393	145.620000
449.684052	145.760000
449.777771	146.340000
449.871429	145.720000
449.965149	145.500000
450.058838	145.760000
450.152527	146.540000
450.246216	145.940000
450.339905	146.200000
450.433594	145.960000
450.527283	146.660000
450.620972	146.140000
450.714661	146.240000
450.808350	146.500000
450.902039	146.860000
450.995728	146.360000
451.089417	146.060000
451.183105	145.960000
451.276794	146.360000
451.370514	145.980000
451.464172	145.180000
451.557892	145.400000
451.651550	145.460000
451.745270	144.540000
451.838928	144.180000
451.932648	144.740000
452.026306	145.460000
452.120026	145.220000
452.213684	146.000000
452.307404	146.660000
452.401062	146.660000
452.494781	146.500000
452.588470	146.740000
452.682159	146.120000
452.775848	146.020000
452.869537	145.460000
452.963226	145.080000
453.056915	144.820000
453.150604	145.180000
453.244293	145.160000
453.337982	146.020000
453.431671	146.300000
453.525360	146.920000
453.619049	146.880000
453.712769	146.740000
453.806427	146.160000
453.900146	145.760000
453.993805	145.560000
454.087555	145.980000
454.181213	146.120000
454.274933	145.980000
454.368591	146.100000
454.462311	145.860000
454.555969	145.160000
454.649689	145.780000
454.743347	145.580000
454.837067	146.000000
454.930756	146.540000
455.024445	146.700000
455.118134	146.140000
455.211853	146.660000
455.305542	146.400000
455.399231	146.140000
455.492920	146.360000
455.586609	146.360000
455.680298	146.440000
455.773987	146.020000
455.867676	145.800000
455.961365	145.740000
456.055084	146.020000
456.148773	145.860000
456.242493	146.060000
456.336151	146.240000
456.429871	146.280000
456.523529	146.480000
456.617249	146.400000
456.710907	146.920000
456.804626	146.560000
456.898315	146.360000
456.992035	145.880000
457.085693	145.680000
457.179413	145.040000
457.273102	146.100000
457.366791	146.200000
457.460480	146.760000
457.554199	147.320000
457.647888	147.740000
457.741577	146.960000
457.835266	146.860000
457.928955	146.700000
458.022644	146.760000
458.116364	146.840000
458.210052	146.780000
458.303741	147.140000
458.397461	146.460000
458.491119	145.580000
458.584839	145.660000
458.678528	145.400000
458.772247	145.140000
458.865906	145.400000
458.959625	146.300000
459.053284	145.880000
459.147003	145.940000
459.240692	146.300000
459.334412	146.460000
459.428070	146.140000
459.521790	146.080000
459.615479	146.220000
459.709198	146.620000
459.802887	146.100000
459.896576	145.900000
459.990265	145.980000
460.083954	146.200000
460.177673	145.160000
460.271362	145.600000
460.365051	145.900000
460.458740	145.780000
460.552429	145.020000
460.646149	145.340000
460.739838	145.060000
460.833527	145.060000
460.927246	144.840000
461.020905	145.440000
461.114655	145.280000
461.208313	145.460000
461.302032	144.660000
461.395691	145.080000
461.489441	144.780000
461.583099	144.800000
461.676819	144.860000
461.770477	145.740000
461.864197	145.160000
461.957916	145.120000
462.051605	144.680000
462.145294	145.460000
462.238983	145.120000
462.332703	145.780000
462.426392	146.480000
462.520081	146.880000
462.613770	146.120000
462.707489	146.280000
462.801178	146.360000
462.894867	145.940000
462.988556	145.980000
463.082275	146.100000
463.175964	145.660000
463.269684	145.840000
463.363342	145.840000
463.457092	145.500000
463.550751	145.880000
463.644470	146.040000
463.738129	145.480000
463.831879	145.560000
463.925537	146.100000
464.019257	145.740000
464.112946	146.060000
464.206665	145.960000
464.300323	146.000000
464.394043	146.000000
464.487762	146.100000
464.581451	146.280000
464.675140	146.560000
464.768829	146.700000
464.862549	146.720000
464.956238	146.780000
465.049927	146.560000
465.143646	146.440000
465.237335	146.240000
465.331024	146.700000
465.424713	146.500000
465.518433	146.520000
465.612152	146.400000
465.705811	146.640000
465.799561	145.900000
465.893219	145.680000
465.986938	145.460000
466.080597	145.160000
466.174347	145.480000
466.268005	145.740000
466.361725	145.920000
466.455414	146.340000
466.549133	146.540000
466.642792	146.300000
466.736542	145.700000
466.830231	145.520000
466.923920	145.160000
467.017609	145.560000
467.111328	144.840000
467.205017	145.440000
467.298706	145.640000
467.392426	145.940000
467.486115	145.920000
467.579803	146.120000
467.673523	146.340000
467.767212	146.380000
467.860901	146.200000
467.954651	146.360000
468.048309	146.860000
468.142029	146.600000
468.235718	146.600000
468.329437	146.560000
468.423096	146.340000
468.516846	145.940000
468.610504	145.500000
468.704224	145.240000
468.797913	145.080000
468.891632	145.260000
468.985291	145.340000
469.079010	145.560000
469.172729	145.400000
469.266418	145.840000
469.360107	145.680000
469.453827	145.440000
469.547516	145.420000
469.641205	145.860000
469.734924	145.640000
469.828613	146.000000
469.922302	146.100000
470.016022	145.980000
470.109711	145.840000
470.203430	145.480000
470.297150	144.740000
470.390808	145.100000
470.484558	145.320000
470.578217	145.860000
470.671936	146.460000
470.765625	147.180000
470.859344	147.020000
470.953003	147.120000
471.046753	146.420000
471.140411	145.820000
471.234131	145.820000
471.327820	146.160000
471.421539	146.280000
471.515228	146.000000
471.608948	146.320000
471.702637	145.560000
471.796326	145.180000
471.890045	145.400000
471.983734	146.000000
472.077423	146.020000
472.171143	146.520000
472.264832	146.440000
472.358521	146.040000
472.452240	145.400000
472.545929	145.960000
472.639648	146.140000
472.733337	146.680000
472.827057	147.040000
472.920746	147.320000
473.014465	146.920000
473.108124	146.540000
473.201874	146.500000
473.295532	145.900000
473.389252	146.420000
473.482941	146.640000
473.576660	146.600000
473.670319	146.140000
473.764069	146.540000
473.857727	146.340000
473.951477	146.360000
474.045166	146.840000
474.138855	147.040000
474.232574	147.060000
474.326263	146.960000
474.419952	147.060000
474.513672	147.080000
474.607361	147.000000
474.701050	147.200000
474.794769	147.540000
474.888458	147.580000
474.982178	147.480000
475.075867	147.220000
475.169586	147.160000
475.263275	146.980000
475.356995	146.500000
475.450653	146.080000
475.544403	145.900000
475.638062	146.400000
475.731812	145.780000
475.825470	145.820000
475.919189	146.160000
476.012878	146.540000
476.106598	145.620000
476.200256	146.240000
476.294006	146.280000
476.387695	146.400000
476.481384	146.080000
476.575104	146.140000
476.668793	145.780000
476.762512	145.580000
476.856201	146.120000
476.949890	146.180000
477.043610	145.700000
477.137299	145.880000
477.230988	146.260000
477.324707	145.320000
477.418396	146.020000
477.512146	146.580000
477.605804	146.700000
477.699524	146.640000
477.793213	146.620000
477.886932	146.100000
477.980591	145.900000
478.074341	145.660000
478.167999	145.180000
478.261749	145.300000
478.355408	145.160000
478.449127	145.680000
478.542816	146.740000
478.636536	147.480000
478.730225	147.580000
478.823944	147.920000
478.917633	147.500000
479.011322	147.160000
479.105042	147.040000
479.198730	147.180000
479.292450	147.020000
479.386139	147.120000
479.479828	146.900000
479.573547	147.000000
479.667267	146.820000
479.760925	146.840000
479.854675	147.100000
479.948334	147.020000
480.042084	146.440000
480.135742	146.740000
480.229462	146.420000
480.323151	146.340000
480.416870	145.500000
480.510529	145.620000
480.604279	144.860000
480.697937	145.480000
480.791656	144.980000
480.885345	145.320000
480.979065	145.180000
481.072754	145.920000
481.166473	146.240000
481.260132	146.440000
481.353882	146.400000
481.447540	146.360000
481.541260	146.120000
481.635010	145.360000
481.728668	145.200000
481.822388	145.080000
481.916077	145.240000
482.009796	145.220000
482.103485	145.720000
482.197205	145.940000
482.290863	146.220000
482.384613	145.860000
482.478271	145.480000
482.571991	145.300000
482.665680	145.300000
482.759399	146.120000
482.853058	146.940000
482.946808	147.100000
483.040466	146.820000
483.134216	146.640000
483.227875	145.720000
483.321594	146.200000
483.415283	146.220000
483.509003	146.300000
483.602661	146.240000
483.696411	146.840000
483.790070	146.180000
483.883789	146.300000
483.977478	146.600000
484.071198	146.700000
484.164917	146.180000
484.258606	145.600000
484.352325	145.820000
484.445984	145.860000
484.539734	145.820000
484.633392	145.480000
484.727142	145.980000
484.820801	145.660000
484.914520	145.400000
485.008209	145.740000
485.101929	146.360000
485.195587	145.860000
485.289337	145.860000
485.382996	145.880000
485.476715	145.600000
485.570404	145.860000
485.664124	146.280000
485.757782	147.040000
485.851532	146.820000
485.945190	146.860000
486.038910	146.700000
486.132599	147.420000
486.226318	146.180000
486.319977	145.920000
486.413727	146.200000
486.507446	145.660000
486.601105	144.440000
486.694855	144.900000
486.788513	145.040000
486.882233	145.000000
486.975922	145.020000
487.069641	145.280000
487.163300	144.960000
487.257050	145.940000
487.350708	145.400000
487.444427	145.260000
487.538116	145.360000
487.631836	145.620000
487.725494	145.120000
487.819214	145.520000
487.912903	145.840000
488.006622	146.200000
488.100281	146.500000
488.194031	146.340000
488.287689	146.580000
488.381409	147.000000
488.475098	146.740000
488.568817	147.020000
488.662476	146.960000
488.756226	146.460000
488.849945	145.680000
488.943604	145.660000
489.037354	145.420000
489.131012	145.360000
489.224731	145.380000
489.318390	145.460000
489.412140	145.520000
489.505798	145.520000
489.599518	145.160000
489.693207	145.380000
489.786926	145.600000
489.880585	145.580000
489.974335	145.580000
490.067993	146.660000
490.161713	147.020000
490.255371	147.620000
490.349121	147.680000
490.442780	147.420000
490.536499	146.940000
490.630188	146.700000
490.723907	145.780000
490.817566	145.660000
490.911285	146.020000
491.004974	145.640000
491.098694	145.260000
491.192413	145.680000
491.286102	145.520000
491.379822	145.620000
491.473480	146.020000
491.567200	145.940000
491.660889	145.240000
491.754608	145.480000
491.848267	145.240000
491.941986	144.800000
492.035675	145.120000
492.129395	145.980000
492.223053	145.300000
492.316772	145.400000
492.410461	145.520000
492.504181	145.640000
492.597839	145.540000
492.691559	146.140000
492.785248	146.100000
492.878967	146.240000
492.972626	145.820000
493.066345	146.140000
493.160034	145.640000
493.253754	145.540000
493.347412	145.100000
493.441132	145.200000
493.534882	145.100000
493.628540	145.840000
493.722260	146.200000
493.815918	146.720000
493.909668	147.340000
494.003326	147.760000
494.097046	147.420000
494.190704	147.000000
494.284454	146.900000
494.378113	146.860000
494.471832	146.320000
494.565491	146.280000
494.659210	146.300000
494.752899	146.400000
494.846619	145.760000
494.940277	145.720000
495.033997	145.540000
495.127686	145.220000
495.221405	144.680000
495.315063	144.960000
495.408783	145.100000
495.502441	145.460000
495.596191	145.760000
495.689850	145.800000
495.783569	145.880000
495.877228	145.780000
495.970947	145.260000
496.064697	144.880000
496.158356	145.780000
496.252075	145.840000
496.345734	145.460000
496.439453	146.480000
496.533142	146.860000
496.626862	147.000000
496.720520	147.020000
496.814240	147.340000
496.907898	146.840000
497.001617	146.700000
497.095306	145.920000
497.189026	145.600000
497.282684	145.700000
497.376404	145.980000
497.470062	145.920000
497.563782	145.960000
497.657471	146.060000
497.751190	145.740000
497.844849	145.360000
497.938568	145.820000
498.032227	145.920000
498.125946	145.940000
498.219635	145.740000
498.313354	145.700000
498.407074	145.080000
498.500732	145.260000
498.594452	145.380000
498.688110	145.220000
498.781830	144.920000
498.875519	144.900000
498.969238	144.400000
499.062897	144.400000
499.156616	144.640000
499.250275	145.020000
499.343994	144.760000
499.437653	145.200000
499.531372	145.120000
499.625061	146.180000
499.718781	146.100000
499.812439	146.780000
499.906158	146.280000
499.999817	145.840000
500.093536	145.100000
500.187195	145.440000
500.280914	145.440000
500.374573	145.960000
500.468323	146.200000
500.561981	146.400000
500.655701	145.980000
500.749420	145.920000
500.843079	145.860000
500.936798	146.200000
501.030457	146.460000
501.124176	146.760000
501.217834	146.740000
501.311554	146.940000
501.405212	146.680000
501.498962	145.680000
501.592621	145.520000
501.686340	145.780000
501.779999	145.600000
501.873718	145.800000
501.967377	146.240000
502.061096	146.400000
502.154755	145.880000
502.248474	145.260000
502.342133	145.300000
502.435852	145.460000
502.529510	145.980000
502.623230	146.720000
502.716888	146.940000
502.810608	146.840000
502.904266	147.200000
502.997986	146.340000
503.091705	145.600000
503.185364	145.660000
503.279083	145.660000
503.372772	144.940000
503.466492	145.060000
503.560150	145.360000
503.653870	145.280000
503.747528	145.060000
503.841248	145.600000
503.934906	145.720000
504.028625	145.400000
504.122284	145.740000
504.216003	146.440000
504.309662	145.900000
504.403381	146.000000
504.497040	146.100000
504.590759	145.580000
504.684418	145.420000
504.778137	145.880000
504.871796	146.220000
504.965515	146.180000
505.059174	146.560000
505.152893	146.140000
505.246521	145.720000
505.340240	145.080000
505.433899	145.260000
505.527618	145.560000
505.621338	145.780000
505.714996	145.760000
505.808716	145.980000
505.902374	146.300000
505.996094	146.140000
506.089752	145.760000
506.183472	146.000000
506.277130	145.900000
506.370850	145.720000
506.464508	145.600000
506.558228	145.720000
506.651886	145.460000
506.745605	145.760000
506.839264	145.680000
506.932983	145.760000
507.026611	145.520000
507.120331	145.880000
507.213989	145.080000
507.307709	145.160000
507.401367	145.520000
507.495087	146.740000
507.588745	146.460000
507.682465	147.400000
507.776123	147.220000
507.869843	146.860000
507.963531	146.120000
508.057190	146.760000
508.150909	146.140000
508.244568	146.360000
508.338287	145.960000
508.431946	145.720000
508.525665	145.080000
508.619324	145.080000
508.713013	145.080000
508.806671	145.520000
508.900391	146.420000
508.994049	146.700000
509.087769	146.600000
509.181427	146.440000
509.275146	146.040000
509.368774	144.860000
509.462494	144.940000
509.556152	144.940000
509.649872	145.300000
509.743530	145.640000
509.837250	146.080000
509.930878	145.680000
510.024597	145.540000
510.118256	145.160000
510.211975	145.140000
510.305695	145.040000
510.399353	145.340000
510.493042	146.080000
510.586700	145.920000
510.680420	146.420000
510.774078	146.340000
510.867798	146.380000
510.961426	145.500000
511.055145	145.840000
511.148804	145.360000
511.242523	145.660000
511.336151	145.960000
511.429871	146.920000
511.523529	146.820000
511.617249	146.680000
511.710876	146.520000
511.804596	145.620000
511.898254	145.320000
511.991974	145.720000
512.085632	145.520000
512.179321	145.720000
512.272949	146.420000
512.366699	146.500000
512.460327	146.180000
512.554077	147.440000
512.647766	147.280000
512.741394	147.060000
512.835144	147.460000
512.928772	146.940000
513.022461	146.180000
513.116150	146.060000
513.209839	146.660000
513.303467	145.800000
513.397217	145.980000
513.490845	145.560000
513.584595	145.340000
513.678223	144.700000
513.771912	144.500000
513.865601	144.860000
513.959290	144.760000
514.052917	145.100000
514.146667	145.540000
514.240295	146.180000
514.333984	146.220000
514.427673	146.220000
514.521362	146.660000
514.614990	146.080000
514.708740	145.940000
514.802368	146.080000
514.896057	146.560000
514.989746	146.800000
515.083435	146.940000
515.177124	147.400000
515.270752	146.900000
515.364502	146.460000
515.458130	146.200000
515.551819	145.920000
515.645508	145.480000
515.739197	145.400000
515.832825	145.820000
515.926575	145.260000
516.020203	145.480000
516.113892	145.860000
516.207520	145.880000
516.301270	145.980000
516.394897	145.960000
516.488586	146.360000
516.582275	146.040000
516.675964	145.600000
516.769592	145.520000
516.863281	146.440000
516.956970	146.700000
517.050659	146.540000
517.144287	146.740000
517.238037	146.580000
517.331665	145.820000
517.425354	145.360000
517.519043	145.300000
517.612732	146.060000
517.706421	146.100000
517.800049	145.980000
517.893738	145.800000
517.987427	145.580000
518.081116	145.280000
518.174744	144.920000
518.268433	145.180000
518.362122	145.640000
518.455811	145.980000
518.549438	146.480000
518.643127	147.420000
518.736816	147.120000
518.830505	146.680000
518.924133	146.660000
519.017822	146.680000
519.111511	145.940000
519.205200	146.400000
519.298828	146.420000
519.392517	146.280000
519.486206	146.160000
519.579895	146.600000
519.673523	146.140000
519.767212	146.040000
519.860901	146.660000
519.954590	146.120000
520.048279	145.440000
520.141907	145.380000
520.235596	146.180000
520.329224	146.120000
520.422974	146.520000
520.516602	146.520000
520.610291	146.440000
520.703918	146.200000
520.797607	145.840000
520.891296	145.540000
520.984985	146.120000
521.078613	146.500000
521.172302	145.760000
521.265930	146.620000
521.359680	147.080000
521.453308	146.680000
521.546997	146.720000
521.640625	147.320000
521.734314	146.420000
521.827942	146.040000
521.921692	146.260000
522.015320	146.140000
522.109009	145.680000
522.202698	145.420000
522.296326	145.560000
522.390015	145.960000
522.483704	146.100000
522.577393	146.040000
522.671021	146.160000
522.764709	145.760000
522.858337	145.720000
522.952026	145.720000
523.045654	146.300000
523.139404	146.820000
523.233032	147.280000
523.326721	147.140000
523.420349	147.040000
523.514038	146.840000
523.607666	146.920000
523.701355	146.200000
523.795044	146.140000
523.888733	146.600000
523.982361	146.580000
524.076050	146.080000
524.169678	146.720000
524.263367	146.360000
524.356995	145.920000
524.450684	145.820000
524.544373	145.600000
524.638062	145.560000
524.731750	145.720000
524.825378	145.520000
524.919067	145.280000
525.012695	145.460000
525.106384	145.140000
525.200012	145.340000
525.293701	145.320000
525.387329	145.760000
525.481018	146.120000
525.574646	146.460000
525.668396	146.260000
525.762024	146.760000
525.855713	146.740000
525.949341	146.300000
526.043030	146.520000
526.136658	146.400000
526.230347	145.640000
526.323975	145.340000
526.417664	145.200000
526.511292	145.180000
526.604980	145.500000
526.698608	145.740000
526.792297	145.740000
526.885925	146.560000
526.979614	146.340000
527.073303	145.960000
527.166931	146.100000
527.260620	146.180000
527.354309	145.800000
527.447998	145.660000
527.541626	145.600000
527.635315	145.620000
527.728943	146.360000
527.822632	146.600000
527.916260	146.980000
528.009949	147.380000
528.103577	147.200000
528.197266	146.240000
528.290894	146.260000
528.384583	146.120000
528.478210	146.360000
528.571899	146.880000
528.665527	147.300000
528.759216	147.200000
528.852844	147.440000
528.946533	147.060000
529.040161	146.780000
529.133850	146.500000
529.227478	146.700000
529.321167	146.620000
529.414856	146.980000
529.508484	147.240000
529.602173	147.160000
529.695801	146.980000
529.789490	146.800000
529.883057	146.380000
529.976746	146.400000
530.070374	146.920000
530.164062	146.600000
530.257690	146.780000
530.351379	147.120000
530.445007	147.140000
530.538696	146.480000
530.632324	146.520000
530.726013	146.260000
530.819641	146.000000
530.913330	145.780000
531.006958	145.840000
531.100647	146.080000
531.194275	146.240000
531.287964	146.160000
531.381592	146.140000
531.475220	146.260000
531.568848	145.960000
531.662537	145.520000
531.756226	145.860000
531.849854	145.640000
531.943542	145.820000
532.037170	145.460000
532.130859	146.200000
532.224487	145.640000
532.318176	145.560000
532.411804	145.900000
532.505432	146.540000
532.599060	146.060000
532.692749	146.100000
532.786377	146.520000
532.880066	145.700000
532.973694	145.140000
533.067383	145.000000
533.161011	144.960000
533.254639	144.960000
533.348267	145.220000
533.441956	145.620000
533.535583	145.620000
533.629272	145.800000
533.722900	145.220000
533.816589	145.240000
533.910156	145.420000
534.003845	145.160000
534.097534	145.380000
534.191162	146.080000
534.284851	146.340000
534.378479	146.300000
534.472107	146.640000
534.565735	146.140000
534.659424	145.960000
534.753052	145.860000
534.846741	145.460000
534.940369	145.860000
535.033997	146.160000
535.127625	146.260000
535.221313	146.780000
535.314941	146.600000
535.408630	145.700000
535.502197	145.920000
535.595886	145.520000
535.689514	145.120000
535.783203	145.800000
535.876831	146.520000
535.970459	146.640000
536.064087	146.340000
536.157776	146.240000
536.251404	146.020000
536.345093	145.760000
536.438721	145.540000
536.532349	146.020000
536.626038	146.040000
536.719666	146.200000
536.813293	146.140000
536.906921	146.140000
537.000610	146.440000
537.094238	146.460000
537.187866	146.240000
537.281494	146.080000
537.375183	146.040000
537.468811	145.740000
537.562439	145.740000
537.656067	145.700000
537.749756	146.020000
537.843384	146.900000
537.937012	146.800000
538.030640	146.420000
538.124329	146.700000
538.217896	147.000000
538.311584	146.320000
538.405212	146.380000
538.498901	146.520000
538.592468	146.980000
538.686157	146.060000
538.779785	145.580000
538.873413	145.660000
538.967102	145.560000
539.060730	144.640000
539.154358	145.540000
539.247986	145.940000
539.341675	146.020000
539.435242	146.200000
539.528931	146.760000
539.622559	146.280000
539.716187	146.840000
539.809814	146.860000
539.903503	146.800000
539.997070	146.500000
540.090759	146.460000
540.184387	146.000000
540.278015	146.300000
540.371643	146.580000
540.465332	146.680000
540.558899	146.660000
540.652588	146.760000
540.746216	146.080000
540.839844	146.280000
540.933472	146.460000
541.027100	146.620000
541.120728	146.500000
541.214417	146.960000
541.308044	146.940000
541.401672	146.460000
541.495300	146.260000
541.588928	146.240000
541.682617	145.720000
541.776184	145.440000
541.869873	146.020000
541.963440	146.260000
542.057129	146.220000
542.150757	146.660000
542.244385	146.360000
542.338013	146.080000
542.431641	146.020000
542.525269	146.000000
542.618958	146.200000
542.712524	146.580000
542.806213	146.340000
542.899780	146.680000
542.993469	146.560000
543.087036	146.080000
543.180725	145.740000
543.274292	145.940000
543.367981	146.000000
543.461548	146.280000
543.555237	146.360000
543.648926	146.800000
543.742493	147.560000
543.836182	147.340000
543.929749	147.020000
544.023437	147.160000
544.117004	146.900000
544.210693	146.240000
544.304260	146.280000
544.397949	146.240000
544.491516	146.620000
544.585205	146.760000
544.678772	146.380000
544.772461	146.320000
544.866028	146.400000
544.959717	146.080000
545.053284	145.780000
545.146973	146.360000
545.240540	146.220000
545.334229	146.940000
545.427795	146.880000
545.521423	146.940000
545.615051	146.700000
545.708679	147.000000
545.802307	146.220000
545.895935	146.400000
545.989624	147.320000
546.083191	147.120000
546.176880	147.120000
546.270447	146.940000
546.364136	147.100000
546.457703	146.400000
546.551331	146.500000
546.644958	146.280000
546.738586	146.420000
546.832214	145.960000
546.925842	145.760000
547.019409	145.960000
547.113098	146.060000
547.206665	146.220000
547.300354	146.320000
547.393921	146.660000
547.487549	146.680000
547.581177	146.240000
547.674805	146.360000
547.768433	146.240000
547.862061	145.980000
547.955627	145.400000
548.049316	146.100000
548.142883	146.100000
548.236572	146.820000
548.330139	146.880000
548.423767	147.120000
548.517456	146.900000
548.611023	146.980000
548.704651	145.940000
548.798279	146.200000
548.891907	146.920000
548.985474	146.920000
549.079163	147.200000
549.172729	147.260000
549.266357	146.720000
549.359985	146.340000
549.453613	145.700000
549.547180	145.220000
549.640869	146.120000
549.734436	146.180000
549.828064	146.620000
549.921631	147.040000
550.015320	146.680000
550.108887	146.600000
550.202515	146.900000
550.296143	146.140000
550.389771	146.000000
550.483337	146.580000
550.576965	146.100000
550.670593	146.420000
550.764221	146.840000
550.857849	146.760000
550.951477	146.140000
551.045105	146.040000
551.138672	146.040000
551.232300	145.460000
551.325928	145.920000
551.419556	146.460000
551.513123	146.580000
551.606750	146.140000
551.700378	146.360000
551.794006	146.380000
551.887573	146.160000
551.981201	146.440000
552.074768	146.300000
552.168457	146.140000
552.262024	146.760000
552.355652	146.860000
552.449219	147.100000
552.542847	147.160000
552.636475	147.160000
552.730103	146.280000
552.823669	145.980000
552.917297	145.340000
553.010864	145.240000
553.104553	145.200000
553.198181	144.860000
553.291748	145.580000
553.385376	145.920000
553.478943	146.000000
553.572571	146.320000
553.666199	146.800000
553.759827	146.240000
553.853394	145.820000
553.947021	145.940000
554.040588	145.960000
554.134216	146.240000
554.227783	146.800000
554.321411	147.320000
554.415039	146.800000
554.508667	146.640000
554.602234	146.400000
554.695862	145.640000
554.789429	145.380000
554.883057	145.940000
554.976624	146.000000
555.070251	145.920000
555.163818	145.760000
555.257507	145.700000
555.351074	145.540000
555.444702	146.500000
555.538330	146.360000
555.631897	146.960000
555.725525	146.620000
555.819092	146.320000
555.912720	145.040000
556.006287	145.460000
556.099915	145.480000
556.193481	145.920000
556.287109	146.420000
556.380676	146.500000
556.474304	146.180000
556.567871	146.080000
556.661499	145.500000
556.755066	145.640000
556.848694	145.820000
556.942261	145.860000
557.035889	146.060000
557.129517	146.660000
557.223145	146.840000
557.316711	146.600000
557.410339	146.780000
557.503906	146.520000
557.597473	146.560000
557.691040	146.140000
557.784668	146.440000
557.878296	146.100000
557.971863	146.240000
558.065491	146.120000
558.159058	145.880000
558.252686	146.580000
558.346252	147.580000
558.439880	147.240000
558.533447	147.020000
558.627075	147.020000
558.720642	146.120000
558.814270	145.300000
558.907837	145.420000
559.001465	145.320000
559.095032	145.880000
559.188660	146.200000
559.282227	145.660000
559.375854	146.360000
559.469360	146.460000
559.562988	146.760000
559.656555	146.620000
559.750183	147.320000
559.843750	147.060000
559.937378	147.380000
560.030945	146.960000
560.124573	0.000000
560.218140	0.000000
560.311707	0.000000
560.405334	0.000000
560.498901	0.000000
560.592529	0.000000
560.686096	0.000000
560.779724	0.000000
560.873291	0.000000
560.966858	0.000000
561.060425	0.000000
561.154053	0.000000
561.247620	0.000000
561.341248	0.000000
561.434814	0.000000
561.528381	0.000000
561.621948	0.000000
561.715576	0.000000
561.809143	0.000000
561.902771	0.000000
561.996277	0.000000
562.089905	0.000000
562.183472	0.000000
562.277100	0.000000
