Model Number: SPM-002-B   
Serial Number: 70087108
Firmware Version: 004.15.4
Exposure Time: 100000.000000us
Data Taken on: 11-12-2020 18:48:31.163
Wavelength	Amplitude
221.570786	0.000000
221.663406	0.000000
221.756027	0.000000
221.848648	0.000000
221.941269	0.000000
222.033905	0.000000
222.126526	0.000000
222.219162	0.000000
222.311798	0.000000
222.404419	0.000000
222.497055	0.000000
222.589676	0.000000
222.682312	0.000000
222.774933	0.000000
222.867569	0.000000
222.960205	0.000000
223.052841	0.000000
223.145462	0.000000
223.238098	0.000000
223.330734	0.000000
223.423386	0.000000
223.516022	0.000000
223.608658	0.000000
223.701309	0.000000
223.793945	0.000000
223.886581	0.000000
223.979218	0.000000
224.071869	0.000000
224.164505	0.000000
224.257156	0.000000
224.349792	0.000000
224.442444	0.000000
224.535095	0.000000
224.627747	0.000000
224.720398	0.000000
224.813034	0.000000
224.905685	0.000000
224.998337	145.220000
225.090988	145.260000
225.183640	145.160000
225.276291	145.240000
225.368942	145.980000
225.461594	146.180000
225.554245	146.080000
225.646912	145.940000
225.739578	146.480000
225.832230	146.640000
225.924896	145.940000
226.017548	146.160000
226.110199	146.940000
226.202866	146.260000
226.295532	146.260000
226.388184	146.260000
226.480850	145.740000
226.573517	145.260000
226.666168	145.720000
226.758835	145.720000
226.851501	146.580000
226.944183	146.780000
227.036850	146.140000
227.129517	145.880000
227.222183	145.840000
227.314850	145.320000
227.407516	145.680000
227.500198	146.660000
227.592865	146.300000
227.685532	145.960000
227.778214	145.740000
227.870880	146.000000
227.963562	146.180000
228.056229	146.840000
228.148926	146.940000
228.241592	147.660000
228.334274	147.260000
228.426956	146.720000
228.519638	146.600000
228.612305	146.220000
228.704987	146.320000
228.797668	146.240000
228.890350	146.060000
228.983032	145.520000
229.075714	146.360000
229.168396	146.000000
229.261108	145.720000
229.353790	145.620000
229.446472	145.880000
229.539169	145.680000
229.631851	145.120000
229.724533	145.200000
229.817230	145.720000
229.909912	146.480000
230.002609	146.340000
230.095306	146.620000
230.187988	146.660000
230.280685	146.520000
230.373383	145.420000
230.466095	145.080000
230.558792	145.480000
230.651474	145.560000
230.744171	145.460000
230.836868	145.560000
230.929581	146.100000
231.022278	145.900000
231.114975	146.160000
231.207672	146.100000
231.300369	146.720000
231.393082	146.720000
231.485779	146.480000
231.578506	146.240000
231.671204	146.400000
231.763916	146.140000
231.856613	145.840000
231.949326	145.920000
232.042023	145.940000
232.134735	145.660000
232.227448	145.140000
232.320160	145.560000
232.412872	145.880000
232.505585	146.460000
232.598297	146.940000
232.691010	147.300000
232.783722	146.700000
232.876450	147.060000
232.969162	146.420000
233.061874	145.640000
233.154587	145.280000
233.247314	145.780000
233.340027	145.300000
233.432739	145.960000
233.525467	146.160000
233.618179	147.120000
233.710907	146.640000
233.803635	146.680000
233.896347	146.300000
233.989090	146.780000
234.081818	146.240000
234.174545	146.620000
234.267258	146.420000
234.359985	146.400000
234.452713	146.360000
234.545441	146.100000
234.638168	145.700000
234.730896	146.120000
234.823639	146.160000
234.916367	146.260000
235.009094	146.460000
235.101822	146.620000
235.194580	146.620000
235.287308	146.520000
235.380051	145.880000
235.472778	146.100000
235.565521	146.500000
235.658249	146.080000
235.750992	146.040000
235.843719	146.540000
235.936462	146.720000
236.029205	146.400000
236.121948	146.120000
236.214691	146.380000
236.307449	146.820000
236.400192	146.320000
236.492935	146.120000
236.585678	146.440000
236.678421	146.220000
236.771164	145.820000
236.863907	146.320000
236.956665	146.680000
237.049408	148.240000
237.142151	147.920000
237.234909	148.280000
237.327652	148.340000
237.420410	147.840000
237.513153	146.740000
237.605927	146.440000
237.698669	145.980000
237.791428	145.260000
237.884186	145.900000
237.976944	145.060000
238.069702	146.020000
238.162445	145.800000
238.255203	146.020000
238.347961	146.120000
238.440720	146.440000
238.533478	145.940000
238.626266	145.540000
238.719025	145.880000
238.811783	145.460000
238.904541	145.420000
238.997314	145.220000
239.090073	145.360000
239.182831	145.600000
239.275604	146.240000
239.368362	146.060000
239.461136	146.300000
239.553909	146.440000
239.646667	145.760000
239.739441	145.140000
239.832214	145.480000
239.925003	145.700000
240.017761	146.360000
240.110535	147.080000
240.203308	146.860000
240.296082	146.980000
240.388855	146.880000
240.481628	146.600000
240.574417	146.660000
240.667191	147.180000
240.759964	146.720000
240.852737	146.540000
240.945526	146.200000
241.038315	145.640000
241.131088	145.320000
241.223877	145.800000
241.316650	145.380000
241.409439	145.700000
241.502228	145.340000
241.595001	146.020000
241.687790	145.920000
241.780579	146.180000
241.873367	146.580000
241.966141	147.020000
242.058929	146.460000
242.151718	146.560000
242.244507	147.120000
242.337311	145.800000
242.430099	146.260000
242.522903	146.200000
242.615692	145.760000
242.708481	145.700000
242.801270	146.860000
242.894073	146.500000
242.986862	146.520000
243.079651	147.500000
243.172455	147.040000
243.265244	146.960000
243.358063	146.560000
243.450867	146.820000
243.543655	146.140000
243.636459	146.620000
243.729263	146.720000
243.822067	147.000000
243.914856	147.420000
244.007660	147.560000
244.100464	147.460000
244.193268	146.880000
244.286072	146.600000
244.378876	146.000000
244.471680	145.840000
244.564499	145.840000
244.657318	146.800000
244.750122	146.960000
244.842926	146.340000
244.935745	146.720000
245.028549	146.460000
245.121368	145.620000
245.214172	145.680000
245.306992	146.260000
245.399796	145.840000
245.492615	145.780000
245.585434	145.960000
245.678253	146.060000
245.771072	146.180000
245.863892	146.780000
245.956711	147.440000
246.049530	147.200000
246.142349	147.060000
246.235168	147.060000
246.327988	147.260000
246.420807	146.480000
246.513626	146.540000
246.606445	146.300000
246.699280	146.020000
246.792099	145.300000
246.884918	145.080000
246.977753	144.880000
247.070587	145.180000
247.163422	145.160000
247.256241	145.360000
247.349075	146.000000
247.441895	146.240000
247.534729	146.140000
247.627563	145.980000
247.720383	146.680000
247.813217	146.420000
247.906052	146.180000
247.998886	146.220000
248.091736	146.500000
248.184570	145.840000
248.277405	145.900000
248.370239	146.820000
248.463074	147.880000
248.555908	148.040000
248.648743	147.800000
248.741592	147.840000
248.834427	147.340000
248.927261	146.100000
249.020111	146.340000
249.112946	146.940000
249.205795	146.700000
249.298630	146.780000
249.391495	146.700000
249.484344	146.440000
249.577179	146.200000
249.670029	146.240000
249.762878	146.480000
249.855728	146.860000
249.948563	146.880000
250.041412	146.160000
250.134262	146.620000
250.227112	146.480000
250.319962	146.660000
250.412827	146.600000
250.505692	146.480000
250.598541	146.160000
250.691391	145.820000
250.784241	145.500000
250.877106	145.740000
250.969955	145.780000
251.062805	146.340000
251.155670	147.020000
251.248520	147.060000
251.341385	147.200000
251.434235	147.340000
251.527100	146.880000
251.619965	145.980000
251.712814	146.540000
251.805695	146.100000
251.898560	146.420000
251.991425	146.440000
252.084290	146.900000
252.177155	146.400000
252.270020	146.380000
252.362885	146.100000
252.455750	146.520000
252.548615	146.040000
252.641479	145.640000
252.734360	145.500000
252.827240	145.420000
252.920105	145.100000
253.012970	145.300000
253.105850	145.680000
253.198715	145.540000
253.291595	145.940000
253.384460	145.500000
253.477341	145.540000
253.570221	145.540000
253.663086	145.460000
253.755966	145.860000
253.848846	146.120000
253.941727	146.380000
254.034592	146.220000
254.127472	145.960000
254.220367	145.740000
254.313248	145.760000
254.406128	145.260000
254.499008	145.720000
254.591904	146.580000
254.684784	147.020000
254.777664	146.880000
254.870544	146.740000
254.963440	146.780000
255.056335	146.880000
255.149216	146.240000
255.242111	147.220000
255.334991	147.680000
255.427887	147.540000
255.520767	147.560000
255.613663	148.000000
255.706558	146.880000
255.799438	146.580000
255.892334	146.380000
255.985229	146.160000
256.078125	145.900000
256.171021	146.460000
256.263916	147.020000
256.356812	147.100000
256.449707	147.180000
256.542603	146.700000
256.635498	146.800000
256.728394	146.580000
256.821289	146.400000
256.914215	146.560000
257.007080	147.180000
257.100006	147.120000
257.192932	147.540000
257.285828	147.840000
257.378723	147.660000
257.471619	147.220000
257.564545	146.660000
257.657440	146.400000
257.750336	146.640000
257.843262	146.320000
257.936157	147.580000
258.029053	148.200000
258.121979	148.220000
258.214874	147.860000
258.307800	147.580000
258.400696	146.280000
258.493622	146.240000
258.586517	145.620000
258.679443	145.840000
258.772339	146.100000
258.865265	146.140000
258.958160	145.420000
259.051086	146.060000
259.144012	145.780000
259.236938	146.480000
259.329834	146.700000
259.422791	146.820000
259.515717	146.480000
259.608612	146.340000
259.701538	146.020000
259.794464	145.780000
259.887390	145.740000
259.980316	145.600000
260.073212	145.580000
260.166138	144.520000
260.259064	145.140000
260.351990	146.180000
260.444916	146.580000
260.537842	146.880000
260.630768	148.100000
260.723694	147.400000
260.816620	146.720000
260.909546	146.560000
261.002472	146.180000
261.095398	145.420000
261.188354	145.740000
261.281281	145.540000
261.374207	145.480000
261.467133	146.260000
261.560089	146.660000
261.653015	146.520000
261.745972	147.300000
261.838867	147.600000
261.931824	147.580000
262.024780	147.120000
262.117706	147.440000
262.210663	147.140000
262.303589	147.100000
262.396515	146.500000
262.489471	147.460000
262.582397	147.020000
262.675354	146.660000
262.768280	146.500000
262.861237	146.840000
262.954163	146.660000
263.047119	146.700000
263.140045	146.540000
263.233002	146.280000
263.325958	146.020000
263.418884	145.020000
263.511841	145.340000
263.604797	145.480000
263.697723	145.640000
263.790680	145.560000
263.883636	146.460000
263.976593	146.160000
264.069550	146.180000
264.162476	146.020000
264.255463	146.640000
264.348419	146.080000
264.441376	146.500000
264.534332	145.880000
264.627289	146.040000
264.720245	146.020000
264.813202	145.980000
264.906158	146.180000
264.999115	147.060000
265.092072	147.040000
265.185028	147.000000
265.277985	147.360000
265.370941	146.760000
265.463898	146.560000
265.556854	146.260000
265.649811	145.460000
265.742798	145.660000
265.835754	145.760000
265.928711	146.100000
266.021667	146.160000
266.114655	146.800000
266.207611	146.780000
266.300568	146.280000
266.393585	145.840000
266.486511	146.100000
266.579498	145.380000
266.672485	145.120000
266.765442	145.360000
266.858429	145.940000
266.951385	145.640000
267.044342	146.040000
267.137329	146.280000
267.230316	146.740000
267.323273	146.160000
267.416260	146.980000
267.509216	146.980000
267.602203	146.960000
267.695160	147.120000
267.788147	147.400000
267.881134	146.760000
267.974091	146.820000
268.067078	146.380000
268.160065	145.980000
268.253052	145.560000
268.346008	145.620000
268.438995	145.480000
268.531982	145.620000
268.624969	145.420000
268.717987	145.860000
268.810944	145.780000
268.903961	145.800000
268.996948	145.680000
269.089905	146.340000
269.182892	146.440000
269.275879	146.660000
269.368866	146.380000
269.461853	146.820000
269.554871	146.080000
269.647858	145.820000
269.740845	146.260000
269.833832	146.680000
269.926819	146.260000
270.019806	146.760000
270.112793	146.320000
270.205811	146.380000
270.298798	146.180000
270.391785	146.700000
270.484772	146.280000
270.577789	146.640000
270.670776	146.100000
270.763763	146.200000
270.856750	146.140000
270.949768	146.420000
271.042786	146.560000
271.135773	146.580000
271.228790	146.880000
271.321808	146.160000
271.414795	145.700000
271.507782	145.300000
271.600800	144.920000
271.693817	144.380000
271.786804	145.080000
271.879822	145.480000
271.972809	145.760000
272.065826	146.520000
272.158844	146.380000
272.251831	146.600000
272.344849	146.220000
272.437866	146.100000
272.530853	146.160000
272.623871	146.680000
272.716888	145.740000
272.809906	146.280000
272.902893	146.220000
272.995911	145.560000
273.088928	145.840000
273.181946	146.300000
273.274963	146.060000
273.367981	146.060000
273.460999	146.320000
273.554047	146.440000
273.647003	147.260000
273.740051	147.260000
273.833069	147.760000
273.926086	148.040000
274.019135	147.680000
274.112152	147.120000
274.205170	147.280000
274.298187	147.440000
274.391205	146.820000
274.484222	146.720000
274.577240	146.480000
274.670258	146.080000
274.763306	145.520000
274.856323	146.160000
274.949341	146.240000
275.042358	146.900000
275.135406	147.080000
275.228424	147.120000
275.321442	146.800000
275.414490	146.420000
275.507507	146.320000
275.600525	146.920000
275.693573	147.020000
275.786591	146.600000
275.879669	147.100000
275.972656	146.580000
276.065735	146.100000
276.158752	146.460000
276.251801	147.060000
276.344818	146.840000
276.437866	147.060000
276.530884	146.880000
276.623932	146.060000
276.716980	146.140000
276.809998	146.100000
276.903046	146.200000
276.996094	147.040000
277.089111	147.820000
277.182159	148.240000
277.275208	148.400000
277.368256	147.980000
277.461304	147.440000
277.554321	146.640000
277.647369	146.200000
277.740417	145.780000
277.833466	145.800000
277.926514	145.680000
278.019562	146.400000
278.112610	145.580000
278.205688	145.980000
278.298706	146.260000
278.391785	146.040000
278.484833	145.440000
278.577881	145.820000
278.670929	146.020000
278.763977	146.140000
278.857025	146.740000
278.950073	146.600000
279.043121	146.440000
279.136169	146.000000
279.229248	145.480000
279.322296	145.280000
279.415344	145.500000
279.508392	145.420000
279.601440	145.520000
279.694519	145.540000
279.787567	145.360000
279.880615	145.440000
279.973694	145.360000
280.066742	145.520000
280.159790	146.040000
280.252869	145.480000
280.345917	145.500000
280.438995	145.840000
280.532074	145.680000
280.625122	145.780000
280.718201	147.100000
280.811279	147.180000
280.904327	147.100000
280.997406	147.160000
281.090454	147.000000
281.183533	146.100000
281.276581	145.960000
281.369659	145.840000
281.462738	145.980000
281.555786	145.920000
281.648865	146.060000
281.741943	146.220000
281.835022	147.100000
281.928070	146.780000
282.021149	146.760000
282.114227	146.660000
282.207306	146.480000
282.300385	146.340000
282.393433	146.500000
282.486511	146.080000
282.579590	146.680000
282.672668	146.920000
282.765747	146.140000
282.858856	146.140000
282.951904	146.600000
283.045013	146.360000
283.138062	146.580000
283.231171	147.020000
283.324249	147.480000
283.417328	147.440000
283.510406	147.060000
283.603485	146.720000
283.696564	146.540000
283.789642	146.240000
283.882751	146.040000
283.975830	146.720000
284.068909	146.340000
284.161987	147.040000
284.255066	146.520000
284.348175	146.600000
284.441254	145.980000
284.534332	146.700000
284.627441	146.120000
284.720520	145.880000
284.813599	145.840000
284.906708	146.300000
284.999786	145.580000
285.092896	145.120000
285.185974	146.400000
285.279053	146.100000
285.372192	146.060000
285.465240	146.960000
285.558380	147.060000
285.651459	146.540000
285.744568	147.460000
285.837677	146.800000
285.930756	146.200000
286.023865	146.340000
286.116943	145.840000
286.210052	145.520000
286.303162	145.840000
286.396240	145.820000
286.489349	145.860000
286.582458	146.180000
286.675568	145.640000
286.768646	145.780000
286.861755	146.140000
286.954865	146.860000
287.047974	146.380000
287.141083	146.360000
287.234161	146.020000
287.327271	145.720000
287.420380	145.480000
287.513519	145.440000
287.606598	145.720000
287.699738	146.080000
287.792816	145.760000
287.885956	145.860000
287.979034	146.360000
288.072174	146.500000
288.165283	146.140000
288.258392	146.860000
288.351501	146.020000
288.444611	145.940000
288.537720	146.080000
288.630859	146.140000
288.723969	146.120000
288.817078	146.440000
288.910187	146.260000
289.003296	145.840000
289.096436	145.680000
289.189545	145.300000
289.282654	145.180000
289.375763	145.740000
289.468903	146.260000
289.562012	146.720000
289.655121	146.920000
289.748260	147.080000
289.841400	147.340000
289.934509	147.040000
290.027649	146.980000
290.120728	146.560000
290.213898	146.660000
290.306976	146.120000
290.400146	146.220000
290.493256	146.180000
290.586395	146.640000
290.679535	146.680000
290.772644	146.540000
290.865784	145.580000
290.958893	145.420000
291.052032	145.220000
291.145172	145.060000
291.238281	144.760000
291.331421	145.160000
291.424561	145.560000
291.517670	145.240000
291.610809	145.560000
291.703949	145.580000
291.797089	145.800000
291.890228	145.120000
291.983337	145.200000
292.076477	144.780000
292.169617	145.160000
292.262756	145.420000
292.355927	145.920000
292.449036	145.860000
292.542206	146.100000
292.635315	146.340000
292.728485	146.660000
292.821625	146.100000
292.914764	147.280000
293.007904	147.160000
293.101044	146.920000
293.194183	146.340000
293.287323	146.560000
293.380463	145.760000
293.473602	145.860000
293.566742	145.920000
293.659882	146.400000
293.753021	147.000000
293.846191	146.780000
293.939331	146.500000
294.032471	146.500000
294.125610	146.140000
294.218781	146.000000
294.311920	146.560000
294.405060	146.680000
294.498230	146.800000
294.591370	146.960000
294.684540	146.240000
294.777679	145.720000
294.870850	146.160000
294.963959	145.720000
295.057159	145.320000
295.150299	145.820000
295.243469	145.720000
295.336609	145.020000
295.429779	145.300000
295.522919	145.820000
295.616089	145.700000
295.709229	146.460000
295.802399	146.760000
295.895569	146.460000
295.988708	146.400000
296.081879	146.720000
296.175018	146.140000
296.268188	146.060000
296.361359	146.800000
296.454529	147.020000
296.547668	146.820000
296.640839	147.220000
296.734009	146.880000
296.827179	146.780000
296.920319	146.800000
297.013519	146.680000
297.106659	146.540000
297.199860	146.900000
297.292999	146.520000
297.386200	146.100000
297.479309	145.940000
297.572510	145.800000
297.665680	145.620000
297.758850	145.860000
297.852020	145.940000
297.945190	146.000000
298.038361	145.720000
298.131531	146.720000
298.224701	146.260000
298.317871	145.920000
298.411072	145.780000
298.504242	145.920000
298.597412	144.920000
298.690582	145.180000
298.783752	145.580000
298.876923	146.080000
298.970093	146.160000
299.063293	146.800000
299.156464	147.040000
299.249634	147.000000
299.342834	147.040000
299.436005	147.120000
299.529205	146.820000
299.622345	147.040000
299.715576	146.600000
299.808716	146.280000
299.901917	146.240000
299.995117	146.260000
300.088287	146.000000
300.181488	145.620000
300.274658	145.720000
300.367828	145.520000
300.461029	145.680000
300.554199	145.860000
300.647400	146.320000
300.740601	146.600000
300.833771	146.600000
300.926971	146.800000
301.020142	146.360000
301.113342	146.580000
301.206512	146.420000
301.299713	146.700000
301.392914	146.640000
301.486084	146.980000
301.579285	146.840000
301.672516	147.380000
301.765686	147.180000
301.858887	146.900000
301.952057	146.880000
302.045288	146.740000
302.138458	146.040000
302.231659	145.740000
302.324860	145.520000
302.418060	145.000000
302.511261	144.980000
302.604462	145.300000
302.697662	145.440000
302.790863	145.740000
302.884064	145.740000
302.977264	145.980000
303.070465	146.060000
303.163666	146.660000
303.256866	146.720000
303.350067	146.860000
303.443268	146.840000
303.536469	146.680000
303.629669	146.140000
303.722870	146.500000
303.816071	146.240000
303.909271	146.340000
304.002472	145.900000
304.095673	145.800000
304.188934	144.800000
304.282104	145.720000
304.375336	145.660000
304.468506	145.760000
304.561768	145.460000
304.654968	146.300000
304.748169	145.660000
304.841370	145.380000
304.934601	145.740000
305.027802	145.880000
305.121002	145.220000
305.214233	145.480000
305.307434	145.680000
305.400665	146.100000
305.493866	146.420000
305.587097	146.880000
305.680298	146.460000
305.773499	146.780000
305.866730	146.420000
305.959930	146.760000
306.053162	146.860000
306.146393	146.740000
306.239594	146.160000
306.332825	146.140000
306.426025	146.460000
306.519287	145.780000
306.612488	146.020000
306.705719	146.320000
306.798920	146.160000
306.892181	145.600000
306.985352	145.680000
307.078613	145.200000
307.171844	145.480000
307.265045	145.160000
307.358276	144.840000
307.451508	145.360000
307.544739	146.280000
307.637970	145.780000
307.731201	145.800000
307.824402	146.440000
307.917633	146.300000
308.010864	146.540000
308.104095	147.160000
308.197327	147.440000
308.290558	147.360000
308.383789	147.140000
308.477020	146.300000
308.570251	145.500000
308.663483	145.180000
308.756714	144.860000
308.849976	144.620000
308.943176	145.760000
309.036438	145.700000
309.129639	145.800000
309.222900	145.920000
309.316101	146.140000
309.409393	145.100000
309.502625	145.140000
309.595856	145.200000
309.689087	145.020000
309.782318	145.200000
309.875580	145.340000
309.968811	145.480000
310.062042	145.240000
310.155273	145.060000
310.248535	145.240000
310.341766	145.340000
310.434998	145.460000
310.528259	145.620000
310.621490	146.080000
310.714722	145.460000
310.807983	145.500000
310.901215	145.440000
310.994476	145.820000
311.087708	145.580000
311.181000	146.100000
311.274200	145.660000
311.367462	145.580000
311.460693	144.980000
311.553986	145.660000
311.647186	145.500000
311.740479	146.360000
311.833710	146.240000
311.926971	146.560000
312.020203	145.860000
312.113464	145.800000
312.206726	144.860000
312.299957	145.360000
312.393219	145.780000
312.486481	145.860000
312.579712	146.020000
312.672974	145.980000
312.766235	145.820000
312.859497	145.540000
312.952759	145.560000
313.045990	145.920000
313.139252	145.840000
313.232513	145.880000
313.325775	145.960000
313.419037	145.920000
313.512299	145.240000
313.605530	146.120000
313.698822	146.280000
313.792053	146.080000
313.885345	145.440000
313.978577	145.660000
314.071869	145.040000
314.165131	145.200000
314.258392	145.780000
314.351654	146.200000
314.444916	145.680000
314.538177	146.160000
314.631439	145.980000
314.724701	145.320000
314.817993	145.380000
314.911255	146.020000
315.004517	145.680000
315.097778	145.580000
315.191040	146.040000
315.284302	146.420000
315.377594	146.100000
315.470856	145.920000
315.564117	145.540000
315.657379	145.160000
315.750671	144.500000
315.843933	145.040000
315.937195	144.960000
316.030518	145.000000
316.123749	145.020000
316.217041	145.960000
316.310303	145.480000
316.403595	145.720000
316.496857	145.880000
316.590149	145.940000
316.683411	145.000000
316.776703	144.940000
316.869965	144.760000
316.963257	144.640000
317.056519	144.160000
317.149811	144.200000
317.243073	144.200000
317.336365	144.600000
317.429626	145.100000
317.522919	145.720000
317.616180	146.180000
317.709473	145.940000
317.802765	145.800000
317.896027	145.380000
317.989319	145.500000
318.082611	145.360000
318.175873	145.720000
318.269165	145.740000
318.362488	145.760000
318.455750	145.340000
318.549042	145.700000
318.642303	146.140000
318.735626	145.860000
318.828888	146.120000
318.922211	145.700000
319.015472	146.080000
319.108765	145.300000
319.202057	145.300000
319.295349	145.120000
319.388641	145.220000
319.481934	144.640000
319.575226	144.440000
319.668518	144.780000
319.761810	145.240000
319.855103	145.580000
319.948395	145.660000
320.041687	146.260000
320.134979	146.280000
320.228271	145.840000
320.321564	145.800000
320.414856	145.580000
320.508148	145.120000
320.601440	144.800000
320.694763	144.600000
320.788025	145.400000
320.881348	145.640000
320.974640	145.740000
321.067963	145.680000
321.161224	145.840000
321.254547	144.800000
321.347839	145.400000
321.441162	145.220000
321.534454	145.240000
321.627747	144.960000
321.721069	145.640000
321.814362	145.060000
321.907654	145.480000
322.000946	145.480000
322.094269	146.160000
322.187561	145.700000
322.280884	145.820000
322.374176	146.140000
322.467468	146.920000
322.560791	146.740000
322.654083	147.160000
322.747406	147.220000
322.840698	147.240000
322.934021	147.200000
323.027344	147.200000
323.120636	146.820000
323.213959	146.700000
323.307251	145.760000
323.400574	145.220000
323.493866	145.080000
323.587219	145.520000
323.680511	145.740000
323.773834	146.380000
323.867157	146.500000
323.960449	146.380000
324.053772	145.740000
324.147095	145.260000
324.240387	145.280000
324.333710	145.200000
324.427032	145.480000
324.520355	145.620000
324.613647	145.840000
324.706970	145.480000
324.800293	145.500000
324.893616	145.720000
324.986938	146.080000
325.080231	145.660000
325.173553	146.220000
325.266876	146.500000
325.360199	146.280000
325.453522	145.820000
325.546875	145.840000
325.640167	145.920000
325.733521	146.000000
325.826813	146.120000
325.920166	146.000000
326.013489	145.920000
326.106812	145.080000
326.200134	144.620000
326.293457	144.180000
326.386780	144.520000
326.480103	144.720000
326.573425	144.960000
326.666748	144.880000
326.760071	145.400000
326.853424	145.520000
326.946747	145.360000
327.040070	146.200000
327.133392	146.460000
327.226715	145.860000
327.320068	145.400000
327.413391	146.140000
327.506714	145.220000
327.600037	145.080000
327.693390	145.260000
327.786713	145.480000
327.880066	145.240000
327.973358	146.080000
328.066742	146.320000
328.160034	146.620000
328.253418	147.040000
328.346710	146.500000
328.440063	146.100000
328.533417	146.000000
328.626740	146.320000
328.720093	146.040000
328.813416	146.580000
328.906769	146.400000
329.000092	146.440000
329.093445	146.100000
329.186768	145.940000
329.280121	146.180000
329.373444	146.680000
329.466797	146.640000
329.560120	146.420000
329.653473	146.720000
329.746796	146.180000
329.840149	145.820000
329.933502	145.820000
330.026825	145.900000
330.120178	145.600000
330.213562	145.560000
330.306854	145.420000
330.400238	145.340000
330.493561	145.060000
330.586945	145.960000
330.680237	146.560000
330.773621	146.940000
330.866974	147.000000
330.960327	147.560000
331.053680	147.060000
331.147003	146.640000
331.240356	146.780000
331.333710	146.840000
331.427063	146.400000
331.520416	146.180000
331.613770	145.820000
331.707123	145.880000
331.800476	145.940000
331.893829	146.860000
331.987152	146.740000
332.080505	147.140000
332.173859	146.600000
332.267212	146.200000
332.360565	145.400000
332.453918	145.560000
332.547333	145.540000
332.640656	145.680000
332.734039	146.040000
332.827362	146.100000
332.920746	146.400000
333.014069	146.700000
333.107452	146.980000
333.200806	146.900000
333.294159	147.260000
333.387543	146.480000
333.480896	146.020000
333.574249	145.720000
333.667603	145.440000
333.760956	145.500000
333.854340	146.120000
333.947693	146.060000
334.041046	146.220000
334.134430	146.740000
334.227783	146.260000
334.321136	145.720000
334.414520	145.800000
334.507874	145.860000
334.601227	145.860000
334.694611	145.800000
334.787964	146.000000
334.881348	146.240000
334.974701	146.060000
335.068085	145.440000
335.161438	145.740000
335.254822	145.760000
335.348175	145.320000
335.441559	145.140000
335.534943	146.040000
335.628296	145.740000
335.721680	145.880000
335.815033	146.320000
335.908417	146.500000
336.001770	146.080000
336.095154	146.160000
336.188538	145.800000
336.281891	145.160000
336.375275	144.640000
336.468658	144.460000
336.562012	144.500000
336.655396	145.120000
336.748779	146.020000
336.842133	146.400000
336.935516	146.860000
337.028900	146.580000
337.122284	146.180000
337.215637	146.240000
337.309021	146.420000
337.402435	145.720000
337.495789	145.920000
337.589203	145.860000
337.682526	145.140000
337.775940	145.100000
337.869324	145.540000
337.962708	145.420000
338.056091	146.100000
338.149475	145.940000
338.242859	146.120000
338.336243	145.860000
338.429626	146.000000
338.523010	145.740000
338.616394	145.920000
338.709778	145.740000
338.803162	146.100000
338.896545	146.340000
338.989929	145.840000
339.083313	146.120000
339.176697	145.920000
339.270081	145.520000
339.363464	145.640000
339.456848	146.160000
339.550232	145.560000
339.643616	145.600000
339.737030	145.840000
339.830383	145.180000
339.923828	144.880000
340.017181	145.280000
340.110596	145.540000
340.203949	145.700000
340.297363	145.780000
340.390778	145.680000
340.484161	145.740000
340.577545	145.540000
340.670959	145.340000
340.764343	145.600000
340.857727	145.980000
340.951111	145.600000
341.044525	145.860000
341.137909	145.660000
341.231293	145.320000
341.324707	144.700000
341.418091	145.500000
341.511505	145.340000
341.604889	145.400000
341.698303	145.720000
341.791687	145.880000
341.885071	145.220000
341.978485	144.860000
342.071899	145.120000
342.165283	145.100000
342.258698	145.400000
342.352081	146.000000
342.445496	146.740000
342.538879	146.480000
342.632324	146.240000
342.725708	146.340000
342.819122	145.880000
342.912506	145.420000
343.005920	145.560000
343.099335	146.380000
343.192719	146.020000
343.286133	145.900000
343.379547	146.120000
343.472931	145.920000
343.566345	145.080000
343.659760	145.440000
343.753143	145.580000
343.846558	145.200000
343.939972	145.680000
344.033386	146.360000
344.126770	145.780000
344.220184	146.000000
344.313599	146.440000
344.407043	146.280000
344.500427	145.680000
344.593872	146.340000
344.687225	145.940000
344.780670	145.660000
344.874054	145.120000
344.967499	145.840000
345.060913	145.800000
345.154327	145.600000
345.247742	145.540000
345.341156	145.720000
345.434570	145.280000
345.527985	145.240000
345.621399	145.740000
345.714813	145.760000
345.808228	146.160000
345.901642	145.880000
345.995056	145.400000
346.088470	145.500000
346.181885	145.640000
346.275299	145.220000
346.368713	145.340000
346.462128	145.320000
346.555573	145.200000
346.648987	145.220000
346.742401	145.360000
346.835815	145.620000
346.929260	145.700000
347.022644	145.660000
347.116119	145.880000
347.209503	146.100000
347.302948	146.900000
347.396362	147.420000
347.489807	147.460000
347.583221	147.980000
347.676636	147.620000
347.770050	146.240000
347.863495	145.740000
347.956909	145.760000
348.050323	144.900000
348.143768	145.200000
348.237183	145.480000
348.330597	146.120000
348.424042	146.420000
348.517456	146.960000
348.610901	147.160000
348.704315	147.260000
348.797760	146.640000
348.891174	146.120000
348.984619	145.520000
349.078033	145.580000
349.171448	145.920000
349.264923	145.940000
349.358337	145.960000
349.451782	146.260000
349.545197	145.600000
349.638641	145.020000
349.732086	144.600000
349.825500	144.920000
349.918945	144.340000
350.012390	145.080000
350.105804	145.780000
350.199249	146.040000
350.292664	146.580000
350.386108	146.960000
350.479553	147.140000
350.572968	146.760000
350.666412	147.060000
350.759857	146.600000
350.853302	146.720000
350.946716	145.980000
351.040161	145.940000
351.133606	146.140000
351.227081	146.060000
351.320465	146.720000
351.413940	147.020000
351.507355	147.260000
351.600830	147.320000
351.694244	147.160000
351.787720	146.780000
351.881104	146.880000
351.974579	146.420000
352.067993	146.960000
352.161469	146.800000
352.254883	145.960000
352.348358	145.780000
352.441803	145.840000
352.535248	145.060000
352.628693	145.740000
352.722137	146.080000
352.815582	145.940000
352.909027	146.260000
353.002472	146.340000
353.095917	145.660000
353.189362	145.980000
353.282806	146.060000
353.376251	145.800000
353.469696	145.260000
353.563141	145.920000
353.656586	145.540000
353.750061	145.200000
353.843475	145.260000
353.936981	146.120000
354.030396	145.560000
354.123871	145.700000
354.217285	146.660000
354.310760	146.960000
354.404175	146.920000
354.497681	146.540000
354.591095	146.800000
354.684570	145.900000
354.777985	145.680000
354.871490	145.180000
354.964935	145.720000
355.058380	145.560000
355.151855	145.300000
355.245300	145.680000
355.338745	146.300000
355.432220	146.320000
355.525665	145.940000
355.619110	146.680000
355.712585	146.220000
355.806030	145.700000
355.899475	145.560000
355.992950	146.160000
356.086426	146.300000
356.179871	146.440000
356.273346	146.480000
356.366791	146.520000
356.460266	146.740000
356.553711	146.240000
356.647186	146.260000
356.740631	146.100000
356.834106	145.960000
356.927551	145.800000
357.021027	145.580000
357.114471	145.740000
357.207947	146.020000
357.301422	146.340000
357.394867	146.400000
357.488342	147.360000
357.581818	147.360000
357.675262	147.600000
357.768738	147.300000
357.862213	146.600000
357.955658	145.960000
358.049133	145.740000
358.142609	145.920000
358.236053	145.880000
358.329529	146.180000
358.423035	146.720000
358.516449	146.500000
358.609955	146.360000
358.703400	147.280000
358.796906	147.320000
358.890350	146.560000
358.983826	147.120000
359.077271	146.680000
359.170776	146.020000
359.264221	145.820000
359.357727	146.260000
359.451172	146.480000
359.544647	146.360000
359.638123	146.040000
359.731598	146.180000
359.825073	146.260000
359.918549	146.000000
360.012024	146.380000
360.105499	146.100000
360.198975	146.120000
360.292450	146.180000
360.385925	146.080000
360.479401	145.700000
360.572876	146.200000
360.666351	146.500000
360.759857	146.180000
360.853302	145.980000
360.946808	145.700000
361.040253	145.760000
361.133759	145.340000
361.227203	145.600000
361.320709	145.580000
361.414154	146.260000
361.507660	146.520000
361.601105	146.880000
361.694641	147.300000
361.788086	146.960000
361.881592	147.260000
361.975067	146.680000
362.068542	146.760000
362.162018	146.440000
362.255524	146.300000
362.348999	145.800000
362.442474	146.400000
362.535950	146.080000
362.629456	146.040000
362.722931	146.140000
362.816406	146.540000
362.909882	146.700000
363.003387	146.560000
363.096863	146.640000
363.190338	146.760000
363.283875	146.460000
363.377319	146.160000
363.470825	146.640000
363.564301	146.100000
363.657806	146.240000
363.751282	145.780000
363.844788	146.720000
363.938232	146.560000
364.031769	147.260000
364.125214	147.540000
364.218750	148.240000
364.312225	146.860000
364.405731	146.740000
364.499207	146.080000
364.592712	145.640000
364.686188	145.240000
364.779694	145.760000
364.873169	145.640000
364.966675	145.740000
365.060150	145.960000
365.153656	146.240000
365.247131	146.120000
365.340637	146.540000
365.434143	147.000000
365.527618	146.960000
365.621155	146.200000
365.714600	146.140000
365.808136	146.040000
365.901611	145.180000
365.995117	145.060000
366.088593	145.440000
366.182129	145.200000
366.275604	145.100000
366.369110	145.580000
366.462585	145.660000
366.556122	146.160000
366.649567	146.360000
366.743103	146.300000
366.836609	146.040000
366.930115	146.420000
367.023590	146.440000
367.117096	146.320000
367.210602	146.400000
367.304108	147.140000
367.397614	147.520000
367.491119	147.280000
367.584595	147.200000
367.678101	147.580000
367.771606	147.140000
367.865112	146.420000
367.958649	146.160000
368.052124	146.320000
368.145660	145.740000
368.239136	146.180000
368.332672	146.380000
368.426147	146.360000
368.519684	145.960000
368.613159	146.240000
368.706696	145.860000
368.800171	145.660000
368.893707	146.000000
368.987183	146.180000
369.080719	146.320000
369.174225	146.280000
369.267731	146.400000
369.361237	146.380000
369.454742	146.760000
369.548248	146.880000
369.641754	146.500000
369.735260	146.400000
369.828766	145.560000
369.922272	145.980000
370.015808	145.600000
370.109314	145.700000
370.202820	145.680000
370.296356	146.900000
370.389832	146.000000
370.483368	145.800000
370.576874	145.720000
370.670410	146.040000
370.763885	145.120000
370.857422	145.500000
370.950928	145.440000
371.044464	146.180000
371.137939	145.900000
371.231476	146.420000
371.324982	146.840000
371.418518	147.100000
371.512024	146.860000
371.605560	146.620000
371.699066	146.620000
371.792572	146.040000
371.886108	146.340000
371.979614	145.980000
372.073120	146.820000
372.166656	146.740000
372.260162	147.460000
372.353668	147.120000
372.447205	147.060000
372.540710	146.880000
372.634277	146.720000
372.727753	146.400000
372.821320	146.560000
372.914795	146.480000
373.008362	146.000000
373.101837	146.220000
373.195404	145.840000
373.288879	145.780000
373.382446	146.800000
373.475922	146.720000
373.569489	147.300000
373.662964	147.760000
373.756531	147.720000
373.850037	147.180000
373.943573	147.320000
374.037109	146.160000
374.130615	146.320000
374.224152	146.440000
374.317657	146.320000
374.411194	147.080000
374.504730	147.300000
374.598236	146.600000
374.691772	146.200000
374.785309	146.220000
374.878815	145.340000
374.972351	145.680000
375.065887	146.080000
375.159454	146.880000
375.252930	146.840000
375.346497	147.120000
375.440002	147.440000
375.533569	147.240000
375.627045	146.540000
375.720612	146.580000
375.814117	146.760000
375.907684	146.480000
376.001160	146.260000
376.094727	146.080000
376.188232	146.820000
376.281799	146.860000
376.375336	146.540000
376.468872	147.080000
376.562408	147.160000
376.655914	146.420000
376.749451	146.400000
376.842987	146.920000
376.936523	146.680000
377.030060	146.760000
377.123596	147.020000
377.217133	146.260000
377.310669	146.100000
377.404205	146.360000
377.497772	146.940000
377.591278	146.600000
377.684845	147.540000
377.778351	147.580000
377.871918	147.420000
377.965424	146.580000
378.058990	146.340000
378.152496	146.140000
378.246063	146.340000
378.339569	146.300000
378.433136	146.540000
378.526642	146.760000
378.620209	146.520000
378.713745	145.980000
378.807312	146.520000
378.900848	146.860000
378.994385	147.040000
379.087921	146.620000
379.181458	147.400000
379.274994	146.260000
379.368530	145.680000
379.462097	145.680000
379.555634	146.220000
379.649170	145.260000
379.742706	145.500000
379.836273	145.880000
379.929810	145.640000
380.023376	145.220000
380.116882	145.460000
380.210449	145.720000
380.303986	145.400000
380.397552	145.080000
380.491058	145.580000
380.584656	145.560000
380.678162	145.880000
380.771729	146.380000
380.865265	147.360000
380.958832	147.200000
381.052368	147.640000
381.145935	147.740000
381.239471	147.980000
381.333008	147.820000
381.426575	147.760000
381.520111	147.720000
381.613647	147.660000
381.707214	147.100000
381.800751	146.260000
381.894318	146.560000
381.987854	145.860000
382.081421	145.600000
382.174988	145.840000
382.268524	145.880000
382.362091	145.760000
382.455627	146.760000
382.549194	146.280000
382.642731	145.860000
382.736298	146.140000
382.829834	145.900000
382.923401	145.980000
383.016937	146.580000
383.110504	146.960000
383.204041	147.060000
383.297607	147.340000
383.391174	146.520000
383.484741	147.120000
383.578278	146.660000
383.671844	146.100000
383.765411	145.460000
383.858948	145.760000
383.952515	145.180000
384.046051	145.820000
384.139618	146.580000
384.233185	147.140000
384.326721	146.900000
384.420288	147.280000
384.513855	146.960000
384.607422	146.980000
384.700989	146.940000
384.794525	146.600000
384.888123	146.140000
384.981659	145.980000
385.075226	145.540000
385.168762	145.300000
385.262360	145.840000
385.355896	145.300000
385.449463	145.460000
385.542999	145.540000
385.636597	146.340000
385.730164	146.440000
385.823730	146.820000
385.917267	146.560000
386.010834	146.820000
386.104401	146.520000
386.197968	146.560000
386.291534	146.800000
386.385101	147.000000
386.478668	147.060000
386.572235	146.500000
386.665802	145.800000
386.759338	145.420000
386.852905	145.140000
386.946472	144.600000
387.040070	145.100000
387.133606	145.680000
387.227203	145.640000
387.320740	146.200000
387.414337	146.340000
387.507874	146.160000
387.601471	146.080000
387.695007	146.140000
387.788605	145.640000
387.882141	145.960000
387.975739	145.980000
388.069275	145.480000
388.162872	145.600000
388.256439	145.780000
388.350037	145.380000
388.443604	145.200000
388.537170	145.600000
388.630737	146.260000
388.724304	146.380000
388.817871	146.460000
388.911438	146.480000
389.005005	146.900000
389.098602	146.680000
389.192169	146.520000
389.285736	147.080000
389.379333	147.160000
389.472870	146.300000
389.566467	146.140000
389.660034	146.420000
389.753632	145.820000
389.847168	145.880000
389.940765	146.320000
390.034332	146.480000
390.127930	146.120000
390.221466	146.100000
390.315063	145.820000
390.408630	145.140000
390.502228	144.460000
390.595795	144.700000
390.689362	144.980000
390.782959	145.480000
390.876526	146.180000
390.970093	145.980000
391.063690	146.320000
391.157257	146.400000
391.250824	146.500000
391.344421	146.280000
391.437988	146.860000
391.531555	146.980000
391.625153	146.980000
391.718750	147.160000
391.812317	147.320000
391.905914	146.900000
391.999481	146.720000
392.093079	146.760000
392.186615	146.780000
392.280243	146.840000
392.373779	147.420000
392.467407	147.600000
392.560944	147.540000
392.654572	146.860000
392.748108	146.900000
392.841736	146.500000
392.935303	146.080000
393.028900	146.240000
393.122467	146.720000
393.216064	146.200000
393.309631	146.020000
393.403229	145.740000
393.496796	145.460000
393.590393	144.580000
393.683990	145.120000
393.777557	145.620000
393.871155	145.780000
393.964722	145.940000
394.058350	146.260000
394.151917	145.940000
394.245514	145.660000
394.339081	146.060000
394.432678	146.440000
394.526245	146.660000
394.619873	146.340000
394.713409	146.480000
394.807037	145.920000
394.900604	145.640000
394.994202	145.540000
395.087769	146.040000
395.181396	145.720000
395.274994	146.820000
395.368561	145.940000
395.462158	146.200000
395.555756	146.080000
395.649353	146.640000
395.742920	145.820000
395.836517	146.700000
395.930115	145.840000
396.023712	146.040000
396.117279	145.960000
396.210876	145.600000
396.304474	145.480000
396.398071	146.280000
396.491669	146.720000
396.585266	146.400000
396.678833	146.800000
396.772461	146.960000
396.866028	146.700000
396.959656	146.860000
397.053223	147.260000
397.146851	147.140000
397.240417	147.680000
397.334015	148.740000
397.427582	148.740000
397.521210	149.600000
397.614807	151.300000
397.708405	152.720000
397.802002	154.520000
397.895599	157.940000
397.989197	161.360000
398.082794	165.280000
398.176392	171.580000
398.269989	178.500000
398.363586	186.820000
398.457184	197.500000
398.550781	209.420000
398.644379	220.960000
398.737976	234.180000
398.831573	248.240000
398.925201	262.260000
399.018768	276.740000
399.112396	291.780000
399.205963	306.920000
399.299591	322.380000
399.393158	339.000000
399.486786	357.600000
399.580353	376.400000
399.673981	394.180000
399.767578	411.960000
399.861206	427.960000
399.954773	439.600000
400.048401	446.060000
400.141998	448.760000
400.235596	447.180000
400.329193	440.900000
400.422791	432.600000
400.516418	424.000000
400.610016	416.440000
400.703613	407.460000
400.797211	397.880000
400.890808	387.160000
400.984436	375.160000
401.078033	359.780000
401.171631	342.560000
401.265259	322.860000
401.358826	302.700000
401.452484	281.420000
401.546051	261.080000
401.639679	241.160000
401.733246	224.420000
401.826904	209.160000
401.920471	195.620000
402.014099	184.800000
402.107697	176.340000
402.201324	169.560000
402.294891	164.000000
402.388550	160.560000
402.482147	157.300000
402.575745	154.440000
402.669373	151.580000
402.762970	150.040000
402.856567	148.680000
402.950195	147.860000
403.043793	147.420000
403.137390	148.020000
403.231018	147.080000
403.324615	147.400000
403.418243	147.060000
403.511841	147.240000
403.605469	146.940000
403.699066	147.600000
403.792694	147.760000
403.886292	147.820000
403.979919	147.780000
404.073517	147.260000
404.167145	147.380000
404.260712	146.920000
404.354370	146.820000
404.447937	146.860000
404.541595	147.240000
404.635162	147.000000
404.728821	147.260000
404.822418	147.000000
404.916046	146.620000
405.009644	146.660000
405.103271	146.780000
405.196899	146.420000
405.290497	146.580000
405.384125	147.300000
405.477722	146.760000
405.571350	146.280000
405.664948	146.440000
405.758575	146.460000
405.852203	145.720000
405.945801	146.260000
406.039429	146.520000
406.133057	146.320000
406.226654	146.080000
406.320312	146.100000
406.413879	145.960000
406.507538	146.140000
406.601135	145.940000
406.694763	146.260000
406.788361	145.940000
406.882019	145.760000
406.975586	146.120000
407.069244	146.700000
407.162872	146.820000
407.256470	146.980000
407.350098	146.880000
407.443726	146.100000
407.537323	145.720000
407.630951	145.940000
407.724579	145.620000
407.818207	146.080000
407.911804	146.160000
408.005432	146.040000
408.099060	145.900000
408.192688	146.300000
408.286285	146.020000
408.379913	146.040000
408.473572	146.200000
408.567169	145.560000
408.660828	145.620000
408.754395	145.640000
408.848053	145.480000
408.941650	145.420000
409.035309	145.420000
409.128906	145.220000
409.222565	145.120000
409.316132	145.460000
409.409790	144.960000
409.503387	145.100000
409.597046	145.420000
409.690674	145.520000
409.784302	145.120000
409.877930	145.620000
409.971558	145.860000
410.065186	145.700000
410.158783	145.500000
410.252411	145.740000
410.346039	145.840000
410.439667	145.440000
410.533295	145.680000
410.626923	146.200000
410.720551	145.980000
410.814209	146.500000
410.907806	146.920000
411.001465	146.480000
411.095062	146.180000
411.188721	146.540000
411.282318	145.880000
411.375977	145.440000
411.469574	145.740000
411.563232	145.740000
411.656830	145.260000
411.750488	145.260000
411.844086	145.320000
411.937744	145.380000
412.031372	145.080000
412.125000	145.560000
412.218628	145.460000
412.312256	146.000000
412.405884	146.400000
412.499512	146.680000
412.593170	146.640000
412.686798	147.140000
412.780426	146.700000
412.874054	146.600000
412.967682	146.600000
413.061310	147.260000
413.154968	147.100000
413.248566	147.460000
413.342224	146.980000
413.435852	147.200000
413.529510	146.300000
413.623108	145.740000
413.716766	145.480000
413.810364	146.060000
413.904022	145.560000
413.997650	145.540000
414.091309	146.580000
414.184906	146.520000
414.278564	146.160000
414.372192	146.700000
414.465851	147.100000
414.559479	146.440000
414.653107	147.340000
414.746735	146.960000
414.840393	146.900000
414.934021	147.040000
415.027649	146.580000
415.121277	146.140000
415.214935	146.680000
415.308563	146.660000
415.402191	146.020000
415.495850	146.440000
415.589478	146.100000
415.683136	145.880000
415.776733	146.080000
415.870422	146.480000
415.964020	146.220000
416.057678	146.220000
416.151306	146.120000
416.244965	145.780000
416.338562	145.640000
416.432251	146.100000
416.525848	146.980000
416.619507	147.560000
416.713165	147.980000
416.806793	147.960000
416.900421	147.980000
416.994080	146.940000
417.087708	146.260000
417.181366	145.560000
417.274994	145.460000
417.368622	145.740000
417.462280	146.380000
417.555908	146.620000
417.649567	146.860000
417.743195	147.000000
417.836853	146.660000
417.930481	146.820000
418.024170	146.820000
418.117767	147.380000
418.211426	147.820000
418.305054	148.040000
418.398712	147.160000
418.492340	147.140000
418.585999	147.080000
418.679626	147.040000
418.773285	147.060000
418.866913	147.820000
418.960571	148.180000
419.054230	148.060000
419.147858	147.880000
419.241516	147.820000
419.335144	147.240000
419.428802	147.020000
419.522461	146.760000
419.616089	146.400000
419.709747	146.520000
419.803375	146.820000
419.897034	146.420000
419.990662	146.320000
420.084320	146.480000
420.177979	146.880000
420.271606	147.080000
420.365295	147.640000
420.458893	147.680000
420.552582	148.320000
420.646210	147.700000
420.739868	147.340000
420.833496	147.100000
420.927155	146.720000
421.020782	145.960000
421.114471	145.600000
421.208069	145.800000
421.301758	145.920000
421.395386	146.260000
421.489044	146.080000
421.582703	146.100000
421.676361	146.520000
421.769989	145.940000
421.863647	146.400000
421.957306	146.660000
422.050934	147.080000
422.144592	146.620000
422.238251	146.620000
422.331909	145.980000
422.425537	145.860000
422.519196	145.800000
422.612854	145.560000
422.706543	145.420000
422.800140	145.880000
422.893829	145.580000
422.987457	145.300000
423.081146	145.320000
423.174744	146.060000
423.268433	145.480000
423.362061	145.760000
423.455750	145.540000
423.549347	145.680000
423.643036	145.020000
423.736664	145.660000
423.830353	145.340000
423.924011	145.920000
424.017639	145.480000
424.111298	145.720000
424.204956	145.340000
424.298615	145.520000
424.392273	145.100000
424.485931	145.360000
424.579559	145.280000
424.673218	145.240000
424.766876	145.640000
424.860535	145.560000
424.954193	145.480000
425.047882	145.880000
425.141510	145.900000
425.235199	146.000000
425.328796	145.840000
425.422485	145.900000
425.516113	145.160000
425.609802	145.240000
425.703430	144.880000
425.797119	144.920000
425.890747	144.900000
425.984436	145.300000
426.078064	145.380000
426.171753	145.680000
426.265411	145.720000
426.359070	145.760000
426.452728	145.580000
426.546356	145.620000
426.640015	145.520000
426.733673	145.780000
426.827332	145.660000
426.920990	146.720000
427.014648	146.460000
427.108307	146.640000
427.201965	147.020000
427.295624	147.440000
427.389282	146.520000
427.482941	146.900000
427.576630	146.840000
427.670258	146.000000
427.763947	145.740000
427.857574	145.860000
427.951263	145.600000
428.044922	145.180000
428.138611	145.680000
428.232239	146.000000
428.325928	146.260000
428.419556	146.640000
428.513245	146.420000
428.606903	146.360000
428.700562	145.920000
428.794220	145.440000
428.887878	144.860000
428.981537	145.160000
429.075195	145.180000
429.168854	145.700000
429.262512	145.920000
429.356201	145.920000
429.449860	145.860000
429.543518	145.860000
429.637177	145.660000
429.730835	145.580000
429.824493	145.620000
429.918182	145.800000
430.011810	145.160000
430.105530	144.820000
430.199158	145.040000
430.292847	144.800000
430.386475	144.740000
430.480164	144.840000
430.573792	144.540000
430.667511	144.140000
430.761139	144.580000
430.854828	145.020000
430.948456	145.480000
431.042145	146.160000
431.135834	146.160000
431.229492	145.940000
431.323151	145.960000
431.416809	145.900000
431.510468	145.920000
431.604156	145.820000
431.697815	146.060000
431.791473	145.220000
431.885132	144.720000
431.978821	144.860000
432.072479	145.420000
432.166138	145.620000
432.259827	146.160000
432.353485	147.060000
432.447174	147.120000
432.540802	146.820000
432.634491	147.000000
432.728149	146.920000
432.821838	146.860000
432.915466	146.840000
433.009186	147.080000
433.102814	146.140000
433.196503	145.900000
433.290131	145.720000
433.383850	145.680000
433.477509	145.480000
433.571167	146.660000
433.664856	147.160000
433.758514	147.580000
433.852173	147.080000
433.945862	147.000000
434.039520	146.520000
434.133179	146.020000
434.226868	145.600000
434.320526	145.140000
434.414185	145.520000
434.507874	145.120000
434.601562	145.420000
434.695221	144.940000
434.788910	145.700000
434.882538	145.660000
434.976257	145.520000
435.069885	145.320000
435.163574	145.620000
435.257233	145.140000
435.350922	145.120000
435.444580	144.920000
435.538269	144.520000
435.631897	144.920000
435.725616	145.600000
435.819275	146.080000
435.912964	146.920000
436.006622	147.980000
436.100311	147.920000
436.193970	147.240000
436.287628	146.540000
436.381317	146.540000
436.474976	145.860000
436.568665	145.620000
436.662323	146.180000
436.756012	146.280000
436.849670	145.580000
436.943390	145.600000
437.037018	145.640000
437.130737	145.180000
437.224365	144.860000
437.318085	145.120000
437.411713	145.200000
437.505432	145.540000
437.599060	146.320000
437.692780	147.260000
437.786407	147.220000
437.880127	147.100000
437.973755	146.560000
438.067474	145.580000
438.161133	145.260000
438.254822	145.640000
438.348480	145.500000
438.442169	146.160000
438.535828	146.960000
438.629517	146.420000
438.723175	145.940000
438.816864	146.480000
438.910553	145.960000
439.004211	145.400000
439.097900	145.240000
439.191559	145.240000
439.285248	144.560000
439.378906	144.620000
439.472626	144.580000
439.566284	144.640000
439.659973	145.180000
439.753632	145.480000
439.847321	146.180000
439.940979	146.460000
440.034698	146.880000
440.128326	146.300000
440.222046	146.340000
440.315674	145.300000
440.409393	145.120000
440.503082	144.760000
440.596741	145.060000
440.690430	145.280000
440.784088	145.140000
440.877777	144.700000
440.971466	144.960000
441.065125	144.600000
441.158813	143.760000
441.252502	144.080000
441.346161	144.460000
441.439850	144.520000
441.533539	144.520000
441.627197	145.460000
441.720886	145.580000
441.814606	146.100000
441.908234	146.360000
442.001953	146.340000
442.095612	146.300000
442.189301	146.260000
442.282959	146.080000
442.376678	145.420000
442.470306	146.300000
442.564026	145.760000
442.657684	145.780000
442.751404	145.760000
442.845032	146.520000
442.938751	145.940000
443.032440	146.400000
443.126099	146.040000
443.219788	146.400000
443.313477	146.180000
443.407166	146.240000
443.500824	146.020000
443.594513	146.620000
443.688202	146.200000
443.781891	145.560000
443.875549	145.660000
443.969238	145.640000
444.062927	145.420000
444.156647	145.340000
444.250275	145.920000
444.343994	145.880000
444.437653	146.160000
444.531372	145.840000
444.625031	145.680000
444.718719	145.100000
444.812378	144.980000
444.906097	144.600000
444.999756	144.460000
445.093445	144.260000
445.187103	144.680000
445.280823	144.880000
445.374512	144.580000
445.468201	144.920000
445.561859	145.000000
445.655548	144.920000
445.749237	144.420000
445.842926	144.700000
445.936615	144.960000
446.030304	145.100000
446.123962	145.340000
446.217651	145.340000
446.311340	145.280000
446.405029	145.040000
446.498749	144.840000
446.592407	144.660000
446.686096	144.840000
446.779755	145.080000
446.873474	145.320000
446.967133	145.660000
447.060852	145.320000
447.154510	145.340000
447.248230	145.160000
447.341858	145.100000
447.435577	144.700000
447.529236	144.900000
447.622955	145.020000
447.716644	145.500000
447.810333	145.520000
447.904022	146.140000
447.997711	145.960000
448.091400	145.940000
448.185059	145.680000
448.278748	145.900000
448.372437	145.460000
448.466125	145.780000
448.559814	145.580000
448.653503	145.700000
448.747192	145.920000
448.840912	146.360000
448.934570	146.540000
449.028290	147.060000
449.121948	146.560000
449.215637	145.920000
449.309296	145.340000
449.403015	145.240000
449.496674	145.120000
449.590393	145.600000
449.684052	145.300000
449.777771	146.380000
449.871429	145.920000
449.965149	145.880000
450.058838	145.960000
450.152527	146.620000
450.246216	146.060000
450.339905	146.300000
450.433594	146.120000
450.527283	146.680000
450.620972	146.300000
450.714661	145.980000
450.808350	146.040000
450.902039	146.340000
450.995728	146.000000
451.089417	145.660000
451.183105	145.920000
451.276794	146.360000
451.370514	145.740000
451.464172	144.820000
451.557892	145.320000
451.651550	145.700000
451.745270	145.060000
451.838928	144.980000
451.932648	145.760000
452.026306	146.260000
452.120026	145.540000
452.213684	146.200000
452.307404	146.620000
452.401062	146.420000
452.494781	146.280000
452.588470	146.500000
452.682159	145.800000
452.775848	145.980000
452.869537	145.620000
452.963226	145.060000
453.056915	145.120000
453.150604	145.600000
453.244293	145.560000
453.337982	146.420000
453.431671	147.000000
453.525360	147.080000
453.619049	146.760000
453.712769	146.840000
453.806427	146.020000
453.900146	145.260000
453.993805	145.280000
454.087555	145.820000
454.181213	145.700000
454.274933	145.420000
454.368591	145.880000
454.462311	145.640000
454.555969	145.140000
454.649689	145.660000
454.743347	145.900000
454.837067	146.380000
454.930756	146.900000
455.024445	147.160000
455.118134	146.720000
455.211853	147.240000
455.305542	146.620000
455.399231	146.320000
455.492920	146.200000
455.586609	146.160000
455.680298	146.300000
455.773987	146.080000
455.867676	145.960000
455.961365	145.980000
456.055084	145.820000
456.148773	145.220000
456.242493	145.480000
456.336151	145.620000
456.429871	145.720000
456.523529	146.420000
456.617249	146.200000
456.710907	146.800000
456.804626	146.640000
456.898315	146.220000
456.992035	146.040000
457.085693	146.260000
457.179413	145.400000
457.273102	146.280000
457.366791	146.380000
457.460480	146.280000
457.554199	146.700000
457.647888	147.080000
457.741577	146.260000
457.835266	146.380000
457.928955	146.240000
458.022644	146.200000
458.116364	146.420000
458.210052	146.400000
458.303741	146.520000
458.397461	145.740000
458.491119	145.540000
458.584839	145.320000
458.678528	145.060000
458.772247	144.920000
458.865906	145.480000
458.959625	146.320000
459.053284	146.440000
459.147003	146.340000
459.240692	147.020000
459.334412	147.360000
459.428070	146.620000
459.521790	146.520000
459.615479	146.620000
459.709198	146.720000
459.802887	146.240000
459.896576	146.180000
459.990265	145.960000
460.083954	146.360000
460.177673	145.680000
460.271362	145.800000
460.365051	145.660000
460.458740	145.640000
460.552429	145.120000
460.646149	144.940000
460.739838	144.700000
460.833527	145.140000
460.927246	144.960000
461.020905	145.260000
461.114655	145.240000
461.208313	145.540000
461.302032	144.820000
461.395691	145.340000
461.489441	145.160000
461.583099	145.180000
461.676819	144.820000
461.770477	145.720000
461.864197	145.340000
461.957916	145.380000
462.051605	145.200000
462.145294	146.260000
462.238983	145.400000
462.332703	145.860000
462.426392	146.500000
462.520081	146.540000
462.613770	145.780000
462.707489	146.340000
462.801178	145.940000
462.894867	145.700000
462.988556	146.100000
463.082275	146.260000
463.175964	145.780000
463.269684	146.200000
463.363342	145.800000
463.457092	145.080000
463.550751	145.320000
463.644470	145.660000
463.738129	145.540000
463.831879	145.880000
463.925537	146.940000
464.019257	146.740000
464.112946	146.700000
464.206665	146.600000
464.300323	146.320000
464.394043	145.920000
464.487762	146.040000
464.581451	146.520000
464.675140	146.140000
464.768829	146.540000
464.862549	146.500000
464.956238	146.580000
465.049927	146.260000
465.143646	146.720000
465.237335	146.460000
465.331024	146.780000
465.424713	146.540000
465.518433	146.540000
465.612152	146.120000
465.705811	146.240000
465.799561	145.960000
465.893219	145.820000
465.986938	145.560000
466.080597	145.820000
466.174347	146.040000
466.268005	146.060000
466.361725	146.180000
466.455414	146.420000
466.549133	146.060000
466.642792	146.040000
466.736542	145.780000
466.830231	145.500000
466.923920	145.240000
467.017609	145.260000
467.111328	144.800000
467.205017	145.060000
467.298706	145.200000
467.392426	145.600000
467.486115	145.940000
467.579803	145.700000
467.673523	145.760000
467.767212	145.980000
467.860901	145.480000
467.954651	145.400000
468.048309	146.200000
468.142029	146.020000
468.235718	146.000000
468.329437	146.020000
468.423096	146.340000
468.516846	145.820000
468.610504	145.620000
468.704224	145.240000
468.797913	145.460000
468.891632	145.440000
468.985291	145.480000
469.079010	145.760000
469.172729	145.580000
469.266418	145.820000
469.360107	145.540000
469.453827	145.460000
469.547516	145.300000
469.641205	145.900000
469.734924	146.060000
469.828613	146.600000
469.922302	147.020000
470.016022	147.260000
470.109711	147.180000
470.203430	146.400000
470.297150	145.500000
470.390808	145.600000
470.484558	145.520000
470.578217	145.680000
470.671936	146.380000
470.765625	147.200000
470.859344	146.500000
470.953003	146.520000
471.046753	146.100000
471.140411	145.400000
471.234131	145.220000
471.327820	146.040000
471.421539	146.180000
471.515228	146.060000
471.608948	146.500000
471.702637	146.000000
471.796326	145.400000
471.890045	145.500000
471.983734	145.640000
472.077423	145.280000
472.171143	145.600000
472.264832	145.480000
472.358521	144.780000
472.452240	144.680000
472.545929	145.300000
472.639648	145.580000
472.733337	146.120000
472.827057	146.760000
472.920746	147.020000
473.014465	147.040000
473.108124	146.740000
473.201874	146.500000
473.295532	146.080000
473.389252	146.240000
473.482941	146.300000
473.576660	146.000000
473.670319	146.080000
473.764069	146.720000
473.857727	146.980000
473.951477	146.860000
474.045166	147.560000
474.138855	147.380000
474.232574	146.760000
474.326263	146.540000
474.419952	146.640000
474.513672	146.520000
474.607361	146.460000
474.701050	146.940000
474.794769	147.340000
474.888458	147.440000
474.982178	147.260000
475.075867	147.440000
475.169586	147.300000
475.263275	146.740000
475.356995	146.680000
475.450653	146.460000
475.544403	146.060000
475.638062	146.680000
475.731812	146.540000
475.825470	146.320000
475.919189	146.420000
476.012878	146.580000
476.106598	145.680000
476.200256	146.340000
476.294006	145.940000
476.387695	146.000000
476.481384	145.960000
476.575104	146.220000
476.668793	145.280000
476.762512	145.280000
476.856201	145.480000
476.949890	145.760000
477.043610	145.300000
477.137299	145.480000
477.230988	145.940000
477.324707	145.800000
477.418396	145.980000
477.512146	146.280000
477.605804	146.100000
477.699524	145.920000
477.793213	145.720000
477.886932	145.260000
477.980591	144.760000
478.074341	144.780000
478.167999	144.280000
478.261749	144.380000
478.355408	144.520000
478.449127	145.440000
478.542816	146.540000
478.636536	147.440000
478.730225	147.220000
478.823944	147.560000
478.917633	147.200000
479.011322	146.860000
479.105042	146.680000
479.198730	147.260000
479.292450	146.720000
479.386139	146.980000
479.479828	147.080000
479.573547	147.200000
479.667267	147.120000
479.760925	147.320000
479.854675	147.320000
479.948334	146.980000
480.042084	146.320000
480.135742	146.340000
480.229462	146.060000
480.323151	145.980000
480.416870	145.700000
480.510529	145.940000
480.604279	145.380000
480.697937	146.100000
480.791656	145.560000
480.885345	145.540000
480.979065	145.680000
481.072754	146.180000
481.166473	146.260000
481.260132	146.260000
481.353882	146.400000
481.447540	146.380000
481.541260	146.260000
481.635010	145.560000
481.728668	145.620000
481.822388	145.440000
481.916077	145.480000
482.009796	145.340000
482.103485	146.000000
482.197205	146.080000
482.290863	146.400000
482.384613	146.340000
482.478271	146.120000
482.571991	145.700000
482.665680	145.720000
482.759399	146.160000
482.853058	146.380000
482.946808	146.560000
483.040466	146.600000
483.134216	146.500000
483.227875	145.840000
483.321594	146.200000
483.415283	146.160000
483.509003	146.020000
483.602661	145.900000
483.696411	146.280000
483.790070	145.660000
483.883789	145.500000
483.977478	145.940000
484.071198	146.100000
484.164917	145.640000
484.258606	145.160000
484.352325	145.900000
484.445984	145.980000
484.539734	146.120000
484.633392	145.820000
484.727142	146.420000
484.820801	146.100000
484.914520	145.800000
485.008209	145.880000
485.101929	146.340000
485.195587	146.000000
485.289337	145.840000
485.382996	145.820000
485.476715	145.800000
485.570404	146.380000
485.664124	146.880000
485.757782	147.340000
485.851532	146.760000
485.945190	146.620000
486.038910	146.200000
486.132599	146.440000
486.226318	145.800000
486.319977	146.220000
486.413727	146.860000
486.507446	146.520000
486.601105	145.540000
486.694855	145.300000
486.788513	145.200000
486.882233	144.900000
486.975922	144.860000
487.069641	145.080000
487.163300	145.180000
487.257050	146.260000
487.350708	145.920000
487.444427	145.920000
487.538116	145.820000
487.631836	145.880000
487.725494	145.180000
487.819214	145.280000
487.912903	145.020000
488.006622	145.700000
488.100281	145.840000
488.194031	145.720000
488.287689	146.160000
488.381409	147.260000
488.475098	146.700000
488.568817	147.300000
488.662476	147.280000
488.756226	146.760000
488.849945	145.660000
488.943604	145.940000
489.037354	145.840000
489.131012	145.780000
489.224731	145.460000
489.318390	145.560000
489.412140	145.460000
489.505798	144.840000
489.599518	144.500000
489.693207	145.040000
489.786926	144.800000
489.880585	144.660000
489.974335	145.100000
490.067993	146.420000
490.161713	146.520000
490.255371	147.640000
490.349121	147.780000
490.442780	147.240000
490.536499	146.160000
490.630188	145.940000
490.723907	145.040000
490.817566	145.280000
490.911285	145.660000
491.004974	145.400000
491.098694	145.260000
491.192413	145.960000
491.286102	145.700000
491.379822	145.980000
491.473480	146.260000
491.567200	146.120000
491.660889	145.640000
491.754608	145.480000
491.848267	145.040000
491.941986	145.140000
492.035675	145.380000
492.129395	145.660000
492.223053	145.760000
492.316772	146.100000
492.410461	146.100000
492.504181	146.140000
492.597839	145.840000
492.691559	145.900000
492.785248	145.540000
492.878967	145.640000
492.972626	145.560000
493.066345	145.760000
493.160034	145.620000
493.253754	145.860000
493.347412	145.360000
493.441132	145.380000
493.534882	145.660000
493.628540	146.100000
493.722260	146.160000
493.815918	146.520000
493.909668	147.240000
494.003326	147.480000
494.097046	147.200000
494.190704	146.820000
494.284454	146.980000
494.378113	146.600000
494.471832	146.100000
494.565491	146.060000
494.659210	146.200000
494.752899	145.880000
494.846619	145.680000
494.940277	145.960000
495.033997	145.780000
495.127686	145.680000
495.221405	145.600000
495.315063	145.600000
495.408783	145.420000
495.502441	145.680000
495.596191	146.080000
495.689850	145.920000
495.783569	146.300000
495.877228	146.020000
495.970947	145.860000
496.064697	145.640000
496.158356	146.440000
496.252075	145.940000
496.345734	146.000000
496.439453	146.700000
496.533142	146.760000
496.626862	146.720000
496.720520	147.060000
496.814240	147.120000
496.907898	146.800000
497.001617	146.880000
497.095306	146.220000
497.189026	145.780000
497.282684	146.120000
497.376404	146.100000
497.470062	145.960000
497.563782	146.460000
497.657471	146.340000
497.751190	145.620000
497.844849	145.420000
497.938568	145.420000
498.032227	145.300000
498.125946	145.840000
498.219635	146.040000
498.313354	146.300000
498.407074	146.160000
498.500732	146.240000
498.594452	146.020000
498.688110	145.820000
498.781830	145.360000
498.875519	145.380000
498.969238	144.860000
499.062897	144.540000
499.156616	145.220000
499.250275	145.640000
499.343994	145.100000
499.437653	145.360000
499.531372	145.680000
499.625061	145.940000
499.718781	145.640000
499.812439	146.620000
499.906158	146.600000
499.999817	146.200000
500.093536	145.760000
500.187195	145.900000
500.280914	145.540000
500.374573	145.600000
500.468323	145.660000
500.561981	146.000000
500.655701	145.580000
500.749420	145.540000
500.843079	145.720000
500.936798	145.940000
501.030457	145.740000
501.124176	145.900000
501.217834	145.980000
501.311554	145.760000
501.405212	145.640000
501.498962	145.120000
501.592621	145.240000
501.686340	145.400000
501.779999	145.540000
501.873718	145.960000
501.967377	146.160000
502.061096	146.280000
502.154755	145.780000
502.248474	145.760000
502.342133	145.620000
502.435852	145.660000
502.529510	146.340000
502.623230	147.040000
502.716888	146.620000
502.810608	146.800000
502.904266	147.380000
502.997986	146.740000
503.091705	146.060000
503.185364	146.040000
503.279083	145.700000
503.372772	145.520000
503.466492	145.080000
503.560150	145.260000
503.653870	145.940000
503.747528	146.200000
503.841248	146.000000
503.934906	146.340000
504.028625	146.200000
504.122284	146.060000
504.216003	146.440000
504.309662	145.880000
504.403381	145.980000
504.497040	146.020000
504.590759	145.880000
504.684418	145.640000
504.778137	146.540000
504.871796	147.080000
504.965515	146.920000
505.059174	146.740000
505.152893	146.400000
505.246521	145.500000
505.340240	144.900000
505.433899	145.220000
505.527618	145.740000
505.621338	146.100000
505.714996	146.340000
505.808716	146.420000
505.902374	146.720000
505.996094	146.580000
506.089752	146.000000
506.183472	146.500000
506.277130	146.520000
506.370850	145.980000
506.464508	145.720000
506.558228	145.880000
506.651886	145.200000
506.745605	145.300000
506.839264	145.760000
506.932983	146.000000
507.026611	145.840000
507.120331	146.820000
507.213989	146.020000
507.307709	145.920000
507.401367	146.140000
507.495087	147.340000
507.588745	146.420000
507.682465	147.740000
507.776123	147.740000
507.869843	147.480000
507.963531	146.800000
508.057190	147.260000
508.150909	146.440000
508.244568	146.620000
508.338287	146.060000
508.431946	145.600000
508.525665	145.180000
508.619324	145.080000
508.713013	144.940000
508.806671	145.700000
508.900391	146.700000
508.994049	146.960000
509.087769	146.680000
509.181427	146.900000
509.275146	146.680000
509.368774	145.820000
509.462494	145.860000
509.556152	146.240000
509.649872	146.160000
509.743530	146.220000
509.837250	146.440000
509.930878	146.620000
510.024597	146.460000
510.118256	146.400000
510.211975	146.200000
510.305695	145.720000
510.399353	145.840000
510.493042	146.480000
510.586700	146.440000
510.680420	147.160000
510.774078	147.580000
510.867798	147.540000
510.961426	146.800000
511.055145	146.780000
511.148804	146.120000
511.242523	146.440000
511.336151	146.380000
511.429871	147.040000
511.523529	147.020000
511.617249	146.500000
511.710876	146.240000
511.804596	145.780000
511.898254	145.400000
511.991974	145.360000
512.085632	146.040000
512.179321	146.240000
512.272949	146.840000
512.366699	147.140000
512.460327	147.120000
512.554077	147.820000
512.647766	147.540000
512.741394	147.220000
512.835144	147.420000
512.928772	147.280000
513.022461	146.700000
513.116150	146.540000
513.209839	146.960000
513.303467	146.280000
513.397217	146.320000
513.490845	146.120000
513.584595	146.080000
513.678223	145.560000
513.771912	145.160000
513.865601	145.520000
513.959290	145.200000
514.052917	145.160000
514.146667	145.760000
514.240295	146.340000
514.333984	146.300000
514.427673	146.340000
514.521362	146.980000
514.614990	146.260000
514.708740	146.280000
514.802368	146.340000
514.896057	146.420000
514.989746	146.780000
515.083435	147.020000
515.177124	147.220000
515.270752	146.700000
515.364502	146.760000
515.458130	146.400000
515.551819	146.200000
515.645508	145.840000
515.739197	145.980000
515.832825	145.940000
515.926575	145.620000
516.020203	145.920000
516.113892	146.580000
516.207520	146.460000
516.301270	146.500000
516.394897	146.580000
516.488586	146.900000
516.582275	146.440000
516.675964	146.100000
516.769592	145.880000
516.863281	146.420000
516.956970	146.420000
517.050659	146.360000
517.144287	146.780000
517.238037	147.160000
517.331665	146.340000
517.425354	145.820000
517.519043	145.820000
517.612732	146.200000
517.706421	145.860000
517.800049	145.940000
517.893738	145.680000
517.987427	145.420000
518.081116	145.160000
518.174744	144.720000
518.268433	144.840000
518.362122	145.520000
518.455811	145.680000
518.549438	146.300000
518.643127	147.500000
518.736816	147.260000
518.830505	146.620000
518.924133	146.440000
519.017822	146.340000
519.111511	145.920000
519.205200	146.380000
519.298828	146.660000
519.392517	146.720000
519.486206	146.480000
519.579895	146.640000
519.673523	146.140000
519.767212	146.120000
519.860901	146.660000
519.954590	146.200000
520.048279	145.740000
520.141907	145.780000
520.235596	146.660000
520.329224	146.500000
520.422974	146.680000
520.516602	146.700000
520.610291	146.680000
520.703918	146.320000
520.797607	146.180000
520.891296	146.060000
520.984985	146.220000
521.078613	146.640000
521.172302	145.940000
521.265930	146.840000
521.359680	147.600000
521.453308	147.700000
521.546997	147.540000
521.640625	147.540000
521.734314	146.560000
521.827942	146.120000
521.921692	146.460000
522.015320	146.340000
522.109009	146.420000
522.202698	146.400000
522.296326	146.240000
522.390015	146.160000
522.483704	146.420000
522.577393	146.500000
522.671021	146.500000
522.764709	146.420000
522.858337	146.840000
522.952026	146.480000
523.045654	147.020000
523.139404	147.720000
523.233032	148.220000
523.326721	147.420000
523.420349	147.520000
523.514038	146.760000
523.607666	146.780000
523.701355	146.000000
523.795044	145.880000
523.888733	146.340000
523.982361	146.740000
524.076050	146.200000
524.169678	146.860000
524.263367	146.820000
524.356995	146.040000
524.450684	145.720000
524.544373	145.620000
524.638062	145.160000
524.731750	145.460000
524.825378	145.820000
524.919067	145.520000
525.012695	145.560000
525.106384	145.540000
525.200012	145.440000
525.293701	145.240000
525.387329	145.740000
525.481018	145.700000
525.574646	145.980000
525.668396	146.020000
525.762024	146.540000
525.855713	146.820000
525.949341	146.380000
526.043030	146.260000
526.136658	145.960000
526.230347	145.580000
526.323975	145.100000
526.417664	145.320000
526.511292	145.560000
526.604980	145.840000
526.698608	145.840000
526.792297	145.940000
526.885925	146.360000
526.979614	146.100000
527.073303	145.760000
527.166931	145.620000
527.260620	145.840000
527.354309	146.180000
527.447998	146.180000
527.541626	146.440000
527.635315	146.660000
527.728943	147.200000
527.822632	146.980000
527.916260	146.660000
528.009949	146.660000
528.103577	146.360000
528.197266	145.540000
528.290894	145.580000
528.384583	145.820000
528.478210	146.160000
528.571899	146.560000
528.665527	147.060000
528.759216	146.920000
528.852844	147.300000
528.946533	147.320000
529.040161	147.200000
529.133850	146.320000
529.227478	146.700000
529.321167	146.740000
529.414856	146.900000
529.508484	147.160000
529.602173	147.440000
529.695801	147.080000
529.789490	147.000000
529.883057	146.480000
529.976746	146.320000
530.070374	146.840000
530.164062	146.760000
530.257690	146.560000
530.351379	146.900000
530.445007	146.860000
530.538696	145.980000
530.632324	146.260000
530.726013	146.460000
530.819641	146.280000
530.913330	146.500000
531.006958	147.080000
531.100647	146.900000
531.194275	146.860000
531.287964	146.580000
531.381592	146.280000
531.475220	146.080000
531.568848	145.880000
531.662537	145.720000
531.756226	146.480000
531.849854	146.440000
531.943542	146.640000
532.037170	146.220000
532.130859	146.600000
532.224487	145.880000
532.318176	145.500000
532.411804	145.880000
532.505432	146.560000
532.599060	146.000000
532.692749	146.140000
532.786377	146.840000
532.880066	146.060000
532.973694	145.300000
533.067383	145.280000
533.161011	145.220000
533.254639	144.700000
533.348267	144.520000
533.441956	145.000000
533.535583	145.080000
533.629272	144.980000
533.722900	145.020000
533.816589	145.500000
533.910156	145.980000
534.003845	145.680000
534.097534	146.400000
534.191162	147.020000
534.284851	147.380000
534.378479	146.780000
534.472107	146.940000
534.565735	146.340000
534.659424	146.240000
534.753052	146.180000
534.846741	146.160000
534.940369	146.800000
535.033997	146.760000
535.127625	146.600000
535.221313	146.780000
535.314941	146.820000
535.408630	145.960000
535.502197	146.280000
535.595886	145.820000
535.689514	145.020000
535.783203	145.260000
535.876831	145.820000
535.970459	145.580000
536.064087	145.900000
536.157776	146.360000
536.251404	146.320000
536.345093	146.240000
536.438721	146.060000
536.532349	145.740000
536.626038	145.540000
536.719666	145.680000
536.813293	145.240000
536.906921	145.380000
537.000610	145.660000
537.094238	145.640000
537.187866	145.380000
537.281494	145.620000
537.375183	145.920000
537.468811	146.120000
537.562439	146.120000
537.656067	146.020000
537.749756	146.340000
537.843384	146.560000
537.937012	146.720000
538.030640	146.640000
538.124329	146.660000
538.217896	146.700000
538.311584	146.460000
538.405212	146.320000
538.498901	146.620000
538.592468	147.400000
538.686157	146.520000
538.779785	145.820000
538.873413	145.340000
538.967102	145.200000
539.060730	144.480000
539.154358	145.060000
539.247986	145.580000
539.341675	145.820000
539.435242	145.560000
539.528931	145.700000
539.622559	145.200000
539.716187	145.760000
539.809814	145.680000
539.903503	145.960000
539.997070	145.800000
540.090759	146.080000
540.184387	145.420000
540.278015	146.040000
540.371643	146.240000
540.465332	146.520000
540.558899	146.660000
540.652588	146.740000
540.746216	145.940000
540.839844	145.880000
540.933472	145.660000
541.027100	145.400000
541.120728	145.640000
541.214417	146.120000
541.308044	146.460000
541.401672	146.400000
541.495300	146.300000
541.588928	146.120000
541.682617	145.700000
541.776184	144.980000
541.869873	145.360000
541.963440	145.760000
542.057129	145.780000
542.150757	146.160000
542.244385	146.360000
542.338013	145.520000
542.431641	145.360000
542.525269	145.400000
542.618958	145.680000
542.712524	145.800000
542.806213	146.060000
542.899780	146.400000
542.993469	146.040000
543.087036	145.900000
543.180725	145.620000
543.274292	146.160000
543.367981	146.380000
543.461548	146.520000
543.555237	146.100000
543.648926	146.520000
543.742493	147.060000
543.836182	146.940000
543.929749	147.060000
544.023437	147.220000
544.117004	147.360000
544.210693	146.980000
544.304260	146.580000
544.397949	146.420000
544.491516	146.600000
544.585205	146.460000
544.678772	145.840000
544.772461	146.480000
544.866028	146.460000
544.959717	146.520000
545.053284	146.180000
545.146973	146.540000
545.240540	146.360000
545.334229	147.140000
545.427795	147.200000
545.521423	147.380000
545.615051	147.440000
545.708679	147.540000
545.802307	146.860000
545.895935	146.820000
545.989624	147.380000
546.083191	147.240000
546.176880	146.700000
546.270447	146.700000
546.364136	146.980000
546.457703	146.420000
546.551331	146.200000
546.644958	146.480000
546.738586	146.580000
546.832214	145.780000
546.925842	145.680000
547.019409	146.160000
547.113098	145.920000
547.206665	145.780000
547.300354	146.420000
547.393921	146.900000
547.487549	146.880000
547.581177	146.860000
547.674805	146.860000
547.768433	145.940000
547.862061	145.540000
547.955627	144.920000
548.049316	145.540000
548.142883	145.900000
548.236572	146.640000
548.330139	147.040000
548.423767	147.080000
548.517456	146.700000
548.611023	146.740000
548.704651	146.080000
548.798279	145.800000
548.891907	146.600000
548.985474	146.600000
549.079163	146.600000
549.172729	146.800000
549.266357	146.440000
549.359985	145.920000
549.453613	145.460000
549.547180	145.200000
549.640869	145.980000
549.734436	146.020000
549.828064	146.400000
549.921631	146.620000
550.015320	146.280000
550.108887	146.320000
550.202515	146.440000
550.296143	146.120000
550.389771	146.480000
550.483337	146.660000
550.576965	146.080000
550.670593	146.660000
550.764221	146.760000
550.857849	146.280000
550.951477	145.960000
551.045105	145.840000
551.138672	145.480000
551.232300	145.420000
551.325928	145.980000
551.419556	146.420000
551.513123	146.540000
551.606750	146.300000
551.700378	146.280000
551.794006	146.120000
551.887573	145.980000
551.981201	146.520000
552.074768	146.680000
552.168457	146.400000
552.262024	147.320000
552.355652	147.460000
552.449219	147.500000
552.542847	147.420000
552.636475	147.560000
552.730103	146.340000
552.823669	146.200000
552.917297	145.860000
553.010864	145.560000
553.104553	145.760000
553.198181	145.860000
553.291748	146.380000
553.385376	146.200000
553.478943	146.560000
553.572571	146.540000
553.666199	146.640000
553.759827	146.140000
553.853394	145.920000
553.947021	145.700000
554.040588	145.580000
554.134216	145.840000
554.227783	146.320000
554.321411	146.880000
554.415039	146.920000
554.508667	146.920000
554.602234	147.000000
554.695862	146.340000
554.789429	146.200000
554.883057	146.320000
554.976624	146.200000
555.070251	145.820000
555.163818	145.700000
555.257507	145.640000
555.351074	145.600000
555.444702	146.820000
555.538330	146.580000
555.631897	147.260000
555.725525	147.320000
555.819092	146.960000
555.912720	145.880000
556.006287	146.600000
556.099915	146.260000
556.193481	146.340000
556.287109	146.900000
556.380676	146.720000
556.474304	146.440000
556.567871	146.600000
556.661499	145.840000
556.755066	145.600000
556.848694	145.740000
556.942261	145.600000
557.035889	145.680000
557.129517	146.340000
557.223145	146.760000
557.316711	146.920000
557.410339	147.060000
557.503906	146.840000
557.597473	146.720000
557.691040	146.480000
557.784668	146.440000
557.878296	146.540000
557.971863	146.760000
558.065491	146.900000
558.159058	146.640000
558.252686	147.300000
558.346252	147.720000
558.439880	147.320000
558.533447	147.020000
558.627075	146.780000
558.720642	146.140000
558.814270	145.400000
558.907837	145.640000
559.001465	145.520000
559.095032	146.420000
559.188660	146.660000
559.282227	146.440000
559.375854	146.960000
559.469360	146.820000
559.562988	146.720000
559.656555	146.260000
559.750183	146.700000
559.843750	146.320000
559.937378	147.000000
560.030945	146.820000
560.124573	0.000000
560.218140	0.000000
560.311707	0.000000
560.405334	0.000000
560.498901	0.000000
560.592529	0.000000
560.686096	0.000000
560.779724	0.000000
560.873291	0.000000
560.966858	0.000000
561.060425	0.000000
561.154053	0.000000
561.247620	0.000000
561.341248	0.000000
561.434814	0.000000
561.528381	0.000000
561.621948	0.000000
561.715576	0.000000
561.809143	0.000000
561.902771	0.000000
561.996277	0.000000
562.089905	0.000000
562.183472	0.000000
562.277100	0.000000
