Model Number: SPM-002-B   
Serial Number: 70087108
Firmware Version: 004.15.4
Exposure Time: 100000.000000us
Data Taken on: 11-12-2020 18:48:49.757
Wavelength	Amplitude
221.570786	0.000000
221.663406	0.000000
221.756027	0.000000
221.848648	0.000000
221.941269	0.000000
222.033905	0.000000
222.126526	0.000000
222.219162	0.000000
222.311798	0.000000
222.404419	0.000000
222.497055	0.000000
222.589676	0.000000
222.682312	0.000000
222.774933	0.000000
222.867569	0.000000
222.960205	0.000000
223.052841	0.000000
223.145462	0.000000
223.238098	0.000000
223.330734	0.000000
223.423386	0.000000
223.516022	0.000000
223.608658	0.000000
223.701309	0.000000
223.793945	0.000000
223.886581	0.000000
223.979218	0.000000
224.071869	0.000000
224.164505	0.000000
224.257156	0.000000
224.349792	0.000000
224.442444	0.000000
224.535095	0.000000
224.627747	0.000000
224.720398	0.000000
224.813034	0.000000
224.905685	0.000000
224.998337	145.660000
225.090988	145.140000
225.183640	144.900000
225.276291	145.040000
225.368942	145.220000
225.461594	145.680000
225.554245	146.320000
225.646912	146.260000
225.739578	146.600000
225.832230	147.180000
225.924896	146.260000
226.017548	146.620000
226.110199	147.480000
226.202866	146.800000
226.295532	146.440000
226.388184	146.340000
226.480850	145.860000
226.573517	145.020000
226.666168	145.400000
226.758835	145.820000
226.851501	146.780000
226.944183	146.640000
227.036850	146.520000
227.129517	146.620000
227.222183	146.820000
227.314850	146.420000
227.407516	146.980000
227.500198	147.860000
227.592865	147.300000
227.685532	146.600000
227.778214	146.340000
227.870880	146.460000
227.963562	146.460000
228.056229	147.180000
228.148926	147.160000
228.241592	148.200000
228.334274	147.540000
228.426956	147.040000
228.519638	147.180000
228.612305	146.960000
228.704987	146.280000
228.797668	146.700000
228.890350	146.620000
228.983032	145.720000
229.075714	146.520000
229.168396	146.320000
229.261108	145.700000
229.353790	145.820000
229.446472	146.260000
229.539169	145.700000
229.631851	145.480000
229.724533	145.900000
229.817230	146.200000
229.909912	147.000000
230.002609	147.020000
230.095306	146.940000
230.187988	146.820000
230.280685	146.760000
230.373383	146.040000
230.466095	146.080000
230.558792	146.540000
230.651474	146.440000
230.744171	146.280000
230.836868	145.780000
230.929581	146.060000
231.022278	146.100000
231.114975	146.520000
231.207672	146.200000
231.300369	146.880000
231.393082	147.120000
231.485779	146.960000
231.578506	146.840000
231.671204	147.340000
231.763916	146.860000
231.856613	146.440000
231.949326	146.880000
232.042023	146.660000
232.134735	146.360000
232.227448	146.580000
232.320160	146.840000
232.412872	146.520000
232.505585	147.240000
232.598297	147.640000
232.691010	147.380000
232.783722	147.040000
232.876450	147.580000
232.969162	147.160000
233.061874	146.440000
233.154587	146.480000
233.247314	146.880000
233.340027	145.780000
233.432739	145.820000
233.525467	146.020000
233.618179	146.480000
233.710907	145.860000
233.803635	146.600000
233.896347	146.460000
233.989090	147.100000
234.081818	146.800000
234.174545	147.540000
234.267258	147.120000
234.359985	147.340000
234.452713	147.020000
234.545441	146.800000
234.638168	146.340000
234.730896	146.700000
234.823639	146.360000
234.916367	146.640000
235.009094	146.880000
235.101822	146.860000
235.194580	146.760000
235.287308	147.000000
235.380051	146.400000
235.472778	146.540000
235.565521	146.740000
235.658249	146.420000
235.750992	146.300000
235.843719	146.520000
235.936462	146.620000
236.029205	146.320000
236.121948	146.440000
236.214691	146.980000
236.307449	147.400000
236.400192	146.920000
236.492935	146.540000
236.585678	146.460000
236.678421	146.140000
236.771164	145.760000
236.863907	146.460000
236.956665	147.120000
237.049408	148.680000
237.142151	148.160000
237.234909	148.820000
237.327652	148.440000
237.420410	147.900000
237.513153	146.940000
237.605927	146.940000
237.698669	146.260000
237.791428	145.780000
237.884186	146.320000
237.976944	145.500000
238.069702	145.920000
238.162445	145.580000
238.255203	146.000000
238.347961	146.320000
238.440720	146.920000
238.533478	146.740000
238.626266	146.700000
238.719025	146.920000
238.811783	146.540000
238.904541	146.180000
238.997314	145.960000
239.090073	145.860000
239.182831	146.040000
239.275604	146.680000
239.368362	146.520000
239.461136	146.720000
239.553909	146.880000
239.646667	146.720000
239.739441	146.240000
239.832214	146.680000
239.925003	146.800000
240.017761	147.440000
240.110535	147.500000
240.203308	146.940000
240.296082	147.020000
240.388855	146.840000
240.481628	146.820000
240.574417	146.880000
240.667191	147.220000
240.759964	146.720000
240.852737	146.720000
240.945526	146.180000
241.038315	146.100000
241.131088	146.320000
241.223877	146.720000
241.316650	146.600000
241.409439	146.940000
241.502228	146.240000
241.595001	146.280000
241.687790	146.100000
241.780579	146.260000
241.873367	146.480000
241.966141	146.760000
242.058929	146.200000
242.151718	146.480000
242.244507	146.840000
242.337311	145.980000
242.430099	146.520000
242.522903	146.920000
242.615692	146.080000
242.708481	145.860000
242.801270	146.680000
242.894073	146.340000
242.986862	146.460000
243.079651	147.480000
243.172455	147.020000
243.265244	146.980000
243.358063	146.520000
243.450867	146.500000
243.543655	145.780000
243.636459	146.140000
243.729263	146.340000
243.822067	146.760000
243.914856	147.060000
244.007660	147.480000
244.100464	147.380000
244.193268	146.800000
244.286072	146.720000
244.378876	145.980000
244.471680	145.680000
244.564499	145.980000
244.657318	146.760000
244.750122	146.920000
244.842926	146.460000
244.935745	146.700000
245.028549	146.380000
245.121368	145.580000
245.214172	145.440000
245.306992	146.400000
245.399796	146.360000
245.492615	146.740000
245.585434	146.600000
245.678253	146.600000
245.771072	146.360000
245.863892	146.600000
245.956711	146.640000
246.049530	146.860000
246.142349	146.980000
246.235168	147.040000
246.327988	147.280000
246.420807	147.020000
246.513626	147.080000
246.606445	146.880000
246.699280	146.700000
246.792099	146.300000
246.884918	145.980000
246.977753	145.780000
247.070587	145.820000
247.163422	145.980000
247.256241	146.120000
247.349075	146.640000
247.441895	146.800000
247.534729	146.840000
247.627563	146.480000
247.720383	146.840000
247.813217	146.240000
247.906052	146.000000
247.998886	145.960000
248.091736	146.060000
248.184570	145.600000
248.277405	145.960000
248.370239	147.040000
248.463074	148.100000
248.555908	148.280000
248.648743	148.480000
248.741592	148.340000
248.834427	147.760000
248.927261	146.480000
249.020111	146.740000
249.112946	147.140000
249.205795	147.040000
249.298630	147.000000
249.391495	147.040000
249.484344	146.840000
249.577179	146.500000
249.670029	146.900000
249.762878	147.300000
249.855728	147.720000
249.948563	147.580000
250.041412	146.960000
250.134262	146.760000
250.227112	146.640000
250.319962	146.620000
250.412827	146.940000
250.505692	146.900000
250.598541	147.040000
250.691391	146.300000
250.784241	146.220000
250.877106	146.180000
250.969955	145.920000
251.062805	146.120000
251.155670	147.020000
251.248520	146.660000
251.341385	146.660000
251.434235	146.940000
251.527100	146.320000
251.619965	145.640000
251.712814	146.580000
251.805695	146.760000
251.898560	147.040000
251.991425	147.600000
252.084290	147.800000
252.177155	146.940000
252.270020	146.640000
252.362885	146.480000
252.455750	146.500000
252.548615	146.080000
252.641479	146.040000
252.734360	145.940000
252.827240	145.940000
252.920105	146.140000
253.012970	146.440000
253.105850	146.560000
253.198715	146.260000
253.291595	146.500000
253.384460	145.880000
253.477341	145.900000
253.570221	146.220000
253.663086	146.320000
253.755966	146.740000
253.848846	146.700000
253.941727	146.840000
254.034592	146.520000
254.127472	146.400000
254.220367	146.420000
254.313248	146.840000
254.406128	146.380000
254.499008	146.760000
254.591904	147.500000
254.684784	147.860000
254.777664	147.580000
254.870544	147.620000
254.963440	147.360000
255.056335	147.240000
255.149216	146.180000
255.242111	146.760000
255.334991	147.120000
255.427887	147.300000
255.520767	147.180000
255.613663	147.660000
255.706558	146.660000
255.799438	146.060000
255.892334	145.840000
255.985229	145.520000
256.078125	145.200000
256.171021	145.880000
256.263916	146.620000
256.356812	146.940000
256.449707	147.260000
256.542603	147.140000
256.635498	147.620000
256.728394	147.500000
256.821289	147.140000
256.914215	147.200000
257.007080	147.640000
257.100006	147.620000
257.192932	147.940000
257.285828	148.260000
257.378723	147.800000
257.471619	147.560000
257.564545	146.720000
257.657440	146.580000
257.750336	146.940000
257.843262	146.820000
257.936157	147.740000
258.029053	148.280000
258.121979	148.240000
258.214874	147.600000
258.307800	147.840000
258.400696	146.760000
258.493622	146.780000
258.586517	145.840000
258.679443	146.340000
258.772339	145.880000
258.865265	145.920000
258.958160	145.400000
259.051086	146.720000
259.144012	146.380000
259.236938	147.400000
259.329834	147.720000
259.422791	147.900000
259.515717	147.000000
259.608612	146.800000
259.701538	146.680000
259.794464	146.420000
259.887390	146.080000
259.980316	146.140000
260.073212	146.000000
260.166138	145.100000
260.259064	145.580000
260.351990	146.520000
260.444916	146.480000
260.537842	147.080000
260.630768	147.940000
260.723694	147.500000
260.816620	147.120000
260.909546	147.360000
261.002472	146.820000
261.095398	146.160000
261.188354	146.340000
261.281281	145.880000
261.374207	146.040000
261.467133	146.480000
261.560089	146.980000
261.653015	146.660000
261.745972	147.340000
261.838867	147.600000
261.931824	147.720000
262.024780	147.300000
262.117706	147.420000
262.210663	147.240000
262.303589	146.860000
262.396515	147.000000
262.489471	147.960000
262.582397	148.000000
262.675354	147.660000
262.768280	147.780000
262.861237	147.700000
262.954163	147.040000
263.047119	147.240000
263.140045	147.120000
263.233002	146.860000
263.325958	146.660000
263.418884	146.380000
263.511841	146.020000
263.604797	146.320000
263.697723	146.580000
263.790680	146.380000
263.883636	146.800000
263.976593	146.720000
264.069550	146.680000
264.162476	146.200000
264.255463	146.280000
264.348419	146.000000
264.441376	146.640000
264.534332	146.420000
264.627289	146.700000
264.720245	146.860000
264.813202	146.660000
264.906158	146.380000
264.999115	146.800000
265.092072	146.800000
265.185028	147.120000
265.277985	147.460000
265.370941	147.120000
265.463898	146.540000
265.556854	146.360000
265.649811	145.440000
265.742798	145.560000
265.835754	145.800000
265.928711	146.500000
266.021667	146.520000
266.114655	147.060000
266.207611	146.900000
266.300568	146.100000
266.393585	145.520000
266.486511	145.920000
266.579498	145.400000
266.672485	145.540000
266.765442	146.080000
266.858429	146.760000
266.951385	146.160000
267.044342	146.380000
267.137329	146.080000
267.230316	146.280000
267.323273	145.540000
267.416260	146.220000
267.509216	146.060000
267.602203	146.180000
267.695160	146.860000
267.788147	147.320000
267.881134	146.600000
267.974091	146.960000
268.067078	146.840000
268.160065	146.300000
268.253052	146.060000
268.346008	146.520000
268.438995	146.520000
268.531982	146.860000
268.624969	146.780000
268.717987	146.980000
268.810944	146.940000
268.903961	146.920000
268.996948	146.400000
269.089905	146.620000
269.182892	146.760000
269.275879	146.860000
269.368866	146.440000
269.461853	146.800000
269.554871	146.740000
269.647858	146.440000
269.740845	146.540000
269.833832	146.760000
269.926819	146.480000
270.019806	146.400000
270.112793	146.300000
270.205811	146.420000
270.298798	146.540000
270.391785	147.360000
270.484772	147.040000
270.577789	146.980000
270.670776	146.460000
270.763763	146.400000
270.856750	145.960000
270.949768	145.780000
271.042786	145.820000
271.135773	145.980000
271.228790	146.440000
271.321808	146.260000
271.414795	146.260000
271.507782	145.900000
271.600800	145.640000
271.693817	145.380000
271.786804	145.800000
271.879822	146.200000
271.972809	146.540000
272.065826	147.380000
272.158844	146.920000
272.251831	147.260000
272.344849	147.140000
272.437866	146.960000
272.530853	146.700000
272.623871	147.260000
272.716888	146.120000
272.809906	146.540000
272.902893	146.660000
272.995911	145.980000
273.088928	146.060000
273.181946	146.620000
273.274963	145.980000
273.367981	146.040000
273.460999	146.640000
273.554047	146.700000
273.647003	147.160000
273.740051	147.400000
273.833069	147.700000
273.926086	147.600000
274.019135	147.100000
274.112152	146.740000
274.205170	146.700000
274.298187	146.740000
274.391205	146.060000
274.484222	146.060000
274.577240	145.980000
274.670258	145.940000
274.763306	145.700000
274.856323	146.400000
274.949341	146.780000
275.042358	147.340000
275.135406	147.360000
275.228424	147.480000
275.321442	147.680000
275.414490	147.340000
275.507507	147.360000
275.600525	147.660000
275.693573	147.420000
275.786591	147.000000
275.879669	147.040000
275.972656	146.400000
276.065735	146.280000
276.158752	146.800000
276.251801	147.380000
276.344818	147.600000
276.437866	147.760000
276.530884	147.820000
276.623932	147.060000
276.716980	146.920000
276.809998	146.980000
276.903046	146.940000
276.996094	147.620000
277.089111	148.420000
277.182159	148.940000
277.275208	148.560000
277.368256	148.380000
277.461304	148.060000
277.554321	147.360000
277.647369	146.720000
277.740417	147.000000
277.833466	146.940000
277.926514	146.380000
278.019562	146.840000
278.112610	146.140000
278.205688	145.960000
278.298706	145.980000
278.391785	145.740000
278.484833	145.540000
278.577881	145.740000
278.670929	146.260000
278.763977	146.480000
278.857025	147.100000
278.950073	146.820000
279.043121	146.820000
279.136169	146.580000
279.229248	146.480000
279.322296	146.420000
279.415344	146.400000
279.508392	146.580000
279.601440	146.360000
279.694519	146.360000
279.787567	146.160000
279.880615	146.180000
279.973694	145.980000
280.066742	146.040000
280.159790	146.140000
280.252869	145.880000
280.345917	146.180000
280.438995	146.360000
280.532074	146.280000
280.625122	146.260000
280.718201	147.400000
280.811279	147.400000
280.904327	147.440000
280.997406	147.700000
281.090454	147.840000
281.183533	146.900000
281.276581	146.920000
281.369659	146.920000
281.462738	146.760000
281.555786	146.780000
281.648865	146.860000
281.741943	146.760000
281.835022	147.280000
281.928070	146.980000
282.021149	146.540000
282.114227	146.600000
282.207306	146.380000
282.300385	146.200000
282.393433	146.600000
282.486511	147.060000
282.579590	147.460000
282.672668	148.220000
282.765747	147.580000
282.858856	147.260000
282.951904	147.240000
283.045013	147.080000
283.138062	146.860000
283.231171	147.380000
283.324249	148.060000
283.417328	148.020000
283.510406	147.620000
283.603485	147.220000
283.696564	147.140000
283.789642	146.840000
283.882751	146.520000
283.975830	147.220000
284.068909	146.900000
284.161987	147.440000
284.255066	146.920000
284.348175	147.080000
284.441254	146.500000
284.534332	147.160000
284.627441	146.440000
284.720520	146.220000
284.813599	146.200000
284.906708	146.380000
284.999786	145.640000
285.092896	145.720000
285.185974	147.020000
285.279053	146.480000
285.372192	146.520000
285.465240	147.520000
285.558380	147.360000
285.651459	146.500000
285.744568	147.640000
285.837677	147.120000
285.930756	146.800000
286.023865	147.000000
286.116943	146.840000
286.210052	146.580000
286.303162	146.840000
286.396240	146.840000
286.489349	146.520000
286.582458	147.140000
286.675568	146.760000
286.768646	146.680000
286.861755	146.980000
286.954865	147.700000
287.047974	146.520000
287.141083	146.540000
287.234161	146.460000
287.327271	146.120000
287.420380	146.460000
287.513519	146.760000
287.606598	146.760000
287.699738	147.060000
287.792816	146.600000
287.885956	146.060000
287.979034	146.500000
288.072174	146.380000
288.165283	146.100000
288.258392	146.560000
288.351501	145.900000
288.444611	145.800000
288.537720	146.380000
288.630859	146.360000
288.723969	146.520000
288.817078	147.120000
288.910187	147.120000
289.003296	146.320000
289.096436	146.160000
289.189545	145.860000
289.282654	145.360000
289.375763	145.760000
289.468903	146.300000
289.562012	146.600000
289.655121	146.600000
289.748260	146.780000
289.841400	146.960000
289.934509	146.720000
290.027649	146.700000
290.120728	146.640000
290.213898	146.680000
290.306976	146.140000
290.400146	146.440000
290.493256	145.920000
290.586395	146.140000
290.679535	146.380000
290.772644	146.320000
290.865784	145.200000
290.958893	145.540000
291.052032	145.340000
291.145172	145.280000
291.238281	145.160000
291.331421	145.860000
291.424561	146.460000
291.517670	146.300000
291.610809	146.440000
291.703949	146.660000
291.797089	146.720000
291.890228	146.340000
291.983337	146.440000
292.076477	146.100000
292.169617	146.600000
292.262756	146.520000
292.355927	146.260000
292.449036	145.980000
292.542206	145.980000
292.635315	145.380000
292.728485	145.740000
292.821625	145.660000
292.914764	147.020000
293.007904	147.160000
293.101044	147.280000
293.194183	147.320000
293.287323	147.540000
293.380463	146.700000
293.473602	146.700000
293.566742	146.900000
293.659882	147.220000
293.753021	147.320000
293.846191	147.080000
293.939331	146.800000
294.032471	146.500000
294.125610	145.800000
294.218781	146.120000
294.311920	146.440000
294.405060	146.860000
294.498230	146.740000
294.591370	147.000000
294.684540	146.280000
294.777679	145.900000
294.870850	146.160000
294.963959	146.500000
295.057159	146.180000
295.150299	146.780000
295.243469	146.660000
295.336609	145.600000
295.429779	145.680000
295.522919	146.140000
295.616089	145.960000
295.709229	146.820000
295.802399	147.600000
295.895569	147.260000
295.988708	146.980000
296.081879	147.120000
296.175018	146.200000
296.268188	145.920000
296.361359	146.360000
296.454529	146.520000
296.547668	146.140000
296.640839	146.740000
296.734009	146.580000
296.827179	146.440000
296.920319	146.580000
297.013519	146.740000
297.106659	146.420000
297.199860	146.520000
297.292999	146.500000
297.386200	146.160000
297.479309	146.080000
297.572510	146.340000
297.665680	146.240000
297.758850	146.360000
297.852020	146.280000
297.945190	146.160000
298.038361	145.740000
298.131531	146.760000
298.224701	146.440000
298.317871	146.200000
298.411072	145.740000
298.504242	145.640000
298.597412	144.840000
298.690582	145.180000
298.783752	145.320000
298.876923	145.880000
298.970093	146.140000
299.063293	146.660000
299.156464	146.760000
299.249634	147.060000
299.342834	147.380000
299.436005	147.940000
299.529205	147.440000
299.622345	147.520000
299.715576	146.880000
299.808716	146.520000
299.901917	146.080000
299.995117	146.340000
300.088287	146.380000
300.181488	146.640000
300.274658	146.440000
300.367828	146.340000
300.461029	146.060000
300.554199	146.040000
300.647400	146.160000
300.740601	146.800000
300.833771	146.720000
300.926971	147.020000
301.020142	146.560000
301.113342	146.420000
301.206512	146.080000
301.299713	146.420000
301.392914	146.240000
301.486084	146.420000
301.579285	146.720000
301.672516	147.200000
301.765686	147.080000
301.858887	146.900000
301.952057	146.920000
302.045288	146.840000
302.138458	146.360000
302.231659	146.140000
302.324860	146.240000
302.418060	146.100000
302.511261	145.980000
302.604462	146.300000
302.697662	146.520000
302.790863	146.500000
302.884064	146.100000
302.977264	146.020000
303.070465	146.180000
303.163666	146.440000
303.256866	146.700000
303.350067	147.020000
303.443268	147.240000
303.536469	147.140000
303.629669	146.480000
303.722870	146.600000
303.816071	146.360000
303.909271	146.280000
304.002472	145.380000
304.095673	145.340000
304.188934	144.600000
304.282104	145.520000
304.375336	145.720000
304.468506	146.240000
304.561768	146.220000
304.654968	146.920000
304.748169	146.540000
304.841370	146.420000
304.934601	146.660000
305.027802	146.740000
305.121002	146.160000
305.214233	146.040000
305.307434	146.060000
305.400665	146.380000
305.493866	146.220000
305.587097	146.880000
305.680298	146.700000
305.773499	147.160000
305.866730	147.100000
305.959930	147.640000
306.053162	147.680000
306.146393	147.660000
306.239594	146.480000
306.332825	145.860000
306.426025	146.260000
306.519287	145.480000
306.612488	145.240000
306.705719	145.940000
306.798920	146.360000
306.892181	145.560000
306.985352	145.360000
307.078613	145.000000
307.171844	145.340000
307.265045	145.020000
307.358276	144.820000
307.451508	145.880000
307.544739	146.600000
307.637970	145.960000
307.731201	145.760000
307.824402	146.480000
307.917633	146.200000
308.010864	146.840000
308.104095	147.460000
308.197327	147.800000
308.290558	147.840000
308.383789	147.380000
308.477020	146.440000
308.570251	145.760000
308.663483	145.400000
308.756714	144.780000
308.849976	145.020000
308.943176	145.680000
309.036438	145.500000
309.129639	145.520000
309.222900	145.760000
309.316101	145.720000
309.409393	145.140000
309.502625	145.340000
309.595856	145.360000
309.689087	145.680000
309.782318	145.780000
309.875580	146.000000
309.968811	146.140000
310.062042	146.200000
310.155273	146.120000
310.248535	146.220000
310.341766	146.120000
310.434998	145.980000
310.528259	145.980000
310.621490	146.120000
310.714722	145.720000
310.807983	145.860000
310.901215	145.760000
310.994476	145.960000
311.087708	145.600000
311.181000	145.840000
311.274200	145.480000
311.367462	145.660000
311.460693	145.200000
311.553986	145.940000
311.647186	146.000000
311.740479	146.720000
311.833710	146.360000
311.926971	146.500000
312.020203	145.640000
312.113464	145.340000
312.206726	144.580000
312.299957	145.160000
312.393219	145.660000
312.486481	145.620000
312.579712	146.020000
312.672974	146.300000
312.766235	146.420000
312.859497	146.220000
312.952759	146.560000
313.045990	147.160000
313.139252	146.820000
313.232513	146.760000
313.325775	146.820000
313.419037	146.600000
313.512299	145.660000
313.605530	146.180000
313.698822	146.440000
313.792053	146.520000
313.885345	146.420000
313.978577	146.700000
314.071869	146.420000
314.165131	146.460000
314.258392	146.580000
314.351654	146.760000
314.444916	146.340000
314.538177	146.820000
314.631439	146.720000
314.724701	146.480000
314.817993	146.340000
314.911255	146.600000
315.004517	146.020000
315.097778	146.100000
315.191040	146.400000
315.284302	146.760000
315.377594	146.800000
315.470856	146.720000
315.564117	146.040000
315.657379	145.320000
315.750671	144.880000
315.843933	145.320000
315.937195	145.160000
316.030518	145.140000
316.123749	145.520000
316.217041	146.440000
316.310303	145.900000
316.403595	146.540000
316.496857	146.980000
316.590149	147.340000
316.683411	146.480000
316.776703	146.540000
316.869965	146.080000
316.963257	145.880000
317.056519	145.140000
317.149811	144.980000
317.243073	144.920000
317.336365	145.020000
317.429626	145.400000
317.522919	146.140000
317.616180	146.520000
317.709473	146.180000
317.802765	146.040000
317.896027	145.540000
317.989319	145.580000
318.082611	145.260000
318.175873	145.600000
318.269165	145.840000
318.362488	146.260000
318.455750	145.800000
318.549042	146.140000
318.642303	146.780000
318.735626	146.840000
318.828888	146.820000
318.922211	146.640000
319.015472	147.260000
319.108765	146.280000
319.202057	145.960000
319.295349	145.940000
319.388641	146.060000
319.481934	145.520000
319.575226	145.660000
319.668518	145.940000
319.761810	146.020000
319.855103	146.360000
319.948395	146.620000
320.041687	146.740000
320.134979	147.020000
320.228271	146.880000
320.321564	146.760000
320.414856	146.380000
320.508148	146.080000
320.601440	145.860000
320.694763	145.560000
320.788025	145.920000
320.881348	146.020000
320.974640	146.280000
321.067963	145.860000
321.161224	146.080000
321.254547	145.400000
321.347839	145.840000
321.441162	145.680000
321.534454	146.040000
321.627747	145.680000
321.721069	146.160000
321.814362	145.980000
321.907654	146.020000
322.000946	145.960000
322.094269	146.860000
322.187561	146.500000
322.280884	146.600000
322.374176	146.860000
322.467468	147.260000
322.560791	146.960000
322.654083	147.240000
322.747406	147.100000
322.840698	147.480000
322.934021	147.720000
323.027344	147.700000
323.120636	147.200000
323.213959	146.880000
323.307251	146.000000
323.400574	145.320000
323.493866	145.000000
323.587219	145.600000
323.680511	145.960000
323.773834	146.320000
323.867157	146.500000
323.960449	146.600000
324.053772	146.160000
324.147095	146.300000
324.240387	146.760000
324.333710	146.760000
324.427032	146.920000
324.520355	147.240000
324.613647	146.720000
324.706970	146.320000
324.800293	146.060000
324.893616	146.200000
324.986938	146.240000
325.080231	146.340000
325.173553	146.980000
325.266876	147.540000
325.360199	147.420000
325.453522	146.820000
325.546875	146.640000
325.640167	146.540000
325.733521	146.580000
325.826813	146.800000
325.920166	147.080000
326.013489	147.060000
326.106812	146.180000
326.200134	145.580000
326.293457	144.820000
326.386780	144.860000
326.480103	144.960000
326.573425	145.280000
326.666748	145.440000
326.760071	145.920000
326.853424	146.080000
326.946747	146.100000
327.040070	146.660000
327.133392	146.460000
327.226715	145.940000
327.320068	145.400000
327.413391	145.940000
327.506714	145.180000
327.600037	145.120000
327.693390	145.300000
327.786713	145.640000
327.880066	145.320000
327.973358	145.980000
328.066742	146.480000
328.160034	146.800000
328.253418	146.960000
328.346710	146.540000
328.440063	146.040000
328.533417	145.820000
328.626740	146.020000
328.720093	146.140000
328.813416	146.380000
328.906769	146.420000
329.000092	146.640000
329.093445	146.100000
329.186768	145.640000
329.280121	146.140000
329.373444	146.540000
329.466797	146.380000
329.560120	146.920000
329.653473	147.340000
329.746796	146.680000
329.840149	146.140000
329.933502	146.180000
330.026825	145.960000
330.120178	145.660000
330.213562	145.900000
330.306854	146.020000
330.400238	145.760000
330.493561	145.540000
330.586945	146.260000
330.680237	146.280000
330.773621	146.580000
330.866974	146.760000
330.960327	147.240000
331.053680	146.660000
331.147003	146.740000
331.240356	146.920000
331.333710	147.040000
331.427063	146.780000
331.520416	146.880000
331.613770	146.620000
331.707123	146.300000
331.800476	146.380000
331.893829	146.900000
331.987152	147.140000
332.080505	147.340000
332.173859	147.180000
332.267212	146.660000
332.360565	146.000000
332.453918	145.560000
332.547333	145.480000
332.640656	145.740000
332.734039	146.160000
332.827362	146.420000
332.920746	146.760000
333.014069	147.040000
333.107452	147.480000
333.200806	147.360000
333.294159	147.500000
333.387543	146.940000
333.480896	146.260000
333.574249	145.720000
333.667603	145.480000
333.760956	145.520000
333.854340	145.740000
333.947693	146.120000
334.041046	146.180000
334.134430	146.640000
334.227783	146.040000
334.321136	146.140000
334.414520	145.920000
334.507874	146.220000
334.601227	145.680000
334.694611	145.740000
334.787964	145.640000
334.881348	145.860000
334.974701	145.620000
335.068085	145.880000
335.161438	146.280000
335.254822	146.260000
335.348175	146.220000
335.441559	145.880000
335.534943	146.520000
335.628296	146.340000
335.721680	146.280000
335.815033	146.480000
335.908417	146.940000
336.001770	146.640000
336.095154	146.760000
336.188538	146.640000
336.281891	146.260000
336.375275	145.560000
336.468658	145.220000
336.562012	144.960000
336.655396	145.540000
336.748779	145.840000
336.842133	146.360000
336.935516	146.660000
337.028900	146.840000
337.122284	146.600000
337.215637	146.520000
337.309021	146.520000
337.402435	145.980000
337.495789	145.640000
337.589203	145.600000
337.682526	145.480000
337.775940	145.740000
337.869324	146.100000
337.962708	145.880000
338.056091	146.360000
338.149475	146.040000
338.242859	145.960000
338.336243	145.880000
338.429626	146.400000
338.523010	145.780000
338.616394	146.000000
338.709778	146.060000
338.803162	146.260000
338.896545	146.380000
338.989929	146.100000
339.083313	146.340000
339.176697	145.960000
339.270081	145.760000
339.363464	145.960000
339.456848	146.600000
339.550232	145.820000
339.643616	145.860000
339.737030	145.740000
339.830383	145.160000
339.923828	145.240000
340.017181	145.960000
340.110596	145.840000
340.203949	145.880000
340.297363	145.800000
340.390778	145.300000
340.484161	145.180000
340.577545	145.220000
340.670959	145.480000
340.764343	145.540000
340.857727	145.680000
340.951111	145.480000
341.044525	145.520000
341.137909	145.000000
341.231293	145.000000
341.324707	144.540000
341.418091	145.320000
341.511505	145.520000
341.604889	146.060000
341.698303	146.380000
341.791687	146.740000
341.885071	146.060000
341.978485	145.940000
342.071899	145.980000
342.165283	146.140000
342.258698	146.420000
342.352081	146.860000
342.445496	147.180000
342.538879	146.960000
342.632324	146.700000
342.725708	146.500000
342.819122	146.280000
342.912506	145.760000
343.005920	145.760000
343.099335	146.660000
343.192719	146.880000
343.286133	146.900000
343.379547	147.600000
343.472931	147.780000
343.566345	146.640000
343.659760	146.720000
343.753143	146.420000
343.846558	145.700000
343.939972	145.440000
344.033386	145.920000
344.126770	145.580000
344.220184	145.600000
344.313599	146.180000
344.407043	146.240000
344.500427	145.660000
344.593872	146.240000
344.687225	145.920000
344.780670	145.480000
344.874054	145.220000
344.967499	146.180000
345.060913	145.940000
345.154327	146.320000
345.247742	146.260000
345.341156	146.260000
345.434570	145.320000
345.527985	145.240000
345.621399	145.160000
345.714813	145.380000
345.808228	146.060000
345.901642	146.320000
345.995056	145.960000
346.088470	146.320000
346.181885	146.260000
346.275299	145.560000
346.368713	145.380000
346.462128	145.280000
346.555573	145.140000
346.648987	145.180000
346.742401	145.320000
346.835815	145.960000
346.929260	146.100000
347.022644	146.020000
347.116119	146.100000
347.209503	146.240000
347.302948	146.940000
347.396362	147.680000
347.489807	148.000000
347.583221	148.560000
347.676636	148.180000
347.770050	146.660000
347.863495	145.840000
347.956909	145.620000
348.050323	144.880000
348.143768	145.040000
348.237183	145.100000
348.330597	145.720000
348.424042	145.940000
348.517456	146.340000
348.610901	146.860000
348.704315	146.840000
348.797760	146.300000
348.891174	145.520000
348.984619	144.900000
349.078033	144.900000
349.171448	145.760000
349.264923	145.840000
349.358337	146.100000
349.451782	146.460000
349.545197	145.820000
349.638641	144.860000
349.732086	144.560000
349.825500	145.080000
349.918945	144.700000
350.012390	145.500000
350.105804	146.240000
350.199249	146.700000
350.292664	146.900000
350.386108	147.200000
350.479553	147.580000
350.572968	147.440000
350.666412	147.480000
350.759857	147.260000
350.853302	147.560000
350.946716	146.740000
351.040161	146.560000
351.133606	146.400000
351.227081	146.140000
351.320465	146.540000
351.413940	146.580000
351.507355	146.900000
351.600830	147.000000
351.694244	146.800000
351.787720	146.280000
351.881104	146.240000
351.974579	145.920000
352.067993	146.560000
352.161469	146.680000
352.254883	146.240000
352.348358	146.000000
352.441803	145.860000
352.535248	145.540000
352.628693	146.040000
352.722137	146.120000
352.815582	146.360000
352.909027	146.780000
353.002472	146.320000
353.095917	145.960000
353.189362	146.360000
353.282806	146.400000
353.376251	146.040000
353.469696	145.680000
353.563141	146.180000
353.656586	145.760000
353.750061	145.480000
353.843475	145.600000
353.936981	146.540000
354.030396	145.780000
354.123871	145.980000
354.217285	146.840000
354.310760	147.260000
354.404175	146.800000
354.497681	146.700000
354.591095	146.860000
354.684570	145.880000
354.777985	145.140000
354.871490	144.800000
354.964935	145.420000
355.058380	145.380000
355.151855	145.380000
355.245300	146.220000
355.338745	146.640000
355.432220	146.440000
355.525665	146.080000
355.619110	146.640000
355.712585	146.040000
355.806030	146.000000
355.899475	145.660000
355.992950	146.160000
356.086426	146.300000
356.179871	146.740000
356.273346	146.640000
356.366791	146.840000
356.460266	147.080000
356.553711	146.480000
356.647186	146.500000
356.740631	146.460000
356.834106	146.400000
356.927551	146.100000
357.021027	146.440000
357.114471	146.280000
357.207947	146.500000
357.301422	146.640000
357.394867	146.820000
357.488342	146.960000
357.581818	146.820000
357.675262	146.960000
357.768738	146.660000
357.862213	145.800000
357.955658	145.680000
358.049133	145.660000
358.142609	145.660000
358.236053	145.800000
358.329529	146.020000
358.423035	146.360000
358.516449	146.160000
358.609955	146.400000
358.703400	146.940000
358.796906	147.300000
358.890350	146.560000
358.983826	147.060000
359.077271	146.300000
359.170776	145.900000
359.264221	145.580000
359.357727	146.040000
359.451172	146.300000
359.544647	146.860000
359.638123	146.640000
359.731598	147.040000
359.825073	146.880000
359.918549	146.440000
360.012024	146.340000
360.105499	146.420000
360.198975	146.580000
360.292450	146.800000
360.385925	146.880000
360.479401	146.580000
360.572876	146.940000
360.666351	146.840000
360.759857	146.660000
360.853302	146.580000
360.946808	146.260000
361.040253	146.140000
361.133759	145.880000
361.227203	145.900000
361.320709	145.380000
361.414154	145.820000
361.507660	145.940000
361.601105	146.500000
361.694641	147.060000
361.788086	147.420000
361.881592	148.080000
361.975067	147.740000
362.068542	147.660000
362.162018	147.300000
362.255524	147.120000
362.348999	146.600000
362.442474	147.140000
362.535950	146.540000
362.629456	146.400000
362.722931	146.260000
362.816406	146.280000
362.909882	146.100000
363.003387	146.100000
363.096863	146.460000
363.190338	146.700000
363.283875	146.460000
363.377319	146.320000
363.470825	146.980000
363.564301	146.400000
363.657806	146.460000
363.751282	146.380000
363.844788	147.120000
363.938232	146.480000
364.031769	147.040000
364.125214	147.260000
364.218750	147.660000
364.312225	146.440000
364.405731	146.660000
364.499207	145.880000
364.592712	145.640000
364.686188	145.520000
364.779694	146.080000
364.873169	146.060000
364.966675	146.480000
365.060150	146.380000
365.153656	146.460000
365.247131	146.200000
365.340637	146.320000
365.434143	146.840000
365.527618	147.180000
365.621155	146.420000
365.714600	146.720000
365.808136	146.760000
365.901611	145.420000
365.995117	145.020000
366.088593	145.480000
366.182129	144.860000
366.275604	144.640000
366.369110	145.360000
366.462585	145.340000
366.556122	145.780000
366.649567	146.180000
366.743103	146.400000
366.836609	146.040000
366.930115	146.520000
367.023590	146.580000
367.117096	146.500000
367.210602	146.340000
367.304108	146.880000
367.397614	147.020000
367.491119	147.140000
367.584595	147.500000
367.678101	147.800000
367.771606	147.580000
367.865112	147.040000
367.958649	146.260000
368.052124	145.840000
368.145660	145.300000
368.239136	145.760000
368.332672	145.860000
368.426147	146.160000
368.519684	146.160000
368.613159	147.060000
368.706696	146.440000
368.800171	146.660000
368.893707	146.680000
368.987183	146.520000
369.080719	145.980000
369.174225	146.060000
369.267731	146.000000
369.361237	145.940000
369.454742	146.340000
369.548248	146.760000
369.641754	146.820000
369.735260	146.620000
369.828766	145.980000
369.922272	146.460000
370.015808	145.920000
370.109314	145.840000
370.202820	145.920000
370.296356	147.100000
370.389832	146.560000
370.483368	146.360000
370.576874	146.220000
370.670410	146.420000
370.763885	145.540000
370.857422	145.520000
370.950928	145.580000
371.044464	146.320000
371.137939	146.300000
371.231476	146.640000
371.324982	147.020000
371.418518	147.020000
371.512024	146.400000
371.605560	146.060000
371.699066	146.100000
371.792572	145.640000
371.886108	146.200000
371.979614	145.920000
372.073120	146.560000
372.166656	146.560000
372.260162	147.080000
372.353668	146.520000
372.447205	146.780000
372.540710	146.400000
372.634277	146.360000
372.727753	146.080000
372.821320	146.260000
372.914795	146.340000
373.008362	146.020000
373.101837	145.880000
373.195404	145.580000
373.288879	145.120000
373.382446	145.860000
373.475922	146.180000
373.569489	146.980000
373.662964	147.700000
373.756531	148.060000
373.850037	147.840000
373.943573	147.380000
374.037109	145.880000
374.130615	145.580000
374.224152	145.800000
374.317657	145.500000
374.411194	146.500000
374.504730	146.840000
374.598236	146.460000
374.691772	146.160000
374.785309	146.160000
374.878815	145.320000
374.972351	146.060000
375.065887	146.020000
375.159454	146.780000
375.252930	146.480000
375.346497	146.860000
375.440002	147.100000
375.533569	147.000000
375.627045	146.340000
375.720612	146.500000
375.814117	146.680000
375.907684	146.140000
376.001160	146.180000
376.094727	145.780000
376.188232	146.520000
376.281799	146.220000
376.375336	146.180000
376.468872	146.720000
376.562408	147.180000
376.655914	146.420000
376.749451	146.540000
376.842987	146.860000
376.936523	146.580000
377.030060	146.620000
377.123596	146.860000
377.217133	146.400000
377.310669	146.020000
377.404205	146.220000
377.497772	146.520000
377.591278	146.320000
377.684845	147.300000
377.778351	147.720000
377.871918	147.460000
377.965424	146.640000
378.058990	146.400000
378.152496	145.720000
378.246063	145.600000
378.339569	145.940000
378.433136	146.300000
378.526642	146.540000
378.620209	146.460000
378.713745	146.000000
378.807312	146.240000
378.900848	145.920000
378.994385	146.300000
379.087921	145.740000
379.181458	146.340000
379.274994	145.500000
379.368530	145.520000
379.462097	145.620000
379.555634	146.400000
379.649170	145.400000
379.742706	145.740000
379.836273	146.080000
379.929810	145.480000
380.023376	145.160000
380.116882	145.980000
380.210449	145.780000
380.303986	145.440000
380.397552	145.520000
380.491058	145.800000
380.584656	145.500000
380.678162	145.520000
380.771729	145.680000
380.865265	146.380000
380.958832	146.560000
381.052368	146.600000
381.145935	146.960000
381.239471	147.400000
381.333008	146.660000
381.426575	146.320000
381.520111	146.920000
381.613647	146.980000
381.707214	146.800000
381.800751	146.540000
381.894318	146.740000
381.987854	145.900000
382.081421	145.720000
382.174988	145.860000
382.268524	145.720000
382.362091	145.860000
382.455627	146.800000
382.549194	146.720000
382.642731	145.920000
382.736298	146.060000
382.829834	145.600000
382.923401	145.660000
383.016937	145.920000
383.110504	146.400000
383.204041	146.940000
383.297607	147.580000
383.391174	146.900000
383.484741	147.520000
383.578278	147.220000
383.671844	146.880000
383.765411	146.080000
383.858948	146.520000
383.952515	146.200000
384.046051	146.880000
384.139618	147.080000
384.233185	147.420000
384.326721	147.260000
384.420288	147.460000
384.513855	146.960000
384.607422	147.440000
384.700989	147.740000
384.794525	147.220000
384.888123	147.040000
384.981659	147.340000
385.075226	146.660000
385.168762	146.480000
385.262360	146.660000
385.355896	145.940000
385.449463	145.980000
385.542999	146.100000
385.636597	146.400000
385.730164	146.840000
385.823730	146.720000
385.917267	146.240000
386.010834	146.560000
386.104401	146.060000
386.197968	146.220000
386.291534	146.840000
386.385101	146.980000
386.478668	146.960000
386.572235	147.120000
386.665802	146.480000
386.759338	146.040000
386.852905	145.860000
386.946472	145.280000
387.040070	145.880000
387.133606	146.140000
387.227203	145.820000
387.320740	146.360000
387.414337	146.520000
387.507874	145.880000
387.601471	146.000000
387.695007	146.140000
387.788605	145.980000
387.882141	146.080000
387.975739	146.380000
388.069275	145.880000
388.162872	146.000000
388.256439	145.800000
388.350037	145.580000
388.443604	145.400000
388.537170	145.760000
388.630737	146.320000
388.724304	146.640000
388.817871	146.900000
388.911438	146.880000
389.005005	147.140000
389.098602	147.060000
389.192169	146.520000
389.285736	147.080000
389.379333	146.980000
389.472870	146.240000
389.566467	146.240000
389.660034	146.480000
389.753632	145.480000
389.847168	145.880000
389.940765	146.620000
390.034332	146.500000
390.127930	146.360000
390.221466	146.420000
390.315063	146.040000
390.408630	145.020000
390.502228	144.480000
390.595795	144.620000
390.689362	144.980000
390.782959	145.180000
390.876526	145.960000
390.970093	146.060000
391.063690	146.400000
391.157257	146.740000
391.250824	146.920000
391.344421	146.800000
391.437988	147.120000
391.531555	147.480000
391.625153	147.320000
391.718750	147.260000
391.812317	147.320000
391.905914	147.040000
391.999481	146.560000
392.093079	146.620000
392.186615	146.880000
392.280243	146.900000
392.373779	147.240000
392.467407	147.580000
392.560944	147.140000
392.654572	146.500000
392.748108	146.280000
392.841736	146.300000
392.935303	145.660000
393.028900	145.660000
393.122467	146.040000
393.216064	145.740000
393.309631	145.240000
393.403229	145.220000
393.496796	145.180000
393.590393	144.340000
393.683990	144.600000
393.777557	145.200000
393.871155	145.320000
393.964722	145.840000
394.058350	146.140000
394.151917	146.200000
394.245514	146.040000
394.339081	146.460000
394.432678	146.600000
394.526245	146.980000
394.619873	146.680000
394.713409	146.600000
394.807037	146.060000
394.900604	145.880000
394.994202	145.760000
395.087769	146.380000
395.181396	146.080000
395.274994	147.180000
395.368561	146.500000
395.462158	146.920000
395.555756	146.320000
395.649353	146.880000
395.742920	146.100000
395.836517	147.200000
395.930115	146.120000
396.023712	146.760000
396.117279	146.800000
396.210876	146.380000
396.304474	145.800000
396.398071	146.400000
396.491669	146.300000
396.585266	145.960000
396.678833	146.320000
396.772461	146.620000
396.866028	146.540000
396.959656	146.960000
397.053223	147.420000
397.146851	147.320000
397.240417	147.720000
397.334015	148.740000
397.427582	148.680000
397.521210	149.300000
397.614807	150.860000
397.708405	151.900000
397.802002	153.420000
397.895599	156.380000
397.989197	158.920000
398.082794	162.620000
398.176392	167.600000
398.269989	173.440000
398.363586	180.480000
398.457184	189.600000
398.550781	199.000000
398.644379	208.240000
398.737976	218.980000
398.831573	230.280000
398.925201	241.620000
399.018768	253.180000
399.112396	266.220000
399.205963	278.680000
399.299591	291.980000
399.393158	305.860000
399.486786	322.220000
399.580353	338.520000
399.673981	354.520000
399.767578	370.100000
399.861206	384.920000
399.954773	396.160000
400.048401	403.820000
400.141998	407.920000
400.235596	407.920000
400.329193	403.840000
400.422791	396.940000
400.516418	388.520000
400.610016	381.540000
400.703613	374.160000
400.797211	365.460000
400.890808	356.160000
400.984436	347.080000
401.078033	333.960000
401.171631	318.960000
401.265259	301.880000
401.358826	284.380000
401.452484	264.700000
401.546051	246.900000
401.639679	229.040000
401.733246	214.380000
401.826904	200.820000
401.920471	189.740000
402.014099	180.220000
402.107697	172.840000
402.201324	167.120000
402.294891	162.700000
402.388550	159.520000
402.482147	156.680000
402.575745	154.100000
402.669373	151.920000
402.762970	150.280000
402.856567	149.020000
402.950195	148.160000
403.043793	147.780000
403.137390	148.140000
403.231018	147.300000
403.324615	147.620000
403.418243	147.020000
403.511841	147.240000
403.605469	146.740000
403.699066	147.360000
403.792694	146.860000
403.886292	147.400000
403.979919	147.360000
404.073517	146.820000
404.167145	147.100000
404.260712	147.280000
404.354370	146.660000
404.447937	147.040000
404.541595	147.320000
404.635162	147.300000
404.728821	147.580000
404.822418	147.740000
404.916046	146.940000
405.009644	147.160000
405.103271	147.260000
405.196899	146.880000
405.290497	146.860000
405.384125	147.520000
405.477722	147.140000
405.571350	146.520000
405.664948	146.480000
405.758575	146.200000
405.852203	145.500000
405.945801	145.400000
406.039429	145.460000
406.133057	145.400000
406.226654	145.420000
406.320312	145.560000
406.413879	146.260000
406.507538	146.660000
406.601135	146.400000
406.694763	147.040000
406.788361	146.900000
406.882019	145.900000
406.975586	146.100000
407.069244	146.560000
407.162872	146.340000
407.256470	146.240000
407.350098	146.420000
407.443726	145.900000
407.537323	145.520000
407.630951	145.660000
407.724579	145.480000
407.818207	146.040000
407.911804	146.180000
408.005432	146.260000
408.099060	146.140000
408.192688	146.760000
408.286285	146.240000
408.379913	145.720000
408.473572	145.740000
408.567169	145.400000
408.660828	145.200000
408.754395	145.340000
408.848053	145.180000
408.941650	145.340000
409.035309	145.300000
409.128906	145.160000
409.222565	145.220000
409.316132	145.860000
409.409790	145.440000
409.503387	145.460000
409.597046	145.600000
409.690674	145.800000
409.784302	145.760000
409.877930	145.820000
409.971558	145.920000
410.065186	145.720000
410.158783	145.440000
410.252411	145.380000
410.346039	145.820000
410.439667	145.940000
410.533295	146.420000
410.626923	146.980000
410.720551	146.540000
410.814209	147.080000
410.907806	146.980000
411.001465	146.220000
411.095062	146.180000
411.188721	147.020000
411.282318	146.300000
411.375977	145.780000
411.469574	146.320000
411.563232	146.080000
411.656830	145.340000
411.750488	145.440000
411.844086	146.100000
411.937744	146.160000
412.031372	146.020000
412.125000	146.160000
412.218628	146.020000
412.312256	146.380000
412.405884	146.820000
412.499512	146.840000
412.593170	147.220000
412.686798	147.400000
412.780426	146.900000
412.874054	146.460000
412.967682	146.700000
413.061310	147.220000
413.154968	147.260000
413.248566	147.360000
413.342224	147.480000
413.435852	147.400000
413.529510	146.800000
413.623108	146.180000
413.716766	146.220000
413.810364	146.500000
413.904022	146.200000
413.997650	145.620000
414.091309	146.320000
414.184906	146.220000
414.278564	145.400000
414.372192	145.780000
414.465851	146.360000
414.559479	146.300000
414.653107	147.000000
414.746735	146.840000
414.840393	147.060000
414.934021	147.360000
415.027649	146.700000
415.121277	146.360000
415.214935	147.280000
415.308563	146.820000
415.402191	146.080000
415.495850	146.540000
415.589478	146.220000
415.683136	145.760000
415.776733	145.920000
415.870422	146.620000
415.964020	146.060000
416.057678	146.260000
416.151306	146.420000
416.244965	146.460000
416.338562	146.100000
416.432251	146.800000
416.525848	147.360000
416.619507	147.480000
416.713165	147.680000
416.806793	147.740000
416.900421	147.820000
416.994080	146.780000
417.087708	146.660000
417.181366	146.220000
417.274994	146.280000
417.368622	146.140000
417.462280	147.060000
417.555908	146.780000
417.649567	146.980000
417.743195	146.840000
417.836853	146.960000
417.930481	146.860000
418.024170	146.940000
418.117767	147.280000
418.211426	147.800000
418.305054	147.800000
418.398712	147.140000
418.492340	147.520000
418.585999	147.600000
418.679626	147.240000
418.773285	146.940000
418.866913	147.560000
418.960571	147.540000
419.054230	147.300000
419.147858	147.420000
419.241516	147.540000
419.335144	147.020000
419.428802	146.960000
419.522461	146.720000
419.616089	146.460000
419.709747	146.780000
419.803375	146.900000
419.897034	146.700000
419.990662	146.860000
420.084320	147.080000
420.177979	147.020000
420.271606	147.160000
420.365295	147.700000
420.458893	147.760000
420.552582	148.120000
420.646210	147.920000
420.739868	147.780000
420.833496	147.300000
420.927155	146.660000
421.020782	146.040000
421.114471	145.820000
421.208069	145.840000
421.301758	146.140000
421.395386	146.480000
421.489044	146.420000
421.582703	146.680000
421.676361	147.140000
421.769989	146.600000
421.863647	146.960000
421.957306	147.180000
422.050934	147.240000
422.144592	146.820000
422.238251	146.600000
422.331909	146.100000
422.425537	145.840000
422.519196	145.900000
422.612854	145.840000
422.706543	146.020000
422.800140	146.660000
422.893829	146.660000
422.987457	146.260000
423.081146	146.280000
423.174744	146.820000
423.268433	146.560000
423.362061	146.560000
423.455750	146.380000
423.549347	146.280000
423.643036	145.620000
423.736664	146.020000
423.830353	146.220000
423.924011	146.780000
424.017639	146.500000
424.111298	146.760000
424.204956	146.100000
424.298615	145.900000
424.392273	145.820000
424.485931	146.260000
424.579559	146.200000
424.673218	146.320000
424.766876	146.480000
424.860535	146.140000
424.954193	145.780000
425.047882	146.480000
425.141510	146.440000
425.235199	146.460000
425.328796	146.240000
425.422485	145.960000
425.516113	145.120000
425.609802	145.300000
425.703430	145.720000
425.797119	145.900000
425.890747	146.300000
425.984436	146.460000
426.078064	146.380000
426.171753	145.740000
426.265411	145.400000
426.359070	145.660000
426.452728	145.540000
426.546356	145.320000
426.640015	145.320000
426.733673	145.680000
426.827332	145.300000
426.920990	146.080000
427.014648	145.880000
427.108307	146.280000
427.201965	146.720000
427.295624	147.060000
427.389282	146.080000
427.482941	146.560000
427.576630	146.340000
427.670258	145.620000
427.763947	145.360000
427.857574	145.740000
427.951263	145.440000
428.044922	145.240000
428.138611	145.580000
428.232239	145.980000
428.325928	146.240000
428.419556	146.800000
428.513245	146.540000
428.606903	146.620000
428.700562	145.920000
428.794220	145.240000
428.887878	144.540000
428.981537	145.000000
429.075195	145.020000
429.168854	145.540000
429.262512	145.960000
429.356201	146.220000
429.449860	146.380000
429.543518	146.200000
429.637177	146.300000
429.730835	146.200000
429.824493	146.380000
429.918182	146.240000
430.011810	146.020000
430.105530	145.320000
430.199158	145.500000
430.292847	145.280000
430.386475	144.960000
430.480164	145.020000
430.573792	145.040000
430.667511	144.900000
430.761139	144.740000
430.854828	145.320000
430.948456	145.560000
431.042145	146.220000
431.135834	146.140000
431.229492	146.700000
431.323151	146.800000
431.416809	146.840000
431.510468	146.460000
431.604156	146.560000
431.697815	146.280000
431.791473	145.920000
431.885132	145.480000
431.978821	146.040000
432.072479	146.320000
432.166138	146.640000
432.259827	146.300000
432.353485	146.800000
432.447174	146.780000
432.540802	146.540000
432.634491	146.560000
432.728149	147.220000
432.821838	147.360000
432.915466	146.880000
433.009186	146.840000
433.102814	146.160000
433.196503	145.460000
433.290131	145.400000
433.383850	145.920000
433.477509	145.840000
433.571167	146.820000
433.664856	147.580000
433.758514	147.900000
433.852173	147.360000
433.945862	147.260000
434.039520	147.040000
434.133179	146.320000
434.226868	145.860000
434.320526	145.580000
434.414185	146.280000
434.507874	145.740000
434.601562	146.060000
434.695221	145.880000
434.788910	146.500000
434.882538	146.200000
434.976257	145.840000
435.069885	146.140000
435.163574	146.240000
435.257233	145.700000
435.350922	145.700000
435.444580	145.760000
435.538269	145.100000
435.631897	145.580000
435.725616	146.080000
435.819275	146.500000
435.912964	147.080000
436.006622	147.800000
436.100311	147.380000
436.193970	146.780000
436.287628	146.160000
436.381317	145.800000
436.474976	145.380000
436.568665	145.160000
436.662323	145.240000
436.756012	145.460000
436.849670	145.300000
436.943390	145.160000
437.037018	145.100000
437.130737	145.500000
437.224365	145.280000
437.318085	145.640000
437.411713	145.980000
437.505432	146.580000
437.599060	146.780000
437.692780	147.440000
437.786407	147.220000
437.880127	147.120000
437.973755	146.680000
438.067474	146.340000
438.161133	145.880000
438.254822	146.400000
438.348480	146.220000
438.442169	146.900000
438.535828	147.460000
438.629517	147.140000
438.723175	146.520000
438.816864	146.840000
438.910553	146.060000
439.004211	145.400000
439.097900	145.420000
439.191559	145.640000
439.285248	145.340000
439.378906	145.900000
439.472626	145.880000
439.566284	146.000000
439.659973	146.540000
439.753632	146.500000
439.847321	146.620000
439.940979	146.820000
440.034698	146.780000
440.128326	145.900000
440.222046	146.000000
440.315674	145.460000
440.409393	145.540000
440.503082	145.360000
440.596741	145.760000
440.690430	145.680000
440.784088	145.660000
440.877777	144.960000
440.971466	145.120000
441.065125	144.760000
441.158813	144.420000
441.252502	144.440000
441.346161	144.980000
441.439850	145.160000
441.533539	145.220000
441.627197	145.760000
441.720886	145.680000
441.814606	146.040000
441.908234	146.240000
442.001953	146.240000
442.095612	146.080000
442.189301	146.380000
442.282959	146.140000
442.376678	145.340000
442.470306	146.100000
442.564026	146.100000
442.657684	146.320000
442.751404	146.440000
442.845032	147.400000
442.938751	146.620000
443.032440	146.620000
443.126099	145.780000
443.219788	145.960000
443.313477	145.560000
443.407166	145.920000
443.500824	145.740000
443.594513	146.420000
443.688202	146.160000
443.781891	145.760000
443.875549	145.300000
443.969238	145.180000
444.062927	145.000000
444.156647	144.960000
444.250275	145.500000
444.343994	145.840000
444.437653	146.060000
444.531372	146.160000
444.625031	145.900000
444.718719	145.560000
444.812378	145.320000
444.906097	145.340000
444.999756	145.140000
445.093445	145.160000
445.187103	145.100000
445.280823	145.800000
445.374512	145.380000
445.468201	145.120000
445.561859	145.120000
445.655548	145.280000
445.749237	144.500000
445.842926	145.060000
445.936615	145.940000
446.030304	145.900000
446.123962	146.140000
446.217651	146.100000
446.311340	146.220000
446.405029	145.460000
446.498749	145.340000
446.592407	144.980000
446.686096	145.560000
446.779755	145.600000
446.873474	145.900000
446.967133	145.980000
447.060852	145.760000
447.154510	145.320000
447.248230	144.900000
447.341858	144.880000
447.435577	144.800000
447.529236	144.720000
447.622955	144.820000
447.716644	145.060000
447.810333	145.320000
447.904022	145.880000
447.997711	146.160000
448.091400	146.740000
448.185059	146.740000
448.278748	146.560000
448.372437	146.200000
448.466125	146.360000
448.559814	145.900000
448.653503	146.180000
448.747192	146.360000
448.840912	147.080000
448.934570	147.000000
449.028290	147.220000
449.121948	146.900000
449.215637	146.420000
449.309296	145.500000
449.403015	146.020000
449.496674	145.820000
449.590393	145.880000
449.684052	145.700000
449.777771	146.860000
449.871429	145.980000
449.965149	145.820000
450.058838	146.060000
450.152527	146.760000
450.246216	145.960000
450.339905	146.280000
450.433594	146.220000
450.527283	146.520000
450.620972	146.240000
450.714661	146.180000
450.808350	146.640000
450.902039	147.160000
450.995728	146.800000
451.089417	146.420000
451.183105	146.440000
451.276794	146.320000
451.370514	145.560000
451.464172	144.660000
451.557892	144.740000
451.651550	145.040000
451.745270	144.700000
451.838928	144.620000
451.932648	145.220000
452.026306	145.960000
452.120026	145.460000
452.213684	145.840000
452.307404	146.240000
452.401062	146.520000
452.494781	146.420000
452.588470	146.760000
452.682159	145.980000
452.775848	146.160000
452.869537	145.740000
452.963226	145.200000
453.056915	145.080000
453.150604	145.640000
453.244293	145.620000
453.337982	146.100000
453.431671	146.540000
453.525360	147.040000
453.619049	146.880000
453.712769	146.840000
453.806427	146.500000
453.900146	146.040000
453.993805	145.880000
454.087555	146.320000
454.181213	146.180000
454.274933	146.160000
454.368591	146.240000
454.462311	145.940000
454.555969	145.480000
454.649689	146.440000
454.743347	146.260000
454.837067	147.040000
454.930756	147.260000
455.024445	147.700000
455.118134	147.020000
455.211853	147.180000
455.305542	146.620000
455.399231	146.300000
455.492920	145.980000
455.586609	146.240000
455.680298	146.640000
455.773987	146.380000
455.867676	146.620000
455.961365	146.840000
456.055084	146.320000
456.148773	146.060000
456.242493	146.280000
456.336151	146.160000
456.429871	146.360000
456.523529	147.080000
456.617249	146.640000
456.710907	147.040000
456.804626	146.720000
456.898315	145.980000
456.992035	145.720000
457.085693	145.740000
457.179413	145.020000
457.273102	146.300000
457.366791	146.680000
457.460480	146.660000
457.554199	147.620000
457.647888	147.660000
457.741577	146.600000
457.835266	146.720000
457.928955	146.460000
458.022644	146.200000
458.116364	146.860000
458.210052	147.000000
458.303741	146.760000
458.397461	146.300000
458.491119	145.800000
458.584839	145.240000
458.678528	145.060000
458.772247	144.760000
458.865906	145.120000
458.959625	145.980000
459.053284	146.340000
459.147003	145.940000
459.240692	146.900000
459.334412	147.180000
459.428070	146.460000
459.521790	146.080000
459.615479	146.400000
459.709198	146.400000
459.802887	146.020000
459.896576	146.180000
459.990265	146.220000
460.083954	146.280000
460.177673	145.780000
460.271362	145.940000
460.365051	146.040000
460.458740	146.040000
460.552429	145.780000
460.646149	145.680000
460.739838	145.340000
460.833527	145.360000
460.927246	145.140000
461.020905	145.200000
461.114655	145.140000
461.208313	145.620000
461.302032	145.060000
461.395691	145.260000
461.489441	145.620000
461.583099	145.740000
461.676819	145.260000
461.770477	145.780000
461.864197	145.800000
461.957916	145.560000
462.051605	144.860000
462.145294	146.040000
462.238983	145.620000
462.332703	145.980000
462.426392	146.520000
462.520081	146.760000
462.613770	146.120000
462.707489	146.600000
462.801178	146.180000
462.894867	145.820000
462.988556	146.180000
463.082275	146.100000
463.175964	145.440000
463.269684	146.080000
463.363342	145.960000
463.457092	145.440000
463.550751	145.640000
463.644470	146.080000
463.738129	145.620000
463.831879	146.160000
463.925537	147.320000
464.019257	147.300000
464.112946	147.160000
464.206665	146.980000
464.300323	146.680000
464.394043	146.220000
464.487762	145.960000
464.581451	146.440000
464.675140	146.580000
464.768829	146.840000
464.862549	146.780000
464.956238	146.900000
465.049927	146.700000
465.143646	146.660000
465.237335	146.280000
465.331024	147.060000
465.424713	147.220000
465.518433	147.340000
465.612152	147.360000
465.705811	147.280000
465.799561	146.380000
465.893219	146.000000
465.986938	145.880000
466.080597	145.500000
466.174347	145.780000
466.268005	146.160000
466.361725	146.260000
466.455414	146.220000
466.549133	146.200000
466.642792	146.180000
466.736542	145.620000
466.830231	145.760000
466.923920	145.500000
467.017609	145.640000
467.111328	145.240000
467.205017	145.300000
467.298706	145.500000
467.392426	145.740000
467.486115	146.140000
467.579803	146.020000
467.673523	146.600000
467.767212	146.420000
467.860901	146.580000
467.954651	146.660000
468.048309	147.160000
468.142029	146.780000
468.235718	146.700000
468.329437	146.240000
468.423096	145.760000
468.516846	145.640000
468.610504	145.500000
468.704224	145.320000
468.797913	145.620000
468.891632	146.040000
468.985291	145.840000
469.079010	146.020000
469.172729	145.540000
469.266418	145.580000
469.360107	145.640000
469.453827	145.760000
469.547516	145.880000
469.641205	146.780000
469.734924	146.800000
469.828613	146.740000
469.922302	147.120000
470.016022	146.900000
470.109711	146.640000
470.203430	146.220000
470.297150	145.680000
470.390808	145.540000
470.484558	145.400000
470.578217	145.780000
470.671936	146.400000
470.765625	147.000000
470.859344	146.560000
470.953003	146.880000
471.046753	146.260000
471.140411	145.560000
471.234131	145.460000
471.327820	146.120000
471.421539	146.120000
471.515228	145.660000
471.608948	146.040000
471.702637	145.880000
471.796326	145.260000
471.890045	145.460000
471.983734	146.300000
472.077423	145.940000
472.171143	146.140000
472.264832	146.380000
472.358521	145.900000
472.452240	145.420000
472.545929	146.280000
472.639648	146.380000
472.733337	146.620000
472.827057	146.720000
472.920746	146.960000
473.014465	147.240000
473.108124	147.180000
473.201874	147.040000
473.295532	147.080000
473.389252	147.500000
473.482941	147.040000
473.576660	146.760000
473.670319	146.620000
473.764069	146.800000
473.857727	146.860000
473.951477	147.020000
474.045166	147.720000
474.138855	147.760000
474.232574	147.500000
474.326263	147.200000
474.419952	146.880000
474.513672	146.540000
474.607361	146.420000
474.701050	146.800000
474.794769	146.960000
474.888458	147.440000
474.982178	147.280000
475.075867	147.440000
475.169586	147.060000
475.263275	146.740000
475.356995	146.540000
475.450653	146.300000
475.544403	146.000000
475.638062	146.760000
475.731812	146.580000
475.825470	146.160000
475.919189	146.360000
476.012878	146.680000
476.106598	145.900000
476.200256	146.580000
476.294006	146.640000
476.387695	146.780000
476.481384	146.800000
476.575104	146.740000
476.668793	146.200000
476.762512	146.040000
476.856201	146.400000
476.949890	146.060000
477.043610	145.820000
477.137299	145.880000
477.230988	146.200000
477.324707	145.600000
477.418396	146.120000
477.512146	146.540000
477.605804	146.400000
477.699524	146.480000
477.793213	146.720000
477.886932	146.480000
477.980591	146.240000
478.074341	146.440000
478.167999	145.740000
478.261749	145.540000
478.355408	145.280000
478.449127	145.780000
478.542816	146.460000
478.636536	147.080000
478.730225	147.360000
478.823944	147.560000
478.917633	147.440000
479.011322	147.360000
479.105042	147.340000
479.198730	147.520000
479.292450	147.520000
479.386139	147.680000
479.479828	147.560000
479.573547	147.860000
479.667267	147.580000
479.760925	147.920000
479.854675	147.720000
479.948334	147.460000
480.042084	146.880000
480.135742	147.220000
480.229462	146.240000
480.323151	146.380000
480.416870	145.660000
480.510529	145.700000
480.604279	145.040000
480.697937	145.980000
480.791656	145.540000
480.885345	145.720000
480.979065	145.880000
481.072754	146.480000
481.166473	146.880000
481.260132	147.100000
481.353882	147.160000
481.447540	147.140000
481.541260	147.160000
481.635010	146.000000
481.728668	145.960000
481.822388	146.180000
481.916077	146.120000
482.009796	145.560000
482.103485	146.240000
482.197205	146.260000
482.290863	146.320000
482.384613	146.120000
482.478271	145.780000
482.571991	145.680000
482.665680	145.580000
482.759399	146.200000
482.853058	146.680000
482.946808	147.180000
483.040466	147.080000
483.134216	146.920000
483.227875	146.320000
483.321594	146.660000
483.415283	146.740000
483.509003	146.660000
483.602661	146.420000
483.696411	146.400000
483.790070	145.900000
483.883789	145.500000
483.977478	145.960000
484.071198	146.420000
484.164917	146.060000
484.258606	145.600000
484.352325	146.120000
484.445984	145.820000
484.539734	145.840000
484.633392	145.820000
484.727142	146.600000
484.820801	146.280000
484.914520	146.200000
485.008209	146.420000
485.101929	147.040000
485.195587	146.360000
485.289337	146.640000
485.382996	146.880000
485.476715	146.680000
485.570404	146.860000
485.664124	146.840000
485.757782	147.260000
485.851532	146.860000
485.945190	146.860000
486.038910	146.500000
486.132599	147.040000
486.226318	146.000000
486.319977	146.040000
486.413727	146.360000
486.507446	146.100000
486.601105	145.600000
486.694855	145.640000
486.788513	145.660000
486.882233	145.340000
486.975922	145.480000
487.069641	145.580000
487.163300	145.800000
487.257050	146.580000
487.350708	146.320000
487.444427	146.140000
487.538116	146.120000
487.631836	145.900000
487.725494	145.520000
487.819214	145.520000
487.912903	145.460000
488.006622	145.760000
488.100281	146.360000
488.194031	146.080000
488.287689	146.780000
488.381409	147.640000
488.475098	147.540000
488.568817	147.420000
488.662476	147.180000
488.756226	146.400000
488.849945	144.900000
488.943604	144.880000
489.037354	145.060000
489.131012	145.240000
489.224731	145.260000
489.318390	145.940000
489.412140	146.160000
489.505798	145.800000
489.599518	145.600000
489.693207	145.920000
489.786926	145.780000
489.880585	145.200000
489.974335	145.520000
490.067993	146.560000
490.161713	146.960000
490.255371	147.820000
490.349121	148.280000
490.442780	147.780000
490.536499	146.940000
490.630188	146.680000
490.723907	145.980000
490.817566	145.800000
490.911285	146.160000
491.004974	146.140000
491.098694	145.680000
491.192413	146.460000
491.286102	146.360000
491.379822	146.200000
491.473480	146.280000
491.567200	146.660000
491.660889	145.700000
491.754608	146.040000
491.848267	146.280000
491.941986	146.320000
492.035675	146.120000
492.129395	146.720000
492.223053	146.440000
492.316772	146.740000
492.410461	146.580000
492.504181	146.580000
492.597839	146.080000
492.691559	146.120000
492.785248	145.860000
492.878967	145.940000
492.972626	145.700000
493.066345	146.000000
493.160034	145.620000
493.253754	145.480000
493.347412	145.320000
493.441132	145.620000
493.534882	145.980000
493.628540	146.520000
493.722260	146.660000
493.815918	146.840000
493.909668	147.360000
494.003326	147.220000
494.097046	146.820000
494.190704	146.560000
494.284454	146.860000
494.378113	146.440000
494.471832	146.260000
494.565491	146.260000
494.659210	146.220000
494.752899	145.760000
494.846619	145.600000
494.940277	145.680000
495.033997	145.740000
495.127686	145.780000
495.221405	145.580000
495.315063	145.600000
495.408783	145.920000
495.502441	146.100000
495.596191	146.300000
495.689850	146.280000
495.783569	146.800000
495.877228	146.720000
495.970947	146.340000
496.064697	146.220000
496.158356	147.300000
496.252075	147.320000
496.345734	146.840000
496.439453	147.960000
496.533142	148.060000
496.626862	147.780000
496.720520	147.560000
496.814240	147.780000
496.907898	147.320000
497.001617	147.280000
497.095306	146.480000
497.189026	146.340000
497.282684	146.420000
497.376404	146.440000
497.470062	146.400000
497.563782	147.060000
497.657471	146.880000
497.751190	146.720000
497.844849	146.580000
497.938568	146.760000
498.032227	146.360000
498.125946	146.340000
498.219635	146.140000
498.313354	146.280000
498.407074	145.960000
498.500732	146.200000
498.594452	146.500000
498.688110	146.200000
498.781830	145.620000
498.875519	145.440000
498.969238	145.420000
499.062897	145.000000
499.156616	145.760000
499.250275	146.340000
499.343994	146.300000
499.437653	146.200000
499.531372	146.880000
499.625061	147.280000
499.718781	147.180000
499.812439	147.480000
499.906158	147.520000
499.999817	146.880000
500.093536	146.060000
500.187195	146.160000
500.280914	146.220000
500.374573	146.520000
500.468323	146.460000
500.561981	146.680000
500.655701	146.020000
500.749420	145.940000
500.843079	145.840000
500.936798	145.960000
501.030457	146.340000
501.124176	146.700000
501.217834	146.500000
501.311554	146.180000
501.405212	146.000000
501.498962	145.200000
501.592621	144.780000
501.686340	145.340000
501.779999	145.420000
501.873718	145.940000
501.967377	146.300000
502.061096	146.900000
502.154755	146.260000
502.248474	146.520000
502.342133	146.340000
502.435852	146.220000
502.529510	146.800000
502.623230	147.640000
502.716888	146.860000
502.810608	146.900000
502.904266	147.200000
502.997986	146.600000
503.091705	145.980000
503.185364	146.200000
503.279083	146.340000
503.372772	146.440000
503.466492	145.820000
503.560150	145.980000
503.653870	146.300000
503.747528	146.260000
503.841248	146.060000
503.934906	146.780000
504.028625	146.360000
504.122284	146.800000
504.216003	147.360000
504.309662	146.980000
504.403381	147.020000
504.497040	147.280000
504.590759	146.780000
504.684418	146.540000
504.778137	147.220000
504.871796	147.360000
504.965515	147.420000
505.059174	147.900000
505.152893	147.560000
505.246521	146.980000
505.340240	146.600000
505.433899	146.620000
505.527618	146.560000
505.621338	146.740000
505.714996	146.580000
505.808716	146.700000
505.902374	147.340000
505.996094	147.300000
506.089752	146.980000
506.183472	147.520000
506.277130	147.580000
506.370850	147.200000
506.464508	146.680000
506.558228	146.820000
506.651886	146.400000
506.745605	146.380000
506.839264	146.420000
506.932983	146.800000
507.026611	146.640000
507.120331	147.360000
507.213989	146.760000
507.307709	146.740000
507.401367	146.940000
507.495087	147.900000
507.588745	146.980000
507.682465	148.080000
507.776123	147.880000
507.869843	147.640000
507.963531	147.020000
508.057190	147.740000
508.150909	146.820000
508.244568	147.000000
508.338287	146.800000
508.431946	146.580000
508.525665	146.340000
508.619324	146.520000
508.713013	146.660000
508.806671	147.400000
508.900391	147.940000
508.994049	147.860000
509.087769	147.760000
509.181427	147.540000
509.275146	146.760000
509.368774	146.180000
509.462494	146.120000
509.556152	145.820000
509.649872	146.220000
509.743530	146.360000
509.837250	146.560000
509.930878	146.540000
510.024597	146.720000
510.118256	146.320000
510.211975	146.320000
510.305695	145.940000
510.399353	146.280000
510.493042	146.860000
510.586700	146.820000
510.680420	147.420000
510.774078	147.480000
510.867798	147.280000
510.961426	146.700000
511.055145	146.760000
511.148804	146.060000
511.242523	146.620000
511.336151	146.840000
511.429871	147.320000
511.523529	146.940000
511.617249	146.940000
511.710876	146.480000
511.804596	146.000000
511.898254	145.860000
511.991974	146.540000
512.085632	146.520000
512.179321	146.860000
512.272949	147.300000
512.366699	147.460000
512.460327	147.020000
512.554077	147.800000
512.647766	147.500000
512.741394	147.320000
512.835144	147.580000
512.928772	147.360000
513.022461	146.880000
513.116150	146.640000
513.209839	147.160000
513.303467	146.700000
513.397217	146.600000
513.490845	146.560000
513.584595	146.680000
513.678223	145.960000
513.771912	145.720000
513.865601	145.960000
513.959290	145.460000
514.052917	145.660000
514.146667	146.580000
514.240295	147.100000
514.333984	147.180000
514.427673	147.300000
514.521362	147.660000
514.614990	146.920000
514.708740	147.060000
514.802368	147.260000
514.896057	147.180000
514.989746	147.380000
515.083435	147.220000
515.177124	146.860000
515.270752	146.580000
515.364502	147.020000
515.458130	146.920000
515.551819	147.020000
515.645508	146.980000
515.739197	147.000000
515.832825	146.920000
515.926575	146.400000
516.020203	146.620000
516.113892	147.020000
516.207520	146.980000
516.301270	146.980000
516.394897	147.200000
516.488586	147.380000
516.582275	147.220000
516.675964	146.560000
516.769592	146.220000
516.863281	146.900000
516.956970	147.140000
517.050659	146.820000
517.144287	147.380000
517.238037	147.760000
517.331665	146.740000
517.425354	146.340000
517.519043	146.220000
517.612732	146.620000
517.706421	146.360000
517.800049	146.340000
517.893738	145.920000
517.987427	145.900000
518.081116	145.660000
518.174744	145.340000
518.268433	145.740000
518.362122	146.600000
518.455811	146.320000
518.549438	146.980000
518.643127	148.080000
518.736816	147.600000
518.830505	146.880000
518.924133	147.220000
519.017822	146.780000
519.111511	146.320000
519.205200	146.920000
519.298828	146.720000
519.392517	146.580000
519.486206	146.940000
519.579895	146.820000
519.673523	146.440000
519.767212	146.640000
519.860901	147.000000
519.954590	146.420000
520.048279	146.020000
520.141907	146.060000
520.235596	146.920000
520.329224	147.040000
520.422974	147.100000
520.516602	147.220000
520.610291	146.740000
520.703918	146.420000
520.797607	146.020000
520.891296	145.860000
520.984985	146.060000
521.078613	146.840000
521.172302	145.960000
521.265930	146.760000
521.359680	147.520000
521.453308	147.360000
521.546997	146.900000
521.640625	147.540000
521.734314	147.080000
521.827942	146.480000
521.921692	146.920000
522.015320	147.000000
522.109009	146.600000
522.202698	146.360000
522.296326	146.520000
522.390015	146.380000
522.483704	146.680000
522.577393	146.740000
522.671021	146.740000
522.764709	146.460000
522.858337	146.760000
522.952026	146.540000
523.045654	147.200000
523.139404	147.760000
523.233032	147.860000
523.326721	147.420000
523.420349	147.340000
523.514038	146.740000
523.607666	147.040000
523.701355	146.720000
523.795044	146.660000
523.888733	146.840000
523.982361	147.220000
524.076050	146.480000
524.169678	146.980000
524.263367	146.700000
524.356995	146.400000
524.450684	146.200000
524.544373	146.000000
524.638062	145.680000
524.731750	146.040000
524.825378	146.340000
524.919067	145.840000
525.012695	145.900000
525.106384	145.780000
525.200012	145.820000
525.293701	145.460000
525.387329	146.360000
525.481018	146.480000
525.574646	146.860000
525.668396	146.780000
525.762024	147.080000
525.855713	146.720000
525.949341	146.460000
526.043030	146.380000
526.136658	146.180000
526.230347	145.960000
526.323975	145.380000
526.417664	145.300000
526.511292	145.360000
526.604980	145.740000
526.698608	145.840000
526.792297	146.460000
526.885925	146.840000
526.979614	146.840000
527.073303	146.680000
527.166931	146.660000
527.260620	146.660000
527.354309	146.920000
527.447998	146.760000
527.541626	146.420000
527.635315	146.520000
527.728943	146.780000
527.822632	146.760000
527.916260	146.820000
528.009949	147.360000
528.103577	146.920000
528.197266	146.320000
528.290894	146.220000
528.384583	146.020000
528.478210	145.820000
528.571899	146.120000
528.665527	146.540000
528.759216	146.660000
528.852844	147.060000
528.946533	146.840000
529.040161	146.800000
529.133850	146.280000
529.227478	146.320000
529.321167	146.580000
529.414856	147.000000
529.508484	147.420000
529.602173	147.220000
529.695801	146.880000
529.789490	146.520000
529.883057	146.240000
529.976746	146.300000
530.070374	146.860000
530.164062	147.000000
530.257690	147.180000
530.351379	147.340000
530.445007	147.040000
530.538696	146.520000
530.632324	146.880000
530.726013	146.800000
530.819641	146.920000
530.913330	147.100000
531.006958	147.480000
531.100647	147.020000
531.194275	147.120000
531.287964	146.660000
531.381592	146.220000
531.475220	146.440000
531.568848	146.460000
531.662537	145.980000
531.756226	146.800000
531.849854	146.900000
531.943542	146.680000
532.037170	146.060000
532.130859	146.740000
532.224487	146.120000
532.318176	145.980000
532.411804	146.460000
532.505432	147.040000
532.599060	146.640000
532.692749	146.640000
532.786377	147.300000
532.880066	146.300000
532.973694	146.060000
533.067383	145.780000
533.161011	145.760000
533.254639	145.400000
533.348267	145.540000
533.441956	145.700000
533.535583	145.680000
533.629272	145.780000
533.722900	145.240000
533.816589	145.640000
533.910156	146.000000
534.003845	146.000000
534.097534	146.180000
534.191162	147.020000
534.284851	146.900000
534.378479	146.480000
534.472107	146.440000
534.565735	146.060000
534.659424	145.900000
534.753052	146.240000
534.846741	146.220000
534.940369	147.280000
535.033997	147.500000
535.127625	147.520000
535.221313	147.700000
535.314941	147.660000
535.408630	146.780000
535.502197	146.800000
535.595886	146.660000
535.689514	146.180000
535.783203	146.520000
535.876831	146.820000
535.970459	146.820000
536.064087	146.320000
536.157776	146.320000
536.251404	146.220000
536.345093	145.740000
536.438721	145.740000
536.532349	146.220000
536.626038	146.080000
536.719666	146.460000
536.813293	146.340000
536.906921	146.400000
537.000610	146.580000
537.094238	146.860000
537.187866	146.600000
537.281494	146.920000
537.375183	147.000000
537.468811	146.720000
537.562439	146.480000
537.656067	146.380000
537.749756	146.500000
537.843384	147.080000
537.937012	147.160000
538.030640	146.920000
538.124329	146.860000
538.217896	147.200000
538.311584	146.880000
538.405212	146.840000
538.498901	147.300000
538.592468	147.760000
538.686157	147.060000
538.779785	146.280000
538.873413	146.140000
538.967102	145.840000
539.060730	145.480000
539.154358	145.840000
539.247986	146.300000
539.341675	146.500000
539.435242	146.380000
539.528931	146.320000
539.622559	146.000000
539.716187	146.560000
539.809814	146.500000
539.903503	146.720000
539.997070	146.840000
540.090759	146.860000
540.184387	146.320000
540.278015	146.740000
540.371643	146.940000
540.465332	146.940000
540.558899	147.000000
540.652588	146.960000
540.746216	146.500000
540.839844	146.940000
540.933472	146.740000
541.027100	146.600000
541.120728	146.660000
541.214417	146.760000
541.308044	146.520000
541.401672	146.540000
541.495300	146.520000
541.588928	146.300000
541.682617	146.220000
541.776184	145.600000
541.869873	145.500000
541.963440	145.660000
542.057129	145.740000
542.150757	145.860000
542.244385	145.940000
542.338013	145.880000
542.431641	145.860000
542.525269	146.080000
542.618958	146.400000
542.712524	146.740000
542.806213	146.560000
542.899780	146.580000
542.993469	146.380000
543.087036	145.920000
543.180725	145.080000
543.274292	145.780000
543.367981	146.180000
543.461548	146.660000
543.555237	146.520000
543.648926	147.660000
543.742493	147.900000
543.836182	147.640000
543.929749	147.140000
544.023437	147.260000
544.117004	146.880000
544.210693	146.800000
544.304260	146.640000
544.397949	146.440000
544.491516	147.180000
544.585205	147.040000
544.678772	146.160000
544.772461	146.800000
544.866028	146.880000
544.959717	146.340000
545.053284	146.260000
545.146973	147.000000
545.240540	146.440000
545.334229	147.220000
545.427795	147.180000
545.521423	147.500000
545.615051	147.080000
545.708679	147.440000
545.802307	146.880000
545.895935	147.320000
545.989624	147.780000
546.083191	147.900000
546.176880	147.900000
546.270447	147.400000
546.364136	147.420000
546.457703	146.740000
546.551331	146.560000
546.644958	146.560000
546.738586	147.180000
546.832214	146.740000
546.925842	146.720000
547.019409	146.980000
547.113098	146.400000
547.206665	145.880000
547.300354	146.020000
547.393921	146.360000
547.487549	146.700000
547.581177	146.840000
547.674805	146.760000
547.768433	146.240000
547.862061	146.360000
547.955627	145.560000
548.049316	146.260000
548.142883	146.920000
548.236572	147.340000
548.330139	147.460000
548.423767	147.820000
548.517456	147.420000
548.611023	147.600000
548.704651	147.040000
548.798279	146.840000
548.891907	147.140000
548.985474	146.860000
549.079163	146.820000
549.172729	146.820000
549.266357	146.280000
549.359985	146.300000
549.453613	146.000000
549.547180	145.600000
549.640869	146.360000
549.734436	146.600000
549.828064	146.500000
549.921631	146.520000
550.015320	146.460000
550.108887	146.600000
550.202515	146.540000
550.296143	146.400000
550.389771	146.700000
550.483337	146.840000
550.576965	146.320000
550.670593	147.000000
550.764221	146.960000
550.857849	146.960000
550.951477	146.640000
551.045105	146.520000
551.138672	146.180000
551.232300	145.720000
551.325928	146.060000
551.419556	146.500000
551.513123	146.700000
551.606750	146.540000
551.700378	146.980000
551.794006	146.760000
551.887573	146.360000
551.981201	146.420000
552.074768	146.600000
552.168457	146.400000
552.262024	147.080000
552.355652	147.120000
552.449219	147.640000
552.542847	147.460000
552.636475	147.460000
552.730103	146.480000
552.823669	146.380000
552.917297	145.660000
553.010864	145.340000
553.104553	145.600000
553.198181	145.520000
553.291748	146.160000
553.385376	146.520000
553.478943	146.780000
553.572571	146.780000
553.666199	146.880000
553.759827	146.300000
553.853394	145.860000
553.947021	145.920000
554.040588	145.660000
554.134216	146.060000
554.227783	146.760000
554.321411	147.400000
554.415039	146.860000
554.508667	146.960000
554.602234	147.240000
554.695862	146.580000
554.789429	146.260000
554.883057	146.700000
554.976624	146.760000
555.070251	146.380000
555.163818	146.420000
555.257507	146.400000
555.351074	146.300000
555.444702	147.160000
555.538330	146.980000
555.631897	147.280000
555.725525	147.340000
555.819092	147.140000
555.912720	146.000000
556.006287	146.420000
556.099915	146.020000
556.193481	145.880000
556.287109	146.200000
556.380676	146.200000
556.474304	145.980000
556.567871	146.420000
556.661499	145.920000
556.755066	146.280000
556.848694	146.440000
556.942261	146.120000
557.035889	146.220000
557.129517	147.100000
557.223145	146.820000
557.316711	146.900000
557.410339	147.240000
557.503906	146.800000
557.597473	146.600000
557.691040	146.740000
557.784668	146.560000
557.878296	146.520000
557.971863	146.740000
558.065491	146.860000
558.159058	146.440000
558.252686	147.060000
558.346252	147.800000
558.439880	147.400000
558.533447	147.000000
558.627075	146.740000
558.720642	146.360000
558.814270	145.980000
558.907837	146.020000
559.001465	145.860000
559.095032	146.740000
559.188660	146.940000
559.282227	146.080000
559.375854	146.880000
559.469360	146.780000
559.562988	146.960000
559.656555	146.820000
559.750183	147.320000
559.843750	147.180000
559.937378	147.480000
560.030945	146.700000
560.124573	0.000000
560.218140	0.000000
560.311707	0.000000
560.405334	0.000000
560.498901	0.000000
560.592529	0.000000
560.686096	0.000000
560.779724	0.000000
560.873291	0.000000
560.966858	0.000000
561.060425	0.000000
561.154053	0.000000
561.247620	0.000000
561.341248	0.000000
561.434814	0.000000
561.528381	0.000000
561.621948	0.000000
561.715576	0.000000
561.809143	0.000000
561.902771	0.000000
561.996277	0.000000
562.089905	0.000000
562.183472	0.000000
562.277100	0.000000
