Model Number: SPM-002-B   
Serial Number: 70087108
Firmware Version: 004.15.4
Exposure Time: 100000.000000us
Data Taken on: 11-12-2020 18:49:53.964
Wavelength	Amplitude
221.570786	0.000000
221.663406	0.000000
221.756027	0.000000
221.848648	0.000000
221.941269	0.000000
222.033905	0.000000
222.126526	0.000000
222.219162	0.000000
222.311798	0.000000
222.404419	0.000000
222.497055	0.000000
222.589676	0.000000
222.682312	0.000000
222.774933	0.000000
222.867569	0.000000
222.960205	0.000000
223.052841	0.000000
223.145462	0.000000
223.238098	0.000000
223.330734	0.000000
223.423386	0.000000
223.516022	0.000000
223.608658	0.000000
223.701309	0.000000
223.793945	0.000000
223.886581	0.000000
223.979218	0.000000
224.071869	0.000000
224.164505	0.000000
224.257156	0.000000
224.349792	0.000000
224.442444	0.000000
224.535095	0.000000
224.627747	0.000000
224.720398	0.000000
224.813034	0.000000
224.905685	0.000000
224.998337	145.860000
225.090988	145.480000
225.183640	145.220000
225.276291	145.300000
225.368942	145.520000
225.461594	145.680000
225.554245	146.220000
225.646912	146.100000
225.739578	146.400000
225.832230	146.720000
225.924896	146.060000
226.017548	145.980000
226.110199	146.800000
226.202866	146.220000
226.295532	145.920000
226.388184	146.320000
226.480850	145.920000
226.573517	145.280000
226.666168	145.400000
226.758835	145.780000
226.851501	146.080000
226.944183	146.320000
227.036850	145.880000
227.129517	145.920000
227.222183	145.760000
227.314850	145.560000
227.407516	145.600000
227.500198	146.660000
227.592865	146.420000
227.685532	146.260000
227.778214	146.200000
227.870880	146.660000
227.963562	147.020000
228.056229	147.500000
228.148926	147.420000
228.241592	148.120000
228.334274	147.620000
228.426956	146.960000
228.519638	147.220000
228.612305	146.900000
228.704987	146.760000
228.797668	146.800000
228.890350	147.060000
228.983032	146.200000
229.075714	147.120000
229.168396	146.860000
229.261108	146.540000
229.353790	146.080000
229.446472	146.520000
229.539169	146.120000
229.631851	145.700000
229.724533	146.220000
229.817230	146.540000
229.909912	147.480000
230.002609	147.280000
230.095306	147.160000
230.187988	147.120000
230.280685	146.840000
230.373383	145.580000
230.466095	145.660000
230.558792	146.160000
230.651474	145.740000
230.744171	145.460000
230.836868	145.500000
230.929581	145.500000
231.022278	145.220000
231.114975	145.540000
231.207672	145.400000
231.300369	145.680000
231.393082	145.800000
231.485779	145.640000
231.578506	145.300000
231.671204	145.960000
231.763916	145.960000
231.856613	146.160000
231.949326	146.360000
232.042023	146.360000
232.134735	146.000000
232.227448	145.740000
232.320160	145.600000
232.412872	145.780000
232.505585	146.620000
232.598297	146.880000
232.691010	146.920000
232.783722	146.640000
232.876450	147.100000
232.969162	146.620000
233.061874	146.480000
233.154587	146.000000
233.247314	146.360000
233.340027	145.680000
233.432739	145.920000
233.525467	145.520000
233.618179	146.340000
233.710907	145.900000
233.803635	146.240000
233.896347	145.860000
233.989090	146.740000
234.081818	146.420000
234.174545	146.700000
234.267258	146.160000
234.359985	146.360000
234.452713	145.960000
234.545441	145.500000
234.638168	145.320000
234.730896	146.000000
234.823639	145.800000
234.916367	146.140000
235.009094	146.660000
235.101822	146.560000
235.194580	146.360000
235.287308	146.420000
235.380051	145.740000
235.472778	145.900000
235.565521	146.300000
235.658249	145.860000
235.750992	146.120000
235.843719	146.320000
235.936462	146.540000
236.029205	146.100000
236.121948	146.040000
236.214691	146.040000
236.307449	146.400000
236.400192	145.740000
236.492935	145.620000
236.585678	145.880000
236.678421	145.840000
236.771164	145.580000
236.863907	146.160000
236.956665	146.540000
237.049408	147.920000
237.142151	147.380000
237.234909	148.200000
237.327652	148.180000
237.420410	147.700000
237.513153	146.800000
237.605927	146.840000
237.698669	146.280000
237.791428	145.780000
237.884186	146.460000
237.976944	145.700000
238.069702	146.180000
238.162445	145.480000
238.255203	145.420000
238.347961	145.580000
238.440720	145.680000
238.533478	145.440000
238.626266	145.620000
238.719025	146.180000
238.811783	145.540000
238.904541	145.740000
238.997314	145.520000
239.090073	145.220000
239.182831	145.040000
239.275604	145.960000
239.368362	145.460000
239.461136	145.680000
239.553909	145.700000
239.646667	145.880000
239.739441	145.380000
239.832214	145.900000
239.925003	145.960000
240.017761	146.560000
240.110535	146.880000
240.203308	146.480000
240.296082	146.660000
240.388855	146.580000
240.481628	146.760000
240.574417	146.620000
240.667191	147.040000
240.759964	146.980000
240.852737	147.000000
240.945526	146.340000
241.038315	146.160000
241.131088	146.220000
241.223877	146.280000
241.316650	146.120000
241.409439	146.860000
241.502228	146.260000
241.595001	146.440000
241.687790	146.280000
241.780579	146.040000
241.873367	146.020000
241.966141	146.780000
242.058929	146.120000
242.151718	146.240000
242.244507	146.880000
242.337311	145.900000
242.430099	145.960000
242.522903	146.500000
242.615692	145.800000
242.708481	145.520000
242.801270	146.480000
242.894073	146.120000
242.986862	145.980000
243.079651	146.900000
243.172455	146.880000
243.265244	146.840000
243.358063	146.540000
243.450867	146.680000
243.543655	146.280000
243.636459	146.560000
243.729263	146.600000
243.822067	147.100000
243.914856	147.440000
244.007660	147.720000
244.100464	147.400000
244.193268	147.080000
244.286072	147.020000
244.378876	146.620000
244.471680	146.280000
244.564499	146.580000
244.657318	147.140000
244.750122	147.160000
244.842926	146.300000
244.935745	146.460000
245.028549	146.260000
245.121368	145.680000
245.214172	145.580000
245.306992	146.440000
245.399796	146.220000
245.492615	146.360000
245.585434	146.260000
245.678253	146.000000
245.771072	145.960000
245.863892	146.660000
245.956711	146.740000
246.049530	147.040000
246.142349	147.060000
246.235168	146.980000
246.327988	147.100000
246.420807	146.920000
246.513626	146.640000
246.606445	146.560000
246.699280	146.360000
246.792099	145.880000
246.884918	145.580000
246.977753	145.560000
247.070587	146.020000
247.163422	146.080000
247.256241	146.220000
247.349075	146.400000
247.441895	146.440000
247.534729	146.340000
247.627563	146.060000
247.720383	146.580000
247.813217	146.680000
247.906052	146.340000
247.998886	146.200000
248.091736	146.540000
248.184570	146.120000
248.277405	146.180000
248.370239	147.240000
248.463074	147.700000
248.555908	148.060000
248.648743	147.560000
248.741592	147.620000
248.834427	146.860000
248.927261	145.960000
249.020111	146.020000
249.112946	146.980000
249.205795	146.920000
249.298630	147.040000
249.391495	147.440000
249.484344	147.060000
249.577179	146.680000
249.670029	146.880000
249.762878	147.160000
249.855728	147.200000
249.948563	147.200000
250.041412	146.580000
250.134262	146.720000
250.227112	146.840000
250.319962	146.840000
250.412827	146.680000
250.505692	146.640000
250.598541	146.140000
250.691391	145.580000
250.784241	145.440000
250.877106	145.860000
250.969955	145.720000
251.062805	146.280000
251.155670	146.880000
251.248520	146.580000
251.341385	146.640000
251.434235	146.780000
251.527100	146.300000
251.619965	145.780000
251.712814	147.060000
251.805695	146.720000
251.898560	146.720000
251.991425	147.040000
252.084290	147.280000
252.177155	146.080000
252.270020	145.960000
252.362885	145.980000
252.455750	145.660000
252.548615	145.560000
252.641479	145.900000
252.734360	145.600000
252.827240	145.680000
252.920105	145.820000
253.012970	145.540000
253.105850	145.400000
253.198715	145.380000
253.291595	145.560000
253.384460	145.380000
253.477341	145.420000
253.570221	145.720000
253.663086	145.960000
253.755966	146.340000
253.848846	146.460000
253.941727	146.960000
254.034592	146.660000
254.127472	146.180000
254.220367	146.000000
254.313248	146.040000
254.406128	145.260000
254.499008	145.720000
254.591904	146.640000
254.684784	147.080000
254.777664	147.100000
254.870544	146.920000
254.963440	146.640000
255.056335	146.620000
255.149216	145.820000
255.242111	146.420000
255.334991	146.880000
255.427887	147.000000
255.520767	146.940000
255.613663	147.360000
255.706558	146.340000
255.799438	146.340000
255.892334	145.960000
255.985229	145.940000
256.078125	145.520000
256.171021	145.920000
256.263916	146.400000
256.356812	146.720000
256.449707	146.660000
256.542603	146.440000
256.635498	146.920000
256.728394	146.460000
256.821289	146.420000
256.914215	146.540000
257.007080	147.340000
257.100006	146.860000
257.192932	147.660000
257.285828	147.680000
257.378723	147.280000
257.471619	146.880000
257.564545	146.620000
257.657440	146.340000
257.750336	146.800000
257.843262	146.720000
257.936157	147.600000
258.029053	147.680000
258.121979	147.560000
258.214874	146.720000
258.307800	146.340000
258.400696	145.140000
258.493622	145.120000
258.586517	144.260000
258.679443	144.880000
258.772339	144.620000
258.865265	144.540000
258.958160	144.220000
259.051086	145.180000
259.144012	144.840000
259.236938	146.100000
259.329834	146.280000
259.422791	146.540000
259.515717	145.900000
259.608612	145.700000
259.701538	145.340000
259.794464	145.460000
259.887390	145.280000
259.980316	145.280000
260.073212	145.160000
260.166138	144.380000
260.259064	144.560000
260.351990	145.500000
260.444916	145.540000
260.537842	146.200000
260.630768	147.300000
260.723694	147.140000
260.816620	146.700000
260.909546	146.680000
261.002472	146.020000
261.095398	145.080000
261.188354	145.080000
261.281281	144.520000
261.374207	144.660000
261.467133	145.600000
261.560089	146.160000
261.653015	145.760000
261.745972	146.760000
261.838867	147.040000
261.931824	146.900000
262.024780	146.300000
262.117706	146.840000
262.210663	146.260000
262.303589	146.160000
262.396515	145.820000
262.489471	147.020000
262.582397	146.640000
262.675354	146.320000
262.768280	146.160000
262.861237	146.420000
262.954163	145.860000
263.047119	146.100000
263.140045	146.220000
263.233002	146.280000
263.325958	145.940000
263.418884	145.600000
263.511841	145.620000
263.604797	145.520000
263.697723	145.520000
263.790680	145.340000
263.883636	145.940000
263.976593	145.660000
264.069550	145.780000
264.162476	145.340000
264.255463	145.620000
264.348419	145.100000
264.441376	145.800000
264.534332	145.580000
264.627289	146.100000
264.720245	146.480000
264.813202	146.380000
264.906158	146.080000
264.999115	146.700000
265.092072	146.620000
265.185028	146.720000
265.277985	146.940000
265.370941	146.420000
265.463898	146.120000
265.556854	145.940000
265.649811	145.000000
265.742798	144.840000
265.835754	145.260000
265.928711	145.780000
266.021667	145.780000
266.114655	146.120000
266.207611	146.640000
266.300568	146.100000
266.393585	145.540000
266.486511	146.080000
266.579498	145.600000
266.672485	145.280000
266.765442	145.440000
266.858429	145.520000
266.951385	144.900000
267.044342	145.040000
267.137329	144.920000
267.230316	145.600000
267.323273	145.400000
267.416260	146.120000
267.509216	146.440000
267.602203	146.480000
267.695160	146.380000
267.788147	146.260000
267.881134	145.580000
267.974091	145.540000
268.067078	145.360000
268.160065	145.120000
268.253052	145.100000
268.346008	145.180000
268.438995	145.180000
268.531982	145.260000
268.624969	145.200000
268.717987	145.680000
268.810944	145.820000
268.903961	146.020000
268.996948	145.960000
269.089905	146.380000
269.182892	146.380000
269.275879	146.520000
269.368866	145.940000
269.461853	146.220000
269.554871	146.020000
269.647858	145.940000
269.740845	146.220000
269.833832	146.880000
269.926819	146.540000
270.019806	146.240000
270.112793	146.000000
270.205811	146.120000
270.298798	145.580000
270.391785	146.340000
270.484772	146.360000
270.577789	146.560000
270.670776	145.760000
270.763763	146.040000
270.856750	145.740000
270.949768	145.800000
271.042786	145.700000
271.135773	145.980000
271.228790	146.200000
271.321808	145.760000
271.414795	145.280000
271.507782	145.260000
271.600800	145.060000
271.693817	145.100000
271.786804	145.720000
271.879822	146.280000
271.972809	146.300000
272.065826	146.780000
272.158844	146.120000
272.251831	146.620000
272.344849	146.220000
272.437866	145.860000
272.530853	145.740000
272.623871	146.020000
272.716888	144.700000
272.809906	145.220000
272.902893	145.560000
272.995911	144.920000
273.088928	145.100000
273.181946	145.500000
273.274963	144.860000
273.367981	144.860000
273.460999	145.440000
273.554047	145.860000
273.647003	146.480000
273.740051	146.920000
273.833069	147.180000
273.926086	147.360000
274.019135	147.120000
274.112152	146.520000
274.205170	146.540000
274.298187	146.820000
274.391205	146.280000
274.484222	146.020000
274.577240	146.240000
274.670258	145.920000
274.763306	145.160000
274.856323	145.780000
274.949341	145.980000
275.042358	145.960000
275.135406	146.440000
275.228424	146.760000
275.321442	146.400000
275.414490	146.060000
275.507507	146.280000
275.600525	146.380000
275.693573	146.340000
275.786591	145.840000
275.879669	146.160000
275.972656	145.860000
276.065735	145.700000
276.158752	145.960000
276.251801	147.000000
276.344818	147.100000
276.437866	147.440000
276.530884	147.020000
276.623932	146.280000
276.716980	146.020000
276.809998	146.160000
276.903046	145.840000
276.996094	146.800000
277.089111	147.600000
277.182159	147.960000
277.275208	147.120000
277.368256	147.280000
277.461304	146.920000
277.554321	146.240000
277.647369	146.020000
277.740417	146.120000
277.833466	145.960000
277.926514	145.740000
278.019562	146.360000
278.112610	145.660000
278.205688	146.180000
278.298706	146.120000
278.391785	145.860000
278.484833	145.400000
278.577881	145.380000
278.670929	145.560000
278.763977	145.740000
278.857025	146.340000
278.950073	146.480000
279.043121	146.680000
279.136169	146.100000
279.229248	145.780000
279.322296	145.380000
279.415344	144.980000
279.508392	144.900000
279.601440	144.940000
279.694519	144.820000
279.787567	144.780000
279.880615	144.860000
279.973694	144.680000
280.066742	144.940000
280.159790	145.260000
280.252869	144.960000
280.345917	145.380000
280.438995	145.780000
280.532074	145.460000
280.625122	145.960000
280.718201	146.940000
280.811279	146.960000
280.904327	146.780000
280.997406	147.120000
281.090454	146.720000
281.183533	146.040000
281.276581	145.920000
281.369659	145.880000
281.462738	146.000000
281.555786	146.280000
281.648865	146.420000
281.741943	146.480000
281.835022	147.220000
281.928070	146.720000
282.021149	146.240000
282.114227	146.200000
282.207306	146.260000
282.300385	145.980000
282.393433	146.380000
282.486511	146.420000
282.579590	146.920000
282.672668	147.160000
282.765747	146.600000
282.858856	146.300000
282.951904	146.580000
283.045013	146.480000
283.138062	146.340000
283.231171	146.720000
283.324249	147.140000
283.417328	147.560000
283.510406	147.120000
283.603485	146.640000
283.696564	146.480000
283.789642	146.460000
283.882751	145.640000
283.975830	146.020000
284.068909	146.420000
284.161987	146.900000
284.255066	146.220000
284.348175	146.640000
284.441254	146.740000
284.534332	146.840000
284.627441	146.220000
284.720520	146.100000
284.813599	146.040000
284.906708	145.740000
284.999786	145.280000
285.092896	145.200000
285.185974	146.340000
285.279053	145.520000
285.372192	145.760000
285.465240	146.580000
285.558380	146.660000
285.651459	145.940000
285.744568	147.200000
285.837677	146.700000
285.930756	146.260000
286.023865	146.560000
286.116943	146.600000
286.210052	146.360000
286.303162	146.560000
286.396240	146.220000
286.489349	145.800000
286.582458	146.240000
286.675568	145.860000
286.768646	145.680000
286.861755	146.040000
286.954865	146.780000
287.047974	145.960000
287.141083	145.980000
287.234161	145.700000
287.327271	145.560000
287.420380	145.660000
287.513519	145.820000
287.606598	145.740000
287.699738	146.160000
287.792816	146.060000
287.885956	145.480000
287.979034	145.340000
288.072174	145.620000
288.165283	145.500000
288.258392	145.760000
288.351501	145.240000
288.444611	145.760000
288.537720	146.100000
288.630859	145.980000
288.723969	146.040000
288.817078	146.780000
288.910187	146.740000
289.003296	146.180000
289.096436	145.860000
289.189545	145.560000
289.282654	145.180000
289.375763	145.680000
289.468903	145.960000
289.562012	146.540000
289.655121	146.360000
289.748260	146.460000
289.841400	146.420000
289.934509	146.160000
290.027649	146.240000
290.120728	146.320000
290.213898	146.540000
290.306976	146.280000
290.400146	146.720000
290.493256	146.420000
290.586395	146.740000
290.679535	146.800000
290.772644	146.480000
290.865784	145.740000
290.958893	145.760000
291.052032	145.520000
291.145172	145.380000
291.238281	145.440000
291.331421	145.540000
291.424561	145.860000
291.517670	146.000000
291.610809	146.220000
291.703949	146.040000
291.797089	146.380000
291.890228	145.960000
291.983337	145.800000
292.076477	145.580000
292.169617	145.980000
292.262756	145.900000
292.355927	145.900000
292.449036	145.660000
292.542206	145.600000
292.635315	145.580000
292.728485	145.740000
292.821625	145.680000
292.914764	146.780000
293.007904	146.680000
293.101044	146.480000
293.194183	145.980000
293.287323	146.440000
293.380463	145.480000
293.473602	145.580000
293.566742	146.320000
293.659882	147.320000
293.753021	147.220000
293.846191	147.440000
293.939331	147.060000
294.032471	146.420000
294.125610	145.420000
294.218781	145.640000
294.311920	146.300000
294.405060	147.000000
294.498230	147.020000
294.591370	147.440000
294.684540	146.740000
294.777679	145.880000
294.870850	145.820000
294.963959	145.660000
295.057159	145.500000
295.150299	146.040000
295.243469	145.880000
295.336609	145.400000
295.429779	145.560000
295.522919	146.020000
295.616089	146.160000
295.709229	147.060000
295.802399	147.400000
295.895569	147.320000
295.988708	146.920000
296.081879	146.720000
296.175018	145.820000
296.268188	145.880000
296.361359	146.360000
296.454529	146.540000
296.547668	146.420000
296.640839	146.960000
296.734009	146.540000
296.827179	146.360000
296.920319	146.620000
297.013519	146.500000
297.106659	146.760000
297.199860	146.820000
297.292999	146.460000
297.386200	146.060000
297.479309	146.000000
297.572510	145.720000
297.665680	145.460000
297.758850	145.700000
297.852020	145.560000
297.945190	145.420000
298.038361	144.800000
298.131531	145.800000
298.224701	145.400000
298.317871	145.420000
298.411072	145.020000
298.504242	145.020000
298.597412	144.500000
298.690582	145.100000
298.783752	145.200000
298.876923	146.300000
298.970093	146.560000
299.063293	146.760000
299.156464	146.800000
299.249634	146.820000
299.342834	146.740000
299.436005	147.320000
299.529205	147.100000
299.622345	147.000000
299.715576	146.340000
299.808716	145.920000
299.901917	145.480000
299.995117	145.880000
300.088287	145.800000
300.181488	145.880000
300.274658	145.700000
300.367828	145.720000
300.461029	145.060000
300.554199	145.100000
300.647400	145.620000
300.740601	146.260000
300.833771	146.160000
300.926971	146.720000
301.020142	146.340000
301.113342	146.200000
301.206512	145.900000
301.299713	146.520000
301.392914	146.460000
301.486084	146.980000
301.579285	146.920000
301.672516	147.520000
301.765686	147.160000
301.858887	147.080000
301.952057	146.960000
302.045288	146.980000
302.138458	146.460000
302.231659	146.200000
302.324860	146.240000
302.418060	145.960000
302.511261	146.100000
302.604462	146.240000
302.697662	146.520000
302.790863	146.160000
302.884064	146.020000
302.977264	145.960000
303.070465	146.020000
303.163666	146.280000
303.256866	146.760000
303.350067	147.120000
303.443268	147.180000
303.536469	147.060000
303.629669	146.520000
303.722870	146.460000
303.816071	146.180000
303.909271	146.200000
304.002472	145.680000
304.095673	145.700000
304.188934	145.160000
304.282104	146.020000
304.375336	145.840000
304.468506	146.160000
304.561768	146.180000
304.654968	146.760000
304.748169	145.980000
304.841370	145.840000
304.934601	146.060000
305.027802	145.880000
305.121002	145.500000
305.214233	145.700000
305.307434	146.140000
305.400665	146.580000
305.493866	146.380000
305.587097	146.620000
305.680298	146.220000
305.773499	146.600000
305.866730	146.260000
305.959930	146.940000
306.053162	147.460000
306.146393	147.540000
306.239594	146.740000
306.332825	146.500000
306.426025	146.760000
306.519287	145.960000
306.612488	146.320000
306.705719	146.420000
306.798920	146.180000
306.892181	145.200000
306.985352	144.960000
307.078613	144.420000
307.171844	144.540000
307.265045	144.340000
307.358276	144.340000
307.451508	144.940000
307.544739	145.540000
307.637970	145.340000
307.731201	145.640000
307.824402	146.560000
307.917633	146.760000
308.010864	147.080000
308.104095	147.600000
308.197327	147.460000
308.290558	147.060000
308.383789	146.960000
308.477020	146.160000
308.570251	145.440000
308.663483	145.360000
308.756714	145.340000
308.849976	145.200000
308.943176	145.920000
309.036438	145.860000
309.129639	145.700000
309.222900	145.560000
309.316101	144.840000
309.409393	144.040000
309.502625	143.860000
309.595856	144.100000
309.689087	144.240000
309.782318	144.660000
309.875580	144.820000
309.968811	145.420000
310.062042	145.620000
310.155273	145.480000
310.248535	146.040000
310.341766	146.200000
310.434998	146.080000
310.528259	145.920000
310.621490	146.360000
310.714722	145.500000
310.807983	145.680000
310.901215	145.480000
310.994476	145.500000
311.087708	144.840000
311.181000	145.420000
311.274200	145.000000
311.367462	145.380000
311.460693	145.220000
311.553986	146.200000
311.647186	146.400000
311.740479	146.980000
311.833710	146.620000
311.926971	146.740000
312.020203	145.940000
312.113464	145.500000
312.206726	144.580000
312.299957	144.940000
312.393219	145.400000
312.486481	145.620000
312.579712	145.880000
312.672974	146.440000
312.766235	146.480000
312.859497	146.280000
312.952759	146.040000
313.045990	146.460000
313.139252	146.100000
313.232513	146.080000
313.325775	146.180000
313.419037	146.300000
313.512299	145.600000
313.605530	146.180000
313.698822	146.340000
313.792053	146.240000
313.885345	145.620000
313.978577	145.780000
314.071869	145.360000
314.165131	145.640000
314.258392	145.900000
314.351654	146.560000
314.444916	146.180000
314.538177	146.840000
314.631439	146.700000
314.724701	146.260000
314.817993	145.980000
314.911255	146.260000
315.004517	145.460000
315.097778	145.160000
315.191040	145.840000
315.284302	146.260000
315.377594	146.420000
315.470856	146.460000
315.564117	146.140000
315.657379	145.440000
315.750671	145.000000
315.843933	144.980000
315.937195	144.820000
316.030518	144.660000
316.123749	144.760000
316.217041	145.680000
316.310303	145.640000
316.403595	146.100000
316.496857	146.700000
316.590149	146.820000
316.683411	145.980000
316.776703	145.860000
316.869965	145.760000
316.963257	145.580000
317.056519	145.360000
317.149811	145.360000
317.243073	145.240000
317.336365	145.120000
317.429626	145.420000
317.522919	145.600000
317.616180	145.700000
317.709473	145.540000
317.802765	145.760000
317.896027	145.480000
317.989319	145.720000
318.082611	145.740000
318.175873	145.940000
318.269165	145.660000
318.362488	145.760000
318.455750	145.600000
318.549042	145.800000
318.642303	146.540000
318.735626	146.600000
318.828888	146.480000
318.922211	146.000000
319.015472	146.560000
319.108765	145.460000
319.202057	145.200000
319.295349	145.520000
319.388641	145.660000
319.481934	145.300000
319.575226	145.460000
319.668518	146.040000
319.761810	145.820000
319.855103	146.100000
319.948395	145.840000
320.041687	146.120000
320.134979	145.840000
320.228271	145.780000
320.321564	145.320000
320.414856	145.540000
320.508148	145.240000
320.601440	145.280000
320.694763	145.000000
320.788025	145.980000
320.881348	145.960000
320.974640	145.880000
321.067963	145.620000
321.161224	146.120000
321.254547	145.440000
321.347839	145.660000
321.441162	145.740000
321.534454	146.060000
321.627747	145.540000
321.721069	146.060000
321.814362	146.040000
321.907654	146.260000
322.000946	146.340000
322.094269	147.380000
322.187561	146.900000
322.280884	147.200000
322.374176	147.440000
322.467468	147.660000
322.560791	147.040000
322.654083	147.600000
322.747406	147.380000
322.840698	147.260000
322.934021	147.280000
323.027344	147.340000
323.120636	146.840000
323.213959	146.500000
323.307251	146.020000
323.400574	145.560000
323.493866	145.240000
323.587219	145.340000
323.680511	145.820000
323.773834	146.280000
323.867157	146.100000
323.960449	146.120000
324.053772	145.920000
324.147095	145.340000
324.240387	145.660000
324.333710	146.140000
324.427032	146.380000
324.520355	146.580000
324.613647	146.580000
324.706970	146.100000
324.800293	145.880000
324.893616	145.920000
324.986938	146.020000
325.080231	145.760000
325.173553	146.060000
325.266876	146.540000
325.360199	146.360000
325.453522	145.740000
325.546875	145.920000
325.640167	146.200000
325.733521	146.360000
325.826813	146.700000
325.920166	147.000000
326.013489	147.040000
326.106812	145.760000
326.200134	145.040000
326.293457	144.480000
326.386780	144.500000
326.480103	144.400000
326.573425	144.920000
326.666748	144.980000
326.760071	145.360000
326.853424	145.560000
326.946747	145.540000
327.040070	146.300000
327.133392	146.020000
327.226715	145.460000
327.320068	144.820000
327.413391	145.480000
327.506714	144.740000
327.600037	144.880000
327.693390	145.660000
327.786713	146.160000
327.880066	145.540000
327.973358	145.980000
328.066742	146.500000
328.160034	146.220000
328.253418	146.460000
328.346710	146.300000
328.440063	145.660000
328.533417	145.420000
328.626740	145.460000
328.720093	145.020000
328.813416	145.400000
328.906769	145.720000
329.000092	145.920000
329.093445	145.960000
329.186768	145.940000
329.280121	146.260000
329.373444	146.780000
329.466797	146.520000
329.560120	146.540000
329.653473	147.080000
329.746796	146.540000
329.840149	146.100000
329.933502	146.220000
330.026825	145.700000
330.120178	144.980000
330.213562	145.100000
330.306854	144.920000
330.400238	144.840000
330.493561	145.180000
330.586945	146.120000
330.680237	146.340000
330.773621	146.640000
330.866974	146.380000
330.960327	146.640000
331.053680	146.060000
331.147003	145.720000
331.240356	145.660000
331.333710	146.140000
331.427063	145.580000
331.520416	145.600000
331.613770	145.720000
331.707123	145.960000
331.800476	145.940000
331.893829	147.100000
331.987152	147.260000
332.080505	147.380000
332.173859	147.140000
332.267212	146.500000
332.360565	145.540000
332.453918	145.340000
332.547333	145.160000
332.640656	145.220000
332.734039	145.620000
332.827362	145.600000
332.920746	145.800000
333.014069	146.220000
333.107452	146.560000
333.200806	146.580000
333.294159	146.720000
333.387543	146.260000
333.480896	145.640000
333.574249	145.400000
333.667603	145.280000
333.760956	145.360000
333.854340	145.720000
333.947693	145.780000
334.041046	145.540000
334.134430	146.160000
334.227783	145.760000
334.321136	145.540000
334.414520	145.440000
334.507874	145.880000
334.601227	145.380000
334.694611	145.760000
334.787964	145.880000
334.881348	146.280000
334.974701	146.160000
335.068085	145.880000
335.161438	146.200000
335.254822	146.160000
335.348175	145.980000
335.441559	145.620000
335.534943	146.400000
335.628296	146.020000
335.721680	146.100000
335.815033	146.340000
335.908417	146.540000
336.001770	146.480000
336.095154	146.580000
336.188538	146.420000
336.281891	146.140000
336.375275	145.840000
336.468658	145.220000
336.562012	145.040000
336.655396	145.480000
336.748779	145.880000
336.842133	146.200000
336.935516	146.800000
337.028900	146.560000
337.122284	146.200000
337.215637	146.360000
337.309021	146.280000
337.402435	145.540000
337.495789	145.660000
337.589203	145.560000
337.682526	145.120000
337.775940	145.360000
337.869324	145.840000
337.962708	145.660000
338.056091	146.400000
338.149475	146.080000
338.242859	146.000000
338.336243	145.660000
338.429626	145.840000
338.523010	145.480000
338.616394	145.640000
338.709778	145.680000
338.803162	146.180000
338.896545	146.420000
338.989929	145.900000
339.083313	146.060000
339.176697	145.860000
339.270081	145.340000
339.363464	145.580000
339.456848	146.180000
339.550232	145.600000
339.643616	145.460000
339.737030	145.860000
339.830383	145.280000
339.923828	145.260000
340.017181	146.020000
340.110596	146.060000
340.203949	145.800000
340.297363	146.000000
340.390778	145.580000
340.484161	145.340000
340.577545	145.500000
340.670959	145.520000
340.764343	145.640000
340.857727	145.860000
340.951111	145.560000
341.044525	145.620000
341.137909	145.560000
341.231293	145.340000
341.324707	144.880000
341.418091	145.580000
341.511505	145.340000
341.604889	145.640000
341.698303	145.900000
341.791687	146.300000
341.885071	145.560000
341.978485	145.780000
342.071899	145.660000
342.165283	145.640000
342.258698	146.080000
342.352081	146.580000
342.445496	146.980000
342.538879	146.820000
342.632324	146.440000
342.725708	146.080000
342.819122	145.740000
342.912506	145.320000
343.005920	145.500000
343.099335	146.700000
343.192719	146.660000
343.286133	146.680000
343.379547	146.960000
343.472931	146.880000
343.566345	145.960000
343.659760	146.100000
343.753143	145.980000
343.846558	145.620000
343.939972	145.660000
344.033386	146.400000
344.126770	146.040000
344.220184	146.320000
344.313599	146.620000
344.407043	146.560000
344.500427	145.700000
344.593872	146.240000
344.687225	145.940000
344.780670	145.340000
344.874054	145.300000
344.967499	145.960000
345.060913	145.820000
345.154327	145.940000
345.247742	146.080000
345.341156	146.000000
345.434570	145.240000
345.527985	144.920000
345.621399	145.020000
345.714813	145.100000
345.808228	145.280000
345.901642	145.160000
345.995056	145.240000
346.088470	145.300000
346.181885	145.460000
346.275299	145.260000
346.368713	145.480000
346.462128	145.340000
346.555573	145.140000
346.648987	145.100000
346.742401	145.220000
346.835815	145.760000
346.929260	145.440000
347.022644	145.740000
347.116119	145.820000
347.209503	145.960000
347.302948	146.480000
347.396362	147.240000
347.489807	147.340000
347.583221	147.760000
347.676636	147.260000
347.770050	145.960000
347.863495	145.540000
347.956909	145.280000
348.050323	144.620000
348.143768	144.840000
348.237183	144.820000
348.330597	145.440000
348.424042	146.040000
348.517456	146.600000
348.610901	146.860000
348.704315	147.140000
348.797760	146.180000
348.891174	145.440000
348.984619	144.880000
349.078033	145.120000
349.171448	145.420000
349.264923	145.700000
349.358337	145.460000
349.451782	145.700000
349.545197	144.940000
349.638641	144.300000
349.732086	143.940000
349.825500	144.580000
349.918945	144.020000
350.012390	144.880000
350.105804	145.760000
350.199249	145.880000
350.292664	146.220000
350.386108	146.700000
350.479553	146.600000
350.572968	146.200000
350.666412	146.680000
350.759857	146.160000
350.853302	146.240000
350.946716	146.020000
351.040161	146.360000
351.133606	146.440000
351.227081	146.280000
351.320465	147.080000
351.413940	147.200000
351.507355	147.340000
351.600830	147.460000
351.694244	147.240000
351.787720	146.700000
351.881104	146.720000
351.974579	146.460000
352.067993	146.940000
352.161469	147.260000
352.254883	146.640000
352.348358	146.500000
352.441803	146.140000
352.535248	145.580000
352.628693	146.020000
352.722137	146.180000
352.815582	146.360000
352.909027	146.740000
353.002472	146.220000
353.095917	145.980000
353.189362	146.380000
353.282806	146.160000
353.376251	145.600000
353.469696	145.800000
353.563141	146.200000
353.656586	145.820000
353.750061	145.480000
353.843475	145.600000
353.936981	146.280000
354.030396	145.500000
354.123871	145.480000
354.217285	146.240000
354.310760	146.680000
354.404175	146.240000
354.497681	146.360000
354.591095	146.740000
354.684570	145.640000
354.777985	145.020000
354.871490	144.840000
354.964935	145.160000
355.058380	145.060000
355.151855	145.240000
355.245300	145.820000
355.338745	146.060000
355.432220	145.720000
355.525665	145.340000
355.619110	145.920000
355.712585	145.780000
355.806030	145.240000
355.899475	144.960000
355.992950	145.400000
356.086426	145.520000
356.179871	145.600000
356.273346	146.000000
356.366791	146.520000
356.460266	146.400000
356.553711	146.240000
356.647186	146.120000
356.740631	145.960000
356.834106	145.500000
356.927551	145.660000
357.021027	145.340000
357.114471	145.380000
357.207947	145.380000
357.301422	146.060000
357.394867	145.900000
357.488342	146.200000
357.581818	146.180000
357.675262	146.600000
357.768738	145.980000
357.862213	145.480000
357.955658	145.720000
358.049133	145.600000
358.142609	145.500000
358.236053	145.480000
358.329529	145.740000
358.423035	145.780000
358.516449	145.800000
358.609955	145.960000
358.703400	146.800000
358.796906	147.040000
358.890350	146.440000
358.983826	146.480000
359.077271	146.140000
359.170776	145.780000
359.264221	145.460000
359.357727	145.720000
359.451172	146.200000
359.544647	146.140000
359.638123	145.700000
359.731598	145.900000
359.825073	146.080000
359.918549	145.780000
360.012024	145.920000
360.105499	145.720000
360.198975	145.740000
360.292450	145.680000
360.385925	145.400000
360.479401	144.980000
360.572876	145.240000
360.666351	145.520000
360.759857	145.440000
360.853302	145.520000
360.946808	145.640000
361.040253	146.000000
361.133759	145.580000
361.227203	145.700000
361.320709	145.300000
361.414154	145.600000
361.507660	145.820000
361.601105	146.460000
361.694641	146.640000
361.788086	146.980000
361.881592	147.560000
361.975067	146.940000
362.068542	147.080000
362.162018	147.100000
362.255524	146.600000
362.348999	146.120000
362.442474	146.660000
362.535950	146.060000
362.629456	145.600000
362.722931	146.020000
362.816406	146.600000
362.909882	146.620000
363.003387	146.540000
363.096863	146.880000
363.190338	147.040000
363.283875	146.180000
363.377319	145.980000
363.470825	146.400000
363.564301	145.900000
363.657806	146.120000
363.751282	146.120000
363.844788	146.920000
363.938232	146.180000
364.031769	147.020000
364.125214	147.040000
364.218750	147.540000
364.312225	146.040000
364.405731	146.320000
364.499207	145.420000
364.592712	145.140000
364.686188	144.640000
364.779694	145.100000
364.873169	145.280000
364.966675	145.860000
365.060150	145.700000
365.153656	146.460000
365.247131	146.740000
365.340637	146.900000
365.434143	147.140000
365.527618	147.440000
365.621155	146.600000
365.714600	146.240000
365.808136	146.420000
365.901611	145.240000
365.995117	144.860000
366.088593	144.800000
366.182129	144.840000
366.275604	144.660000
366.369110	145.340000
366.462585	145.340000
366.556122	146.140000
366.649567	146.260000
366.743103	145.960000
366.836609	145.760000
366.930115	146.360000
367.023590	146.220000
367.117096	145.880000
367.210602	146.060000
367.304108	146.500000
367.397614	146.740000
367.491119	146.920000
367.584595	147.580000
367.678101	147.680000
367.771606	147.440000
367.865112	146.720000
367.958649	146.000000
368.052124	145.740000
368.145660	145.760000
368.239136	146.200000
368.332672	146.500000
368.426147	146.760000
368.519684	146.660000
368.613159	146.800000
368.706696	146.300000
368.800171	146.240000
368.893707	146.340000
368.987183	146.280000
369.080719	146.560000
369.174225	146.680000
369.267731	146.740000
369.361237	146.540000
369.454742	146.640000
369.548248	146.380000
369.641754	145.980000
369.735260	145.940000
369.828766	145.000000
369.922272	145.600000
370.015808	145.160000
370.109314	145.220000
370.202820	144.980000
370.296356	146.520000
370.389832	145.720000
370.483368	145.560000
370.576874	145.380000
370.670410	145.780000
370.763885	144.740000
370.857422	145.020000
370.950928	144.980000
371.044464	146.020000
371.137939	146.060000
371.231476	146.560000
371.324982	147.040000
371.418518	147.380000
371.512024	146.940000
371.605560	146.700000
371.699066	146.920000
371.792572	146.520000
371.886108	147.040000
371.979614	147.160000
372.073120	147.600000
372.166656	147.320000
372.260162	147.680000
372.353668	147.040000
372.447205	146.620000
372.540710	146.280000
372.634277	146.100000
372.727753	145.900000
372.821320	146.180000
372.914795	146.240000
373.008362	146.020000
373.101837	146.280000
373.195404	146.040000
373.288879	145.680000
373.382446	146.360000
373.475922	146.720000
373.569489	147.240000
373.662964	147.660000
373.756531	147.820000
373.850037	147.680000
373.943573	147.400000
374.037109	146.320000
374.130615	146.260000
374.224152	146.240000
374.317657	145.520000
374.411194	146.180000
374.504730	146.340000
374.598236	145.940000
374.691772	146.180000
374.785309	146.540000
374.878815	145.600000
374.972351	146.300000
375.065887	146.500000
375.159454	146.640000
375.252930	146.500000
375.346497	146.860000
375.440002	146.980000
375.533569	146.780000
375.627045	146.140000
375.720612	146.180000
375.814117	146.240000
375.907684	145.820000
376.001160	145.600000
376.094727	145.540000
376.188232	146.220000
376.281799	146.160000
376.375336	146.120000
376.468872	146.940000
376.562408	147.240000
376.655914	146.660000
376.749451	147.080000
376.842987	147.180000
376.936523	146.700000
377.030060	146.680000
377.123596	146.900000
377.217133	146.220000
377.310669	146.080000
377.404205	146.160000
377.497772	146.760000
377.591278	146.500000
377.684845	147.560000
377.778351	147.740000
377.871918	147.700000
377.965424	146.840000
378.058990	146.620000
378.152496	145.920000
378.246063	146.040000
378.339569	146.160000
378.433136	146.380000
378.526642	146.720000
378.620209	146.440000
378.713745	145.900000
378.807312	146.200000
378.900848	146.120000
378.994385	146.240000
379.087921	145.700000
379.181458	146.040000
379.274994	145.080000
379.368530	144.880000
379.462097	145.080000
379.555634	145.780000
379.649170	145.400000
379.742706	145.880000
379.836273	146.060000
379.929810	145.640000
380.023376	145.320000
380.116882	145.740000
380.210449	145.640000
380.303986	145.500000
380.397552	144.980000
380.491058	145.180000
380.584656	144.800000
380.678162	144.740000
380.771729	144.860000
380.865265	145.760000
380.958832	145.900000
381.052368	146.320000
381.145935	146.740000
381.239471	147.240000
381.333008	147.080000
381.426575	147.060000
381.520111	147.180000
381.613647	147.180000
381.707214	146.620000
381.800751	145.920000
381.894318	145.840000
381.987854	145.060000
382.081421	144.700000
382.174988	144.880000
382.268524	144.980000
382.362091	145.160000
382.455627	146.200000
382.549194	146.140000
382.642731	145.700000
382.736298	145.820000
382.829834	145.520000
382.923401	145.760000
383.016937	146.280000
383.110504	147.000000
383.204041	147.180000
383.297607	147.600000
383.391174	146.660000
383.484741	147.200000
383.578278	146.380000
383.671844	146.100000
383.765411	145.360000
383.858948	145.800000
383.952515	144.960000
384.046051	145.500000
384.139618	145.740000
384.233185	145.900000
384.326721	145.760000
384.420288	146.320000
384.513855	146.260000
384.607422	146.780000
384.700989	147.420000
384.794525	147.120000
384.888123	146.980000
384.981659	147.140000
385.075226	146.440000
385.168762	145.980000
385.262360	146.000000
385.355896	144.980000
385.449463	145.080000
385.542999	145.080000
385.636597	145.780000
385.730164	146.180000
385.823730	146.060000
385.917267	145.640000
386.010834	146.120000
386.104401	145.820000
386.197968	145.920000
386.291534	146.940000
386.385101	147.020000
386.478668	147.040000
386.572235	146.600000
386.665802	145.980000
386.759338	145.540000
386.852905	145.520000
386.946472	145.140000
387.040070	145.900000
387.133606	146.260000
387.227203	145.960000
387.320740	146.200000
387.414337	146.260000
387.507874	145.480000
387.601471	145.240000
387.695007	145.180000
387.788605	144.860000
387.882141	144.960000
387.975739	145.460000
388.069275	145.160000
388.162872	145.820000
388.256439	146.020000
388.350037	145.840000
388.443604	145.300000
388.537170	145.460000
388.630737	145.620000
388.724304	145.860000
388.817871	145.780000
388.911438	146.160000
389.005005	146.680000
389.098602	146.780000
389.192169	146.180000
389.285736	146.720000
389.379333	146.660000
389.472870	146.000000
389.566467	145.640000
389.660034	145.900000
389.753632	145.260000
389.847168	145.540000
389.940765	146.200000
390.034332	146.240000
390.127930	145.980000
390.221466	146.080000
390.315063	145.680000
390.408630	145.040000
390.502228	144.440000
390.595795	144.720000
390.689362	144.920000
390.782959	145.200000
390.876526	145.600000
390.970093	145.980000
391.063690	146.620000
391.157257	146.760000
391.250824	146.920000
391.344421	146.540000
391.437988	146.900000
391.531555	146.600000
391.625153	146.600000
391.718750	146.660000
391.812317	146.820000
391.905914	146.760000
391.999481	146.660000
392.093079	146.700000
392.186615	146.900000
392.280243	147.080000
392.373779	146.860000
392.467407	147.320000
392.560944	146.920000
392.654572	146.340000
392.748108	146.080000
392.841736	146.040000
392.935303	145.160000
393.028900	145.380000
393.122467	145.580000
393.216064	145.500000
393.309631	145.120000
393.403229	145.020000
393.496796	144.980000
393.590393	144.360000
393.683990	144.640000
393.777557	145.140000
393.871155	145.680000
393.964722	145.960000
394.058350	146.200000
394.151917	145.960000
394.245514	145.560000
394.339081	146.080000
394.432678	146.040000
394.526245	146.160000
394.619873	146.400000
394.713409	146.500000
394.807037	145.800000
394.900604	146.080000
394.994202	145.820000
395.087769	145.800000
395.181396	145.480000
395.274994	146.260000
395.368561	145.260000
395.462158	145.780000
395.555756	145.700000
395.649353	146.420000
395.742920	145.920000
395.836517	146.740000
395.930115	145.880000
396.023712	145.840000
396.117279	146.080000
396.210876	145.420000
396.304474	145.080000
396.398071	145.820000
396.491669	146.100000
396.585266	145.420000
396.678833	145.640000
396.772461	145.860000
396.866028	145.800000
396.959656	146.100000
397.053223	146.380000
397.146851	146.360000
397.240417	146.620000
397.334015	147.380000
397.427582	147.500000
397.521210	148.580000
397.614807	150.000000
397.708405	151.460000
397.802002	152.680000
397.895599	155.240000
397.989197	157.460000
398.082794	160.620000
398.176392	165.120000
398.269989	170.600000
398.363586	177.100000
398.457184	185.500000
398.550781	194.960000
398.644379	203.700000
398.737976	214.360000
398.831573	225.560000
398.925201	237.020000
399.018768	248.320000
399.112396	261.700000
399.205963	274.100000
399.299591	287.540000
399.393158	302.240000
399.486786	319.420000
399.580353	336.140000
399.673981	354.520000
399.767578	372.940000
399.861206	389.920000
399.954773	403.760000
400.048401	414.020000
400.141998	419.940000
400.235596	422.080000
400.329193	420.060000
400.422791	416.020000
400.516418	410.580000
400.610016	405.480000
400.703613	399.020000
400.797211	390.840000
400.890808	380.920000
400.984436	369.320000
401.078033	353.520000
401.171631	336.000000
401.265259	316.780000
401.358826	297.000000
401.452484	276.560000
401.546051	258.020000
401.639679	239.080000
401.733246	224.060000
401.826904	209.320000
401.920471	196.800000
402.014099	186.020000
402.107697	177.700000
402.201324	169.860000
402.294891	164.460000
402.388550	160.540000
402.482147	157.360000
402.575745	154.700000
402.669373	152.240000
402.762970	150.280000
402.856567	149.300000
402.950195	148.180000
403.043793	147.340000
403.137390	147.800000
403.231018	147.040000
403.324615	147.080000
403.418243	146.720000
403.511841	147.000000
403.605469	146.420000
403.699066	147.040000
403.792694	146.720000
403.886292	146.780000
403.979919	146.580000
404.073517	146.260000
404.167145	146.640000
404.260712	146.460000
404.354370	146.220000
404.447937	146.520000
404.541595	146.940000
404.635162	146.840000
404.728821	147.320000
404.822418	147.020000
404.916046	146.820000
405.009644	146.700000
405.103271	146.720000
405.196899	145.940000
405.290497	146.240000
405.384125	146.620000
405.477722	146.200000
405.571350	145.820000
405.664948	146.420000
405.758575	146.300000
405.852203	145.560000
405.945801	146.040000
406.039429	146.080000
406.133057	145.840000
406.226654	145.980000
406.320312	146.160000
406.413879	146.360000
406.507538	146.580000
406.601135	146.060000
406.694763	146.400000
406.788361	145.940000
406.882019	145.560000
406.975586	145.760000
407.069244	146.580000
407.162872	146.620000
407.256470	147.020000
407.350098	146.900000
407.443726	146.320000
407.537323	145.720000
407.630951	146.000000
407.724579	145.500000
407.818207	145.960000
407.911804	145.960000
408.005432	145.960000
408.099060	145.860000
408.192688	146.620000
408.286285	146.380000
408.379913	146.360000
408.473572	146.820000
408.567169	145.860000
408.660828	145.760000
408.754395	145.540000
408.848053	145.560000
408.941650	145.440000
409.035309	145.600000
409.128906	145.360000
409.222565	145.560000
409.316132	145.880000
409.409790	145.440000
409.503387	145.420000
409.597046	145.840000
409.690674	145.640000
409.784302	145.600000
409.877930	145.680000
409.971558	146.180000
410.065186	145.620000
410.158783	145.780000
410.252411	145.340000
410.346039	145.860000
410.439667	145.920000
410.533295	146.420000
410.626923	146.640000
410.720551	146.620000
410.814209	146.600000
410.907806	146.700000
411.001465	145.980000
411.095062	145.980000
411.188721	146.440000
411.282318	146.080000
411.375977	145.500000
411.469574	145.920000
411.563232	145.840000
411.656830	145.280000
411.750488	145.000000
411.844086	144.920000
411.937744	145.100000
412.031372	144.940000
412.125000	145.300000
412.218628	145.480000
412.312256	146.140000
412.405884	146.680000
412.499512	146.760000
412.593170	147.020000
412.686798	147.340000
412.780426	146.880000
412.874054	146.600000
412.967682	146.520000
413.061310	146.940000
413.154968	146.900000
413.248566	146.940000
413.342224	146.660000
413.435852	146.920000
413.529510	146.180000
413.623108	145.620000
413.716766	145.460000
413.810364	145.980000
413.904022	145.420000
413.997650	145.300000
414.091309	146.560000
414.184906	146.280000
414.278564	145.520000
414.372192	146.160000
414.465851	146.400000
414.559479	145.620000
414.653107	146.840000
414.746735	146.940000
414.840393	146.540000
414.934021	146.880000
415.027649	146.380000
415.121277	146.060000
415.214935	146.420000
415.308563	146.600000
415.402191	145.820000
415.495850	146.140000
415.589478	145.900000
415.683136	145.560000
415.776733	146.100000
415.870422	146.680000
415.964020	146.300000
416.057678	146.140000
416.151306	146.120000
416.244965	145.340000
416.338562	145.440000
416.432251	146.260000
416.525848	147.180000
416.619507	147.740000
416.713165	148.240000
416.806793	147.860000
416.900421	147.580000
416.994080	146.580000
417.087708	146.160000
417.181366	145.720000
417.274994	145.820000
417.368622	146.100000
417.462280	146.840000
417.555908	146.780000
417.649567	146.840000
417.743195	146.780000
417.836853	146.460000
417.930481	146.300000
418.024170	146.680000
418.117767	147.000000
418.211426	147.520000
418.305054	148.000000
418.398712	147.440000
418.492340	147.260000
418.585999	147.280000
418.679626	146.980000
418.773285	146.840000
418.866913	147.260000
418.960571	147.240000
419.054230	147.140000
419.147858	147.380000
419.241516	147.440000
419.335144	147.160000
419.428802	147.140000
419.522461	147.060000
419.616089	146.540000
419.709747	146.740000
419.803375	146.680000
419.897034	145.980000
419.990662	146.100000
420.084320	146.600000
420.177979	146.540000
420.271606	146.700000
420.365295	147.700000
420.458893	147.700000
420.552582	148.000000
420.646210	147.800000
420.739868	147.680000
420.833496	147.260000
420.927155	147.000000
421.020782	146.340000
421.114471	145.840000
421.208069	145.880000
421.301758	146.040000
421.395386	146.320000
421.489044	146.180000
421.582703	146.120000
421.676361	146.800000
421.769989	146.240000
421.863647	146.400000
421.957306	146.740000
422.050934	146.920000
422.144592	146.060000
422.238251	146.380000
422.331909	145.900000
422.425537	145.700000
422.519196	145.720000
422.612854	145.800000
422.706543	145.320000
422.800140	145.660000
422.893829	145.180000
422.987457	145.180000
423.081146	145.420000
423.174744	146.300000
423.268433	145.940000
423.362061	146.100000
423.455750	145.940000
423.549347	146.080000
423.643036	145.320000
423.736664	145.880000
423.830353	146.020000
423.924011	146.780000
424.017639	146.220000
424.111298	146.200000
424.204956	145.860000
424.298615	146.080000
424.392273	145.460000
424.485931	145.760000
424.579559	146.240000
424.673218	146.020000
424.766876	145.880000
424.860535	145.780000
424.954193	145.500000
425.047882	145.820000
425.141510	145.880000
425.235199	145.960000
425.328796	145.780000
425.422485	145.720000
425.516113	144.920000
425.609802	145.100000
425.703430	145.040000
425.797119	145.040000
425.890747	145.360000
425.984436	145.600000
426.078064	145.520000
426.171753	145.680000
426.265411	145.640000
426.359070	145.820000
426.452728	145.820000
426.546356	145.640000
426.640015	145.540000
426.733673	145.440000
426.827332	144.860000
426.920990	145.720000
427.014648	145.380000
427.108307	145.360000
427.201965	146.080000
427.295624	146.580000
427.389282	145.600000
427.482941	145.880000
427.576630	146.000000
427.670258	145.320000
427.763947	145.160000
427.857574	145.360000
427.951263	145.460000
428.044922	145.300000
428.138611	145.540000
428.232239	145.840000
428.325928	146.400000
428.419556	147.020000
428.513245	146.540000
428.606903	146.840000
428.700562	146.220000
428.794220	145.420000
428.887878	144.700000
428.981537	145.220000
429.075195	145.140000
429.168854	145.740000
429.262512	146.300000
429.356201	146.580000
429.449860	146.500000
429.543518	146.340000
429.637177	146.480000
429.730835	146.100000
429.824493	146.040000
429.918182	146.220000
430.011810	146.040000
430.105530	145.480000
430.199158	145.860000
430.292847	145.820000
430.386475	145.520000
430.480164	145.300000
430.573792	144.960000
430.667511	144.600000
430.761139	144.580000
430.854828	145.180000
430.948456	145.880000
431.042145	146.660000
431.135834	146.620000
431.229492	146.500000
431.323151	146.440000
431.416809	145.880000
431.510468	145.800000
431.604156	145.420000
431.697815	145.400000
431.791473	144.700000
431.885132	144.460000
431.978821	144.740000
432.072479	145.220000
432.166138	145.800000
432.259827	146.140000
432.353485	146.760000
432.447174	146.820000
432.540802	146.400000
432.634491	146.300000
432.728149	146.260000
432.821838	146.600000
432.915466	145.660000
433.009186	145.840000
433.102814	144.980000
433.196503	144.880000
433.290131	144.560000
433.383850	145.120000
433.477509	145.440000
433.571167	146.440000
433.664856	146.920000
433.758514	147.500000
433.852173	147.160000
433.945862	147.240000
434.039520	147.140000
434.133179	146.520000
434.226868	145.820000
434.320526	145.720000
434.414185	146.120000
434.507874	145.520000
434.601562	145.740000
434.695221	145.300000
434.788910	145.760000
434.882538	145.640000
434.976257	145.420000
435.069885	145.440000
435.163574	146.200000
435.257233	145.480000
435.350922	145.240000
435.444580	145.260000
435.538269	144.720000
435.631897	144.800000
435.725616	145.720000
435.819275	145.960000
435.912964	146.780000
436.006622	147.640000
436.100311	147.400000
436.193970	146.500000
436.287628	146.300000
436.381317	145.840000
436.474976	145.300000
436.568665	145.020000
436.662323	145.620000
436.756012	145.140000
436.849670	145.000000
436.943390	144.900000
437.037018	144.680000
437.130737	144.500000
437.224365	144.520000
437.318085	144.560000
437.411713	144.780000
437.505432	145.440000
437.599060	145.980000
437.692780	146.820000
437.786407	146.860000
437.880127	147.160000
437.973755	146.800000
438.067474	146.060000
438.161133	145.680000
438.254822	146.320000
438.348480	146.040000
438.442169	146.460000
438.535828	146.920000
438.629517	146.520000
438.723175	145.480000
438.816864	146.080000
438.910553	145.560000
439.004211	145.340000
439.097900	145.280000
439.191559	145.580000
439.285248	144.700000
439.378906	145.060000
439.472626	145.020000
439.566284	145.080000
439.659973	145.660000
439.753632	145.700000
439.847321	145.980000
439.940979	146.020000
440.034698	146.180000
440.128326	145.520000
440.222046	145.600000
440.315674	144.860000
440.409393	145.120000
440.503082	145.020000
440.596741	145.240000
440.690430	145.240000
440.784088	145.280000
440.877777	144.720000
440.971466	144.960000
441.065125	145.020000
441.158813	145.000000
441.252502	145.300000
441.346161	145.600000
441.439850	145.640000
441.533539	145.660000
441.627197	146.020000
441.720886	145.680000
441.814606	146.000000
441.908234	146.260000
442.001953	146.040000
442.095612	145.660000
442.189301	146.220000
442.282959	146.240000
442.376678	145.520000
442.470306	146.320000
442.564026	146.260000
442.657684	146.480000
442.751404	146.380000
442.845032	147.140000
442.938751	146.360000
443.032440	146.640000
443.126099	145.740000
443.219788	145.860000
443.313477	145.780000
443.407166	146.040000
443.500824	146.060000
443.594513	146.460000
443.688202	145.860000
443.781891	145.260000
443.875549	144.880000
443.969238	144.820000
444.062927	144.880000
444.156647	145.080000
444.250275	145.580000
444.343994	145.960000
444.437653	146.280000
444.531372	146.120000
444.625031	146.220000
444.718719	145.660000
444.812378	145.860000
444.906097	145.680000
444.999756	145.280000
445.093445	145.220000
445.187103	145.700000
445.280823	145.720000
445.374512	144.960000
445.468201	145.360000
445.561859	145.320000
445.655548	144.860000
445.749237	144.320000
445.842926	145.460000
445.936615	146.020000
446.030304	145.780000
446.123962	146.520000
446.217651	146.320000
446.311340	145.860000
446.405029	145.100000
446.498749	145.200000
446.592407	144.760000
446.686096	145.300000
446.779755	145.480000
446.873474	145.720000
446.967133	145.860000
447.060852	145.700000
447.154510	145.380000
447.248230	145.420000
447.341858	145.300000
447.435577	144.900000
447.529236	144.700000
447.622955	144.600000
447.716644	144.300000
447.810333	144.640000
447.904022	145.360000
447.997711	145.380000
448.091400	145.820000
448.185059	145.660000
448.278748	145.720000
448.372437	145.320000
448.466125	145.540000
448.559814	145.580000
448.653503	146.340000
448.747192	146.360000
448.840912	146.640000
448.934570	146.920000
449.028290	147.160000
449.121948	146.500000
449.215637	146.140000
449.309296	145.960000
449.403015	145.740000
449.496674	145.480000
449.590393	145.440000
449.684052	145.500000
449.777771	146.120000
449.871429	145.580000
449.965149	145.220000
450.058838	145.640000
450.152527	145.900000
450.246216	145.500000
450.339905	145.960000
450.433594	146.080000
450.527283	146.880000
450.620972	146.860000
450.714661	146.860000
450.808350	146.980000
450.902039	147.580000
450.995728	146.780000
451.089417	146.280000
451.183105	146.420000
451.276794	146.720000
451.370514	145.800000
451.464172	145.020000
451.557892	144.940000
451.651550	144.960000
451.745270	144.600000
451.838928	144.480000
451.932648	145.180000
452.026306	146.120000
452.120026	145.760000
452.213684	146.000000
452.307404	146.540000
452.401062	146.600000
452.494781	146.520000
452.588470	146.640000
452.682159	146.120000
452.775848	146.260000
452.869537	145.960000
452.963226	145.240000
453.056915	145.220000
453.150604	145.420000
453.244293	145.400000
453.337982	146.160000
453.431671	146.600000
453.525360	146.900000
453.619049	147.180000
453.712769	147.200000
453.806427	146.360000
453.900146	146.160000
453.993805	146.100000
454.087555	146.360000
454.181213	146.260000
454.274933	146.060000
454.368591	146.260000
454.462311	145.860000
454.555969	145.420000
454.649689	146.000000
454.743347	145.860000
454.837067	146.280000
454.930756	146.780000
455.024445	146.920000
455.118134	146.200000
455.211853	146.380000
455.305542	145.940000
455.399231	145.600000
455.492920	145.360000
455.586609	145.840000
455.680298	146.360000
455.773987	145.840000
455.867676	145.680000
455.961365	146.200000
456.055084	145.540000
456.148773	145.360000
456.242493	145.700000
456.336151	145.840000
456.429871	145.740000
456.523529	146.580000
456.617249	146.340000
456.710907	146.960000
456.804626	147.100000
456.898315	146.740000
456.992035	146.420000
457.085693	146.480000
457.179413	145.200000
457.273102	145.840000
457.366791	145.720000
457.460480	145.740000
457.554199	146.380000
457.647888	147.100000
457.741577	146.380000
457.835266	146.620000
457.928955	146.640000
458.022644	146.620000
458.116364	146.720000
458.210052	146.740000
458.303741	146.920000
458.397461	146.340000
458.491119	145.700000
458.584839	145.620000
458.678528	145.500000
458.772247	145.160000
458.865906	145.620000
458.959625	146.680000
459.053284	146.820000
459.147003	146.720000
459.240692	147.300000
459.334412	147.320000
459.428070	146.220000
459.521790	145.640000
459.615479	145.780000
459.709198	145.800000
459.802887	145.600000
459.896576	145.640000
459.990265	145.740000
460.083954	146.100000
460.177673	145.340000
460.271362	145.460000
460.365051	145.580000
460.458740	145.800000
460.552429	144.980000
460.646149	145.140000
460.739838	144.500000
460.833527	144.480000
460.927246	144.140000
461.020905	144.480000
461.114655	144.680000
461.208313	145.320000
461.302032	145.020000
461.395691	145.360000
461.489441	145.420000
461.583099	145.280000
461.676819	144.900000
461.770477	145.440000
461.864197	145.460000
461.957916	145.380000
462.051605	144.760000
462.145294	145.580000
462.238983	145.320000
462.332703	145.600000
462.426392	146.360000
462.520081	146.680000
462.613770	145.980000
462.707489	146.280000
462.801178	145.980000
462.894867	145.360000
462.988556	145.520000
463.082275	146.080000
463.175964	145.600000
463.269684	145.860000
463.363342	145.780000
463.457092	145.500000
463.550751	145.420000
463.644470	145.880000
463.738129	145.480000
463.831879	145.420000
463.925537	146.340000
464.019257	146.280000
464.112946	146.220000
464.206665	146.100000
464.300323	146.260000
464.394043	145.980000
464.487762	145.700000
464.581451	145.820000
464.675140	145.880000
464.768829	145.820000
464.862549	145.680000
464.956238	146.040000
465.049927	145.960000
465.143646	146.480000
465.237335	146.320000
465.331024	146.580000
465.424713	146.540000
465.518433	146.680000
465.612152	146.200000
465.705811	146.760000
465.799561	146.340000
465.893219	146.120000
465.986938	145.520000
466.080597	145.580000
466.174347	145.560000
466.268005	145.680000
466.361725	145.600000
466.455414	145.760000
466.549133	145.640000
466.642792	145.360000
466.736542	145.000000
466.830231	145.040000
466.923920	145.040000
467.017609	145.140000
467.111328	144.760000
467.205017	144.740000
467.298706	144.580000
467.392426	144.800000
467.486115	145.080000
467.579803	145.360000
467.673523	146.060000
467.767212	146.680000
467.860901	146.740000
467.954651	146.640000
468.048309	147.120000
468.142029	146.820000
468.235718	146.460000
468.329437	146.240000
468.423096	146.000000
468.516846	145.300000
468.610504	144.980000
468.704224	144.480000
468.797913	144.380000
468.891632	144.900000
468.985291	145.100000
469.079010	144.940000
469.172729	144.920000
469.266418	145.440000
469.360107	145.360000
469.453827	145.240000
469.547516	145.640000
469.641205	146.180000
469.734924	146.320000
469.828613	146.580000
469.922302	146.960000
470.016022	147.220000
470.109711	146.920000
470.203430	146.240000
470.297150	145.500000
470.390808	145.120000
470.484558	144.680000
470.578217	145.300000
470.671936	145.820000
470.765625	146.620000
470.859344	146.660000
470.953003	147.040000
471.046753	146.440000
471.140411	145.720000
471.234131	145.500000
471.327820	146.040000
471.421539	146.180000
471.515228	145.940000
471.608948	146.320000
471.702637	145.620000
471.796326	145.140000
471.890045	145.140000
471.983734	145.440000
472.077423	145.180000
472.171143	145.560000
472.264832	145.640000
472.358521	145.280000
472.452240	145.160000
472.545929	145.860000
472.639648	145.920000
472.733337	146.380000
472.827057	146.460000
472.920746	146.440000
473.014465	146.700000
473.108124	146.960000
473.201874	146.640000
473.295532	146.660000
473.389252	147.360000
473.482941	147.160000
473.576660	146.820000
473.670319	146.720000
473.764069	146.960000
473.857727	146.900000
473.951477	146.760000
474.045166	147.280000
474.138855	147.180000
474.232574	147.100000
474.326263	147.260000
474.419952	147.500000
474.513672	147.100000
474.607361	147.200000
474.701050	147.180000
474.794769	147.240000
474.888458	147.320000
474.982178	147.480000
475.075867	147.500000
475.169586	147.320000
475.263275	146.700000
475.356995	146.340000
475.450653	145.800000
475.544403	145.640000
475.638062	146.540000
475.731812	146.160000
475.825470	145.980000
475.919189	146.680000
476.012878	146.920000
476.106598	145.540000
476.200256	146.400000
476.294006	146.080000
476.387695	146.000000
476.481384	145.960000
476.575104	146.300000
476.668793	145.740000
476.762512	146.140000
476.856201	146.180000
476.949890	145.880000
477.043610	145.840000
477.137299	145.800000
477.230988	145.700000
477.324707	145.340000
477.418396	145.700000
477.512146	145.740000
477.605804	145.820000
477.699524	145.880000
477.793213	145.740000
477.886932	145.480000
477.980591	145.280000
478.074341	145.080000
478.167999	144.840000
478.261749	144.900000
478.355408	144.860000
478.449127	145.460000
478.542816	146.640000
478.636536	147.280000
478.730225	147.620000
478.823944	147.960000
478.917633	147.800000
479.011322	147.240000
479.105042	146.900000
479.198730	147.000000
479.292450	146.840000
479.386139	146.700000
479.479828	146.740000
479.573547	147.080000
479.667267	146.680000
479.760925	146.600000
479.854675	147.000000
479.948334	146.900000
480.042084	146.380000
480.135742	146.740000
480.229462	146.400000
480.323151	146.140000
480.416870	145.620000
480.510529	145.960000
480.604279	145.460000
480.697937	146.060000
480.791656	145.820000
480.885345	145.600000
480.979065	145.160000
481.072754	145.780000
481.166473	145.860000
481.260132	145.920000
481.353882	146.180000
481.447540	145.960000
481.541260	145.840000
481.635010	145.220000
481.728668	145.100000
481.822388	145.060000
481.916077	145.500000
482.009796	145.340000
482.103485	145.780000
482.197205	146.020000
482.290863	146.380000
482.384613	146.240000
482.478271	145.620000
482.571991	145.520000
482.665680	145.480000
482.759399	145.960000
482.853058	146.380000
482.946808	146.920000
483.040466	146.600000
483.134216	146.460000
483.227875	145.700000
483.321594	145.820000
483.415283	145.420000
483.509003	145.640000
483.602661	145.660000
483.696411	145.920000
483.790070	145.880000
483.883789	146.060000
483.977478	145.960000
484.071198	145.940000
484.164917	145.480000
484.258606	144.820000
484.352325	145.220000
484.445984	145.440000
484.539734	145.420000
484.633392	145.240000
484.727142	145.720000
484.820801	145.320000
484.914520	145.140000
485.008209	145.220000
485.101929	145.820000
485.195587	145.320000
485.289337	145.240000
485.382996	145.340000
485.476715	145.380000
485.570404	145.640000
485.664124	145.580000
485.757782	146.420000
485.851532	146.220000
485.945190	145.760000
486.038910	145.560000
486.132599	145.960000
486.226318	145.060000
486.319977	144.920000
486.413727	145.880000
486.507446	145.580000
486.601105	145.200000
486.694855	144.980000
486.788513	145.000000
486.882233	144.520000
486.975922	144.600000
487.069641	144.520000
487.163300	144.740000
487.257050	146.020000
487.350708	145.640000
487.444427	145.440000
487.538116	145.460000
487.631836	145.440000
487.725494	144.880000
487.819214	145.180000
487.912903	145.020000
488.006622	145.660000
488.100281	145.820000
488.194031	145.560000
488.287689	145.940000
488.381409	146.940000
488.475098	146.560000
488.568817	147.080000
488.662476	146.680000
488.756226	146.160000
488.849945	145.100000
488.943604	145.400000
489.037354	145.100000
489.131012	145.440000
489.224731	145.440000
489.318390	145.760000
489.412140	145.640000
489.505798	145.540000
489.599518	145.400000
489.693207	145.820000
489.786926	145.680000
489.880585	145.600000
489.974335	145.640000
490.067993	146.340000
490.161713	146.140000
490.255371	146.820000
490.349121	146.860000
490.442780	146.780000
490.536499	145.940000
490.630188	145.960000
490.723907	145.220000
490.817566	145.120000
490.911285	145.280000
491.004974	145.300000
491.098694	145.120000
491.192413	145.820000
491.286102	145.760000
491.379822	145.780000
491.473480	145.960000
491.567200	145.920000
491.660889	145.240000
491.754608	145.040000
491.848267	144.720000
491.941986	144.580000
492.035675	144.860000
492.129395	145.160000
492.223053	145.340000
492.316772	145.620000
492.410461	145.700000
492.504181	145.560000
492.597839	145.260000
492.691559	145.360000
492.785248	145.520000
492.878967	145.580000
492.972626	145.280000
493.066345	145.600000
493.160034	145.100000
493.253754	144.940000
493.347412	144.540000
493.441132	144.900000
493.534882	145.200000
493.628540	146.000000
493.722260	146.060000
493.815918	146.460000
493.909668	146.920000
494.003326	147.060000
494.097046	146.600000
494.190704	146.240000
494.284454	146.140000
494.378113	145.960000
494.471832	145.720000
494.565491	145.660000
494.659210	146.060000
494.752899	146.100000
494.846619	145.660000
494.940277	145.700000
495.033997	145.580000
495.127686	145.080000
495.221405	144.920000
495.315063	145.460000
495.408783	145.540000
495.502441	145.720000
495.596191	145.900000
495.689850	145.900000
495.783569	145.900000
495.877228	145.620000
495.970947	145.640000
496.064697	145.760000
496.158356	146.500000
496.252075	145.920000
496.345734	145.780000
496.439453	146.560000
496.533142	146.640000
496.626862	146.700000
496.720520	147.200000
496.814240	147.360000
496.907898	146.420000
497.001617	146.440000
497.095306	145.700000
497.189026	145.320000
497.282684	145.520000
497.376404	146.240000
497.470062	146.080000
497.563782	146.400000
497.657471	146.560000
497.751190	146.220000
497.844849	145.680000
497.938568	145.900000
498.032227	145.640000
498.125946	145.700000
498.219635	145.560000
498.313354	145.820000
498.407074	145.580000
498.500732	145.640000
498.594452	145.400000
498.688110	145.480000
498.781830	144.920000
498.875519	144.760000
498.969238	144.600000
499.062897	144.500000
499.156616	144.940000
499.250275	145.520000
499.343994	145.360000
499.437653	145.620000
499.531372	146.060000
499.625061	146.440000
499.718781	146.440000
499.812439	146.980000
499.906158	146.600000
499.999817	146.260000
500.093536	145.400000
500.187195	145.220000
500.280914	145.020000
500.374573	145.320000
500.468323	145.160000
500.561981	145.780000
500.655701	145.580000
500.749420	145.540000
500.843079	146.020000
500.936798	146.260000
501.030457	145.980000
501.124176	146.460000
501.217834	146.540000
501.311554	146.140000
501.405212	145.780000
501.498962	145.460000
501.592621	145.000000
501.686340	145.260000
501.779999	145.340000
501.873718	145.660000
501.967377	146.060000
502.061096	146.540000
502.154755	146.100000
502.248474	145.940000
502.342133	146.340000
502.435852	146.140000
502.529510	146.300000
502.623230	147.220000
502.716888	146.840000
502.810608	146.580000
502.904266	147.120000
502.997986	146.600000
503.091705	145.720000
503.185364	146.080000
503.279083	146.060000
503.372772	145.720000
503.466492	145.760000
503.560150	146.080000
503.653870	146.460000
503.747528	146.480000
503.841248	146.340000
503.934906	146.520000
504.028625	146.340000
504.122284	145.920000
504.216003	146.440000
504.309662	145.940000
504.403381	146.120000
504.497040	145.980000
504.590759	145.880000
504.684418	145.960000
504.778137	146.720000
504.871796	146.620000
504.965515	146.440000
505.059174	146.580000
505.152893	145.740000
505.246521	144.960000
505.340240	144.400000
505.433899	144.620000
505.527618	144.940000
505.621338	145.360000
505.714996	145.660000
505.808716	146.040000
505.902374	146.700000
505.996094	146.720000
506.089752	146.380000
506.183472	146.380000
506.277130	146.440000
506.370850	145.920000
506.464508	145.400000
506.558228	145.320000
506.651886	145.060000
506.745605	145.220000
506.839264	145.360000
506.932983	145.480000
507.026611	145.660000
507.120331	146.320000
507.213989	145.620000
507.307709	145.520000
507.401367	145.920000
507.495087	146.460000
507.588745	146.040000
507.682465	147.320000
507.776123	147.200000
507.869843	146.960000
507.963531	146.640000
508.057190	147.160000
508.150909	145.920000
508.244568	146.020000
508.338287	145.760000
508.431946	145.460000
508.525665	145.180000
508.619324	145.480000
508.713013	145.760000
508.806671	146.320000
508.900391	147.260000
508.994049	147.220000
509.087769	147.160000
509.181427	147.140000
509.275146	146.600000
509.368774	145.300000
509.462494	145.160000
509.556152	145.140000
509.649872	145.240000
509.743530	145.700000
509.837250	146.360000
509.930878	146.240000
510.024597	146.200000
510.118256	145.880000
510.211975	145.640000
510.305695	145.220000
510.399353	145.900000
510.493042	146.460000
510.586700	146.500000
510.680420	147.040000
510.774078	147.180000
510.867798	146.800000
510.961426	145.960000
511.055145	146.100000
511.148804	145.500000
511.242523	146.100000
511.336151	146.420000
511.429871	147.160000
511.523529	146.900000
511.617249	146.600000
511.710876	145.940000
511.804596	145.380000
511.898254	145.200000
511.991974	145.420000
512.085632	145.440000
512.179321	145.960000
512.272949	146.620000
512.366699	147.060000
512.460327	146.920000
512.554077	147.840000
512.647766	147.400000
512.741394	146.860000
512.835144	147.000000
512.928772	146.700000
513.022461	146.500000
513.116150	146.560000
513.209839	147.100000
513.303467	146.340000
513.397217	146.220000
513.490845	145.640000
513.584595	145.120000
513.678223	144.620000
513.771912	144.440000
513.865601	144.600000
513.959290	144.640000
514.052917	144.980000
514.146667	145.460000
514.240295	145.620000
514.333984	146.140000
514.427673	146.040000
514.521362	146.520000
514.614990	145.620000
514.708740	145.840000
514.802368	145.480000
514.896057	145.620000
514.989746	145.980000
515.083435	146.380000
515.177124	146.580000
515.270752	146.780000
515.364502	146.740000
515.458130	146.480000
515.551819	146.480000
515.645508	146.080000
515.739197	146.160000
515.832825	146.420000
515.926575	145.940000
516.020203	146.100000
516.113892	146.700000
516.207520	146.160000
516.301270	145.940000
516.394897	146.480000
516.488586	146.740000
516.582275	146.180000
516.675964	145.980000
516.769592	145.720000
516.863281	145.880000
516.956970	145.960000
517.050659	145.840000
517.144287	146.280000
517.238037	146.540000
517.331665	145.840000
517.425354	145.460000
517.519043	145.560000
517.612732	145.880000
517.706421	145.800000
517.800049	145.580000
517.893738	145.440000
517.987427	145.520000
518.081116	145.180000
518.174744	144.820000
518.268433	145.520000
518.362122	146.200000
518.455811	145.860000
518.549438	146.360000
518.643127	147.660000
518.736816	147.120000
518.830505	146.040000
518.924133	146.420000
519.017822	146.360000
519.111511	145.620000
519.205200	146.180000
519.298828	146.780000
519.392517	146.580000
519.486206	146.820000
519.579895	147.080000
519.673523	146.680000
519.767212	146.580000
519.860901	146.860000
519.954590	145.940000
520.048279	145.260000
520.141907	145.040000
520.235596	145.860000
520.329224	146.080000
520.422974	146.440000
520.516602	146.720000
520.610291	146.700000
520.703918	146.240000
520.797607	145.980000
520.891296	146.220000
520.984985	146.300000
521.078613	146.900000
521.172302	146.140000
521.265930	146.740000
521.359680	146.900000
521.453308	146.740000
521.546997	146.420000
521.640625	146.500000
521.734314	145.800000
521.827942	145.520000
521.921692	145.860000
522.015320	145.740000
522.109009	145.720000
522.202698	145.720000
522.296326	145.800000
522.390015	146.060000
522.483704	146.360000
522.577393	146.500000
522.671021	146.500000
522.764709	146.020000
522.858337	145.960000
522.952026	145.780000
523.045654	146.520000
523.139404	147.180000
523.233032	147.460000
523.326721	147.100000
523.420349	146.860000
523.514038	146.140000
523.607666	146.000000
523.701355	145.680000
523.795044	145.660000
523.888733	145.960000
523.982361	146.200000
524.076050	145.400000
524.169678	145.820000
524.263367	145.600000
524.356995	145.080000
524.450684	144.920000
524.544373	144.940000
524.638062	144.800000
524.731750	145.080000
524.825378	145.380000
524.919067	144.760000
525.012695	144.980000
525.106384	144.620000
525.200012	144.900000
525.293701	144.880000
525.387329	145.580000
525.481018	145.840000
525.574646	146.440000
525.668396	145.920000
525.762024	146.480000
525.855713	146.380000
525.949341	146.020000
526.043030	145.840000
526.136658	145.980000
526.230347	145.640000
526.323975	145.620000
526.417664	145.460000
526.511292	145.720000
526.604980	145.700000
526.698608	145.700000
526.792297	146.020000
526.885925	146.300000
526.979614	146.060000
527.073303	146.040000
527.166931	145.680000
527.260620	145.500000
527.354309	146.260000
527.447998	146.200000
527.541626	146.080000
527.635315	146.440000
527.728943	146.840000
527.822632	146.560000
527.916260	146.680000
528.009949	146.800000
528.103577	146.460000
528.197266	145.700000
528.290894	145.400000
528.384583	145.060000
528.478210	144.980000
528.571899	145.100000
528.665527	145.980000
528.759216	146.180000
528.852844	146.720000
528.946533	146.980000
529.040161	147.180000
529.133850	146.440000
529.227478	146.400000
529.321167	146.780000
529.414856	147.060000
529.508484	147.480000
529.602173	147.520000
529.695801	147.120000
529.789490	146.560000
529.883057	146.360000
529.976746	146.140000
530.070374	146.540000
530.164062	146.580000
530.257690	146.740000
530.351379	147.040000
530.445007	146.920000
530.538696	146.080000
530.632324	146.320000
530.726013	146.220000
530.819641	145.660000
530.913330	145.600000
531.006958	145.960000
531.100647	145.920000
531.194275	145.540000
531.287964	145.540000
531.381592	145.140000
531.475220	145.260000
531.568848	145.160000
531.662537	145.080000
531.756226	145.620000
531.849854	145.860000
531.943542	145.780000
532.037170	145.420000
532.130859	145.960000
532.224487	145.180000
532.318176	144.960000
532.411804	145.600000
532.505432	145.980000
532.599060	145.320000
532.692749	145.540000
532.786377	146.280000
532.880066	145.700000
532.973694	145.320000
533.067383	145.700000
533.161011	145.820000
533.254639	145.400000
533.348267	145.080000
533.441956	145.560000
533.535583	145.420000
533.629272	145.320000
533.722900	145.160000
533.816589	145.540000
533.910156	145.600000
534.003845	145.300000
534.097534	145.600000
534.191162	145.860000
534.284851	145.780000
534.378479	145.520000
534.472107	145.980000
534.565735	145.700000
534.659424	145.660000
534.753052	145.980000
534.846741	145.800000
534.940369	146.080000
535.033997	146.040000
535.127625	145.960000
535.221313	146.200000
535.314941	146.200000
535.408630	145.560000
535.502197	145.820000
535.595886	145.520000
535.689514	144.940000
535.783203	145.680000
535.876831	146.160000
535.970459	146.160000
536.064087	146.340000
536.157776	146.640000
536.251404	146.620000
536.345093	146.440000
536.438721	146.220000
536.532349	146.340000
536.626038	146.120000
536.719666	145.940000
536.813293	145.820000
536.906921	145.780000
537.000610	145.700000
537.094238	145.620000
537.187866	145.620000
537.281494	145.580000
537.375183	145.980000
537.468811	146.140000
537.562439	146.180000
537.656067	145.860000
537.749756	146.120000
537.843384	146.420000
537.937012	146.420000
538.030640	146.420000
538.124329	146.420000
538.217896	146.480000
538.311584	146.400000
538.405212	146.300000
538.498901	146.460000
538.592468	147.000000
538.686157	146.440000
538.779785	145.360000
538.873413	145.360000
538.967102	145.020000
539.060730	144.500000
539.154358	145.080000
539.247986	145.920000
539.341675	145.880000
539.435242	146.040000
539.528931	146.260000
539.622559	145.960000
539.716187	146.040000
539.809814	145.920000
539.903503	146.000000
539.997070	145.780000
540.090759	145.760000
540.184387	145.640000
540.278015	146.440000
540.371643	146.560000
540.465332	146.640000
540.558899	146.740000
540.652588	146.500000
540.746216	145.920000
540.839844	146.240000
540.933472	146.220000
541.027100	146.100000
541.120728	146.180000
541.214417	146.380000
541.308044	146.480000
541.401672	146.280000
541.495300	146.120000
541.588928	145.860000
541.682617	145.520000
541.776184	144.720000
541.869873	145.100000
541.963440	145.560000
542.057129	145.840000
542.150757	146.180000
542.244385	146.340000
542.338013	145.860000
542.431641	145.480000
542.525269	145.280000
542.618958	145.640000
542.712524	145.820000
542.806213	145.840000
542.899780	146.060000
542.993469	145.940000
543.087036	145.620000
543.180725	145.180000
543.274292	145.560000
543.367981	145.920000
543.461548	146.400000
543.555237	146.100000
543.648926	146.540000
543.742493	147.080000
543.836182	146.760000
543.929749	146.320000
544.023437	146.420000
544.117004	146.600000
544.210693	146.200000
544.304260	146.240000
544.397949	146.500000
544.491516	146.620000
544.585205	146.300000
544.678772	145.700000
544.772461	146.080000
544.866028	145.960000
544.959717	146.180000
545.053284	146.340000
545.146973	146.780000
545.240540	146.660000
545.334229	147.440000
545.427795	147.280000
545.521423	147.200000
545.615051	147.380000
545.708679	147.400000
545.802307	146.960000
545.895935	147.340000
545.989624	147.840000
546.083191	147.440000
546.176880	147.320000
546.270447	146.920000
546.364136	147.120000
546.457703	146.780000
546.551331	147.140000
546.644958	147.140000
546.738586	147.420000
546.832214	146.780000
546.925842	146.460000
547.019409	146.480000
547.113098	146.100000
547.206665	146.180000
547.300354	146.440000
547.393921	146.940000
547.487549	146.920000
547.581177	147.200000
547.674805	147.040000
547.768433	146.180000
547.862061	145.920000
547.955627	145.380000
548.049316	145.560000
548.142883	145.840000
548.236572	146.420000
548.330139	146.460000
548.423767	146.760000
548.517456	146.600000
548.611023	146.440000
548.704651	145.760000
548.798279	145.760000
548.891907	146.160000
548.985474	146.120000
549.079163	146.220000
549.172729	146.540000
549.266357	146.220000
549.359985	145.880000
549.453613	145.300000
549.547180	145.260000
549.640869	145.620000
549.734436	145.480000
549.828064	145.960000
549.921631	146.400000
550.015320	145.740000
550.108887	146.200000
550.202515	146.540000
550.296143	145.940000
550.389771	145.820000
550.483337	146.100000
550.576965	145.620000
550.670593	145.920000
550.764221	145.940000
550.857849	145.980000
550.951477	145.760000
551.045105	145.500000
551.138672	145.200000
551.232300	145.200000
551.325928	145.540000
551.419556	146.160000
551.513123	146.620000
551.606750	146.480000
551.700378	146.420000
551.794006	146.180000
551.887573	145.820000
551.981201	145.940000
552.074768	145.940000
552.168457	145.760000
552.262024	146.660000
552.355652	146.860000
552.449219	147.140000
552.542847	147.180000
552.636475	147.120000
552.730103	145.700000
552.823669	145.360000
552.917297	144.480000
553.010864	144.500000
553.104553	145.000000
553.198181	145.440000
553.291748	145.980000
553.385376	146.240000
553.478943	146.440000
553.572571	146.300000
553.666199	146.640000
553.759827	146.200000
553.853394	145.800000
553.947021	145.640000
554.040588	145.660000
554.134216	145.600000
554.227783	146.220000
554.321411	147.360000
554.415039	147.040000
554.508667	146.920000
554.602234	147.140000
554.695862	146.180000
554.789429	145.860000
554.883057	146.200000
554.976624	146.300000
555.070251	145.680000
555.163818	145.840000
555.257507	145.460000
555.351074	145.600000
555.444702	146.860000
555.538330	146.740000
555.631897	147.100000
555.725525	147.500000
555.819092	147.240000
555.912720	145.720000
556.006287	146.440000
556.099915	146.120000
556.193481	145.720000
556.287109	145.900000
556.380676	146.040000
556.474304	146.060000
556.567871	146.820000
556.661499	146.280000
556.755066	146.260000
556.848694	146.480000
556.942261	146.040000
557.035889	145.880000
557.129517	146.400000
557.223145	146.720000
557.316711	146.520000
557.410339	146.840000
557.503906	146.200000
557.597473	146.280000
557.691040	146.180000
557.784668	146.200000
557.878296	146.060000
557.971863	146.720000
558.065491	146.740000
558.159058	146.460000
558.252686	146.940000
558.346252	147.600000
558.439880	147.040000
558.533447	146.400000
558.627075	146.200000
558.720642	145.820000
558.814270	145.340000
558.907837	145.420000
559.001465	145.540000
559.095032	146.280000
559.188660	146.400000
559.282227	145.860000
559.375854	146.520000
559.469360	146.220000
559.562988	146.160000
559.656555	145.980000
559.750183	146.440000
559.843750	146.360000
559.937378	146.940000
560.030945	146.760000
560.124573	0.000000
560.218140	0.000000
560.311707	0.000000
560.405334	0.000000
560.498901	0.000000
560.592529	0.000000
560.686096	0.000000
560.779724	0.000000
560.873291	0.000000
560.966858	0.000000
561.060425	0.000000
561.154053	0.000000
561.247620	0.000000
561.341248	0.000000
561.434814	0.000000
561.528381	0.000000
561.621948	0.000000
561.715576	0.000000
561.809143	0.000000
561.902771	0.000000
561.996277	0.000000
562.089905	0.000000
562.183472	0.000000
562.277100	0.000000
