Model Number: SPM-002-B   
Serial Number: 70087108
Firmware Version: 004.15.4
Exposure Time: 100000.000000us
Data Taken on: 11-12-2020 18:50:05.594
Wavelength	Amplitude
221.570786	0.000000
221.663406	0.000000
221.756027	0.000000
221.848648	0.000000
221.941269	0.000000
222.033905	0.000000
222.126526	0.000000
222.219162	0.000000
222.311798	0.000000
222.404419	0.000000
222.497055	0.000000
222.589676	0.000000
222.682312	0.000000
222.774933	0.000000
222.867569	0.000000
222.960205	0.000000
223.052841	0.000000
223.145462	0.000000
223.238098	0.000000
223.330734	0.000000
223.423386	0.000000
223.516022	0.000000
223.608658	0.000000
223.701309	0.000000
223.793945	0.000000
223.886581	0.000000
223.979218	0.000000
224.071869	0.000000
224.164505	0.000000
224.257156	0.000000
224.349792	0.000000
224.442444	0.000000
224.535095	0.000000
224.627747	0.000000
224.720398	0.000000
224.813034	0.000000
224.905685	0.000000
224.998337	144.800000
225.090988	144.480000
225.183640	144.620000
225.276291	144.740000
225.368942	145.040000
225.461594	145.560000
225.554245	145.840000
225.646912	145.680000
225.739578	146.100000
225.832230	146.340000
225.924896	145.320000
226.017548	145.700000
226.110199	146.280000
226.202866	145.380000
226.295532	145.340000
226.388184	145.700000
226.480850	145.220000
226.573517	144.480000
226.666168	145.160000
226.758835	145.200000
226.851501	145.680000
226.944183	145.660000
227.036850	145.320000
227.129517	144.960000
227.222183	144.800000
227.314850	144.640000
227.407516	145.060000
227.500198	146.060000
227.592865	145.860000
227.685532	145.660000
227.778214	145.480000
227.870880	145.620000
227.963562	145.740000
228.056229	146.280000
228.148926	146.560000
228.241592	147.540000
228.334274	147.060000
228.426956	146.960000
228.519638	146.900000
228.612305	146.600000
228.704987	145.820000
228.797668	145.940000
228.890350	145.640000
228.983032	144.880000
229.075714	145.540000
229.168396	145.420000
229.261108	144.700000
229.353790	144.680000
229.446472	145.220000
229.539169	144.920000
229.631851	144.700000
229.724533	145.500000
229.817230	145.820000
229.909912	146.520000
230.002609	146.300000
230.095306	146.160000
230.187988	146.060000
230.280685	145.880000
230.373383	144.740000
230.466095	144.840000
230.558792	145.160000
230.651474	145.080000
230.744171	144.920000
230.836868	144.980000
230.929581	145.120000
231.022278	145.280000
231.114975	145.220000
231.207672	145.080000
231.300369	145.700000
231.393082	145.840000
231.485779	145.900000
231.578506	146.060000
231.671204	146.080000
231.763916	146.080000
231.856613	146.040000
231.949326	145.760000
232.042023	145.600000
232.134735	145.860000
232.227448	145.420000
232.320160	145.180000
232.412872	145.420000
232.505585	146.120000
232.598297	146.380000
232.691010	146.520000
232.783722	146.260000
232.876450	146.600000
232.969162	145.820000
233.061874	145.240000
233.154587	144.740000
233.247314	145.000000
233.340027	144.580000
233.432739	145.280000
233.525467	145.480000
233.618179	146.100000
233.710907	145.960000
233.803635	146.240000
233.896347	145.900000
233.989090	146.440000
234.081818	146.300000
234.174545	146.440000
234.267258	145.880000
234.359985	146.040000
234.452713	145.520000
234.545441	145.360000
234.638168	145.360000
234.730896	145.860000
234.823639	145.580000
234.916367	146.020000
235.009094	146.480000
235.101822	146.580000
235.194580	146.500000
235.287308	146.420000
235.380051	145.600000
235.472778	145.620000
235.565521	145.680000
235.658249	145.220000
235.750992	145.380000
235.843719	145.400000
235.936462	145.360000
236.029205	145.080000
236.121948	145.140000
236.214691	145.460000
236.307449	146.200000
236.400192	145.900000
236.492935	145.380000
236.585678	145.460000
236.678421	145.160000
236.771164	144.560000
236.863907	144.980000
236.956665	145.480000
237.049408	147.020000
237.142151	146.460000
237.234909	147.640000
237.327652	147.260000
237.420410	147.080000
237.513153	145.960000
237.605927	146.180000
237.698669	145.440000
237.791428	145.060000
237.884186	145.700000
237.976944	145.420000
238.069702	145.700000
238.162445	144.980000
238.255203	145.360000
238.347961	145.380000
238.440720	145.300000
238.533478	145.380000
238.626266	145.440000
238.719025	145.620000
238.811783	145.180000
238.904541	145.000000
238.997314	144.600000
239.090073	144.280000
239.182831	144.160000
239.275604	144.840000
239.368362	144.900000
239.461136	145.280000
239.553909	146.000000
239.646667	145.940000
239.739441	145.300000
239.832214	145.820000
239.925003	146.020000
240.017761	146.340000
240.110535	146.720000
240.203308	146.480000
240.296082	146.300000
240.388855	145.940000
240.481628	145.880000
240.574417	145.860000
240.667191	146.400000
240.759964	145.960000
240.852737	145.720000
240.945526	145.420000
241.038315	145.040000
241.131088	144.980000
241.223877	145.620000
241.316650	145.860000
241.409439	145.960000
241.502228	145.680000
241.595001	145.780000
241.687790	145.360000
241.780579	145.400000
241.873367	145.540000
241.966141	146.120000
242.058929	145.780000
242.151718	145.940000
242.244507	146.320000
242.337311	145.460000
242.430099	145.720000
242.522903	146.200000
242.615692	145.840000
242.708481	145.540000
242.801270	146.580000
242.894073	146.400000
242.986862	145.920000
243.079651	146.520000
243.172455	146.160000
243.265244	146.060000
243.358063	145.360000
243.450867	146.000000
243.543655	145.760000
243.636459	146.060000
243.729263	146.020000
243.822067	146.600000
243.914856	146.900000
244.007660	146.980000
244.100464	147.080000
244.193268	146.920000
244.286072	146.780000
244.378876	145.660000
244.471680	145.240000
244.564499	145.260000
244.657318	145.640000
244.750122	145.640000
244.842926	145.320000
244.935745	145.700000
245.028549	145.400000
245.121368	144.780000
245.214172	144.760000
245.306992	145.260000
245.399796	144.840000
245.492615	144.780000
245.585434	145.040000
245.678253	145.200000
245.771072	145.320000
245.863892	146.120000
245.956711	146.720000
246.049530	146.340000
246.142349	145.900000
246.235168	145.800000
246.327988	146.000000
246.420807	145.420000
246.513626	145.920000
246.606445	146.020000
246.699280	146.200000
246.792099	145.560000
246.884918	145.680000
246.977753	145.360000
247.070587	145.680000
247.163422	145.800000
247.256241	145.720000
247.349075	145.900000
247.441895	145.900000
247.534729	145.680000
247.627563	145.100000
247.720383	146.020000
247.813217	146.140000
247.906052	146.120000
247.998886	146.240000
248.091736	146.480000
248.184570	146.040000
248.277405	145.660000
248.370239	146.760000
248.463074	147.400000
248.555908	147.960000
248.648743	147.520000
248.741592	147.880000
248.834427	147.020000
248.927261	146.020000
249.020111	146.080000
249.112946	146.620000
249.205795	146.220000
249.298630	146.200000
249.391495	146.700000
249.484344	146.140000
249.577179	146.120000
249.670029	146.300000
249.762878	146.940000
249.855728	146.720000
249.948563	146.920000
250.041412	146.380000
250.134262	146.560000
250.227112	146.220000
250.319962	146.080000
250.412827	145.880000
250.505692	145.700000
250.598541	145.700000
250.691391	145.360000
250.784241	145.540000
250.877106	145.600000
250.969955	145.500000
251.062805	146.000000
251.155670	146.660000
251.248520	146.220000
251.341385	146.340000
251.434235	146.740000
251.527100	146.240000
251.619965	145.540000
251.712814	146.520000
251.805695	146.580000
251.898560	146.460000
251.991425	146.660000
252.084290	146.980000
252.177155	146.240000
252.270020	145.820000
252.362885	145.760000
252.455750	145.560000
252.548615	145.100000
252.641479	145.300000
252.734360	145.360000
252.827240	145.040000
252.920105	144.900000
253.012970	144.700000
253.105850	144.480000
253.198715	144.400000
253.291595	144.840000
253.384460	144.780000
253.477341	144.960000
253.570221	145.060000
253.663086	144.860000
253.755966	145.340000
253.848846	145.500000
253.941727	145.700000
254.034592	145.720000
254.127472	145.480000
254.220367	145.100000
254.313248	145.200000
254.406128	144.740000
254.499008	145.040000
254.591904	146.120000
254.684784	146.560000
254.777664	146.500000
254.870544	146.420000
254.963440	146.240000
255.056335	146.080000
255.149216	145.480000
255.242111	146.020000
255.334991	146.460000
255.427887	146.240000
255.520767	146.120000
255.613663	146.600000
255.706558	145.640000
255.799438	145.760000
255.892334	145.920000
255.985229	145.740000
256.078125	145.400000
256.171021	145.940000
256.263916	146.180000
256.356812	146.360000
256.449707	146.540000
256.542603	146.280000
256.635498	146.340000
256.728394	146.220000
256.821289	145.860000
256.914215	146.240000
257.007080	146.780000
257.100006	146.840000
257.192932	147.120000
257.285828	147.640000
257.378723	147.240000
257.471619	146.960000
257.564545	146.660000
257.657440	146.420000
257.750336	146.660000
257.843262	146.500000
257.936157	147.480000
258.029053	147.840000
258.121979	148.000000
258.214874	147.240000
258.307800	147.140000
258.400696	146.020000
258.493622	145.780000
258.586517	145.040000
258.679443	145.660000
258.772339	145.660000
258.865265	145.720000
258.958160	145.180000
259.051086	145.980000
259.144012	145.620000
259.236938	146.380000
259.329834	146.520000
259.422791	146.520000
259.515717	145.940000
259.608612	145.920000
259.701538	145.440000
259.794464	145.020000
259.887390	145.340000
259.980316	145.460000
260.073212	145.140000
260.166138	144.140000
260.259064	144.720000
260.351990	145.060000
260.444916	144.920000
260.537842	145.420000
260.630768	146.720000
260.723694	146.600000
260.816620	146.500000
260.909546	146.340000
261.002472	145.960000
261.095398	145.300000
261.188354	145.460000
261.281281	145.020000
261.374207	145.340000
261.467133	146.140000
261.560089	146.360000
261.653015	145.760000
261.745972	146.280000
261.838867	146.680000
261.931824	146.620000
262.024780	146.100000
262.117706	146.480000
262.210663	146.860000
262.303589	146.480000
262.396515	146.060000
262.489471	146.980000
262.582397	146.940000
262.675354	146.020000
262.768280	146.160000
262.861237	146.120000
262.954163	145.840000
263.047119	145.860000
263.140045	145.940000
263.233002	145.860000
263.325958	145.900000
263.418884	145.140000
263.511841	145.160000
263.604797	145.480000
263.697723	145.600000
263.790680	145.500000
263.883636	146.360000
263.976593	145.920000
264.069550	145.580000
264.162476	145.020000
264.255463	145.060000
264.348419	144.860000
264.441376	145.300000
264.534332	145.080000
264.627289	145.360000
264.720245	145.980000
264.813202	145.800000
264.906158	146.060000
264.999115	146.900000
265.092072	146.860000
265.185028	146.940000
265.277985	146.940000
265.370941	146.740000
265.463898	146.260000
265.556854	146.260000
265.649811	145.280000
265.742798	145.280000
265.835754	145.300000
265.928711	145.580000
266.021667	145.560000
266.114655	145.800000
266.207611	146.020000
266.300568	145.400000
266.393585	144.820000
266.486511	144.920000
266.579498	144.180000
266.672485	144.040000
266.765442	144.440000
266.858429	144.980000
266.951385	144.680000
267.044342	145.400000
267.137329	145.620000
267.230316	145.720000
267.323273	145.400000
267.416260	146.180000
267.509216	145.860000
267.602203	145.540000
267.695160	145.960000
267.788147	146.080000
267.881134	145.260000
267.974091	145.700000
268.067078	145.640000
268.160065	144.960000
268.253052	144.780000
268.346008	145.160000
268.438995	144.780000
268.531982	145.140000
268.624969	145.320000
268.717987	145.680000
268.810944	145.600000
268.903961	145.980000
268.996948	145.460000
269.089905	145.900000
269.182892	145.980000
269.275879	146.460000
269.368866	145.900000
269.461853	146.520000
269.554871	146.340000
269.647858	146.040000
269.740845	146.280000
269.833832	146.820000
269.926819	146.400000
270.019806	146.420000
270.112793	146.400000
270.205811	146.140000
270.298798	145.940000
270.391785	146.700000
270.484772	146.280000
270.577789	146.400000
270.670776	145.800000
270.763763	145.820000
270.856750	145.360000
270.949768	145.360000
271.042786	145.360000
271.135773	145.620000
271.228790	145.960000
271.321808	145.480000
271.414795	145.300000
271.507782	145.040000
271.600800	144.620000
271.693817	144.120000
271.786804	144.700000
271.879822	145.160000
271.972809	144.940000
272.065826	145.620000
272.158844	145.540000
272.251831	145.960000
272.344849	145.740000
272.437866	145.740000
272.530853	145.800000
272.623871	146.160000
272.716888	145.060000
272.809906	145.620000
272.902893	145.740000
272.995911	145.120000
273.088928	145.040000
273.181946	145.440000
273.274963	144.800000
273.367981	144.960000
273.460999	145.200000
273.554047	145.640000
273.647003	146.300000
273.740051	146.760000
273.833069	147.160000
273.926086	147.380000
274.019135	147.120000
274.112152	146.580000
274.205170	146.340000
274.298187	146.500000
274.391205	145.740000
274.484222	145.560000
274.577240	145.520000
274.670258	145.140000
274.763306	144.520000
274.856323	145.360000
274.949341	145.500000
275.042358	145.960000
275.135406	146.280000
275.228424	146.440000
275.321442	146.100000
275.414490	145.640000
275.507507	145.560000
275.600525	145.920000
275.693573	145.640000
275.786591	145.700000
275.879669	146.100000
275.972656	145.840000
276.065735	145.660000
276.158752	146.480000
276.251801	147.060000
276.344818	147.160000
276.437866	147.060000
276.530884	146.800000
276.623932	145.880000
276.716980	145.440000
276.809998	145.460000
276.903046	145.680000
276.996094	146.380000
277.089111	147.280000
277.182159	148.040000
277.275208	147.780000
277.368256	147.940000
277.461304	147.620000
277.554321	146.880000
277.647369	146.540000
277.740417	146.840000
277.833466	146.440000
277.926514	146.400000
278.019562	147.020000
278.112610	146.280000
278.205688	146.000000
278.298706	146.080000
278.391785	146.140000
278.484833	145.760000
278.577881	145.740000
278.670929	146.080000
278.763977	146.300000
278.857025	146.380000
278.950073	146.620000
279.043121	146.560000
279.136169	146.540000
279.229248	146.140000
279.322296	146.120000
279.415344	145.620000
279.508392	145.500000
279.601440	145.240000
279.694519	145.160000
279.787567	144.880000
279.880615	144.840000
279.973694	144.940000
280.066742	145.000000
280.159790	145.460000
280.252869	145.320000
280.345917	145.660000
280.438995	146.060000
280.532074	145.960000
280.625122	145.920000
280.718201	146.840000
280.811279	146.860000
280.904327	146.540000
280.997406	146.980000
281.090454	147.120000
281.183533	146.180000
281.276581	146.180000
281.369659	145.940000
281.462738	145.720000
281.555786	145.620000
281.648865	145.820000
281.741943	145.700000
281.835022	146.520000
281.928070	146.320000
282.021149	145.980000
282.114227	145.660000
282.207306	145.500000
282.300385	145.680000
282.393433	145.840000
282.486511	145.860000
282.579590	146.360000
282.672668	146.860000
282.765747	146.060000
282.858856	145.900000
282.951904	146.260000
283.045013	146.460000
283.138062	146.420000
283.231171	146.620000
283.324249	146.980000
283.417328	146.680000
283.510406	146.080000
283.603485	145.760000
283.696564	145.640000
283.789642	145.480000
283.882751	145.300000
283.975830	145.780000
284.068909	145.720000
284.161987	146.340000
284.255066	146.020000
284.348175	146.540000
284.441254	146.240000
284.534332	146.720000
284.627441	146.320000
284.720520	145.800000
284.813599	145.520000
284.906708	145.880000
284.999786	145.040000
285.092896	144.840000
285.185974	146.400000
285.279053	146.060000
285.372192	145.800000
285.465240	146.620000
285.558380	146.360000
285.651459	145.300000
285.744568	146.420000
285.837677	146.000000
285.930756	145.720000
286.023865	145.980000
286.116943	146.200000
286.210052	145.940000
286.303162	146.300000
286.396240	146.320000
286.489349	146.160000
286.582458	146.300000
286.675568	145.680000
286.768646	145.640000
286.861755	146.060000
286.954865	146.680000
287.047974	146.220000
287.141083	146.120000
287.234161	145.820000
287.327271	145.320000
287.420380	145.560000
287.513519	145.460000
287.606598	145.500000
287.699738	146.040000
287.792816	146.040000
287.885956	145.560000
287.979034	145.740000
288.072174	146.020000
288.165283	145.660000
288.258392	145.800000
288.351501	145.360000
288.444611	145.560000
288.537720	145.960000
288.630859	146.040000
288.723969	146.120000
288.817078	146.800000
288.910187	146.600000
289.003296	146.000000
289.096436	145.720000
289.189545	145.460000
289.282654	145.000000
289.375763	145.400000
289.468903	145.700000
289.562012	146.060000
289.655121	146.320000
289.748260	146.480000
289.841400	146.540000
289.934509	146.520000
290.027649	146.840000
290.120728	146.600000
290.213898	146.480000
290.306976	146.100000
290.400146	146.120000
290.493256	145.400000
290.586395	145.380000
290.679535	145.880000
290.772644	145.880000
290.865784	145.140000
290.958893	145.220000
291.052032	145.180000
291.145172	144.820000
291.238281	144.640000
291.331421	145.160000
291.424561	145.680000
291.517670	145.560000
291.610809	145.780000
291.703949	145.980000
291.797089	146.280000
291.890228	145.960000
291.983337	145.920000
292.076477	145.800000
292.169617	146.020000
292.262756	145.620000
292.355927	145.320000
292.449036	145.340000
292.542206	145.520000
292.635315	145.440000
292.728485	145.540000
292.821625	145.520000
292.914764	146.620000
293.007904	146.540000
293.101044	146.400000
293.194183	146.340000
293.287323	146.480000
293.380463	145.720000
293.473602	145.080000
293.566742	145.440000
293.659882	145.940000
293.753021	146.440000
293.846191	146.200000
293.939331	146.240000
294.032471	145.740000
294.125610	145.420000
294.218781	145.620000
294.311920	146.120000
294.405060	146.760000
294.498230	147.140000
294.591370	147.280000
294.684540	146.540000
294.777679	145.780000
294.870850	145.960000
294.963959	145.840000
295.057159	145.460000
295.150299	146.140000
295.243469	146.340000
295.336609	145.580000
295.429779	145.540000
295.522919	145.940000
295.616089	145.680000
295.709229	146.320000
295.802399	146.840000
295.895569	146.660000
295.988708	146.320000
296.081879	146.180000
296.175018	145.620000
296.268188	145.360000
296.361359	145.820000
296.454529	146.120000
296.547668	145.900000
296.640839	146.300000
296.734009	146.040000
296.827179	146.200000
296.920319	146.380000
297.013519	146.440000
297.106659	146.620000
297.199860	146.760000
297.292999	146.520000
297.386200	146.060000
297.479309	146.020000
297.572510	145.660000
297.665680	145.500000
297.758850	145.500000
297.852020	145.600000
297.945190	145.660000
298.038361	145.080000
298.131531	146.000000
298.224701	145.560000
298.317871	145.360000
298.411072	144.840000
298.504242	145.280000
298.597412	144.640000
298.690582	144.740000
298.783752	145.140000
298.876923	145.820000
298.970093	145.720000
299.063293	146.040000
299.156464	146.660000
299.249634	146.580000
299.342834	146.880000
299.436005	147.140000
299.529205	146.880000
299.622345	146.520000
299.715576	145.780000
299.808716	145.160000
299.901917	144.960000
299.995117	145.040000
300.088287	145.100000
300.181488	145.160000
300.274658	145.180000
300.367828	145.140000
300.461029	145.180000
300.554199	145.600000
300.647400	145.800000
300.740601	146.220000
300.833771	146.320000
300.926971	146.480000
301.020142	145.880000
301.113342	146.100000
301.206512	146.080000
301.299713	146.440000
301.392914	146.360000
301.486084	146.480000
301.579285	146.300000
301.672516	146.660000
301.765686	146.200000
301.858887	146.120000
301.952057	146.220000
302.045288	146.440000
302.138458	146.000000
302.231659	146.000000
302.324860	146.080000
302.418060	145.600000
302.511261	145.320000
302.604462	145.640000
302.697662	145.380000
302.790863	144.960000
302.884064	145.160000
302.977264	145.460000
303.070465	145.440000
303.163666	146.480000
303.256866	146.860000
303.350067	146.620000
303.443268	146.300000
303.536469	146.480000
303.629669	145.860000
303.722870	145.840000
303.816071	146.080000
303.909271	146.240000
304.002472	145.300000
304.095673	145.140000
304.188934	144.400000
304.282104	145.180000
304.375336	145.200000
304.468506	145.600000
304.561768	145.640000
304.654968	146.420000
304.748169	145.600000
304.841370	145.460000
304.934601	145.780000
305.027802	145.240000
305.121002	145.140000
305.214233	145.280000
305.307434	145.580000
305.400665	145.720000
305.493866	145.900000
305.587097	145.860000
305.680298	145.900000
305.773499	146.140000
305.866730	145.820000
305.959930	146.680000
306.053162	147.060000
306.146393	146.680000
306.239594	145.940000
306.332825	145.880000
306.426025	145.860000
306.519287	145.320000
306.612488	145.660000
306.705719	145.860000
306.798920	145.700000
306.892181	145.120000
306.985352	144.980000
307.078613	144.260000
307.171844	144.860000
307.265045	144.760000
307.358276	144.460000
307.451508	144.840000
307.544739	145.800000
307.637970	145.100000
307.731201	144.840000
307.824402	145.700000
307.917633	145.660000
308.010864	145.940000
308.104095	146.700000
308.197327	147.320000
308.290558	147.320000
308.383789	146.980000
308.477020	146.400000
308.570251	145.320000
308.663483	144.960000
308.756714	144.480000
308.849976	144.620000
308.943176	145.240000
309.036438	145.620000
309.129639	145.280000
309.222900	145.220000
309.316101	145.300000
309.409393	144.600000
309.502625	144.400000
309.595856	144.760000
309.689087	145.100000
309.782318	145.120000
309.875580	145.180000
309.968811	145.420000
310.062042	145.220000
310.155273	144.960000
310.248535	145.340000
310.341766	145.200000
310.434998	144.980000
310.528259	144.840000
310.621490	145.360000
310.714722	144.540000
310.807983	144.580000
310.901215	144.580000
310.994476	145.100000
311.087708	144.280000
311.181000	144.660000
311.274200	144.420000
311.367462	144.840000
311.460693	144.400000
311.553986	145.180000
311.647186	145.460000
311.740479	146.120000
311.833710	145.660000
311.926971	145.800000
312.020203	145.160000
312.113464	144.800000
312.206726	144.180000
312.299957	144.620000
312.393219	144.980000
312.486481	145.340000
312.579712	145.640000
312.672974	146.000000
312.766235	145.640000
312.859497	145.560000
312.952759	145.360000
313.045990	146.000000
313.139252	145.480000
313.232513	145.920000
313.325775	146.020000
313.419037	146.060000
313.512299	144.980000
313.605530	145.680000
313.698822	145.660000
313.792053	145.440000
313.885345	145.220000
313.978577	145.560000
314.071869	145.120000
314.165131	145.260000
314.258392	145.420000
314.351654	145.520000
314.444916	145.120000
314.538177	145.620000
314.631439	145.560000
314.724701	145.480000
314.817993	145.400000
314.911255	145.660000
315.004517	145.280000
315.097778	145.180000
315.191040	145.600000
315.284302	146.020000
315.377594	145.800000
315.470856	145.700000
315.564117	145.300000
315.657379	144.660000
315.750671	144.280000
315.843933	144.820000
315.937195	144.220000
316.030518	144.340000
316.123749	144.320000
316.217041	145.060000
316.310303	144.960000
316.403595	145.540000
316.496857	145.880000
316.590149	146.320000
316.683411	145.480000
316.776703	145.300000
316.869965	145.540000
316.963257	145.260000
317.056519	144.540000
317.149811	144.300000
317.243073	144.300000
317.336365	144.380000
317.429626	144.820000
317.522919	145.560000
317.616180	145.920000
317.709473	145.580000
317.802765	145.340000
317.896027	145.040000
317.989319	145.200000
318.082611	145.300000
318.175873	145.420000
318.269165	145.420000
318.362488	145.360000
318.455750	144.980000
318.549042	145.020000
318.642303	145.560000
318.735626	145.460000
318.828888	145.780000
318.922211	145.420000
319.015472	146.100000
319.108765	145.380000
319.202057	145.280000
319.295349	145.180000
319.388641	145.700000
319.481934	145.240000
319.575226	145.360000
319.668518	145.460000
319.761810	145.540000
319.855103	145.320000
319.948395	145.120000
320.041687	145.520000
320.134979	145.440000
320.228271	145.000000
320.321564	144.920000
320.414856	144.900000
320.508148	144.600000
320.601440	144.760000
320.694763	144.600000
320.788025	145.540000
320.881348	145.800000
320.974640	145.720000
321.067963	145.260000
321.161224	145.680000
321.254547	144.840000
321.347839	145.180000
321.441162	145.000000
321.534454	145.540000
321.627747	145.080000
321.721069	145.300000
321.814362	145.220000
321.907654	145.440000
322.000946	145.440000
322.094269	146.180000
322.187561	146.020000
322.280884	145.960000
322.374176	145.940000
322.467468	146.180000
322.560791	146.140000
322.654083	146.580000
322.747406	146.520000
322.840698	146.960000
322.934021	147.200000
323.027344	147.060000
323.120636	146.460000
323.213959	146.320000
323.307251	145.720000
323.400574	145.220000
323.493866	145.120000
323.587219	145.360000
323.680511	145.980000
323.773834	146.140000
323.867157	146.080000
323.960449	146.120000
324.053772	146.020000
324.147095	145.400000
324.240387	146.180000
324.333710	146.420000
324.427032	146.500000
324.520355	146.300000
324.613647	146.320000
324.706970	145.480000
324.800293	145.300000
324.893616	145.620000
324.986938	146.100000
325.080231	145.640000
325.173553	146.360000
325.266876	146.920000
325.360199	146.560000
325.453522	146.020000
325.546875	146.180000
325.640167	146.020000
325.733521	145.820000
325.826813	146.380000
325.920166	146.340000
326.013489	146.280000
326.106812	145.220000
326.200134	144.580000
326.293457	143.420000
326.386780	143.640000
326.480103	143.500000
326.573425	143.980000
326.666748	144.320000
326.760071	145.340000
326.853424	145.540000
326.946747	145.760000
327.040070	146.580000
327.133392	146.620000
327.226715	145.720000
327.320068	145.040000
327.413391	145.700000
327.506714	144.920000
327.600037	144.760000
327.693390	145.240000
327.786713	145.480000
327.880066	144.920000
327.973358	145.400000
328.066742	145.940000
328.160034	145.860000
328.253418	146.300000
328.346710	145.960000
328.440063	145.500000
328.533417	145.240000
328.626740	145.600000
328.720093	145.420000
328.813416	145.700000
328.906769	145.600000
329.000092	145.520000
329.093445	145.240000
329.186768	145.080000
329.280121	145.480000
329.373444	145.960000
329.466797	145.980000
329.560120	146.080000
329.653473	146.160000
329.746796	145.660000
329.840149	145.540000
329.933502	145.500000
330.026825	145.220000
330.120178	145.040000
330.213562	144.900000
330.306854	144.720000
330.400238	144.500000
330.493561	144.320000
330.586945	145.080000
330.680237	145.700000
330.773621	145.600000
330.866974	145.740000
330.960327	146.100000
331.053680	145.820000
331.147003	145.740000
331.240356	146.200000
331.333710	146.280000
331.427063	146.140000
331.520416	145.800000
331.613770	145.700000
331.707123	145.660000
331.800476	145.680000
331.893829	146.540000
331.987152	146.720000
332.080505	146.580000
332.173859	146.220000
332.267212	145.900000
332.360565	145.040000
332.453918	144.860000
332.547333	144.620000
332.640656	144.960000
332.734039	144.960000
332.827362	144.820000
332.920746	145.340000
333.014069	145.600000
333.107452	145.760000
333.200806	146.120000
333.294159	146.540000
333.387543	145.760000
333.480896	145.440000
333.574249	145.120000
333.667603	144.920000
333.760956	145.000000
333.854340	145.300000
333.947693	145.420000
334.041046	145.580000
334.134430	145.940000
334.227783	145.440000
334.321136	145.340000
334.414520	145.240000
334.507874	145.320000
334.601227	145.300000
334.694611	145.500000
334.787964	145.600000
334.881348	145.940000
334.974701	145.880000
335.068085	145.420000
335.161438	145.500000
335.254822	145.420000
335.348175	145.480000
335.441559	144.840000
335.534943	145.460000
335.628296	145.420000
335.721680	145.480000
335.815033	145.540000
335.908417	146.320000
336.001770	146.320000
336.095154	146.220000
336.188538	145.800000
336.281891	145.380000
336.375275	144.600000
336.468658	143.860000
336.562012	143.880000
336.655396	144.780000
336.748779	145.000000
336.842133	145.380000
336.935516	146.060000
337.028900	145.620000
337.122284	145.220000
337.215637	145.500000
337.309021	145.340000
337.402435	144.900000
337.495789	145.200000
337.589203	145.080000
337.682526	144.760000
337.775940	145.220000
337.869324	145.440000
337.962708	145.080000
338.056091	145.300000
338.149475	144.940000
338.242859	144.940000
338.336243	144.400000
338.429626	144.740000
338.523010	144.920000
338.616394	145.120000
338.709778	145.120000
338.803162	145.540000
338.896545	145.680000
338.989929	145.360000
339.083313	145.600000
339.176697	145.240000
339.270081	145.440000
339.363464	145.740000
339.456848	145.940000
339.550232	145.580000
339.643616	145.560000
339.737030	145.420000
339.830383	145.040000
339.923828	144.980000
340.017181	145.060000
340.110596	145.280000
340.203949	145.060000
340.297363	144.880000
340.390778	144.640000
340.484161	144.880000
340.577545	144.620000
340.670959	144.800000
340.764343	144.900000
340.857727	145.080000
340.951111	144.460000
341.044525	144.800000
341.137909	144.560000
341.231293	144.600000
341.324707	144.300000
341.418091	145.180000
341.511505	145.300000
341.604889	145.720000
341.698303	145.960000
341.791687	146.140000
341.885071	145.720000
341.978485	145.420000
342.071899	145.280000
342.165283	145.480000
342.258698	145.760000
342.352081	146.280000
342.445496	146.660000
342.538879	146.400000
342.632324	146.140000
342.725708	146.000000
342.819122	145.360000
342.912506	144.940000
343.005920	145.100000
343.099335	146.000000
343.192719	145.980000
343.286133	146.220000
343.379547	146.720000
343.472931	146.840000
343.566345	145.720000
343.659760	146.020000
343.753143	145.680000
343.846558	144.980000
343.939972	145.280000
344.033386	146.080000
344.126770	145.700000
344.220184	145.920000
344.313599	146.460000
344.407043	145.980000
344.500427	145.300000
344.593872	145.720000
344.687225	145.460000
344.780670	144.900000
344.874054	144.720000
344.967499	145.000000
345.060913	144.820000
345.154327	145.140000
345.247742	145.100000
345.341156	145.320000
345.434570	144.960000
345.527985	144.740000
345.621399	144.740000
345.714813	144.920000
345.808228	145.200000
345.901642	145.220000
345.995056	145.280000
346.088470	145.380000
346.181885	145.460000
346.275299	144.900000
346.368713	144.800000
346.462128	144.700000
346.555573	144.680000
346.648987	145.020000
346.742401	145.320000
346.835815	145.700000
346.929260	145.560000
347.022644	145.760000
347.116119	145.520000
347.209503	145.920000
347.302948	146.700000
347.396362	147.320000
347.489807	147.200000
347.583221	147.880000
347.676636	147.220000
347.770050	146.160000
347.863495	145.420000
347.956909	145.200000
348.050323	144.400000
348.143768	144.520000
348.237183	144.320000
348.330597	145.200000
348.424042	145.440000
348.517456	146.080000
348.610901	146.260000
348.704315	146.360000
348.797760	145.320000
348.891174	144.760000
348.984619	143.920000
349.078033	144.180000
349.171448	144.740000
349.264923	145.280000
349.358337	145.300000
349.451782	145.620000
349.545197	145.180000
349.638641	144.540000
349.732086	144.020000
349.825500	144.680000
349.918945	144.500000
350.012390	145.020000
350.105804	145.780000
350.199249	146.240000
350.292664	146.520000
350.386108	146.920000
350.479553	147.000000
350.572968	146.640000
350.666412	146.900000
350.759857	146.560000
350.853302	146.700000
350.946716	146.100000
351.040161	146.140000
351.133606	145.640000
351.227081	145.400000
351.320465	146.040000
351.413940	146.120000
351.507355	146.260000
351.600830	146.600000
351.694244	146.420000
351.787720	145.780000
351.881104	145.900000
351.974579	145.620000
352.067993	146.320000
352.161469	146.380000
352.254883	145.700000
352.348358	145.580000
352.441803	145.580000
352.535248	144.920000
352.628693	145.400000
352.722137	145.380000
352.815582	145.820000
352.909027	146.140000
353.002472	145.820000
353.095917	145.340000
353.189362	145.860000
353.282806	145.480000
353.376251	145.180000
353.469696	145.080000
353.563141	145.800000
353.656586	145.600000
353.750061	145.140000
353.843475	145.040000
353.936981	145.480000
354.030396	144.800000
354.123871	144.780000
354.217285	145.960000
354.310760	146.280000
354.404175	146.220000
354.497681	146.040000
354.591095	146.220000
354.684570	145.360000
354.777985	145.220000
354.871490	145.160000
354.964935	145.740000
355.058380	145.700000
355.151855	145.340000
355.245300	145.700000
355.338745	145.760000
355.432220	145.480000
355.525665	144.880000
355.619110	145.580000
355.712585	145.360000
355.806030	145.060000
355.899475	144.640000
355.992950	145.360000
356.086426	145.560000
356.179871	145.500000
356.273346	145.640000
356.366791	146.120000
356.460266	146.280000
356.553711	145.720000
356.647186	145.860000
356.740631	145.940000
356.834106	145.640000
356.927551	145.420000
357.021027	145.440000
357.114471	145.400000
357.207947	145.520000
357.301422	145.820000
357.394867	145.640000
357.488342	145.640000
357.581818	145.420000
357.675262	145.600000
357.768738	145.320000
357.862213	144.880000
357.955658	144.840000
358.049133	144.440000
358.142609	144.020000
358.236053	143.940000
358.329529	144.340000
358.423035	145.000000
358.516449	145.040000
358.609955	145.860000
358.703400	146.480000
358.796906	146.540000
358.890350	145.780000
358.983826	146.320000
359.077271	145.200000
359.170776	144.860000
359.264221	144.680000
359.357727	145.200000
359.451172	145.300000
359.544647	145.800000
359.638123	145.600000
359.731598	146.080000
359.825073	146.260000
359.918549	146.040000
360.012024	145.920000
360.105499	145.680000
360.198975	145.360000
360.292450	145.020000
360.385925	144.880000
360.479401	144.400000
360.572876	144.840000
360.666351	145.220000
360.759857	145.260000
360.853302	145.360000
360.946808	145.440000
361.040253	145.480000
361.133759	144.900000
361.227203	144.960000
361.320709	144.760000
361.414154	145.140000
361.507660	145.100000
361.601105	145.680000
361.694641	146.180000
361.788086	146.340000
361.881592	146.780000
361.975067	146.520000
362.068542	146.600000
362.162018	146.200000
362.255524	145.800000
362.348999	145.740000
362.442474	146.160000
362.535950	145.760000
362.629456	145.640000
362.722931	145.700000
362.816406	145.800000
362.909882	146.100000
363.003387	146.000000
363.096863	146.440000
363.190338	146.640000
363.283875	146.340000
363.377319	145.880000
363.470825	146.260000
363.564301	145.660000
363.657806	145.660000
363.751282	145.300000
363.844788	146.240000
363.938232	145.660000
364.031769	146.240000
364.125214	146.520000
364.218750	147.140000
364.312225	145.760000
364.405731	146.200000
364.499207	145.460000
364.592712	145.100000
364.686188	144.980000
364.779694	145.420000
364.873169	145.220000
364.966675	145.420000
365.060150	145.500000
365.153656	145.600000
365.247131	145.620000
365.340637	145.900000
365.434143	146.080000
365.527618	146.440000
365.621155	145.720000
365.714600	145.660000
365.808136	145.620000
365.901611	144.860000
365.995117	144.200000
366.088593	144.420000
366.182129	144.280000
366.275604	144.060000
366.369110	144.640000
366.462585	144.640000
366.556122	145.220000
366.649567	145.240000
366.743103	145.580000
366.836609	145.280000
366.930115	145.740000
367.023590	145.800000
367.117096	145.820000
367.210602	145.780000
367.304108	146.580000
367.397614	147.060000
367.491119	147.040000
367.584595	147.460000
367.678101	147.320000
367.771606	146.660000
367.865112	145.960000
367.958649	145.080000
368.052124	144.540000
368.145660	144.460000
368.239136	145.220000
368.332672	145.400000
368.426147	145.820000
368.519684	145.740000
368.613159	146.040000
368.706696	145.380000
368.800171	145.320000
368.893707	145.380000
368.987183	145.740000
369.080719	145.820000
369.174225	145.600000
369.267731	145.800000
369.361237	145.420000
369.454742	145.120000
369.548248	145.100000
369.641754	145.160000
369.735260	145.220000
369.828766	144.700000
369.922272	145.240000
370.015808	144.960000
370.109314	144.840000
370.202820	144.160000
370.296356	145.560000
370.389832	144.900000
370.483368	144.420000
370.576874	144.380000
370.670410	145.120000
370.763885	144.240000
370.857422	144.480000
370.950928	144.760000
371.044464	145.280000
371.137939	145.060000
371.231476	145.240000
371.324982	145.780000
371.418518	145.940000
371.512024	145.740000
371.605560	145.580000
371.699066	145.820000
371.792572	145.320000
371.886108	145.540000
371.979614	145.480000
372.073120	145.980000
372.166656	145.700000
372.260162	146.120000
372.353668	145.920000
372.447205	145.560000
372.540710	145.220000
372.634277	145.300000
372.727753	145.140000
372.821320	145.060000
372.914795	145.420000
373.008362	145.540000
373.101837	145.420000
373.195404	145.320000
373.288879	145.220000
373.382446	146.080000
373.475922	145.840000
373.569489	146.840000
373.662964	147.220000
373.756531	147.480000
373.850037	146.960000
373.943573	146.880000
374.037109	145.660000
374.130615	145.540000
374.224152	145.500000
374.317657	145.140000
374.411194	146.000000
374.504730	146.320000
374.598236	146.100000
374.691772	145.940000
374.785309	146.220000
374.878815	145.420000
374.972351	145.800000
375.065887	145.620000
375.159454	146.220000
375.252930	145.900000
375.346497	146.000000
375.440002	146.200000
375.533569	146.080000
375.627045	145.220000
375.720612	145.400000
375.814117	145.820000
375.907684	145.360000
376.001160	145.260000
376.094727	145.100000
376.188232	145.700000
376.281799	145.620000
376.375336	145.420000
376.468872	146.160000
376.562408	146.960000
376.655914	146.360000
376.749451	145.900000
376.842987	146.300000
376.936523	145.880000
377.030060	145.480000
377.123596	145.540000
377.217133	145.440000
377.310669	145.320000
377.404205	145.780000
377.497772	146.280000
377.591278	146.280000
377.684845	147.140000
377.778351	147.600000
377.871918	147.280000
377.965424	146.560000
378.058990	146.420000
378.152496	145.800000
378.246063	145.740000
378.339569	145.740000
378.433136	145.760000
378.526642	145.760000
378.620209	145.800000
378.713745	145.180000
378.807312	145.520000
378.900848	145.520000
378.994385	145.720000
379.087921	145.200000
379.181458	145.660000
379.274994	145.000000
379.368530	145.040000
379.462097	145.180000
379.555634	145.940000
379.649170	144.800000
379.742706	144.660000
379.836273	144.720000
379.929810	144.160000
380.023376	143.500000
380.116882	144.060000
380.210449	144.260000
380.303986	143.840000
380.397552	144.020000
380.491058	144.260000
380.584656	144.140000
380.678162	144.120000
380.771729	144.460000
380.865265	145.120000
380.958832	145.380000
381.052368	145.760000
381.145935	146.240000
381.239471	146.700000
381.333008	145.860000
381.426575	145.740000
381.520111	146.060000
381.613647	146.000000
381.707214	145.600000
381.800751	145.500000
381.894318	145.520000
381.987854	144.840000
382.081421	144.660000
382.174988	144.720000
382.268524	144.800000
382.362091	144.900000
382.455627	145.540000
382.549194	145.540000
382.642731	145.140000
382.736298	144.900000
382.829834	144.840000
382.923401	145.080000
383.016937	145.000000
383.110504	145.560000
383.204041	145.960000
383.297607	146.220000
383.391174	145.380000
383.484741	146.020000
383.578278	145.580000
383.671844	145.180000
383.765411	144.500000
383.858948	145.180000
383.952515	144.740000
384.046051	145.280000
384.139618	146.000000
384.233185	146.520000
384.326721	146.280000
384.420288	146.520000
384.513855	146.420000
384.607422	146.280000
384.700989	146.480000
384.794525	146.120000
384.888123	146.060000
384.981659	146.100000
385.075226	145.860000
385.168762	145.200000
385.262360	145.500000
385.355896	144.820000
385.449463	144.480000
385.542999	144.860000
385.636597	145.540000
385.730164	145.500000
385.823730	145.280000
385.917267	145.140000
386.010834	145.040000
386.104401	144.980000
386.197968	145.440000
386.291534	146.120000
386.385101	146.260000
386.478668	146.220000
386.572235	145.840000
386.665802	145.140000
386.759338	144.620000
386.852905	144.480000
386.946472	144.280000
387.040070	144.500000
387.133606	144.640000
387.227203	144.540000
387.320740	144.780000
387.414337	144.540000
387.507874	144.460000
387.601471	144.640000
387.695007	144.880000
387.788605	144.700000
387.882141	144.940000
387.975739	144.820000
388.069275	144.280000
388.162872	144.720000
388.256439	144.640000
388.350037	144.540000
388.443604	144.580000
388.537170	144.820000
388.630737	145.000000
388.724304	145.060000
388.817871	144.920000
388.911438	145.120000
389.005005	145.340000
389.098602	145.680000
389.192169	145.620000
389.285736	146.400000
389.379333	146.380000
389.472870	145.980000
389.566467	145.340000
389.660034	145.540000
389.753632	145.020000
389.847168	145.020000
389.940765	145.500000
390.034332	145.480000
390.127930	144.940000
390.221466	144.980000
390.315063	144.460000
390.408630	143.820000
390.502228	143.040000
390.595795	143.620000
390.689362	143.560000
390.782959	144.080000
390.876526	144.600000
390.970093	144.920000
391.063690	145.320000
391.157257	145.440000
391.250824	145.620000
391.344421	145.480000
391.437988	146.160000
391.531555	146.160000
391.625153	146.240000
391.718750	146.520000
391.812317	146.300000
391.905914	146.120000
391.999481	145.740000
392.093079	145.820000
392.186615	145.740000
392.280243	145.840000
392.373779	145.880000
392.467407	146.220000
392.560944	145.880000
392.654572	145.280000
392.748108	145.400000
392.841736	145.300000
392.935303	145.100000
393.028900	145.060000
393.122467	145.200000
393.216064	144.940000
393.309631	144.320000
393.403229	144.160000
393.496796	144.260000
393.590393	143.560000
393.683990	144.020000
393.777557	144.880000
393.871155	145.020000
393.964722	145.340000
394.058350	146.000000
394.151917	145.800000
394.245514	145.420000
394.339081	145.660000
394.432678	145.720000
394.526245	145.700000
394.619873	145.340000
394.713409	145.580000
394.807037	145.160000
394.900604	145.260000
394.994202	145.180000
395.087769	145.580000
395.181396	145.080000
395.274994	146.080000
395.368561	145.380000
395.462158	145.840000
395.555756	145.580000
395.649353	146.180000
395.742920	145.380000
395.836517	146.220000
395.930115	145.440000
396.023712	145.860000
396.117279	145.900000
396.210876	145.640000
396.304474	145.580000
396.398071	146.140000
396.491669	146.320000
396.585266	146.060000
396.678833	146.020000
396.772461	145.840000
396.866028	145.600000
396.959656	145.660000
397.053223	146.060000
397.146851	146.260000
397.240417	146.680000
397.334015	147.440000
397.427582	147.420000
397.521210	147.800000
397.614807	148.780000
397.708405	149.620000
397.802002	150.720000
397.895599	153.320000
397.989197	155.740000
398.082794	159.080000
398.176392	163.320000
398.269989	167.760000
398.363586	173.040000
398.457184	180.680000
398.550781	188.700000
398.644379	196.780000
398.737976	207.100000
398.831573	218.000000
398.925201	228.280000
399.018768	239.340000
399.112396	251.280000
399.205963	262.600000
399.299591	275.260000
399.393158	289.600000
399.486786	305.140000
399.580353	321.360000
399.673981	338.700000
399.767578	356.080000
399.861206	372.660000
399.954773	388.680000
400.048401	400.280000
400.141998	408.560000
400.235596	413.240000
400.329193	413.080000
400.422791	409.580000
400.516418	405.700000
400.610016	401.580000
400.703613	396.020000
400.797211	388.820000
400.890808	380.040000
400.984436	369.460000
401.078033	355.300000
401.171631	338.040000
401.265259	319.540000
401.358826	299.980000
401.452484	279.800000
401.546051	260.680000
401.639679	241.840000
401.733246	225.740000
401.826904	210.320000
401.920471	197.080000
402.014099	185.980000
402.107697	177.480000
402.201324	170.300000
402.294891	165.140000
402.388550	161.020000
402.482147	157.660000
402.575745	154.880000
402.669373	152.300000
402.762970	150.140000
402.856567	149.100000
402.950195	148.060000
403.043793	147.500000
403.137390	147.840000
403.231018	147.020000
403.324615	147.120000
403.418243	146.520000
403.511841	146.720000
403.605469	146.460000
403.699066	146.980000
403.792694	146.880000
403.886292	147.140000
403.979919	146.740000
404.073517	146.180000
404.167145	146.520000
404.260712	146.260000
404.354370	145.840000
404.447937	146.220000
404.541595	146.460000
404.635162	146.400000
404.728821	146.820000
404.822418	146.580000
404.916046	146.140000
405.009644	146.440000
405.103271	146.720000
405.196899	146.380000
405.290497	146.840000
405.384125	147.200000
405.477722	146.580000
405.571350	146.000000
405.664948	145.900000
405.758575	145.700000
405.852203	145.340000
405.945801	145.420000
406.039429	145.720000
406.133057	145.480000
406.226654	145.340000
406.320312	145.100000
406.413879	145.400000
406.507538	145.380000
406.601135	144.920000
406.694763	145.620000
406.788361	145.440000
406.882019	145.060000
406.975586	145.220000
407.069244	146.660000
407.162872	146.120000
407.256470	146.200000
407.350098	146.280000
407.443726	145.780000
407.537323	144.600000
407.630951	144.980000
407.724579	144.980000
407.818207	145.500000
407.911804	145.440000
408.005432	145.500000
408.099060	145.720000
408.192688	146.380000
408.286285	146.140000
408.379913	145.860000
408.473572	146.160000
408.567169	145.400000
408.660828	145.020000
408.754395	144.840000
408.848053	145.060000
408.941650	145.040000
409.035309	144.820000
409.128906	144.700000
409.222565	144.880000
409.316132	145.140000
409.409790	144.980000
409.503387	145.320000
409.597046	145.320000
409.690674	145.240000
409.784302	145.160000
409.877930	145.000000
409.971558	144.960000
410.065186	144.900000
410.158783	144.840000
410.252411	144.880000
410.346039	145.220000
410.439667	145.060000
410.533295	145.700000
410.626923	145.640000
410.720551	145.360000
410.814209	145.960000
410.907806	146.440000
411.001465	145.580000
411.095062	145.900000
411.188721	146.260000
411.282318	145.560000
411.375977	145.160000
411.469574	145.200000
411.563232	145.020000
411.656830	144.900000
411.750488	144.940000
411.844086	144.840000
411.937744	145.280000
412.031372	145.100000
412.125000	145.000000
412.218628	145.020000
412.312256	146.000000
412.405884	146.180000
412.499512	145.840000
412.593170	146.160000
412.686798	146.320000
412.780426	145.560000
412.874054	145.800000
412.967682	146.200000
413.061310	146.460000
413.154968	146.500000
413.248566	146.440000
413.342224	146.100000
413.435852	146.360000
413.529510	145.880000
413.623108	144.980000
413.716766	145.180000
413.810364	145.400000
413.904022	144.900000
413.997650	144.540000
414.091309	145.560000
414.184906	145.460000
414.278564	145.000000
414.372192	145.620000
414.465851	146.120000
414.559479	145.680000
414.653107	146.480000
414.746735	146.520000
414.840393	146.220000
414.934021	146.460000
415.027649	146.240000
415.121277	145.960000
415.214935	146.180000
415.308563	146.240000
415.402191	145.540000
415.495850	145.620000
415.589478	144.980000
415.683136	145.000000
415.776733	145.040000
415.870422	145.840000
415.964020	145.340000
416.057678	145.620000
416.151306	145.160000
416.244965	144.820000
416.338562	144.440000
416.432251	145.400000
416.525848	146.140000
416.619507	146.720000
416.713165	147.360000
416.806793	147.180000
416.900421	147.000000
416.994080	145.960000
417.087708	145.400000
417.181366	144.860000
417.274994	144.780000
417.368622	144.900000
417.462280	145.660000
417.555908	146.220000
417.649567	146.100000
417.743195	146.300000
417.836853	146.160000
417.930481	146.180000
418.024170	145.920000
418.117767	146.580000
418.211426	146.760000
418.305054	146.820000
418.398712	146.240000
418.492340	146.480000
418.585999	146.420000
418.679626	146.340000
418.773285	146.580000
418.866913	146.860000
418.960571	147.060000
419.054230	147.060000
419.147858	147.440000
419.241516	147.400000
419.335144	146.940000
419.428802	146.520000
419.522461	146.080000
419.616089	145.480000
419.709747	145.500000
419.803375	145.680000
419.897034	145.680000
419.990662	145.560000
420.084320	145.840000
420.177979	146.080000
420.271606	146.540000
420.365295	146.840000
420.458893	147.200000
420.552582	147.440000
420.646210	147.300000
420.739868	146.960000
420.833496	146.840000
420.927155	146.420000
421.020782	146.040000
421.114471	145.120000
421.208069	145.320000
421.301758	145.280000
421.395386	145.640000
421.489044	145.660000
421.582703	146.100000
421.676361	146.420000
421.769989	146.040000
421.863647	146.400000
421.957306	146.600000
422.050934	146.940000
422.144592	146.280000
422.238251	146.020000
422.331909	145.220000
422.425537	145.060000
422.519196	144.760000
422.612854	144.580000
422.706543	144.740000
422.800140	145.220000
422.893829	144.820000
422.987457	144.360000
423.081146	144.440000
423.174744	145.240000
423.268433	144.880000
423.362061	144.980000
423.455750	145.360000
423.549347	145.620000
423.643036	144.980000
423.736664	145.560000
423.830353	145.420000
423.924011	145.680000
424.017639	145.280000
424.111298	145.080000
424.204956	144.880000
424.298615	145.420000
424.392273	145.480000
424.485931	145.720000
424.579559	146.020000
424.673218	145.940000
424.766876	145.740000
424.860535	145.060000
424.954193	144.920000
425.047882	145.300000
425.141510	145.440000
425.235199	145.540000
425.328796	145.500000
425.422485	145.400000
425.516113	144.460000
425.609802	144.480000
425.703430	144.420000
425.797119	144.700000
425.890747	144.940000
425.984436	145.580000
426.078064	145.400000
426.171753	145.520000
426.265411	145.240000
426.359070	145.360000
426.452728	145.240000
426.546356	145.360000
426.640015	145.120000
426.733673	145.420000
426.827332	145.120000
426.920990	145.780000
427.014648	145.540000
427.108307	145.760000
427.201965	146.220000
427.295624	146.480000
427.389282	145.440000
427.482941	145.600000
427.576630	145.500000
427.670258	144.780000
427.763947	144.520000
427.857574	144.880000
427.951263	144.640000
428.044922	144.540000
428.138611	144.760000
428.232239	145.260000
428.325928	145.740000
428.419556	146.300000
428.513245	146.000000
428.606903	146.480000
428.700562	145.800000
428.794220	145.160000
428.887878	144.600000
428.981537	144.900000
429.075195	144.760000
429.168854	145.580000
429.262512	145.980000
429.356201	146.220000
429.449860	146.260000
429.543518	146.060000
429.637177	146.000000
429.730835	145.860000
429.824493	145.860000
429.918182	146.000000
430.011810	145.500000
430.105530	144.900000
430.199158	145.000000
430.292847	144.880000
430.386475	144.520000
430.480164	144.620000
430.573792	144.260000
430.667511	144.240000
430.761139	144.420000
430.854828	144.920000
430.948456	145.180000
431.042145	146.020000
431.135834	145.640000
431.229492	145.420000
431.323151	145.420000
431.416809	145.640000
431.510468	145.320000
431.604156	145.100000
431.697815	145.380000
431.791473	144.840000
431.885132	144.460000
431.978821	145.120000
432.072479	145.760000
432.166138	145.800000
432.259827	145.820000
432.353485	146.060000
432.447174	145.580000
432.540802	145.100000
432.634491	145.360000
432.728149	145.740000
432.821838	146.540000
432.915466	145.940000
433.009186	145.980000
433.102814	145.000000
433.196503	144.880000
433.290131	144.440000
433.383850	145.200000
433.477509	145.340000
433.571167	146.520000
433.664856	146.740000
433.758514	146.920000
433.852173	146.660000
433.945862	146.540000
434.039520	146.160000
434.133179	145.580000
434.226868	145.200000
434.320526	144.920000
434.414185	145.640000
434.507874	145.040000
434.601562	145.460000
434.695221	145.340000
434.788910	145.660000
434.882538	145.620000
434.976257	145.280000
435.069885	145.280000
435.163574	145.280000
435.257233	145.060000
435.350922	144.740000
435.444580	145.040000
435.538269	144.820000
435.631897	145.240000
435.725616	145.760000
435.819275	146.080000
435.912964	146.620000
436.006622	146.960000
436.100311	146.700000
436.193970	145.960000
436.287628	145.760000
436.381317	145.440000
436.474976	145.140000
436.568665	144.720000
436.662323	144.840000
436.756012	144.720000
436.849670	144.280000
436.943390	144.260000
437.037018	144.320000
437.130737	144.660000
437.224365	144.420000
437.318085	145.020000
437.411713	145.220000
437.505432	145.800000
437.599060	146.100000
437.692780	146.720000
437.786407	146.500000
437.880127	146.340000
437.973755	145.880000
438.067474	145.240000
438.161133	144.880000
438.254822	145.640000
438.348480	145.760000
438.442169	146.380000
438.535828	146.840000
438.629517	146.520000
438.723175	145.380000
438.816864	145.540000
438.910553	145.000000
439.004211	144.900000
439.097900	144.880000
439.191559	145.580000
439.285248	145.100000
439.378906	145.320000
439.472626	145.120000
439.566284	145.360000
439.659973	145.660000
439.753632	145.520000
439.847321	145.880000
439.940979	145.760000
440.034698	145.820000
440.128326	144.800000
440.222046	144.980000
440.315674	144.180000
440.409393	144.480000
440.503082	144.220000
440.596741	144.600000
440.690430	144.860000
440.784088	144.840000
440.877777	144.140000
440.971466	144.320000
441.065125	144.100000
441.158813	143.820000
441.252502	144.020000
441.346161	144.520000
441.439850	144.740000
441.533539	145.080000
441.627197	145.600000
441.720886	145.540000
441.814606	146.040000
441.908234	146.300000
442.001953	146.040000
442.095612	145.740000
442.189301	146.140000
442.282959	145.920000
442.376678	145.020000
442.470306	145.740000
442.564026	145.800000
442.657684	145.780000
442.751404	145.680000
442.845032	146.940000
442.938751	146.420000
443.032440	146.480000
443.126099	145.980000
443.219788	146.560000
443.313477	146.160000
443.407166	146.280000
443.500824	146.100000
443.594513	146.280000
443.688202	145.640000
443.781891	144.820000
443.875549	144.380000
443.969238	144.760000
444.062927	144.880000
444.156647	144.660000
444.250275	145.380000
444.343994	145.920000
444.437653	145.620000
444.531372	145.720000
444.625031	145.720000
444.718719	145.380000
444.812378	145.280000
444.906097	145.000000
444.999756	144.340000
445.093445	144.760000
445.187103	144.780000
445.280823	145.400000
445.374512	145.120000
445.468201	145.360000
445.561859	145.100000
445.655548	145.140000
445.749237	144.040000
445.842926	144.700000
445.936615	145.620000
446.030304	145.400000
446.123962	145.760000
446.217651	146.240000
446.311340	146.560000
446.405029	145.860000
446.498749	146.040000
446.592407	145.640000
446.686096	145.640000
446.779755	145.460000
446.873474	145.800000
446.967133	145.940000
447.060852	145.700000
447.154510	145.660000
447.248230	145.500000
447.341858	145.400000
447.435577	145.040000
447.529236	144.880000
447.622955	144.580000
447.716644	144.440000
447.810333	144.140000
447.904022	144.860000
447.997711	145.060000
448.091400	145.520000
448.185059	145.600000
448.278748	146.180000
448.372437	145.540000
448.466125	145.940000
448.559814	145.720000
448.653503	146.060000
448.747192	146.040000
448.840912	146.800000
448.934570	146.640000
449.028290	146.960000
449.121948	146.660000
449.215637	146.220000
449.309296	145.500000
449.403015	145.520000
449.496674	145.540000
449.590393	145.540000
449.684052	145.500000
449.777771	146.620000
449.871429	146.180000
449.965149	146.140000
450.058838	146.580000
450.152527	147.220000
450.246216	146.520000
450.339905	146.960000
450.433594	146.600000
450.527283	146.860000
450.620972	146.240000
450.714661	146.280000
450.808350	146.160000
450.902039	146.700000
450.995728	146.040000
451.089417	145.880000
451.183105	145.720000
451.276794	145.900000
451.370514	145.220000
451.464172	144.440000
451.557892	144.420000
451.651550	144.660000
451.745270	144.660000
451.838928	144.440000
451.932648	145.420000
452.026306	146.060000
452.120026	145.680000
452.213684	145.860000
452.307404	146.220000
452.401062	146.120000
452.494781	145.880000
452.588470	145.880000
452.682159	145.560000
452.775848	145.540000
452.869537	145.040000
452.963226	144.600000
453.056915	144.740000
453.150604	144.840000
453.244293	145.020000
453.337982	145.860000
453.431671	146.580000
453.525360	146.980000
453.619049	147.000000
453.712769	146.860000
453.806427	146.320000
453.900146	145.660000
453.993805	145.120000
454.087555	145.580000
454.181213	145.700000
454.274933	145.660000
454.368591	145.660000
454.462311	145.860000
454.555969	145.200000
454.649689	145.960000
454.743347	145.680000
454.837067	146.620000
454.930756	147.060000
455.024445	147.240000
455.118134	146.640000
455.211853	147.200000
455.305542	146.540000
455.399231	145.800000
455.492920	145.780000
455.586609	145.720000
455.680298	145.640000
455.773987	145.460000
455.867676	145.760000
455.961365	146.000000
456.055084	146.000000
456.148773	145.620000
456.242493	145.780000
456.336151	145.860000
456.429871	145.900000
456.523529	146.140000
456.617249	145.980000
456.710907	146.560000
456.804626	146.480000
456.898315	145.840000
456.992035	145.900000
457.085693	146.020000
457.179413	144.840000
457.273102	145.780000
457.366791	145.860000
457.460480	145.780000
457.554199	146.520000
457.647888	146.900000
457.741577	146.080000
457.835266	146.500000
457.928955	146.540000
458.022644	146.400000
458.116364	146.800000
458.210052	146.680000
458.303741	146.760000
458.397461	145.880000
458.491119	145.220000
458.584839	145.140000
458.678528	144.800000
458.772247	144.140000
458.865906	144.760000
458.959625	145.880000
459.053284	145.960000
459.147003	146.140000
459.240692	146.940000
459.334412	146.960000
459.428070	146.040000
459.521790	145.680000
459.615479	145.540000
459.709198	145.560000
459.802887	145.180000
459.896576	145.060000
459.990265	145.300000
460.083954	145.480000
460.177673	144.900000
460.271362	145.060000
460.365051	145.200000
460.458740	144.860000
460.552429	144.580000
460.646149	144.540000
460.739838	144.420000
460.833527	144.480000
460.927246	144.460000
461.020905	144.480000
461.114655	144.680000
461.208313	145.040000
461.302032	144.840000
461.395691	145.140000
461.489441	145.420000
461.583099	145.300000
461.676819	144.840000
461.770477	145.320000
461.864197	144.840000
461.957916	144.620000
462.051605	144.080000
462.145294	145.040000
462.238983	144.560000
462.332703	145.280000
462.426392	145.680000
462.520081	146.160000
462.613770	145.400000
462.707489	145.740000
462.801178	145.420000
462.894867	145.060000
462.988556	145.080000
463.082275	145.200000
463.175964	144.820000
463.269684	145.140000
463.363342	145.020000
463.457092	144.480000
463.550751	144.800000
463.644470	145.220000
463.738129	145.100000
463.831879	145.360000
463.925537	146.760000
464.019257	146.700000
464.112946	146.340000
464.206665	145.640000
464.300323	145.560000
464.394043	144.540000
464.487762	144.340000
464.581451	144.780000
464.675140	145.620000
464.768829	145.900000
464.862549	146.400000
464.956238	146.760000
465.049927	146.800000
465.143646	146.620000
465.237335	146.320000
465.331024	146.540000
465.424713	146.320000
465.518433	146.040000
465.612152	145.640000
465.705811	145.840000
465.799561	145.420000
465.893219	145.160000
465.986938	145.340000
466.080597	145.700000
466.174347	145.760000
466.268005	145.980000
466.361725	145.860000
466.455414	145.620000
466.549133	145.300000
466.642792	145.700000
466.736542	145.120000
466.830231	145.300000
466.923920	145.220000
467.017609	145.540000
467.111328	144.780000
467.205017	144.980000
467.298706	145.100000
467.392426	145.480000
467.486115	145.440000
467.579803	145.380000
467.673523	145.960000
467.767212	146.020000
467.860901	145.760000
467.954651	145.740000
468.048309	146.040000
468.142029	145.840000
468.235718	145.880000
468.329437	145.740000
468.423096	145.620000
468.516846	145.700000
468.610504	145.200000
468.704224	144.920000
468.797913	145.000000
468.891632	145.160000
468.985291	145.140000
469.079010	145.380000
469.172729	144.860000
469.266418	145.340000
469.360107	145.460000
469.453827	144.760000
469.547516	144.620000
469.641205	145.320000
469.734924	144.960000
469.828613	145.180000
469.922302	145.980000
470.016022	146.060000
470.109711	145.700000
470.203430	145.460000
470.297150	144.520000
470.390808	144.520000
470.484558	144.360000
470.578217	144.900000
470.671936	145.620000
470.765625	146.580000
470.859344	146.120000
470.953003	146.420000
471.046753	146.000000
471.140411	145.180000
471.234131	144.940000
471.327820	145.440000
471.421539	145.280000
471.515228	144.940000
471.608948	144.980000
471.702637	144.540000
471.796326	144.120000
471.890045	144.420000
471.983734	144.660000
472.077423	144.880000
472.171143	145.200000
472.264832	145.180000
472.358521	144.920000
472.452240	144.840000
472.545929	145.420000
472.639648	145.760000
472.733337	146.420000
472.827057	146.740000
472.920746	147.240000
473.014465	147.140000
473.108124	146.940000
473.201874	146.880000
473.295532	146.340000
473.389252	146.240000
473.482941	146.000000
473.576660	145.600000
473.670319	145.260000
473.764069	146.040000
473.857727	146.400000
473.951477	146.500000
474.045166	147.180000
474.138855	147.080000
474.232574	146.620000
474.326263	146.240000
474.419952	146.460000
474.513672	146.160000
474.607361	145.940000
474.701050	146.160000
474.794769	146.620000
474.888458	146.600000
474.982178	146.680000
475.075867	147.040000
475.169586	146.520000
475.263275	145.960000
475.356995	145.640000
475.450653	145.200000
475.544403	144.820000
475.638062	146.100000
475.731812	145.940000
475.825470	145.840000
475.919189	146.220000
476.012878	146.500000
476.106598	145.360000
476.200256	145.820000
476.294006	145.760000
476.387695	145.600000
476.481384	145.540000
476.575104	145.820000
476.668793	145.060000
476.762512	144.860000
476.856201	145.080000
476.949890	144.860000
477.043610	144.180000
477.137299	144.420000
477.230988	145.040000
477.324707	144.880000
477.418396	145.560000
477.512146	145.940000
477.605804	146.100000
477.699524	146.080000
477.793213	145.960000
477.886932	145.560000
477.980591	145.600000
478.074341	145.360000
478.167999	144.900000
478.261749	144.940000
478.355408	144.560000
478.449127	144.680000
478.542816	145.700000
478.636536	146.320000
478.730225	146.420000
478.823944	147.320000
478.917633	147.220000
479.011322	146.880000
479.105042	146.580000
479.198730	146.740000
479.292450	145.980000
479.386139	146.360000
479.479828	146.360000
479.573547	146.660000
479.667267	146.640000
479.760925	146.880000
479.854675	146.840000
479.948334	146.780000
480.042084	146.320000
480.135742	146.560000
480.229462	146.220000
480.323151	146.240000
480.416870	145.640000
480.510529	145.620000
480.604279	144.880000
480.697937	145.740000
480.791656	145.200000
480.885345	145.180000
480.979065	145.220000
481.072754	146.020000
481.166473	146.260000
481.260132	146.500000
481.353882	146.680000
481.447540	146.520000
481.541260	146.120000
481.635010	145.280000
481.728668	145.060000
481.822388	145.240000
481.916077	145.560000
482.009796	145.700000
482.103485	146.100000
482.197205	146.400000
482.290863	146.240000
482.384613	146.060000
482.478271	145.740000
482.571991	145.680000
482.665680	145.560000
482.759399	146.480000
482.853058	146.740000
482.946808	146.820000
483.040466	146.420000
483.134216	146.300000
483.227875	145.320000
483.321594	145.620000
483.415283	145.420000
483.509003	145.360000
483.602661	145.260000
483.696411	145.700000
483.790070	145.160000
483.883789	145.120000
483.977478	145.420000
484.071198	145.580000
484.164917	145.060000
484.258606	144.800000
484.352325	145.460000
484.445984	145.620000
484.539734	145.440000
484.633392	145.260000
484.727142	145.820000
484.820801	145.100000
484.914520	144.840000
485.008209	145.120000
485.101929	145.500000
485.195587	145.140000
485.289337	145.360000
485.382996	145.500000
485.476715	145.640000
485.570404	146.340000
485.664124	146.400000
485.757782	147.200000
485.851532	146.880000
485.945190	146.660000
486.038910	146.400000
486.132599	146.760000
486.226318	145.400000
486.319977	145.720000
486.413727	146.260000
486.507446	145.820000
486.601105	145.100000
486.694855	145.500000
486.788513	145.020000
486.882233	144.460000
486.975922	144.580000
487.069641	144.740000
487.163300	144.460000
487.257050	145.740000
487.350708	145.540000
487.444427	145.300000
487.538116	145.120000
487.631836	145.400000
487.725494	145.000000
487.819214	145.360000
487.912903	145.080000
488.006622	145.680000
488.100281	146.180000
488.194031	145.700000
488.287689	145.820000
488.381409	146.760000
488.475098	146.460000
488.568817	146.340000
488.662476	146.120000
488.756226	145.800000
488.849945	145.180000
488.943604	145.340000
489.037354	145.420000
489.131012	145.480000
489.224731	145.200000
489.318390	144.920000
489.412140	144.980000
489.505798	144.540000
489.599518	144.040000
489.693207	144.680000
489.786926	144.580000
489.880585	144.280000
489.974335	145.020000
490.067993	146.460000
490.161713	146.500000
490.255371	147.520000
490.349121	147.680000
490.442780	147.220000
490.536499	146.200000
490.630188	146.340000
490.723907	145.760000
490.817566	145.880000
490.911285	145.860000
491.004974	145.840000
491.098694	145.120000
491.192413	145.880000
491.286102	145.580000
491.379822	145.540000
491.473480	146.000000
491.567200	146.180000
491.660889	144.820000
491.754608	145.020000
491.848267	145.020000
491.941986	144.960000
492.035675	145.040000
492.129395	145.920000
492.223053	145.800000
492.316772	145.860000
492.410461	145.660000
492.504181	145.740000
492.597839	145.560000
492.691559	145.540000
492.785248	145.520000
492.878967	145.680000
492.972626	145.360000
493.066345	145.320000
493.160034	144.820000
493.253754	144.780000
493.347412	144.380000
493.441132	144.720000
493.534882	145.180000
493.628540	145.960000
493.722260	146.300000
493.815918	146.660000
493.909668	147.240000
494.003326	147.180000
494.097046	147.080000
494.190704	146.620000
494.284454	146.900000
494.378113	146.400000
494.471832	146.280000
494.565491	145.660000
494.659210	145.760000
494.752899	145.280000
494.846619	145.200000
494.940277	145.240000
495.033997	145.440000
495.127686	145.280000
495.221405	145.100000
495.315063	145.120000
495.408783	144.800000
495.502441	145.160000
495.596191	145.180000
495.689850	145.200000
495.783569	145.480000
495.877228	145.560000
495.970947	145.240000
496.064697	145.280000
496.158356	146.160000
496.252075	146.160000
496.345734	146.260000
496.439453	147.060000
496.533142	147.080000
496.626862	147.100000
496.720520	146.820000
496.814240	146.660000
496.907898	146.300000
497.001617	146.660000
497.095306	145.760000
497.189026	145.680000
497.282684	145.860000
497.376404	145.820000
497.470062	145.580000
497.563782	145.580000
497.657471	145.420000
497.751190	145.100000
497.844849	144.940000
497.938568	145.040000
498.032227	145.400000
498.125946	145.540000
498.219635	145.440000
498.313354	145.780000
498.407074	145.420000
498.500732	145.360000
498.594452	145.520000
498.688110	145.280000
498.781830	144.680000
498.875519	144.780000
498.969238	144.800000
499.062897	144.720000
499.156616	145.460000
499.250275	145.740000
499.343994	145.340000
499.437653	145.120000
499.531372	145.260000
499.625061	145.380000
499.718781	145.380000
499.812439	146.020000
499.906158	146.040000
499.999817	145.380000
500.093536	144.940000
500.187195	144.940000
500.280914	144.920000
500.374573	145.160000
500.468323	145.480000
500.561981	145.880000
500.655701	145.580000
500.749420	145.360000
500.843079	145.580000
500.936798	145.800000
501.030457	145.920000
501.124176	146.240000
501.217834	146.220000
501.311554	145.860000
501.405212	145.620000
501.498962	144.820000
501.592621	144.700000
501.686340	144.940000
501.779999	144.960000
501.873718	145.280000
501.967377	145.820000
502.061096	146.020000
502.154755	145.640000
502.248474	145.860000
502.342133	145.840000
502.435852	145.620000
502.529510	146.300000
502.623230	147.200000
502.716888	146.520000
502.810608	146.400000
502.904266	146.920000
502.997986	146.080000
503.091705	145.180000
503.185364	145.400000
503.279083	145.420000
503.372772	145.160000
503.466492	144.940000
503.560150	145.120000
503.653870	145.560000
503.747528	145.500000
503.841248	145.320000
503.934906	145.760000
504.028625	145.400000
504.122284	145.520000
504.216003	146.120000
504.309662	145.800000
504.403381	145.920000
504.497040	146.260000
504.590759	145.740000
504.684418	145.760000
504.778137	146.500000
504.871796	146.620000
504.965515	146.380000
505.059174	146.580000
505.152893	145.840000
505.246521	145.020000
505.340240	144.540000
505.433899	144.840000
505.527618	144.980000
505.621338	145.560000
505.714996	145.640000
505.808716	145.780000
505.902374	146.300000
505.996094	146.160000
506.089752	145.620000
506.183472	145.800000
506.277130	145.800000
506.370850	145.340000
506.464508	145.140000
506.558228	145.480000
506.651886	145.260000
506.745605	145.360000
506.839264	145.280000
506.932983	145.700000
507.026611	145.220000
507.120331	145.900000
507.213989	145.560000
507.307709	145.680000
507.401367	145.900000
507.495087	147.080000
507.588745	146.440000
507.682465	146.940000
507.776123	147.040000
507.869843	146.560000
507.963531	145.880000
508.057190	146.480000
508.150909	146.020000
508.244568	145.980000
508.338287	145.880000
508.431946	145.600000
508.525665	145.300000
508.619324	145.180000
508.713013	145.180000
508.806671	145.560000
508.900391	146.440000
508.994049	146.680000
509.087769	146.600000
509.181427	146.500000
509.275146	146.260000
509.368774	145.380000
509.462494	145.060000
509.556152	145.280000
509.649872	145.820000
509.743530	145.960000
509.837250	145.960000
509.930878	145.900000
510.024597	145.800000
510.118256	145.240000
510.211975	145.040000
510.305695	145.020000
510.399353	145.300000
510.493042	145.940000
510.586700	145.940000
510.680420	146.500000
510.774078	146.600000
510.867798	146.760000
510.961426	146.240000
511.055145	146.340000
511.148804	145.640000
511.242523	146.260000
511.336151	146.120000
511.429871	146.160000
511.523529	145.920000
511.617249	145.820000
511.710876	145.200000
511.804596	144.760000
511.898254	144.760000
511.991974	145.060000
512.085632	145.140000
512.179321	145.440000
512.272949	146.100000
512.366699	146.360000
512.460327	146.180000
512.554077	147.080000
512.647766	146.560000
512.741394	146.180000
512.835144	146.500000
512.928772	146.100000
513.022461	145.620000
513.116150	145.560000
513.209839	145.980000
513.303467	145.280000
513.397217	145.180000
513.490845	145.280000
513.584595	145.120000
513.678223	144.560000
513.771912	144.380000
513.865601	144.880000
513.959290	144.260000
514.052917	144.600000
514.146667	145.420000
514.240295	145.800000
514.333984	145.960000
514.427673	146.060000
514.521362	146.580000
514.614990	145.600000
514.708740	145.780000
514.802368	145.880000
514.896057	145.960000
514.989746	146.340000
515.083435	146.260000
515.177124	146.220000
515.270752	145.840000
515.364502	145.960000
515.458130	146.080000
515.551819	146.280000
515.645508	146.180000
515.739197	146.320000
515.832825	146.460000
515.926575	145.220000
516.020203	145.740000
516.113892	146.100000
516.207520	146.020000
516.301270	145.900000
516.394897	146.540000
516.488586	146.680000
516.582275	146.480000
516.675964	146.240000
516.769592	145.820000
516.863281	146.340000
516.956970	146.360000
517.050659	146.120000
517.144287	146.220000
517.238037	146.720000
517.331665	145.780000
517.425354	145.180000
517.519043	145.180000
517.612732	145.520000
517.706421	145.440000
517.800049	145.460000
517.893738	145.120000
517.987427	144.680000
518.081116	144.300000
518.174744	143.940000
518.268433	144.060000
518.362122	145.220000
518.455811	145.360000
518.549438	145.880000
518.643127	146.880000
518.736816	146.680000
518.830505	145.660000
518.924133	145.900000
519.017822	146.140000
519.111511	145.400000
519.205200	145.960000
519.298828	146.120000
519.392517	145.880000
519.486206	145.680000
519.579895	145.860000
519.673523	145.860000
519.767212	145.940000
519.860901	146.480000
519.954590	146.100000
520.048279	145.620000
520.141907	145.040000
520.235596	145.960000
520.329224	146.060000
520.422974	146.360000
520.516602	146.820000
520.610291	146.880000
520.703918	146.400000
520.797607	146.060000
520.891296	145.780000
520.984985	145.840000
521.078613	146.640000
521.172302	145.960000
521.265930	146.500000
521.359680	146.700000
521.453308	146.460000
521.546997	145.760000
521.640625	146.340000
521.734314	145.860000
521.827942	145.800000
521.921692	146.000000
522.015320	146.200000
522.109009	145.600000
522.202698	145.560000
522.296326	145.520000
522.390015	145.720000
522.483704	145.520000
522.577393	145.700000
522.671021	145.420000
522.764709	145.320000
522.858337	145.580000
522.952026	145.820000
523.045654	146.500000
523.139404	147.320000
523.233032	147.600000
523.326721	146.800000
523.420349	146.640000
523.514038	145.960000
523.607666	145.680000
523.701355	145.100000
523.795044	145.280000
523.888733	145.420000
523.982361	145.720000
524.076050	145.480000
524.169678	145.720000
524.263367	145.440000
524.356995	144.880000
524.450684	144.640000
524.544373	144.660000
524.638062	144.960000
524.731750	145.300000
524.825378	145.580000
524.919067	145.320000
525.012695	145.160000
525.106384	144.720000
525.200012	144.780000
525.293701	144.580000
525.387329	145.220000
525.481018	145.600000
525.574646	145.820000
525.668396	145.980000
525.762024	146.340000
525.855713	146.200000
525.949341	145.720000
526.043030	145.580000
526.136658	144.880000
526.230347	144.860000
526.323975	144.460000
526.417664	144.280000
526.511292	144.580000
526.604980	144.920000
526.698608	144.380000
526.792297	144.520000
526.885925	145.220000
526.979614	145.060000
527.073303	145.160000
527.166931	145.780000
527.260620	146.040000
527.354309	145.980000
527.447998	146.020000
527.541626	145.800000
527.635315	145.800000
527.728943	146.220000
527.822632	146.240000
527.916260	146.440000
528.009949	146.740000
528.103577	146.460000
528.197266	145.580000
528.290894	145.540000
528.384583	145.460000
528.478210	145.540000
528.571899	146.020000
528.665527	146.640000
528.759216	146.680000
528.852844	146.820000
528.946533	146.500000
529.040161	146.060000
529.133850	145.800000
529.227478	145.840000
529.321167	145.880000
529.414856	146.320000
529.508484	146.820000
529.602173	146.420000
529.695801	146.240000
529.789490	145.880000
529.883057	145.680000
529.976746	145.660000
530.070374	146.480000
530.164062	146.460000
530.257690	146.720000
530.351379	146.820000
530.445007	146.340000
530.538696	145.380000
530.632324	145.920000
530.726013	145.920000
530.819641	145.740000
530.913330	146.220000
531.006958	146.460000
531.100647	145.960000
531.194275	145.520000
531.287964	145.500000
531.381592	145.200000
531.475220	145.600000
531.568848	145.480000
531.662537	145.520000
531.756226	145.820000
531.849854	145.460000
531.943542	145.240000
532.037170	144.740000
532.130859	145.380000
532.224487	144.900000
532.318176	144.880000
532.411804	145.280000
532.505432	145.920000
532.599060	145.300000
532.692749	145.100000
532.786377	145.480000
532.880066	144.680000
532.973694	144.360000
533.067383	144.300000
533.161011	144.540000
533.254639	144.700000
533.348267	144.900000
533.441956	145.000000
533.535583	145.180000
533.629272	145.240000
533.722900	144.520000
533.816589	144.600000
533.910156	144.880000
534.003845	144.660000
534.097534	145.080000
534.191162	145.920000
534.284851	146.040000
534.378479	145.540000
534.472107	145.700000
534.565735	145.140000
534.659424	145.340000
534.753052	145.460000
534.846741	145.440000
534.940369	146.000000
535.033997	146.040000
535.127625	145.500000
535.221313	145.740000
535.314941	145.620000
535.408630	144.460000
535.502197	144.820000
535.595886	144.740000
535.689514	144.380000
535.783203	145.080000
535.876831	146.300000
535.970459	146.200000
536.064087	145.920000
536.157776	145.820000
536.251404	145.560000
536.345093	145.040000
536.438721	145.120000
536.532349	145.700000
536.626038	145.620000
536.719666	145.960000
536.813293	145.560000
536.906921	145.500000
537.000610	145.420000
537.094238	145.660000
537.187866	145.480000
537.281494	145.520000
537.375183	145.480000
537.468811	145.200000
537.562439	145.060000
537.656067	144.660000
537.749756	144.900000
537.843384	145.520000
537.937012	146.060000
538.030640	145.780000
538.124329	146.040000
538.217896	146.360000
538.311584	146.260000
538.405212	146.000000
538.498901	146.440000
538.592468	147.320000
538.686157	146.720000
538.779785	145.780000
538.873413	145.640000
538.967102	145.280000
539.060730	144.500000
539.154358	145.280000
539.247986	145.840000
539.341675	145.760000
539.435242	145.940000
539.528931	145.560000
539.622559	144.860000
539.716187	145.260000
539.809814	145.340000
539.903503	145.080000
539.997070	145.160000
540.090759	145.520000
540.184387	145.080000
540.278015	145.420000
540.371643	145.940000
540.465332	146.180000
540.558899	146.020000
540.652588	146.040000
540.746216	145.660000
540.839844	145.900000
540.933472	145.840000
541.027100	145.640000
541.120728	145.900000
541.214417	146.000000
541.308044	145.780000
541.401672	145.560000
541.495300	145.480000
541.588928	145.060000
541.682617	144.940000
541.776184	144.660000
541.869873	144.960000
541.963440	145.220000
542.057129	145.380000
542.150757	145.420000
542.244385	145.240000
542.338013	144.820000
542.431641	144.740000
542.525269	144.740000
542.618958	145.160000
542.712524	145.200000
542.806213	145.360000
542.899780	145.740000
542.993469	145.400000
543.087036	144.860000
543.180725	144.360000
543.274292	144.700000
543.367981	144.620000
543.461548	144.820000
543.555237	144.640000
543.648926	145.820000
543.742493	146.380000
543.836182	146.540000
543.929749	146.480000
544.023437	146.740000
544.117004	146.200000
544.210693	145.720000
544.304260	145.500000
544.397949	145.540000
544.491516	145.860000
544.585205	145.920000
544.678772	145.620000
544.772461	145.940000
544.866028	145.640000
544.959717	145.460000
545.053284	145.300000
545.146973	145.660000
545.240540	145.260000
545.334229	146.180000
545.427795	146.340000
545.521423	146.560000
545.615051	146.300000
545.708679	146.840000
545.802307	146.360000
545.895935	146.740000
545.989624	147.600000
546.083191	147.560000
546.176880	147.420000
546.270447	147.100000
546.364136	147.340000
546.457703	146.580000
546.551331	146.740000
546.644958	146.520000
546.738586	147.080000
546.832214	146.260000
546.925842	146.060000
547.019409	146.340000
547.113098	146.020000
547.206665	145.620000
547.300354	145.780000
547.393921	146.020000
547.487549	146.040000
547.581177	145.960000
547.674805	145.940000
547.768433	145.400000
547.862061	145.560000
547.955627	145.020000
548.049316	145.920000
548.142883	146.220000
548.236572	146.940000
548.330139	146.840000
548.423767	146.660000
548.517456	146.080000
548.611023	146.140000
548.704651	145.420000
548.798279	145.200000
548.891907	145.700000
548.985474	145.560000
549.079163	145.520000
549.172729	145.580000
549.266357	145.300000
549.359985	145.240000
549.453613	144.840000
549.547180	144.580000
549.640869	145.000000
549.734436	145.280000
549.828064	145.520000
549.921631	145.780000
550.015320	145.860000
550.108887	146.140000
550.202515	146.020000
550.296143	145.540000
550.389771	145.800000
550.483337	145.740000
550.576965	145.380000
550.670593	145.780000
550.764221	145.820000
550.857849	145.780000
550.951477	145.380000
551.045105	144.920000
551.138672	144.500000
551.232300	144.320000
551.325928	144.440000
551.419556	144.620000
551.513123	145.300000
551.606750	145.260000
551.700378	145.520000
551.794006	145.360000
551.887573	145.440000
551.981201	145.420000
552.074768	145.420000
552.168457	145.040000
552.262024	145.980000
552.355652	145.980000
552.449219	146.560000
552.542847	146.560000
552.636475	146.520000
552.730103	145.340000
552.823669	145.280000
552.917297	144.260000
553.010864	144.540000
553.104553	144.820000
553.198181	144.660000
553.291748	145.120000
553.385376	145.560000
553.478943	145.380000
553.572571	145.380000
553.666199	145.660000
553.759827	145.040000
553.853394	144.500000
553.947021	144.680000
554.040588	144.700000
554.134216	144.920000
554.227783	145.720000
554.321411	146.580000
554.415039	145.720000
554.508667	145.480000
554.602234	145.540000
554.695862	144.960000
554.789429	144.620000
554.883057	145.300000
554.976624	145.560000
555.070251	145.560000
555.163818	145.560000
555.257507	145.360000
555.351074	145.440000
555.444702	146.540000
555.538330	146.260000
555.631897	146.700000
555.725525	146.820000
555.819092	146.380000
555.912720	144.780000
556.006287	145.280000
556.099915	144.860000
556.193481	144.980000
556.287109	145.400000
556.380676	145.840000
556.474304	145.840000
556.567871	146.200000
556.661499	145.480000
556.755066	145.680000
556.848694	145.860000
556.942261	145.700000
557.035889	145.860000
557.129517	146.280000
557.223145	146.600000
557.316711	146.620000
557.410339	146.520000
557.503906	146.060000
557.597473	146.560000
557.691040	145.920000
557.784668	145.580000
557.878296	145.620000
557.971863	145.840000
558.065491	145.640000
558.159058	145.840000
558.252686	146.860000
558.346252	147.380000
558.439880	146.980000
558.533447	146.340000
558.627075	145.800000
558.720642	144.940000
558.814270	144.360000
558.907837	144.640000
559.001465	144.820000
559.095032	145.780000
559.188660	146.200000
559.282227	145.640000
559.375854	146.120000
559.469360	145.840000
559.562988	145.760000
559.656555	145.700000
559.750183	146.040000
559.843750	146.020000
559.937378	146.600000
560.030945	146.500000
560.124573	0.000000
560.218140	0.000000
560.311707	0.000000
560.405334	0.000000
560.498901	0.000000
560.592529	0.000000
560.686096	0.000000
560.779724	0.000000
560.873291	0.000000
560.966858	0.000000
561.060425	0.000000
561.154053	0.000000
561.247620	0.000000
561.341248	0.000000
561.434814	0.000000
561.528381	0.000000
561.621948	0.000000
561.715576	0.000000
561.809143	0.000000
561.902771	0.000000
561.996277	0.000000
562.089905	0.000000
562.183472	0.000000
562.277100	0.000000
