Model Number: SPM-002-B   
Serial Number: 70087108
Firmware Version: 004.15.4
Exposure Time: 100000.000000us
Data Taken on: 11-12-2020 18:50:10.549
Wavelength	Amplitude
221.570786	0.000000
221.663406	0.000000
221.756027	0.000000
221.848648	0.000000
221.941269	0.000000
222.033905	0.000000
222.126526	0.000000
222.219162	0.000000
222.311798	0.000000
222.404419	0.000000
222.497055	0.000000
222.589676	0.000000
222.682312	0.000000
222.774933	0.000000
222.867569	0.000000
222.960205	0.000000
223.052841	0.000000
223.145462	0.000000
223.238098	0.000000
223.330734	0.000000
223.423386	0.000000
223.516022	0.000000
223.608658	0.000000
223.701309	0.000000
223.793945	0.000000
223.886581	0.000000
223.979218	0.000000
224.071869	0.000000
224.164505	0.000000
224.257156	0.000000
224.349792	0.000000
224.442444	0.000000
224.535095	0.000000
224.627747	0.000000
224.720398	0.000000
224.813034	0.000000
224.905685	0.000000
224.998337	144.940000
225.090988	144.840000
225.183640	144.800000
225.276291	144.400000
225.368942	144.920000
225.461594	145.360000
225.554245	145.600000
225.646912	145.900000
225.739578	146.420000
225.832230	146.600000
225.924896	145.920000
226.017548	146.220000
226.110199	146.840000
226.202866	146.220000
226.295532	146.140000
226.388184	146.380000
226.480850	146.120000
226.573517	145.240000
226.666168	145.540000
226.758835	145.660000
226.851501	146.000000
226.944183	145.800000
227.036850	145.780000
227.129517	145.760000
227.222183	145.680000
227.314850	145.520000
227.407516	145.740000
227.500198	146.620000
227.592865	146.100000
227.685532	145.720000
227.778214	145.560000
227.870880	145.960000
227.963562	146.100000
228.056229	147.020000
228.148926	147.040000
228.241592	147.780000
228.334274	147.320000
228.426956	146.760000
228.519638	146.260000
228.612305	146.260000
228.704987	146.040000
228.797668	146.020000
228.890350	146.260000
228.983032	145.980000
229.075714	146.300000
229.168396	145.620000
229.261108	145.300000
229.353790	145.020000
229.446472	145.340000
229.539169	145.080000
229.631851	144.980000
229.724533	145.260000
229.817230	145.400000
229.909912	146.240000
230.002609	146.540000
230.095306	146.680000
230.187988	146.840000
230.280685	146.860000
230.373383	145.860000
230.466095	145.520000
230.558792	145.980000
230.651474	146.100000
230.744171	145.800000
230.836868	145.900000
230.929581	146.160000
231.022278	145.900000
231.114975	145.840000
231.207672	145.820000
231.300369	146.240000
231.393082	146.340000
231.485779	146.320000
231.578506	146.380000
231.671204	146.300000
231.763916	146.180000
231.856613	145.880000
231.949326	145.920000
232.042023	145.460000
232.134735	145.480000
232.227448	145.080000
232.320160	145.520000
232.412872	145.520000
232.505585	146.360000
232.598297	146.780000
232.691010	147.020000
232.783722	146.600000
232.876450	147.020000
232.969162	146.500000
233.061874	146.040000
233.154587	145.880000
233.247314	145.960000
233.340027	145.280000
233.432739	145.740000
233.525467	145.540000
233.618179	145.820000
233.710907	145.640000
233.803635	146.260000
233.896347	146.000000
233.989090	146.800000
234.081818	146.580000
234.174545	147.140000
234.267258	146.840000
234.359985	146.880000
234.452713	146.580000
234.545441	146.420000
234.638168	145.940000
234.730896	145.800000
234.823639	145.360000
234.916367	145.620000
235.009094	145.700000
235.101822	145.760000
235.194580	145.700000
235.287308	145.920000
235.380051	145.300000
235.472778	145.700000
235.565521	145.940000
235.658249	146.020000
235.750992	145.880000
235.843719	146.260000
235.936462	146.200000
236.029205	145.620000
236.121948	145.340000
236.214691	146.060000
236.307449	146.440000
236.400192	146.220000
236.492935	146.340000
236.585678	146.360000
236.678421	146.120000
236.771164	145.780000
236.863907	146.180000
236.956665	146.520000
237.049408	148.240000
237.142151	147.540000
237.234909	148.020000
237.327652	147.860000
237.420410	147.580000
237.513153	146.320000
237.605927	146.440000
237.698669	146.040000
237.791428	145.440000
237.884186	145.880000
237.976944	145.420000
238.069702	145.740000
238.162445	145.300000
238.255203	145.760000
238.347961	145.940000
238.440720	146.260000
238.533478	145.900000
238.626266	145.500000
238.719025	145.460000
238.811783	144.980000
238.904541	144.800000
238.997314	144.760000
239.090073	145.060000
239.182831	145.420000
239.275604	146.400000
239.368362	146.420000
239.461136	146.940000
239.553909	147.160000
239.646667	146.640000
239.739441	145.620000
239.832214	145.820000
239.925003	145.500000
240.017761	146.020000
240.110535	146.520000
240.203308	146.300000
240.296082	146.440000
240.388855	146.300000
240.481628	146.020000
240.574417	145.940000
240.667191	146.500000
240.759964	146.060000
240.852737	146.240000
240.945526	145.960000
241.038315	145.880000
241.131088	146.000000
241.223877	146.440000
241.316650	146.000000
241.409439	146.560000
241.502228	146.120000
241.595001	146.260000
241.687790	146.140000
241.780579	146.640000
241.873367	146.520000
241.966141	146.880000
242.058929	146.420000
242.151718	146.420000
242.244507	146.720000
242.337311	145.820000
242.430099	145.980000
242.522903	146.020000
242.615692	145.520000
242.708481	145.200000
242.801270	145.880000
242.894073	145.800000
242.986862	145.920000
243.079651	146.460000
243.172455	146.280000
243.265244	146.400000
243.358063	145.740000
243.450867	146.000000
243.543655	145.980000
243.636459	146.100000
243.729263	146.340000
243.822067	147.120000
243.914856	147.400000
244.007660	147.620000
244.100464	147.660000
244.193268	147.380000
244.286072	146.860000
244.378876	145.980000
244.471680	145.440000
244.564499	145.540000
244.657318	145.900000
244.750122	146.140000
244.842926	145.700000
244.935745	146.080000
245.028549	145.680000
245.121368	145.480000
245.214172	145.400000
245.306992	146.280000
245.399796	146.000000
245.492615	146.400000
245.585434	145.780000
245.678253	145.920000
245.771072	145.580000
245.863892	146.060000
245.956711	146.260000
246.049530	146.260000
246.142349	146.040000
246.235168	146.500000
246.327988	146.580000
246.420807	146.220000
246.513626	146.300000
246.606445	146.120000
246.699280	145.920000
246.792099	145.620000
246.884918	145.100000
246.977753	144.960000
247.070587	145.160000
247.163422	144.880000
247.256241	145.120000
247.349075	146.080000
247.441895	146.240000
247.534729	146.180000
247.627563	146.300000
247.720383	146.340000
247.813217	146.080000
247.906052	145.980000
247.998886	146.060000
248.091736	146.140000
248.184570	145.900000
248.277405	145.940000
248.370239	146.840000
248.463074	147.580000
248.555908	147.580000
248.648743	147.400000
248.741592	147.260000
248.834427	146.420000
248.927261	145.480000
249.020111	145.840000
249.112946	146.400000
249.205795	146.180000
249.298630	146.560000
249.391495	146.680000
249.484344	146.440000
249.577179	146.320000
249.670029	146.600000
249.762878	146.980000
249.855728	147.280000
249.948563	147.100000
250.041412	146.340000
250.134262	146.600000
250.227112	146.360000
250.319962	146.300000
250.412827	146.340000
250.505692	146.340000
250.598541	146.060000
250.691391	145.700000
250.784241	145.540000
250.877106	145.820000
250.969955	145.760000
251.062805	146.120000
251.155670	146.800000
251.248520	146.640000
251.341385	146.680000
251.434235	146.640000
251.527100	146.340000
251.619965	145.740000
251.712814	146.700000
251.805695	146.420000
251.898560	146.660000
251.991425	147.020000
252.084290	147.500000
252.177155	146.440000
252.270020	146.120000
252.362885	146.220000
252.455750	146.060000
252.548615	145.460000
252.641479	145.400000
252.734360	145.420000
252.827240	145.380000
252.920105	145.000000
253.012970	145.100000
253.105850	145.440000
253.198715	145.420000
253.291595	145.540000
253.384460	145.400000
253.477341	145.300000
253.570221	145.480000
253.663086	145.280000
253.755966	145.920000
253.848846	146.040000
253.941727	146.500000
254.034592	146.220000
254.127472	146.000000
254.220367	145.580000
254.313248	145.480000
254.406128	144.860000
254.499008	145.360000
254.591904	146.300000
254.684784	146.720000
254.777664	147.020000
254.870544	146.780000
254.963440	146.320000
255.056335	146.240000
255.149216	145.640000
255.242111	146.000000
255.334991	146.460000
255.427887	146.540000
255.520767	146.540000
255.613663	146.820000
255.706558	146.140000
255.799438	146.160000
255.892334	146.280000
255.985229	146.000000
256.078125	145.420000
256.171021	145.860000
256.263916	145.940000
256.356812	145.800000
256.449707	146.160000
256.542603	146.300000
256.635498	146.500000
256.728394	146.260000
256.821289	145.940000
256.914215	145.920000
257.007080	146.160000
257.100006	146.040000
257.192932	146.460000
257.285828	146.860000
257.378723	146.420000
257.471619	146.380000
257.564545	145.900000
257.657440	145.980000
257.750336	146.480000
257.843262	146.260000
257.936157	147.060000
258.029053	147.380000
258.121979	147.180000
258.214874	146.800000
258.307800	146.780000
258.400696	145.860000
258.493622	145.880000
258.586517	145.420000
258.679443	145.540000
258.772339	145.700000
258.865265	145.720000
258.958160	145.200000
259.051086	146.120000
259.144012	146.020000
259.236938	146.400000
259.329834	146.380000
259.422791	146.360000
259.515717	145.840000
259.608612	145.800000
259.701538	146.000000
259.794464	145.920000
259.887390	146.300000
259.980316	146.160000
260.073212	145.840000
260.166138	145.080000
260.259064	145.640000
260.351990	146.040000
260.444916	145.840000
260.537842	146.460000
260.630768	147.180000
260.723694	147.080000
260.816620	146.780000
260.909546	147.000000
261.002472	146.300000
261.095398	145.520000
261.188354	145.420000
261.281281	144.920000
261.374207	144.780000
261.467133	145.620000
261.560089	146.140000
261.653015	145.720000
261.745972	146.620000
261.838867	147.340000
261.931824	147.160000
262.024780	146.480000
262.117706	146.720000
262.210663	146.520000
262.303589	145.960000
262.396515	145.920000
262.489471	147.160000
262.582397	147.200000
262.675354	146.620000
262.768280	146.660000
262.861237	146.800000
262.954163	146.200000
263.047119	145.880000
263.140045	145.880000
263.233002	145.820000
263.325958	145.480000
263.418884	145.280000
263.511841	145.740000
263.604797	145.960000
263.697723	146.040000
263.790680	145.860000
263.883636	146.100000
263.976593	145.840000
264.069550	145.780000
264.162476	145.460000
264.255463	145.840000
264.348419	145.560000
264.441376	145.860000
264.534332	145.680000
264.627289	145.920000
264.720245	146.120000
264.813202	146.040000
264.906158	146.140000
264.999115	146.480000
265.092072	146.460000
265.185028	146.760000
265.277985	146.920000
265.370941	146.420000
265.463898	146.140000
265.556854	145.920000
265.649811	145.120000
265.742798	145.320000
265.835754	145.500000
265.928711	145.920000
266.021667	145.980000
266.114655	145.980000
266.207611	146.380000
266.300568	145.820000
266.393585	145.500000
266.486511	146.120000
266.579498	145.400000
266.672485	145.080000
266.765442	145.080000
266.858429	145.280000
266.951385	144.680000
267.044342	145.300000
267.137329	145.200000
267.230316	145.800000
267.323273	145.720000
267.416260	146.260000
267.509216	146.160000
267.602203	145.960000
267.695160	146.360000
267.788147	146.240000
267.881134	145.720000
267.974091	145.940000
268.067078	145.940000
268.160065	145.600000
268.253052	145.640000
268.346008	145.620000
268.438995	145.580000
268.531982	145.840000
268.624969	145.520000
268.717987	145.740000
268.810944	145.980000
268.903961	145.960000
268.996948	145.580000
269.089905	145.940000
269.182892	145.940000
269.275879	146.420000
269.368866	145.880000
269.461853	146.260000
269.554871	146.140000
269.647858	146.120000
269.740845	145.980000
269.833832	146.720000
269.926819	146.320000
270.019806	146.480000
270.112793	146.200000
270.205811	146.080000
270.298798	145.700000
270.391785	146.460000
270.484772	146.300000
270.577789	146.560000
270.670776	146.280000
270.763763	146.240000
270.856750	145.860000
270.949768	145.640000
271.042786	145.600000
271.135773	145.760000
271.228790	146.120000
271.321808	145.820000
271.414795	145.620000
271.507782	145.460000
271.600800	144.920000
271.693817	144.800000
271.786804	145.380000
271.879822	146.060000
271.972809	146.200000
272.065826	147.040000
272.158844	146.800000
272.251831	147.020000
272.344849	146.700000
272.437866	146.400000
272.530853	146.280000
272.623871	146.840000
272.716888	146.000000
272.809906	146.300000
272.902893	146.440000
272.995911	145.900000
273.088928	145.480000
273.181946	145.760000
273.274963	145.280000
273.367981	145.020000
273.460999	145.240000
273.554047	145.640000
273.647003	145.940000
273.740051	146.320000
273.833069	146.680000
273.926086	146.920000
274.019135	146.560000
274.112152	146.420000
274.205170	146.280000
274.298187	146.700000
274.391205	146.000000
274.484222	146.200000
274.577240	146.120000
274.670258	146.000000
274.763306	145.660000
274.856323	146.620000
274.949341	146.480000
275.042358	146.520000
275.135406	146.440000
275.228424	146.540000
275.321442	146.120000
275.414490	146.000000
275.507507	146.540000
275.600525	146.980000
275.693573	146.660000
275.786591	146.160000
275.879669	146.400000
275.972656	145.940000
276.065735	145.620000
276.158752	146.200000
276.251801	147.160000
276.344818	146.960000
276.437866	146.720000
276.530884	146.960000
276.623932	146.060000
276.716980	146.140000
276.809998	146.540000
276.903046	146.620000
276.996094	147.220000
277.089111	148.060000
277.182159	148.000000
277.275208	147.460000
277.368256	147.820000
277.461304	147.280000
277.554321	146.420000
277.647369	146.240000
277.740417	146.320000
277.833466	145.840000
277.926514	145.660000
278.019562	146.580000
278.112610	146.100000
278.205688	146.220000
278.298706	146.480000
278.391785	146.220000
278.484833	145.660000
278.577881	145.720000
278.670929	145.940000
278.763977	146.000000
278.857025	146.620000
278.950073	146.640000
279.043121	146.280000
279.136169	146.160000
279.229248	145.760000
279.322296	145.540000
279.415344	145.200000
279.508392	145.260000
279.601440	145.160000
279.694519	145.060000
279.787567	144.720000
279.880615	145.000000
279.973694	145.120000
280.066742	145.040000
280.159790	145.360000
280.252869	145.120000
280.345917	145.340000
280.438995	145.560000
280.532074	145.540000
280.625122	145.900000
280.718201	146.880000
280.811279	146.980000
280.904327	146.980000
280.997406	147.100000
281.090454	146.980000
281.183533	146.360000
281.276581	145.840000
281.369659	145.440000
281.462738	145.920000
281.555786	145.660000
281.648865	145.460000
281.741943	145.420000
281.835022	146.140000
281.928070	145.580000
282.021149	145.400000
282.114227	145.560000
282.207306	146.100000
282.300385	146.160000
282.393433	146.560000
282.486511	146.560000
282.579590	147.060000
282.672668	147.180000
282.765747	146.620000
282.858856	145.880000
282.951904	146.340000
283.045013	146.440000
283.138062	146.220000
283.231171	146.200000
283.324249	146.880000
283.417328	146.740000
283.510406	146.100000
283.603485	146.040000
283.696564	146.080000
283.789642	146.100000
283.882751	145.820000
283.975830	146.240000
284.068909	146.100000
284.161987	146.900000
284.255066	146.260000
284.348175	146.480000
284.441254	146.200000
284.534332	146.500000
284.627441	145.960000
284.720520	145.920000
284.813599	145.880000
284.906708	145.940000
284.999786	145.360000
285.092896	145.200000
285.185974	146.260000
285.279053	146.020000
285.372192	146.060000
285.465240	147.040000
285.558380	146.980000
285.651459	146.440000
285.744568	147.300000
285.837677	147.140000
285.930756	146.460000
286.023865	146.640000
286.116943	146.260000
286.210052	145.820000
286.303162	145.740000
286.396240	145.880000
286.489349	145.440000
286.582458	145.480000
286.675568	145.280000
286.768646	145.500000
286.861755	146.020000
286.954865	147.040000
287.047974	146.920000
287.141083	146.900000
287.234161	146.500000
287.327271	145.980000
287.420380	145.900000
287.513519	145.880000
287.606598	145.720000
287.699738	146.040000
287.792816	145.800000
287.885956	145.640000
287.979034	145.980000
288.072174	146.240000
288.165283	146.160000
288.258392	146.560000
288.351501	145.740000
288.444611	145.800000
288.537720	146.320000
288.630859	146.240000
288.723969	145.800000
288.817078	146.600000
288.910187	146.400000
289.003296	145.580000
289.096436	145.460000
289.189545	145.620000
289.282654	144.820000
289.375763	145.280000
289.468903	145.800000
289.562012	146.200000
289.655121	146.440000
289.748260	146.800000
289.841400	146.920000
289.934509	146.840000
290.027649	146.820000
290.120728	146.280000
290.213898	146.540000
290.306976	146.120000
290.400146	145.960000
290.493256	145.580000
290.586395	146.140000
290.679535	146.080000
290.772644	145.720000
290.865784	144.960000
290.958893	144.940000
291.052032	144.480000
291.145172	144.340000
291.238281	144.360000
291.331421	144.860000
291.424561	145.420000
291.517670	145.580000
291.610809	145.940000
291.703949	145.940000
291.797089	146.380000
291.890228	145.920000
291.983337	145.720000
292.076477	145.580000
292.169617	145.980000
292.262756	146.000000
292.355927	145.880000
292.449036	146.040000
292.542206	145.760000
292.635315	145.880000
292.728485	145.720000
292.821625	145.600000
292.914764	146.520000
293.007904	146.820000
293.101044	146.620000
293.194183	146.340000
293.287323	146.880000
293.380463	146.220000
293.473602	145.980000
293.566742	146.280000
293.659882	147.020000
293.753021	146.940000
293.846191	146.980000
293.939331	146.580000
294.032471	146.100000
294.125610	145.340000
294.218781	145.820000
294.311920	146.020000
294.405060	146.320000
294.498230	146.360000
294.591370	146.480000
294.684540	145.520000
294.777679	144.700000
294.870850	145.020000
294.963959	144.980000
295.057159	144.880000
295.150299	145.260000
295.243469	145.660000
295.336609	145.120000
295.429779	145.500000
295.522919	146.120000
295.616089	146.320000
295.709229	147.180000
295.802399	147.540000
295.895569	146.840000
295.988708	146.240000
296.081879	146.200000
296.175018	144.920000
296.268188	144.860000
296.361359	145.680000
296.454529	146.080000
296.547668	145.980000
296.640839	146.520000
296.734009	146.240000
296.827179	146.120000
296.920319	146.180000
297.013519	145.920000
297.106659	146.200000
297.199860	146.400000
297.292999	146.580000
297.386200	146.100000
297.479309	146.220000
297.572510	145.920000
297.665680	145.400000
297.758850	145.520000
297.852020	145.600000
297.945190	145.220000
298.038361	145.140000
298.131531	146.520000
298.224701	146.080000
298.317871	146.240000
298.411072	146.060000
298.504242	145.840000
298.597412	145.220000
298.690582	145.440000
298.783752	145.400000
298.876923	146.080000
298.970093	146.460000
299.063293	146.560000
299.156464	146.460000
299.249634	146.600000
299.342834	146.640000
299.436005	146.920000
299.529205	146.740000
299.622345	146.700000
299.715576	146.160000
299.808716	146.180000
299.901917	145.820000
299.995117	146.280000
300.088287	146.560000
300.181488	146.320000
300.274658	145.960000
300.367828	146.060000
300.461029	145.720000
300.554199	145.980000
300.647400	146.500000
300.740601	147.360000
300.833771	147.360000
300.926971	147.360000
301.020142	146.600000
301.113342	146.320000
301.206512	145.940000
301.299713	145.940000
301.392914	145.820000
301.486084	146.280000
301.579285	146.680000
301.672516	147.020000
301.765686	146.680000
301.858887	146.860000
301.952057	146.760000
302.045288	146.600000
302.138458	146.020000
302.231659	146.180000
302.324860	146.040000
302.418060	145.460000
302.511261	145.700000
302.604462	145.820000
302.697662	145.600000
302.790863	145.700000
302.884064	145.740000
302.977264	145.580000
303.070465	145.860000
303.163666	146.460000
303.256866	146.480000
303.350067	146.640000
303.443268	146.640000
303.536469	146.560000
303.629669	146.100000
303.722870	146.120000
303.816071	146.080000
303.909271	146.100000
304.002472	145.460000
304.095673	145.720000
304.188934	145.020000
304.282104	145.880000
304.375336	145.780000
304.468506	145.960000
304.561768	145.540000
304.654968	146.440000
304.748169	145.840000
304.841370	145.680000
304.934601	146.060000
305.027802	145.980000
305.121002	145.420000
305.214233	145.340000
305.307434	145.720000
305.400665	146.340000
305.493866	146.220000
305.587097	146.720000
305.680298	146.700000
305.773499	147.140000
305.866730	146.540000
305.959930	147.220000
306.053162	147.100000
306.146393	147.280000
306.239594	146.240000
306.332825	145.740000
306.426025	145.840000
306.519287	145.700000
306.612488	145.420000
306.705719	145.960000
306.798920	146.300000
306.892181	145.740000
306.985352	145.700000
307.078613	145.300000
307.171844	145.540000
307.265045	145.300000
307.358276	145.340000
307.451508	145.520000
307.544739	146.280000
307.637970	145.780000
307.731201	145.820000
307.824402	146.500000
307.917633	146.380000
308.010864	146.780000
308.104095	147.060000
308.197327	147.480000
308.290558	146.860000
308.383789	146.680000
308.477020	145.700000
308.570251	145.220000
308.663483	144.660000
308.756714	144.700000
308.849976	144.780000
308.943176	145.560000
309.036438	145.260000
309.129639	145.100000
309.222900	145.260000
309.316101	145.080000
309.409393	144.500000
309.502625	144.880000
309.595856	144.980000
309.689087	145.140000
309.782318	145.200000
309.875580	145.620000
309.968811	145.860000
310.062042	146.040000
310.155273	145.980000
310.248535	146.480000
310.341766	146.280000
310.434998	145.920000
310.528259	145.740000
310.621490	145.940000
310.714722	144.960000
310.807983	144.680000
310.901215	144.960000
310.994476	145.200000
311.087708	144.600000
311.181000	145.440000
311.274200	145.400000
311.367462	145.380000
311.460693	145.200000
311.553986	146.180000
311.647186	146.100000
311.740479	146.620000
311.833710	146.200000
311.926971	146.160000
312.020203	145.300000
312.113464	145.120000
312.206726	144.340000
312.299957	144.680000
312.393219	145.360000
312.486481	145.540000
312.579712	145.640000
312.672974	145.900000
312.766235	145.840000
312.859497	145.600000
312.952759	145.200000
313.045990	145.620000
313.139252	145.540000
313.232513	145.840000
313.325775	145.760000
313.419037	146.120000
313.512299	145.460000
313.605530	145.700000
313.698822	145.700000
313.792053	145.540000
313.885345	145.140000
313.978577	145.600000
314.071869	145.340000
314.165131	145.480000
314.258392	145.920000
314.351654	146.000000
314.444916	145.100000
314.538177	145.820000
314.631439	145.920000
314.724701	145.520000
314.817993	145.660000
314.911255	146.320000
315.004517	145.460000
315.097778	145.060000
315.191040	145.680000
315.284302	145.840000
315.377594	145.460000
315.470856	145.860000
315.564117	145.520000
315.657379	144.700000
315.750671	144.240000
315.843933	144.680000
315.937195	144.340000
316.030518	144.360000
316.123749	144.580000
316.217041	145.820000
316.310303	145.640000
316.403595	146.020000
316.496857	146.440000
316.590149	146.580000
316.683411	145.680000
316.776703	145.580000
316.869965	145.500000
316.963257	145.220000
317.056519	144.640000
317.149811	144.840000
317.243073	144.780000
317.336365	145.040000
317.429626	145.500000
317.522919	146.080000
317.616180	145.840000
317.709473	146.000000
317.802765	145.540000
317.896027	145.640000
317.989319	145.820000
318.082611	145.620000
318.175873	145.420000
318.269165	145.840000
318.362488	145.440000
318.455750	145.320000
318.549042	146.120000
318.642303	146.780000
318.735626	146.460000
318.828888	146.800000
318.922211	146.200000
319.015472	146.440000
319.108765	145.600000
319.202057	145.360000
319.295349	145.560000
319.388641	145.940000
319.481934	145.400000
319.575226	145.480000
319.668518	145.780000
319.761810	145.740000
319.855103	146.020000
319.948395	146.140000
320.041687	146.640000
320.134979	146.740000
320.228271	146.620000
320.321564	146.160000
320.414856	145.920000
320.508148	145.420000
320.601440	145.020000
320.694763	144.580000
320.788025	145.280000
320.881348	145.420000
320.974640	145.460000
321.067963	145.380000
321.161224	145.280000
321.254547	144.340000
321.347839	144.940000
321.441162	144.880000
321.534454	145.220000
321.627747	145.320000
321.721069	145.820000
321.814362	145.700000
321.907654	145.900000
322.000946	145.680000
322.094269	146.540000
322.187561	146.460000
322.280884	146.320000
322.374176	146.540000
322.467468	147.200000
322.560791	146.820000
322.654083	147.040000
322.747406	146.940000
322.840698	146.940000
322.934021	146.840000
323.027344	146.700000
323.120636	146.540000
323.213959	146.680000
323.307251	146.020000
323.400574	145.900000
323.493866	145.540000
323.587219	145.860000
323.680511	146.000000
323.773834	146.460000
323.867157	146.180000
323.960449	146.400000
324.053772	145.940000
324.147095	145.540000
324.240387	146.020000
324.333710	146.400000
324.427032	146.680000
324.520355	146.500000
324.613647	146.340000
324.706970	145.700000
324.800293	145.180000
324.893616	144.920000
324.986938	145.400000
325.080231	145.160000
325.173553	145.760000
325.266876	146.480000
325.360199	146.340000
325.453522	145.820000
325.546875	145.740000
325.640167	145.780000
325.733521	146.000000
325.826813	146.460000
325.920166	146.380000
326.013489	146.580000
326.106812	145.620000
326.200134	144.740000
326.293457	144.240000
326.386780	144.500000
326.480103	144.500000
326.573425	144.560000
326.666748	144.940000
326.760071	145.220000
326.853424	145.620000
326.946747	145.500000
327.040070	146.220000
327.133392	145.760000
327.226715	145.120000
327.320068	144.280000
327.413391	144.940000
327.506714	144.340000
327.600037	144.500000
327.693390	144.840000
327.786713	145.220000
327.880066	144.780000
327.973358	145.460000
328.066742	146.100000
328.160034	146.540000
328.253418	147.000000
328.346710	146.720000
328.440063	145.800000
328.533417	145.280000
328.626740	145.320000
328.720093	144.860000
328.813416	145.100000
328.906769	145.480000
329.000092	145.700000
329.093445	145.440000
329.186768	145.260000
329.280121	145.540000
329.373444	146.100000
329.466797	145.820000
329.560120	145.740000
329.653473	146.000000
329.746796	145.560000
329.840149	145.080000
329.933502	145.120000
330.026825	144.860000
330.120178	144.640000
330.213562	144.840000
330.306854	144.900000
330.400238	144.660000
330.493561	144.700000
330.586945	145.700000
330.680237	145.880000
330.773621	145.940000
330.866974	146.380000
330.960327	146.680000
331.053680	145.920000
331.147003	145.920000
331.240356	145.900000
331.333710	145.900000
331.427063	145.640000
331.520416	145.800000
331.613770	145.560000
331.707123	145.760000
331.800476	145.640000
331.893829	146.480000
331.987152	146.480000
332.080505	146.440000
332.173859	146.240000
332.267212	145.940000
332.360565	145.340000
332.453918	145.060000
332.547333	145.140000
332.640656	145.160000
332.734039	145.640000
332.827362	145.700000
332.920746	145.960000
333.014069	146.100000
333.107452	146.440000
333.200806	146.460000
333.294159	146.440000
333.387543	145.760000
333.480896	145.280000
333.574249	145.060000
333.667603	144.940000
333.760956	145.200000
333.854340	145.740000
333.947693	145.940000
334.041046	145.740000
334.134430	145.600000
334.227783	144.960000
334.321136	144.780000
334.414520	144.800000
334.507874	145.160000
334.601227	145.020000
334.694611	145.280000
334.787964	145.560000
334.881348	145.720000
334.974701	145.580000
335.068085	145.440000
335.161438	145.900000
335.254822	145.640000
335.348175	145.740000
335.441559	145.300000
335.534943	146.060000
335.628296	145.440000
335.721680	145.420000
335.815033	145.520000
335.908417	145.980000
336.001770	145.840000
336.095154	146.240000
336.188538	146.120000
336.281891	145.500000
336.375275	145.020000
336.468658	144.800000
336.562012	144.500000
336.655396	145.420000
336.748779	145.860000
336.842133	146.260000
336.935516	146.660000
337.028900	146.440000
337.122284	145.820000
337.215637	146.140000
337.309021	146.040000
337.402435	145.160000
337.495789	145.480000
337.589203	145.460000
337.682526	144.820000
337.775940	145.020000
337.869324	145.680000
337.962708	145.320000
338.056091	146.060000
338.149475	146.260000
338.242859	146.120000
338.336243	145.700000
338.429626	146.000000
338.523010	145.040000
338.616394	144.860000
338.709778	144.940000
338.803162	145.260000
338.896545	145.400000
338.989929	145.440000
339.083313	145.640000
339.176697	145.380000
339.270081	145.160000
339.363464	145.200000
339.456848	145.680000
339.550232	145.120000
339.643616	144.860000
339.737030	144.860000
339.830383	144.500000
339.923828	144.540000
340.017181	144.980000
340.110596	145.420000
340.203949	145.500000
340.297363	145.320000
340.390778	145.220000
340.484161	145.260000
340.577545	145.000000
340.670959	145.060000
340.764343	145.200000
340.857727	145.100000
340.951111	144.500000
341.044525	145.100000
341.137909	144.860000
341.231293	144.900000
341.324707	144.460000
341.418091	145.680000
341.511505	145.020000
341.604889	145.140000
341.698303	145.640000
341.791687	145.960000
341.885071	145.020000
341.978485	145.340000
342.071899	145.600000
342.165283	145.520000
342.258698	145.880000
342.352081	146.460000
342.445496	146.820000
342.538879	146.780000
342.632324	146.640000
342.725708	146.520000
342.819122	146.160000
342.912506	145.600000
343.005920	145.480000
343.099335	146.480000
343.192719	146.400000
343.286133	146.740000
343.379547	147.020000
343.472931	147.160000
343.566345	145.680000
343.659760	145.960000
343.753143	145.300000
343.846558	145.040000
343.939972	144.860000
344.033386	145.640000
344.126770	144.960000
344.220184	145.400000
344.313599	145.940000
344.407043	146.120000
344.500427	145.520000
344.593872	146.260000
344.687225	145.840000
344.780670	145.380000
344.874054	145.020000
344.967499	145.680000
345.060913	145.320000
345.154327	145.360000
345.247742	145.160000
345.341156	145.140000
345.434570	144.900000
345.527985	144.600000
345.621399	145.020000
345.714813	145.000000
345.808228	144.920000
345.901642	144.420000
345.995056	144.560000
346.088470	144.420000
346.181885	144.600000
346.275299	144.760000
346.368713	144.940000
346.462128	144.400000
346.555573	144.580000
346.648987	144.760000
346.742401	144.700000
346.835815	145.020000
346.929260	145.240000
347.022644	144.960000
347.116119	144.940000
347.209503	145.300000
347.302948	145.960000
347.396362	146.640000
347.489807	146.840000
347.583221	147.560000
347.676636	147.320000
347.770050	146.140000
347.863495	145.580000
347.956909	145.580000
348.050323	144.520000
348.143768	144.460000
348.237183	144.540000
348.330597	145.200000
348.424042	145.480000
348.517456	146.120000
348.610901	146.120000
348.704315	146.120000
348.797760	145.460000
348.891174	145.060000
348.984619	144.780000
349.078033	145.260000
349.171448	146.020000
349.264923	146.040000
349.358337	145.700000
349.451782	145.560000
349.545197	144.880000
349.638641	143.880000
349.732086	143.240000
349.825500	143.920000
349.918945	143.760000
350.012390	144.260000
350.105804	145.240000
350.199249	145.960000
350.292664	146.040000
350.386108	146.200000
350.479553	146.540000
350.572968	145.900000
350.666412	146.140000
350.759857	146.120000
350.853302	146.460000
350.946716	146.100000
351.040161	146.380000
351.133606	146.120000
351.227081	145.720000
351.320465	146.360000
351.413940	146.380000
351.507355	146.260000
351.600830	146.600000
351.694244	146.580000
351.787720	146.080000
351.881104	145.960000
351.974579	145.900000
352.067993	146.680000
352.161469	146.700000
352.254883	146.160000
352.348358	146.160000
352.441803	146.260000
352.535248	145.120000
352.628693	145.880000
352.722137	146.020000
352.815582	146.020000
352.909027	145.980000
353.002472	145.840000
353.095917	145.280000
353.189362	145.580000
353.282806	145.420000
353.376251	145.340000
353.469696	145.220000
353.563141	145.420000
353.656586	145.100000
353.750061	144.680000
353.843475	144.740000
353.936981	145.580000
354.030396	144.980000
354.123871	145.120000
354.217285	146.080000
354.310760	146.380000
354.404175	146.320000
354.497681	146.220000
354.591095	146.320000
354.684570	145.400000
354.777985	145.000000
354.871490	144.420000
354.964935	145.020000
355.058380	145.020000
355.151855	145.240000
355.245300	145.820000
355.338745	146.060000
355.432220	146.040000
355.525665	145.800000
355.619110	146.460000
355.712585	146.100000
355.806030	145.780000
355.899475	145.340000
355.992950	145.540000
356.086426	145.680000
356.179871	145.440000
356.273346	145.780000
356.366791	146.340000
356.460266	146.460000
356.553711	145.780000
356.647186	146.240000
356.740631	146.060000
356.834106	145.620000
356.927551	145.520000
357.021027	145.600000
357.114471	145.460000
357.207947	145.500000
357.301422	145.740000
357.394867	145.960000
357.488342	146.180000
357.581818	146.000000
357.675262	146.360000
357.768738	145.980000
357.862213	145.060000
357.955658	144.940000
358.049133	144.700000
358.142609	144.740000
358.236053	145.060000
358.329529	145.520000
358.423035	146.020000
358.516449	145.940000
358.609955	146.440000
358.703400	146.680000
358.796906	146.700000
358.890350	146.060000
358.983826	146.460000
359.077271	145.640000
359.170776	145.540000
359.264221	145.280000
359.357727	145.200000
359.451172	145.360000
359.544647	145.540000
359.638123	145.440000
359.731598	145.860000
359.825073	146.300000
359.918549	146.260000
360.012024	146.060000
360.105499	145.420000
360.198975	145.440000
360.292450	145.260000
360.385925	145.060000
360.479401	144.840000
360.572876	145.260000
360.666351	145.580000
360.759857	145.720000
360.853302	145.980000
360.946808	145.740000
361.040253	145.980000
361.133759	145.300000
361.227203	145.500000
361.320709	145.220000
361.414154	145.860000
361.507660	146.060000
361.601105	146.960000
361.694641	147.340000
361.788086	147.400000
361.881592	147.540000
361.975067	147.080000
362.068542	146.860000
362.162018	146.300000
362.255524	145.680000
362.348999	145.260000
362.442474	145.460000
362.535950	144.920000
362.629456	144.840000
362.722931	145.120000
362.816406	145.740000
362.909882	146.000000
363.003387	145.820000
363.096863	146.220000
363.190338	146.260000
363.283875	146.020000
363.377319	145.560000
363.470825	146.540000
363.564301	145.620000
363.657806	145.900000
363.751282	145.380000
363.844788	146.480000
363.938232	145.440000
364.031769	146.440000
364.125214	146.540000
364.218750	147.280000
364.312225	146.080000
364.405731	146.660000
364.499207	145.960000
364.592712	145.560000
364.686188	145.220000
364.779694	145.600000
364.873169	145.260000
364.966675	145.320000
365.060150	145.300000
365.153656	145.620000
365.247131	145.780000
365.340637	146.120000
365.434143	146.460000
365.527618	147.020000
365.621155	146.180000
365.714600	146.100000
365.808136	146.040000
365.901611	145.100000
365.995117	144.720000
366.088593	145.100000
366.182129	144.660000
366.275604	144.640000
366.369110	145.060000
366.462585	144.780000
366.556122	145.440000
366.649567	145.980000
366.743103	145.980000
366.836609	145.860000
366.930115	146.500000
367.023590	146.140000
367.117096	146.020000
367.210602	146.000000
367.304108	146.600000
367.397614	146.660000
367.491119	146.840000
367.584595	146.860000
367.678101	147.200000
367.771606	146.560000
367.865112	146.240000
367.958649	145.720000
368.052124	145.680000
368.145660	145.020000
368.239136	145.720000
368.332672	145.880000
368.426147	145.920000
368.519684	145.520000
368.613159	146.080000
368.706696	145.540000
368.800171	145.280000
368.893707	145.260000
368.987183	145.060000
369.080719	144.800000
369.174225	144.940000
369.267731	145.360000
369.361237	145.440000
369.454742	145.840000
369.548248	146.040000
369.641754	145.480000
369.735260	145.100000
369.828766	144.440000
369.922272	145.020000
370.015808	144.860000
370.109314	145.140000
370.202820	144.780000
370.296356	145.960000
370.389832	145.200000
370.483368	144.840000
370.576874	145.120000
370.670410	145.340000
370.763885	144.320000
370.857422	144.680000
370.950928	144.680000
371.044464	145.000000
371.137939	145.400000
371.231476	146.000000
371.324982	146.100000
371.418518	146.300000
371.512024	146.140000
371.605560	145.600000
371.699066	145.660000
371.792572	145.420000
371.886108	145.860000
371.979614	145.720000
372.073120	146.440000
372.166656	146.200000
372.260162	146.660000
372.353668	146.160000
372.447205	146.160000
372.540710	146.040000
372.634277	145.700000
372.727753	145.440000
372.821320	145.460000
372.914795	145.600000
373.008362	145.360000
373.101837	146.020000
373.195404	145.640000
373.288879	145.700000
373.382446	146.260000
373.475922	146.340000
373.569489	146.780000
373.662964	147.360000
373.756531	147.140000
373.850037	146.800000
373.943573	146.780000
374.037109	145.700000
374.130615	145.660000
374.224152	146.300000
374.317657	145.980000
374.411194	146.760000
374.504730	147.040000
374.598236	146.680000
374.691772	146.160000
374.785309	146.520000
374.878815	145.200000
374.972351	145.360000
375.065887	145.320000
375.159454	146.200000
375.252930	145.520000
375.346497	146.160000
375.440002	146.700000
375.533569	146.780000
375.627045	145.840000
375.720612	146.260000
375.814117	146.200000
375.907684	145.780000
376.001160	145.580000
376.094727	145.340000
376.188232	146.040000
376.281799	146.180000
376.375336	146.020000
376.468872	146.860000
376.562408	147.100000
376.655914	146.300000
376.749451	146.500000
376.842987	146.800000
376.936523	146.160000
377.030060	146.400000
377.123596	146.660000
377.217133	146.040000
377.310669	145.760000
377.404205	146.200000
377.497772	146.500000
377.591278	146.140000
377.684845	146.920000
377.778351	147.080000
377.871918	146.600000
377.965424	145.860000
378.058990	145.860000
378.152496	145.680000
378.246063	146.040000
378.339569	146.320000
378.433136	146.740000
378.526642	146.680000
378.620209	146.420000
378.713745	145.880000
378.807312	146.380000
378.900848	146.140000
378.994385	146.400000
379.087921	145.700000
379.181458	146.060000
379.274994	145.160000
379.368530	145.000000
379.462097	145.220000
379.555634	146.140000
379.649170	145.340000
379.742706	145.380000
379.836273	145.780000
379.929810	145.180000
380.023376	144.400000
380.116882	144.720000
380.210449	144.620000
380.303986	144.000000
380.397552	144.000000
380.491058	144.660000
380.584656	144.620000
380.678162	145.060000
380.771729	145.500000
380.865265	146.360000
380.958832	146.300000
381.052368	146.420000
381.145935	146.580000
381.239471	146.880000
381.333008	146.560000
381.426575	146.340000
381.520111	146.540000
381.613647	146.640000
381.707214	146.300000
381.800751	145.700000
381.894318	145.900000
381.987854	145.500000
382.081421	145.200000
382.174988	145.200000
382.268524	145.060000
382.362091	144.900000
382.455627	145.580000
382.549194	145.260000
382.642731	144.960000
382.736298	145.340000
382.829834	145.100000
382.923401	145.440000
383.016937	145.940000
383.110504	146.380000
383.204041	146.340000
383.297607	146.900000
383.391174	145.520000
383.484741	145.920000
383.578278	145.580000
383.671844	145.140000
383.765411	144.480000
383.858948	145.480000
383.952515	144.920000
384.046051	145.300000
384.139618	145.960000
384.233185	146.180000
384.326721	145.820000
384.420288	146.280000
384.513855	146.080000
384.607422	146.380000
384.700989	146.680000
384.794525	146.340000
384.888123	146.160000
384.981659	146.500000
385.075226	145.820000
385.168762	145.480000
385.262360	145.620000
385.355896	144.680000
385.449463	144.400000
385.542999	144.380000
385.636597	145.240000
385.730164	145.500000
385.823730	145.560000
385.917267	145.240000
386.010834	145.720000
386.104401	145.440000
386.197968	145.600000
386.291534	146.120000
386.385101	146.440000
386.478668	146.280000
386.572235	145.920000
386.665802	145.540000
386.759338	145.180000
386.852905	144.760000
386.946472	144.560000
387.040070	144.740000
387.133606	144.840000
387.227203	144.740000
387.320740	145.260000
387.414337	145.200000
387.507874	145.140000
387.601471	145.160000
387.695007	145.120000
387.788605	144.820000
387.882141	145.000000
387.975739	144.780000
388.069275	144.500000
388.162872	144.580000
388.256439	144.720000
388.350037	144.700000
388.443604	144.660000
388.537170	144.760000
388.630737	145.320000
388.724304	145.420000
388.817871	145.360000
388.911438	145.200000
389.005005	145.520000
389.098602	145.680000
389.192169	145.420000
389.285736	145.840000
389.379333	145.920000
389.472870	145.560000
389.566467	145.420000
389.660034	145.640000
389.753632	144.980000
389.847168	145.420000
389.940765	145.820000
390.034332	145.780000
390.127930	145.300000
390.221466	145.340000
390.315063	144.540000
390.408630	143.660000
390.502228	142.960000
390.595795	143.220000
390.689362	143.580000
390.782959	144.460000
390.876526	145.620000
390.970093	145.640000
391.063690	146.300000
391.157257	146.200000
391.250824	146.040000
391.344421	145.340000
391.437988	146.180000
391.531555	146.120000
391.625153	146.260000
391.718750	146.540000
391.812317	146.500000
391.905914	146.100000
391.999481	146.300000
392.093079	146.100000
392.186615	146.260000
392.280243	146.500000
392.373779	146.420000
392.467407	146.460000
392.560944	146.240000
392.654572	145.620000
392.748108	145.580000
392.841736	145.720000
392.935303	144.980000
393.028900	145.080000
393.122467	145.500000
393.216064	145.140000
393.309631	144.740000
393.403229	144.560000
393.496796	144.620000
393.590393	143.540000
393.683990	143.940000
393.777557	144.560000
393.871155	145.060000
393.964722	145.580000
394.058350	146.300000
394.151917	146.220000
394.245514	145.840000
394.339081	145.880000
394.432678	145.800000
394.526245	145.560000
394.619873	144.940000
394.713409	145.220000
394.807037	144.740000
394.900604	144.540000
394.994202	144.720000
395.087769	145.420000
395.181396	144.820000
395.274994	145.720000
395.368561	145.220000
395.462158	145.600000
395.555756	145.400000
395.649353	146.300000
395.742920	145.680000
395.836517	146.660000
395.930115	145.800000
396.023712	146.140000
396.117279	145.960000
396.210876	145.800000
396.304474	145.000000
396.398071	145.680000
396.491669	145.460000
396.585266	145.040000
396.678833	144.860000
396.772461	145.420000
396.866028	145.200000
396.959656	145.680000
397.053223	146.080000
397.146851	146.260000
397.240417	146.460000
397.334015	147.240000
397.427582	147.060000
397.521210	147.740000
397.614807	149.080000
397.708405	149.860000
397.802002	150.780000
397.895599	153.480000
397.989197	155.280000
398.082794	157.860000
398.176392	161.640000
398.269989	166.200000
398.363586	170.960000
398.457184	177.780000
398.550781	185.220000
398.644379	192.500000
398.737976	200.640000
398.831573	209.680000
398.925201	218.420000
399.018768	227.820000
399.112396	238.380000
399.205963	248.480000
399.299591	259.180000
399.393158	270.600000
399.486786	283.780000
399.580353	297.580000
399.673981	312.880000
399.767578	328.980000
399.861206	346.040000
399.954773	361.520000
400.048401	374.140000
400.141998	383.840000
400.235596	390.280000
400.329193	392.320000
400.422791	391.420000
400.516418	389.000000
400.610016	386.400000
400.703613	382.820000
400.797211	377.220000
400.890808	370.520000
400.984436	363.080000
401.078033	351.280000
401.171631	336.540000
401.265259	320.680000
401.358826	303.460000
401.452484	283.900000
401.546051	265.620000
401.639679	247.260000
401.733246	231.020000
401.826904	215.300000
401.920471	201.680000
402.014099	190.380000
402.107697	181.280000
402.201324	173.280000
402.294891	167.160000
402.388550	162.460000
402.482147	158.580000
402.575745	155.140000
402.669373	152.680000
402.762970	150.740000
402.856567	149.640000
402.950195	148.700000
403.043793	148.200000
403.137390	148.360000
403.231018	147.460000
403.324615	147.440000
403.418243	146.700000
403.511841	146.880000
403.605469	146.020000
403.699066	146.500000
403.792694	146.360000
403.886292	146.660000
403.979919	146.340000
404.073517	146.160000
404.167145	146.100000
404.260712	146.180000
404.354370	145.780000
404.447937	146.120000
404.541595	146.280000
404.635162	146.260000
404.728821	146.440000
404.822418	146.200000
404.916046	145.700000
405.009644	146.200000
405.103271	146.680000
405.196899	146.140000
405.290497	146.580000
405.384125	147.060000
405.477722	146.220000
405.571350	145.520000
405.664948	145.740000
405.758575	145.140000
405.852203	144.500000
405.945801	145.120000
406.039429	145.100000
406.133057	144.940000
406.226654	145.260000
406.320312	145.420000
406.413879	145.220000
406.507538	145.460000
406.601135	145.140000
406.694763	145.580000
406.788361	145.240000
406.882019	144.940000
406.975586	145.180000
407.069244	145.720000
407.162872	145.400000
407.256470	145.520000
407.350098	145.380000
407.443726	144.880000
407.537323	144.500000
407.630951	144.880000
407.724579	144.620000
407.818207	145.520000
407.911804	145.500000
408.005432	145.580000
408.099060	145.320000
408.192688	145.800000
408.286285	144.880000
408.379913	144.900000
408.473572	145.160000
408.567169	145.200000
408.660828	145.180000
408.754395	145.600000
408.848053	145.480000
408.941650	145.260000
409.035309	144.600000
409.128906	144.580000
409.222565	144.340000
409.316132	144.440000
409.409790	144.340000
409.503387	144.800000
409.597046	144.960000
409.690674	145.420000
409.784302	145.560000
409.877930	145.480000
409.971558	145.420000
410.065186	145.020000
410.158783	144.600000
410.252411	144.840000
410.346039	145.140000
410.439667	145.060000
410.533295	145.740000
410.626923	146.000000
410.720551	145.580000
410.814209	146.000000
410.907806	146.280000
411.001465	145.880000
411.095062	146.140000
411.188721	146.200000
411.282318	145.660000
411.375977	145.420000
411.469574	145.140000
411.563232	144.640000
411.656830	144.420000
411.750488	144.280000
411.844086	144.360000
411.937744	144.900000
412.031372	145.100000
412.125000	145.340000
412.218628	145.280000
412.312256	145.740000
412.405884	146.120000
412.499512	146.200000
412.593170	146.540000
412.686798	146.760000
412.780426	145.940000
412.874054	145.840000
412.967682	145.700000
413.061310	145.940000
413.154968	146.160000
413.248566	146.740000
413.342224	146.100000
413.435852	145.900000
413.529510	145.460000
413.623108	144.740000
413.716766	144.440000
413.810364	144.720000
413.904022	144.760000
413.997650	144.420000
414.091309	145.420000
414.184906	145.420000
414.278564	145.080000
414.372192	145.460000
414.465851	146.100000
414.559479	145.740000
414.653107	146.640000
414.746735	146.820000
414.840393	146.740000
414.934021	146.760000
415.027649	146.380000
415.121277	145.920000
415.214935	146.420000
415.308563	146.380000
415.402191	145.600000
415.495850	145.860000
415.589478	145.480000
415.683136	144.680000
415.776733	144.800000
415.870422	145.620000
415.964020	144.760000
416.057678	144.920000
416.151306	145.180000
416.244965	144.820000
416.338562	144.580000
416.432251	145.760000
416.525848	146.580000
416.619507	147.200000
416.713165	147.600000
416.806793	147.580000
416.900421	147.520000
416.994080	146.280000
417.087708	145.900000
417.181366	145.420000
417.274994	145.400000
417.368622	145.680000
417.462280	146.540000
417.555908	146.400000
417.649567	146.320000
417.743195	146.460000
417.836853	145.720000
417.930481	145.740000
418.024170	146.040000
418.117767	146.640000
418.211426	146.660000
418.305054	147.240000
418.398712	146.440000
418.492340	146.260000
418.585999	146.340000
418.679626	146.460000
418.773285	145.980000
418.866913	146.600000
418.960571	146.840000
419.054230	146.380000
419.147858	146.080000
419.241516	146.080000
419.335144	145.600000
419.428802	145.260000
419.522461	145.200000
419.616089	144.800000
419.709747	145.160000
419.803375	145.380000
419.897034	145.320000
419.990662	145.580000
420.084320	145.980000
420.177979	145.900000
420.271606	145.880000
420.365295	146.140000
420.458893	146.120000
420.552582	146.220000
420.646210	146.220000
420.739868	146.000000
420.833496	145.880000
420.927155	145.660000
421.020782	145.500000
421.114471	144.820000
421.208069	145.120000
421.301758	145.360000
421.395386	145.640000
421.489044	145.580000
421.582703	146.060000
421.676361	146.640000
421.769989	146.140000
421.863647	146.300000
421.957306	146.500000
422.050934	146.560000
422.144592	146.160000
422.238251	146.160000
422.331909	145.640000
422.425537	145.380000
422.519196	145.520000
422.612854	145.180000
422.706543	145.080000
422.800140	145.540000
422.893829	145.320000
422.987457	144.840000
423.081146	145.040000
423.174744	145.640000
423.268433	145.360000
423.362061	145.480000
423.455750	145.460000
423.549347	145.540000
423.643036	144.780000
423.736664	145.340000
423.830353	145.340000
423.924011	145.880000
424.017639	145.540000
424.111298	145.740000
424.204956	145.280000
424.298615	145.560000
424.392273	145.100000
424.485931	145.260000
424.579559	145.360000
424.673218	145.260000
424.766876	145.140000
424.860535	144.900000
424.954193	144.320000
425.047882	144.920000
425.141510	144.960000
425.235199	144.900000
425.328796	144.960000
425.422485	145.380000
425.516113	144.340000
425.609802	144.620000
425.703430	144.680000
425.797119	144.700000
425.890747	144.900000
425.984436	145.260000
426.078064	145.080000
426.171753	145.100000
426.265411	145.200000
426.359070	145.160000
426.452728	145.200000
426.546356	145.160000
426.640015	144.860000
426.733673	144.760000
426.827332	144.620000
426.920990	145.260000
427.014648	145.100000
427.108307	145.660000
427.201965	146.280000
427.295624	146.580000
427.389282	145.820000
427.482941	146.120000
427.576630	145.900000
427.670258	145.080000
427.763947	144.760000
427.857574	145.240000
427.951263	144.980000
428.044922	144.740000
428.138611	145.280000
428.232239	145.740000
428.325928	145.980000
428.419556	146.300000
428.513245	146.280000
428.606903	146.060000
428.700562	145.220000
428.794220	144.340000
428.887878	143.780000
428.981537	144.240000
429.075195	144.460000
429.168854	145.200000
429.262512	145.700000
429.356201	145.960000
429.449860	145.540000
429.543518	145.540000
429.637177	145.560000
429.730835	145.140000
429.824493	145.440000
429.918182	145.580000
430.011810	145.040000
430.105530	144.560000
430.199158	144.720000
430.292847	144.580000
430.386475	144.420000
430.480164	144.380000
430.573792	144.060000
430.667511	144.120000
430.761139	143.840000
430.854828	144.300000
430.948456	144.420000
431.042145	145.040000
431.135834	144.980000
431.229492	145.220000
431.323151	145.260000
431.416809	145.420000
431.510468	145.360000
431.604156	145.100000
431.697815	145.100000
431.791473	144.840000
431.885132	144.560000
431.978821	145.040000
432.072479	145.800000
432.166138	146.240000
432.259827	146.020000
432.353485	146.680000
432.447174	146.400000
432.540802	145.940000
432.634491	145.900000
432.728149	146.260000
432.821838	146.240000
432.915466	146.000000
433.009186	146.000000
433.102814	145.020000
433.196503	144.800000
433.290131	144.800000
433.383850	145.120000
433.477509	145.200000
433.571167	146.480000
433.664856	146.900000
433.758514	147.160000
433.852173	146.820000
433.945862	146.680000
434.039520	146.040000
434.133179	145.420000
434.226868	144.680000
434.320526	144.160000
434.414185	144.740000
434.507874	144.740000
434.601562	145.100000
434.695221	145.320000
434.788910	146.040000
434.882538	145.940000
434.976257	145.360000
435.069885	145.320000
435.163574	145.600000
435.257233	145.040000
435.350922	144.860000
435.444580	145.180000
435.538269	144.840000
435.631897	145.020000
435.725616	145.800000
435.819275	145.860000
435.912964	146.360000
436.006622	147.000000
436.100311	146.440000
436.193970	145.500000
436.287628	145.160000
436.381317	144.740000
436.474976	144.300000
436.568665	144.280000
436.662323	144.520000
436.756012	144.620000
436.849670	144.640000
436.943390	144.480000
437.037018	144.680000
437.130737	145.240000
437.224365	145.160000
437.318085	145.240000
437.411713	145.300000
437.505432	145.500000
437.599060	145.980000
437.692780	146.800000
437.786407	146.620000
437.880127	146.800000
437.973755	146.520000
438.067474	145.320000
438.161133	144.680000
438.254822	145.340000
438.348480	145.200000
438.442169	145.800000
438.535828	146.740000
438.629517	146.780000
438.723175	145.960000
438.816864	146.540000
438.910553	145.800000
439.004211	145.220000
439.097900	144.940000
439.191559	145.260000
439.285248	144.340000
439.378906	144.960000
439.472626	144.820000
439.566284	144.620000
439.659973	144.900000
439.753632	145.020000
439.847321	144.960000
439.940979	145.180000
440.034698	145.400000
440.128326	144.640000
440.222046	144.560000
440.315674	143.940000
440.409393	144.180000
440.503082	144.540000
440.596741	145.080000
440.690430	145.320000
440.784088	145.620000
440.877777	144.880000
440.971466	144.800000
441.065125	144.440000
441.158813	144.340000
441.252502	144.460000
441.346161	144.760000
441.439850	144.900000
441.533539	144.560000
441.627197	145.000000
441.720886	144.900000
441.814606	145.400000
441.908234	145.560000
442.001953	145.920000
442.095612	145.720000
442.189301	145.900000
442.282959	146.060000
442.376678	145.480000
442.470306	146.300000
442.564026	146.060000
442.657684	146.080000
442.751404	145.720000
442.845032	146.500000
442.938751	145.740000
443.032440	146.060000
443.126099	145.740000
443.219788	146.160000
443.313477	146.000000
443.407166	146.040000
443.500824	145.860000
443.594513	146.080000
443.688202	145.600000
443.781891	144.780000
443.875549	144.480000
443.969238	144.400000
444.062927	144.300000
444.156647	144.460000
444.250275	145.200000
444.343994	145.440000
444.437653	145.860000
444.531372	146.040000
444.625031	145.620000
444.718719	145.300000
444.812378	145.480000
444.906097	145.320000
444.999756	144.660000
445.093445	144.920000
445.187103	145.040000
445.280823	145.560000
445.374512	144.920000
445.468201	145.360000
445.561859	145.420000
445.655548	145.380000
445.749237	144.480000
445.842926	144.980000
445.936615	145.480000
446.030304	145.100000
446.123962	145.200000
446.217651	145.420000
446.311340	145.440000
446.405029	144.760000
446.498749	144.600000
446.592407	144.480000
446.686096	144.740000
446.779755	144.780000
446.873474	145.220000
446.967133	145.960000
447.060852	145.660000
447.154510	145.300000
447.248230	145.180000
447.341858	144.840000
447.435577	144.260000
447.529236	144.460000
447.622955	144.680000
447.716644	144.540000
447.810333	144.840000
447.904022	145.300000
447.997711	144.960000
448.091400	145.140000
448.185059	145.420000
448.278748	145.300000
448.372437	145.000000
448.466125	145.280000
448.559814	145.140000
448.653503	145.700000
448.747192	145.880000
448.840912	146.280000
448.934570	146.340000
449.028290	146.540000
449.121948	145.760000
449.215637	145.240000
449.309296	144.880000
449.403015	144.760000
449.496674	144.680000
449.590393	144.540000
449.684052	144.520000
449.777771	145.400000
449.871429	145.200000
449.965149	145.040000
450.058838	145.460000
450.152527	146.140000
450.246216	145.480000
450.339905	145.620000
450.433594	145.700000
450.527283	146.220000
450.620972	145.640000
450.714661	145.500000
450.808350	145.500000
450.902039	145.680000
450.995728	145.040000
451.089417	144.880000
451.183105	145.020000
451.276794	145.660000
451.370514	144.980000
451.464172	144.820000
451.557892	145.140000
451.651550	145.380000
451.745270	144.600000
451.838928	144.380000
451.932648	144.620000
452.026306	145.040000
452.120026	144.520000
452.213684	145.020000
452.307404	145.520000
452.401062	145.580000
452.494781	145.580000
452.588470	145.720000
452.682159	145.260000
452.775848	145.240000
452.869537	144.960000
452.963226	144.560000
453.056915	144.420000
453.150604	144.720000
453.244293	145.180000
453.337982	146.060000
453.431671	146.720000
453.525360	147.440000
453.619049	147.380000
453.712769	147.000000
453.806427	146.180000
453.900146	145.540000
453.993805	145.200000
454.087555	145.580000
454.181213	145.980000
454.274933	145.980000
454.368591	146.000000
454.462311	145.800000
454.555969	145.560000
454.649689	145.960000
454.743347	145.860000
454.837067	146.560000
454.930756	146.960000
455.024445	146.980000
455.118134	146.260000
455.211853	146.440000
455.305542	145.540000
455.399231	145.460000
455.492920	145.360000
455.586609	145.540000
455.680298	145.920000
455.773987	145.740000
455.867676	145.540000
455.961365	145.760000
456.055084	145.840000
456.148773	145.440000
456.242493	145.920000
456.336151	145.900000
456.429871	145.940000
456.523529	146.200000
456.617249	145.840000
456.710907	146.100000
456.804626	145.860000
456.898315	145.340000
456.992035	145.040000
457.085693	145.100000
457.179413	144.540000
457.273102	145.560000
457.366791	145.880000
457.460480	146.140000
457.554199	146.580000
457.647888	146.560000
457.741577	145.720000
457.835266	145.580000
457.928955	145.620000
458.022644	145.780000
458.116364	146.240000
458.210052	146.400000
458.303741	146.420000
458.397461	145.580000
458.491119	144.960000
458.584839	144.600000
458.678528	144.280000
458.772247	144.260000
458.865906	144.740000
458.959625	145.900000
459.053284	146.080000
459.147003	146.040000
459.240692	146.460000
459.334412	146.740000
459.428070	146.220000
459.521790	145.940000
459.615479	145.980000
459.709198	146.040000
459.802887	145.300000
459.896576	144.980000
459.990265	145.380000
460.083954	145.740000
460.177673	145.480000
460.271362	146.000000
460.365051	145.920000
460.458740	145.500000
460.552429	145.060000
460.646149	145.020000
460.739838	144.360000
460.833527	144.420000
460.927246	144.320000
461.020905	144.360000
461.114655	144.480000
461.208313	144.940000
461.302032	144.780000
461.395691	145.380000
461.489441	145.240000
461.583099	144.940000
461.676819	144.560000
461.770477	144.860000
461.864197	144.360000
461.957916	144.460000
462.051605	143.960000
462.145294	145.120000
462.238983	144.680000
462.332703	145.300000
462.426392	146.180000
462.520081	146.440000
462.613770	145.460000
462.707489	145.960000
462.801178	145.680000
462.894867	144.900000
462.988556	145.060000
463.082275	145.400000
463.175964	144.640000
463.269684	144.880000
463.363342	144.820000
463.457092	144.280000
463.550751	144.560000
463.644470	144.960000
463.738129	144.620000
463.831879	145.100000
463.925537	146.080000
464.019257	146.040000
464.112946	146.200000
464.206665	145.860000
464.300323	145.540000
464.394043	145.220000
464.487762	145.060000
464.581451	145.600000
464.675140	145.780000
464.768829	145.880000
464.862549	146.040000
464.956238	146.060000
465.049927	145.780000
465.143646	145.900000
465.237335	145.740000
465.331024	146.060000
465.424713	145.920000
465.518433	145.720000
465.612152	145.560000
465.705811	145.740000
465.799561	145.360000
465.893219	145.340000
465.986938	145.140000
466.080597	144.960000
466.174347	144.860000
466.268005	144.980000
466.361725	145.020000
466.455414	145.540000
466.549133	145.780000
466.642792	146.300000
466.736542	145.800000
466.830231	145.640000
466.923920	145.400000
467.017609	145.340000
467.111328	144.660000
467.205017	144.780000
467.298706	144.740000
467.392426	144.640000
467.486115	145.220000
467.579803	145.180000
467.673523	145.560000
467.767212	146.060000
467.860901	146.080000
467.954651	145.880000
468.048309	146.280000
468.142029	146.160000
468.235718	145.780000
468.329437	145.620000
468.423096	145.420000
468.516846	144.960000
468.610504	144.740000
468.704224	144.720000
468.797913	144.520000
468.891632	144.880000
468.985291	144.700000
469.079010	144.600000
469.172729	144.060000
469.266418	145.080000
469.360107	144.900000
469.453827	145.300000
469.547516	145.580000
469.641205	146.500000
469.734924	146.340000
469.828613	146.440000
469.922302	146.560000
470.016022	146.680000
470.109711	146.460000
470.203430	145.700000
470.297150	145.160000
470.390808	145.260000
470.484558	145.000000
470.578217	145.260000
470.671936	145.840000
470.765625	146.440000
470.859344	146.100000
470.953003	146.360000
471.046753	145.900000
471.140411	145.280000
471.234131	145.200000
471.327820	145.760000
471.421539	145.840000
471.515228	145.720000
471.608948	146.080000
471.702637	145.920000
471.796326	145.500000
471.890045	145.860000
471.983734	146.280000
472.077423	146.260000
472.171143	146.060000
472.264832	146.200000
472.358521	145.540000
472.452240	145.160000
472.545929	145.800000
472.639648	146.300000
472.733337	146.420000
472.827057	146.740000
472.920746	146.860000
473.014465	146.600000
473.108124	146.560000
473.201874	146.600000
473.295532	146.260000
473.389252	146.560000
473.482941	146.600000
473.576660	146.040000
473.670319	145.720000
473.764069	146.180000
473.857727	146.180000
473.951477	146.260000
474.045166	146.880000
474.138855	146.800000
474.232574	146.180000
474.326263	145.920000
474.419952	146.120000
474.513672	145.740000
474.607361	145.820000
474.701050	146.140000
474.794769	146.480000
474.888458	146.200000
474.982178	146.240000
475.075867	146.540000
475.169586	146.600000
475.263275	146.320000
475.356995	146.120000
475.450653	146.060000
475.544403	145.420000
475.638062	145.960000
475.731812	145.740000
475.825470	145.700000
475.919189	146.260000
476.012878	146.920000
476.106598	145.880000
476.200256	146.240000
476.294006	146.000000
476.387695	145.460000
476.481384	145.020000
476.575104	145.340000
476.668793	144.820000
476.762512	144.560000
476.856201	144.820000
476.949890	144.640000
477.043610	144.100000
477.137299	144.380000
477.230988	145.100000
477.324707	145.000000
477.418396	145.620000
477.512146	146.140000
477.605804	145.940000
477.699524	145.840000
477.793213	145.660000
477.886932	145.520000
477.980591	145.280000
478.074341	145.260000
478.167999	144.620000
478.261749	144.460000
478.355408	144.000000
478.449127	144.780000
478.542816	145.480000
478.636536	146.260000
478.730225	146.360000
478.823944	146.860000
478.917633	146.320000
479.011322	146.400000
479.105042	146.120000
479.198730	146.160000
479.292450	145.880000
479.386139	146.140000
479.479828	145.960000
479.573547	146.580000
479.667267	146.540000
479.760925	147.060000
479.854675	147.300000
479.948334	147.280000
480.042084	146.220000
480.135742	146.820000
480.229462	145.940000
480.323151	145.560000
480.416870	144.800000
480.510529	144.800000
480.604279	143.800000
480.697937	144.480000
480.791656	144.100000
480.885345	144.320000
480.979065	144.760000
481.072754	145.780000
481.166473	145.940000
481.260132	146.160000
481.353882	146.220000
481.447540	145.840000
481.541260	145.540000
481.635010	144.920000
481.728668	144.940000
481.822388	144.840000
481.916077	144.980000
482.009796	144.840000
482.103485	145.480000
482.197205	145.660000
482.290863	146.200000
482.384613	146.160000
482.478271	145.880000
482.571991	145.080000
482.665680	145.040000
482.759399	145.560000
482.853058	146.040000
482.946808	146.120000
483.040466	146.420000
483.134216	146.140000
483.227875	145.120000
483.321594	145.400000
483.415283	145.700000
483.509003	145.820000
483.602661	146.000000
483.696411	146.660000
483.790070	146.300000
483.883789	145.900000
483.977478	146.180000
484.071198	146.460000
484.164917	145.820000
484.258606	145.240000
484.352325	145.880000
484.445984	145.520000
484.539734	145.180000
484.633392	144.920000
484.727142	145.620000
484.820801	145.100000
484.914520	145.260000
485.008209	145.240000
485.101929	145.820000
485.195587	145.340000
485.289337	145.360000
485.382996	145.400000
485.476715	145.280000
485.570404	145.280000
485.664124	145.260000
485.757782	146.020000
485.851532	145.580000
485.945190	145.520000
486.038910	145.680000
486.132599	145.940000
486.226318	144.920000
486.319977	144.980000
486.413727	145.580000
486.507446	144.960000
486.601105	144.580000
486.694855	144.640000
486.788513	144.440000
486.882233	144.040000
486.975922	144.140000
487.069641	143.960000
487.163300	144.060000
487.257050	145.300000
487.350708	145.160000
487.444427	145.200000
487.538116	145.400000
487.631836	145.300000
487.725494	144.680000
487.819214	144.920000
487.912903	144.860000
488.006622	145.400000
488.100281	145.800000
488.194031	145.500000
488.287689	145.880000
488.381409	146.580000
488.475098	146.500000
488.568817	146.440000
488.662476	146.380000
488.756226	145.640000
488.849945	144.940000
488.943604	144.980000
489.037354	144.960000
489.131012	145.140000
489.224731	145.240000
489.318390	145.340000
489.412140	145.060000
489.505798	145.180000
489.599518	144.940000
489.693207	145.320000
489.786926	145.160000
489.880585	145.020000
489.974335	145.260000
490.067993	146.180000
490.161713	146.160000
490.255371	146.820000
490.349121	146.940000
490.442780	146.540000
490.536499	145.640000
490.630188	145.780000
490.723907	145.140000
490.817566	145.380000
490.911285	145.560000
491.004974	145.800000
491.098694	145.420000
491.192413	146.140000
491.286102	146.040000
491.379822	146.220000
491.473480	146.020000
491.567200	146.020000
491.660889	145.440000
491.754608	145.380000
491.848267	145.180000
491.941986	145.380000
492.035675	145.320000
492.129395	145.880000
492.223053	146.000000
492.316772	146.080000
492.410461	145.900000
492.504181	146.180000
492.597839	145.420000
492.691559	145.160000
492.785248	145.080000
492.878967	145.440000
492.972626	144.940000
493.066345	145.300000
493.160034	145.020000
493.253754	145.020000
493.347412	144.460000
493.441132	144.840000
493.534882	145.240000
493.628540	145.780000
493.722260	145.780000
493.815918	146.220000
493.909668	146.740000
494.003326	146.820000
494.097046	146.660000
494.190704	146.700000
494.284454	146.660000
494.378113	146.580000
494.471832	146.240000
494.565491	146.160000
494.659210	146.200000
494.752899	146.180000
494.846619	145.720000
494.940277	145.660000
495.033997	145.620000
495.127686	145.140000
495.221405	145.000000
495.315063	145.260000
495.408783	145.440000
495.502441	145.660000
495.596191	146.160000
495.689850	146.040000
495.783569	146.040000
495.877228	146.080000
495.970947	145.580000
496.064697	145.400000
496.158356	146.200000
496.252075	146.140000
496.345734	145.900000
496.439453	147.120000
496.533142	147.140000
496.626862	147.120000
496.720520	147.020000
496.814240	146.900000
496.907898	146.200000
497.001617	146.240000
497.095306	145.520000
497.189026	145.700000
497.282684	145.940000
497.376404	146.200000
497.470062	146.040000
497.563782	146.280000
497.657471	146.000000
497.751190	145.620000
497.844849	145.180000
497.938568	145.260000
498.032227	145.180000
498.125946	145.420000
498.219635	145.360000
498.313354	145.600000
498.407074	145.320000
498.500732	145.420000
498.594452	145.280000
498.688110	145.120000
498.781830	144.740000
498.875519	144.640000
498.969238	144.380000
499.062897	144.140000
499.156616	144.840000
499.250275	145.300000
499.343994	145.040000
499.437653	145.040000
499.531372	145.220000
499.625061	145.180000
499.718781	145.000000
499.812439	145.740000
499.906158	145.740000
499.999817	145.240000
500.093536	144.900000
500.187195	144.920000
500.280914	144.580000
500.374573	145.020000
500.468323	145.160000
500.561981	145.400000
500.655701	145.160000
500.749420	145.140000
500.843079	145.100000
500.936798	145.500000
501.030457	145.880000
501.124176	146.040000
501.217834	146.240000
501.311554	145.840000
501.405212	145.440000
501.498962	144.600000
501.592621	144.580000
501.686340	144.800000
501.779999	145.300000
501.873718	145.620000
501.967377	145.900000
502.061096	146.100000
502.154755	145.660000
502.248474	145.320000
502.342133	145.340000
502.435852	145.440000
502.529510	145.920000
502.623230	146.740000
502.716888	146.380000
502.810608	146.300000
502.904266	146.820000
502.997986	146.240000
503.091705	145.540000
503.185364	145.580000
503.279083	145.440000
503.372772	145.020000
503.466492	144.620000
503.560150	144.580000
503.653870	144.960000
503.747528	145.180000
503.841248	144.900000
503.934906	145.160000
504.028625	144.880000
504.122284	145.220000
504.216003	145.960000
504.309662	145.920000
504.403381	146.300000
504.497040	146.320000
504.590759	145.780000
504.684418	145.500000
504.778137	146.060000
504.871796	146.440000
504.965515	146.660000
505.059174	146.620000
505.152893	146.100000
505.246521	145.740000
505.340240	144.880000
505.433899	144.860000
505.527618	145.320000
505.621338	145.500000
505.714996	144.980000
505.808716	144.960000
505.902374	145.560000
505.996094	145.400000
506.089752	145.240000
506.183472	146.040000
506.277130	146.300000
506.370850	145.820000
506.464508	145.380000
506.558228	145.540000
506.651886	145.280000
506.745605	145.500000
506.839264	145.820000
506.932983	146.300000
507.026611	146.300000
507.120331	146.680000
507.213989	145.880000
507.307709	145.760000
507.401367	145.840000
507.495087	146.540000
507.588745	145.800000
507.682465	146.780000
507.776123	146.720000
507.869843	146.420000
507.963531	145.900000
508.057190	146.740000
508.150909	145.680000
508.244568	145.740000
508.338287	145.660000
508.431946	145.320000
508.525665	144.900000
508.619324	145.220000
508.713013	145.420000
508.806671	145.720000
508.900391	146.540000
508.994049	146.560000
509.087769	146.200000
509.181427	146.220000
509.275146	146.060000
509.368774	145.220000
509.462494	145.240000
509.556152	145.380000
509.649872	145.340000
509.743530	145.580000
509.837250	145.760000
509.930878	145.580000
510.024597	145.880000
510.118256	145.280000
510.211975	145.220000
510.305695	144.920000
510.399353	145.140000
510.493042	145.580000
510.586700	145.800000
510.680420	146.100000
510.774078	146.120000
510.867798	146.420000
510.961426	145.620000
511.055145	145.740000
511.148804	145.140000
511.242523	145.680000
511.336151	145.360000
511.429871	145.940000
511.523529	145.680000
511.617249	145.840000
511.710876	145.360000
511.804596	145.180000
511.898254	145.120000
511.991974	145.480000
512.085632	145.060000
512.179321	145.400000
512.272949	145.780000
512.366699	146.080000
512.460327	145.840000
512.554077	146.640000
512.647766	146.560000
512.741394	146.000000
512.835144	146.320000
512.928772	146.280000
513.022461	146.300000
513.116150	146.040000
513.209839	146.600000
513.303467	146.000000
513.397217	145.860000
513.490845	145.280000
513.584595	145.200000
513.678223	144.620000
513.771912	143.800000
513.865601	144.100000
513.959290	143.680000
514.052917	143.740000
514.146667	144.840000
514.240295	145.960000
514.333984	146.220000
514.427673	146.500000
514.521362	146.880000
514.614990	145.800000
514.708740	145.440000
514.802368	145.220000
514.896057	145.300000
514.989746	145.620000
515.083435	145.940000
515.177124	146.100000
515.270752	145.980000
515.364502	145.880000
515.458130	145.940000
515.551819	145.840000
515.645508	145.540000
515.739197	145.700000
515.832825	146.040000
515.926575	145.540000
516.020203	145.780000
516.113892	146.320000
516.207520	145.800000
516.301270	145.640000
516.394897	145.900000
516.488586	145.900000
516.582275	145.520000
516.675964	145.420000
516.769592	145.480000
516.863281	145.740000
516.956970	146.200000
517.050659	146.120000
517.144287	146.360000
517.238037	146.680000
517.331665	146.160000
517.425354	145.220000
517.519043	145.380000
517.612732	145.660000
517.706421	145.420000
517.800049	145.320000
517.893738	145.540000
517.987427	145.100000
518.081116	144.920000
518.174744	144.440000
518.268433	144.680000
518.362122	145.200000
518.455811	145.320000
518.549438	146.200000
518.643127	147.280000
518.736816	146.920000
518.830505	146.180000
518.924133	146.420000
519.017822	146.180000
519.111511	145.600000
519.205200	145.980000
519.298828	146.120000
519.392517	145.880000
519.486206	145.880000
519.579895	145.960000
519.673523	145.840000
519.767212	146.140000
519.860901	146.440000
519.954590	145.720000
520.048279	145.380000
520.141907	145.060000
520.235596	145.460000
520.329224	145.840000
520.422974	146.140000
520.516602	146.000000
520.610291	145.940000
520.703918	145.520000
520.797607	145.060000
520.891296	144.880000
520.984985	145.220000
521.078613	145.560000
521.172302	145.040000
521.265930	145.740000
521.359680	146.520000
521.453308	146.460000
521.546997	146.540000
521.640625	146.960000
521.734314	146.240000
521.827942	145.760000
521.921692	145.880000
522.015320	145.700000
522.109009	145.240000
522.202698	145.280000
522.296326	145.120000
522.390015	145.200000
522.483704	145.500000
522.577393	145.780000
522.671021	145.320000
522.764709	144.980000
522.858337	145.380000
522.952026	145.040000
523.045654	145.720000
523.139404	146.720000
523.233032	147.100000
523.326721	146.500000
523.420349	146.740000
523.514038	146.140000
523.607666	146.200000
523.701355	145.720000
523.795044	145.740000
523.888733	145.660000
523.982361	145.900000
524.076050	145.120000
524.169678	145.860000
524.263367	145.460000
524.356995	144.980000
524.450684	144.700000
524.544373	144.700000
524.638062	144.460000
524.731750	144.880000
524.825378	145.240000
524.919067	144.940000
525.012695	145.100000
525.106384	144.860000
525.200012	145.200000
525.293701	145.100000
525.387329	145.900000
525.481018	146.080000
525.574646	146.260000
525.668396	146.020000
525.762024	146.320000
525.855713	146.220000
525.949341	145.900000
526.043030	145.980000
526.136658	145.380000
526.230347	145.040000
526.323975	144.380000
526.417664	144.180000
526.511292	144.300000
526.604980	145.020000
526.698608	145.040000
526.792297	145.380000
526.885925	145.740000
526.979614	145.540000
527.073303	145.000000
527.166931	145.260000
527.260620	145.260000
527.354309	145.860000
527.447998	146.140000
527.541626	146.440000
527.635315	146.380000
527.728943	146.980000
527.822632	146.580000
527.916260	146.320000
528.009949	146.360000
528.103577	146.160000
528.197266	145.420000
528.290894	145.300000
528.384583	145.320000
528.478210	145.420000
528.571899	145.600000
528.665527	146.000000
528.759216	146.220000
528.852844	146.460000
528.946533	146.080000
529.040161	146.260000
529.133850	145.960000
529.227478	146.240000
529.321167	146.420000
529.414856	147.220000
529.508484	147.180000
529.602173	146.980000
529.695801	146.620000
529.789490	146.320000
529.883057	145.700000
529.976746	145.980000
530.070374	146.620000
530.164062	146.560000
530.257690	146.700000
530.351379	146.980000
530.445007	147.000000
530.538696	146.160000
530.632324	146.520000
530.726013	146.440000
530.819641	146.280000
530.913330	146.160000
531.006958	146.240000
531.100647	145.980000
531.194275	145.580000
531.287964	145.400000
531.381592	145.160000
531.475220	145.540000
531.568848	145.620000
531.662537	145.940000
531.756226	146.400000
531.849854	146.200000
531.943542	146.060000
532.037170	145.500000
532.130859	145.760000
532.224487	145.280000
532.318176	145.200000
532.411804	145.800000
532.505432	146.160000
532.599060	145.600000
532.692749	145.620000
532.786377	146.040000
532.880066	145.220000
532.973694	144.740000
533.067383	144.740000
533.161011	144.860000
533.254639	144.800000
533.348267	144.740000
533.441956	145.020000
533.535583	145.000000
533.629272	144.940000
533.722900	144.520000
533.816589	144.740000
533.910156	145.300000
534.003845	145.100000
534.097534	145.480000
534.191162	146.020000
534.284851	146.180000
534.378479	145.640000
534.472107	146.100000
534.565735	145.740000
534.659424	145.680000
534.753052	145.740000
534.846741	145.540000
534.940369	145.900000
535.033997	145.780000
535.127625	145.720000
535.221313	145.940000
535.314941	146.060000
535.408630	145.200000
535.502197	146.020000
535.595886	145.900000
535.689514	145.220000
535.783203	145.760000
535.876831	146.440000
535.970459	145.760000
536.064087	145.440000
536.157776	145.640000
536.251404	145.260000
536.345093	144.920000
536.438721	145.020000
536.532349	145.200000
536.626038	145.200000
536.719666	145.640000
536.813293	145.420000
536.906921	145.400000
537.000610	145.660000
537.094238	145.780000
537.187866	145.360000
537.281494	145.360000
537.375183	145.340000
537.468811	145.120000
537.562439	145.060000
537.656067	145.020000
537.749756	145.320000
537.843384	145.720000
537.937012	145.800000
538.030640	145.720000
538.124329	145.780000
538.217896	146.080000
538.311584	146.180000
538.405212	146.260000
538.498901	146.900000
538.592468	147.740000
538.686157	147.220000
538.779785	146.180000
538.873413	146.060000
538.967102	145.280000
539.060730	144.080000
539.154358	144.440000
539.247986	145.080000
539.341675	145.280000
539.435242	145.660000
539.528931	146.100000
539.622559	145.700000
539.716187	146.360000
539.809814	146.220000
539.903503	146.080000
539.997070	145.980000
540.090759	146.200000
540.184387	145.500000
540.278015	145.800000
540.371643	146.020000
540.465332	146.080000
540.558899	145.880000
540.652588	146.100000
540.746216	145.640000
540.839844	145.820000
540.933472	146.040000
541.027100	146.240000
541.120728	146.240000
541.214417	146.560000
541.308044	146.660000
541.401672	146.380000
541.495300	145.980000
541.588928	145.700000
541.682617	145.460000
541.776184	145.000000
541.869873	145.100000
541.963440	145.740000
542.057129	146.080000
542.150757	145.980000
542.244385	145.800000
542.338013	145.600000
542.431641	145.400000
542.525269	145.040000
542.618958	145.640000
542.712524	145.920000
542.806213	145.900000
542.899780	146.140000
542.993469	146.040000
543.087036	145.600000
543.180725	145.020000
543.274292	145.000000
543.367981	145.040000
543.461548	145.400000
543.555237	145.180000
543.648926	146.080000
543.742493	146.660000
543.836182	146.480000
543.929749	146.240000
544.023437	146.360000
544.117004	146.240000
544.210693	146.220000
544.304260	146.120000
544.397949	146.060000
544.491516	146.420000
544.585205	145.980000
544.678772	145.360000
544.772461	145.780000
544.866028	145.880000
544.959717	145.760000
545.053284	145.800000
545.146973	146.140000
545.240540	146.000000
545.334229	146.380000
545.427795	146.500000
545.521423	146.560000
545.615051	146.480000
545.708679	146.500000
545.802307	146.100000
545.895935	146.440000
545.989624	147.200000
546.083191	147.100000
546.176880	147.080000
546.270447	146.720000
546.364136	146.580000
546.457703	146.160000
546.551331	146.280000
546.644958	146.460000
546.738586	147.000000
546.832214	146.360000
546.925842	146.040000
547.019409	145.980000
547.113098	145.240000
547.206665	144.620000
547.300354	144.880000
547.393921	145.400000
547.487549	145.640000
547.581177	145.620000
547.674805	146.160000
547.768433	145.780000
547.862061	145.360000
547.955627	144.860000
548.049316	145.520000
548.142883	145.680000
548.236572	146.300000
548.330139	146.640000
548.423767	146.700000
548.517456	146.460000
548.611023	146.500000
548.704651	145.720000
548.798279	145.500000
548.891907	145.980000
548.985474	145.820000
549.079163	145.700000
549.172729	145.640000
549.266357	145.140000
549.359985	144.840000
549.453613	144.500000
549.547180	144.560000
549.640869	145.260000
549.734436	145.320000
549.828064	145.700000
549.921631	145.720000
550.015320	145.220000
550.108887	145.400000
550.202515	145.540000
550.296143	145.020000
550.389771	145.400000
550.483337	145.500000
550.576965	145.060000
550.670593	145.560000
550.764221	145.740000
550.857849	145.560000
550.951477	145.380000
551.045105	145.080000
551.138672	144.860000
551.232300	144.680000
551.325928	144.980000
551.419556	145.160000
551.513123	145.580000
551.606750	145.240000
551.700378	145.140000
551.794006	144.960000
551.887573	144.880000
551.981201	145.100000
552.074768	145.280000
552.168457	144.920000
552.262024	145.680000
552.355652	145.800000
552.449219	146.080000
552.542847	145.860000
552.636475	145.920000
552.730103	144.860000
552.823669	144.740000
552.917297	144.040000
553.010864	144.200000
553.104553	144.760000
553.198181	144.660000
553.291748	145.380000
553.385376	145.820000
553.478943	145.680000
553.572571	145.540000
553.666199	146.040000
553.759827	145.380000
553.853394	144.860000
553.947021	144.900000
554.040588	145.240000
554.134216	145.100000
554.227783	145.800000
554.321411	146.660000
554.415039	146.380000
554.508667	146.220000
554.602234	146.700000
554.695862	145.800000
554.789429	145.320000
554.883057	145.820000
554.976624	145.660000
555.070251	145.020000
555.163818	145.300000
555.257507	145.280000
555.351074	144.840000
555.444702	146.000000
555.538330	145.560000
555.631897	145.900000
555.725525	145.900000
555.819092	146.160000
555.912720	144.880000
556.006287	145.620000
556.099915	145.320000
556.193481	145.200000
556.287109	145.420000
556.380676	145.400000
556.474304	145.420000
556.567871	145.700000
556.661499	145.300000
556.755066	145.020000
556.848694	145.300000
556.942261	144.980000
557.035889	144.880000
557.129517	145.140000
557.223145	145.760000
557.316711	145.640000
557.410339	146.200000
557.503906	146.080000
557.597473	146.220000
557.691040	145.740000
557.784668	145.700000
557.878296	145.260000
557.971863	145.520000
558.065491	145.680000
558.159058	145.340000
558.252686	145.980000
558.346252	146.800000
558.439880	146.080000
558.533447	145.780000
558.627075	145.760000
558.720642	145.040000
558.814270	144.640000
558.907837	145.200000
559.001465	145.200000
559.095032	145.960000
559.188660	146.240000
559.282227	145.680000
559.375854	146.220000
559.469360	145.920000
559.562988	145.840000
559.656555	146.000000
559.750183	146.380000
559.843750	146.060000
559.937378	146.420000
560.030945	146.100000
560.124573	0.000000
560.218140	0.000000
560.311707	0.000000
560.405334	0.000000
560.498901	0.000000
560.592529	0.000000
560.686096	0.000000
560.779724	0.000000
560.873291	0.000000
560.966858	0.000000
561.060425	0.000000
561.154053	0.000000
561.247620	0.000000
561.341248	0.000000
561.434814	0.000000
561.528381	0.000000
561.621948	0.000000
561.715576	0.000000
561.809143	0.000000
561.902771	0.000000
561.996277	0.000000
562.089905	0.000000
562.183472	0.000000
562.277100	0.000000
