Model Number: SPM-002-B   
Serial Number: 70087108
Firmware Version: 004.15.4
Exposure Time: 100000.000000us
Data Taken on: 11-12-2020 18:50:21.189
Wavelength	Amplitude
221.570786	0.000000
221.663406	0.000000
221.756027	0.000000
221.848648	0.000000
221.941269	0.000000
222.033905	0.000000
222.126526	0.000000
222.219162	0.000000
222.311798	0.000000
222.404419	0.000000
222.497055	0.000000
222.589676	0.000000
222.682312	0.000000
222.774933	0.000000
222.867569	0.000000
222.960205	0.000000
223.052841	0.000000
223.145462	0.000000
223.238098	0.000000
223.330734	0.000000
223.423386	0.000000
223.516022	0.000000
223.608658	0.000000
223.701309	0.000000
223.793945	0.000000
223.886581	0.000000
223.979218	0.000000
224.071869	0.000000
224.164505	0.000000
224.257156	0.000000
224.349792	0.000000
224.442444	0.000000
224.535095	0.000000
224.627747	0.000000
224.720398	0.000000
224.813034	0.000000
224.905685	0.000000
224.998337	145.880000
225.090988	145.460000
225.183640	145.420000
225.276291	145.200000
225.368942	145.940000
225.461594	146.560000
225.554245	146.940000
225.646912	147.120000
225.739578	147.780000
225.832230	147.860000
225.924896	146.960000
226.017548	147.140000
226.110199	147.420000
226.202866	146.700000
226.295532	146.200000
226.388184	146.440000
226.480850	146.040000
226.573517	145.620000
226.666168	146.040000
226.758835	146.680000
226.851501	146.940000
226.944183	146.880000
227.036850	146.480000
227.129517	146.260000
227.222183	146.320000
227.314850	146.400000
227.407516	147.000000
227.500198	147.800000
227.592865	147.320000
227.685532	146.660000
227.778214	146.180000
227.870880	146.360000
227.963562	146.620000
228.056229	147.180000
228.148926	147.000000
228.241592	148.000000
228.334274	147.360000
228.426956	146.820000
228.519638	146.620000
228.612305	146.440000
228.704987	146.160000
228.797668	146.540000
228.890350	146.500000
228.983032	146.160000
229.075714	147.180000
229.168396	146.800000
229.261108	146.440000
229.353790	146.260000
229.446472	146.580000
229.539169	146.180000
229.631851	145.860000
229.724533	145.920000
229.817230	146.320000
229.909912	147.220000
230.002609	147.180000
230.095306	147.440000
230.187988	147.520000
230.280685	147.260000
230.373383	146.100000
230.466095	145.880000
230.558792	146.000000
230.651474	146.040000
230.744171	145.880000
230.836868	145.740000
230.929581	146.340000
231.022278	146.320000
231.114975	146.420000
231.207672	146.540000
231.300369	147.080000
231.393082	146.860000
231.485779	146.780000
231.578506	146.340000
231.671204	146.220000
231.763916	146.440000
231.856613	146.180000
231.949326	146.340000
232.042023	146.680000
232.134735	146.880000
232.227448	146.220000
232.320160	146.420000
232.412872	146.440000
232.505585	146.900000
232.598297	147.380000
232.691010	147.480000
232.783722	147.360000
232.876450	147.840000
232.969162	147.220000
233.061874	146.380000
233.154587	146.240000
233.247314	146.240000
233.340027	145.460000
233.432739	146.000000
233.525467	146.080000
233.618179	146.600000
233.710907	146.360000
233.803635	146.960000
233.896347	146.640000
233.989090	147.480000
234.081818	147.420000
234.174545	147.820000
234.267258	147.300000
234.359985	147.260000
234.452713	146.600000
234.545441	146.380000
234.638168	145.940000
234.730896	146.360000
234.823639	146.300000
234.916367	146.800000
235.009094	146.900000
235.101822	147.000000
235.194580	146.800000
235.287308	146.760000
235.380051	146.020000
235.472778	146.180000
235.565521	146.580000
235.658249	146.360000
235.750992	146.340000
235.843719	146.560000
235.936462	146.600000
236.029205	145.960000
236.121948	145.760000
236.214691	146.080000
236.307449	146.760000
236.400192	146.420000
236.492935	146.520000
236.585678	146.700000
236.678421	146.760000
236.771164	146.700000
236.863907	147.240000
236.956665	147.660000
237.049408	149.420000
237.142151	148.860000
237.234909	149.120000
237.327652	148.860000
237.420410	148.360000
237.513153	147.120000
237.605927	146.880000
237.698669	145.900000
237.791428	145.460000
237.884186	146.320000
237.976944	145.720000
238.069702	146.280000
238.162445	146.260000
238.255203	146.580000
238.347961	146.480000
238.440720	146.600000
238.533478	146.240000
238.626266	146.200000
238.719025	146.540000
238.811783	146.240000
238.904541	145.960000
238.997314	146.020000
239.090073	145.700000
239.182831	145.640000
239.275604	146.160000
239.368362	146.100000
239.461136	146.060000
239.553909	146.120000
239.646667	145.760000
239.739441	145.220000
239.832214	145.760000
239.925003	146.060000
240.017761	146.960000
240.110535	147.560000
240.203308	147.160000
240.296082	147.180000
240.388855	147.240000
240.481628	147.100000
240.574417	146.920000
240.667191	147.260000
240.759964	147.000000
240.852737	146.820000
240.945526	146.520000
241.038315	146.180000
241.131088	146.180000
241.223877	146.540000
241.316650	146.300000
241.409439	146.580000
241.502228	146.240000
241.595001	146.840000
241.687790	146.720000
241.780579	146.960000
241.873367	147.120000
241.966141	147.660000
242.058929	146.720000
242.151718	146.960000
242.244507	147.260000
242.337311	146.360000
242.430099	146.800000
242.522903	147.540000
242.615692	147.060000
242.708481	147.080000
242.801270	147.580000
242.894073	147.260000
242.986862	147.060000
243.079651	147.760000
243.172455	147.320000
243.265244	147.580000
243.358063	146.840000
243.450867	147.120000
243.543655	146.580000
243.636459	146.840000
243.729263	146.860000
243.822067	147.460000
243.914856	147.700000
244.007660	147.840000
244.100464	147.560000
244.193268	147.100000
244.286072	146.940000
244.378876	146.280000
244.471680	145.700000
244.564499	146.000000
244.657318	146.700000
244.750122	147.040000
244.842926	146.540000
244.935745	147.020000
245.028549	146.600000
245.121368	146.240000
245.214172	146.000000
245.306992	146.780000
245.399796	146.700000
245.492615	147.100000
245.585434	146.820000
245.678253	146.720000
245.771072	146.540000
245.863892	147.040000
245.956711	147.120000
246.049530	147.020000
246.142349	147.040000
246.235168	146.940000
246.327988	146.980000
246.420807	146.740000
246.513626	146.860000
246.606445	146.760000
246.699280	146.780000
246.792099	146.260000
246.884918	146.140000
246.977753	146.000000
247.070587	146.440000
247.163422	146.560000
247.256241	146.660000
247.349075	147.320000
247.441895	147.500000
247.534729	147.080000
247.627563	146.900000
247.720383	147.300000
247.813217	146.660000
247.906052	146.440000
247.998886	146.400000
248.091736	146.200000
248.184570	146.020000
248.277405	146.100000
248.370239	147.280000
248.463074	148.380000
248.555908	149.060000
248.648743	148.820000
248.741592	148.780000
248.834427	147.740000
248.927261	146.560000
249.020111	146.380000
249.112946	146.920000
249.205795	146.660000
249.298630	146.680000
249.391495	146.620000
249.484344	146.440000
249.577179	146.100000
249.670029	146.360000
249.762878	146.920000
249.855728	147.220000
249.948563	146.860000
250.041412	146.160000
250.134262	146.400000
250.227112	146.420000
250.319962	146.120000
250.412827	146.460000
250.505692	146.320000
250.598541	146.120000
250.691391	145.400000
250.784241	145.820000
250.877106	145.860000
250.969955	146.000000
251.062805	146.800000
251.155670	147.340000
251.248520	147.040000
251.341385	147.120000
251.434235	147.180000
251.527100	146.320000
251.619965	145.900000
251.712814	146.800000
251.805695	146.700000
251.898560	146.920000
251.991425	147.180000
252.084290	147.560000
252.177155	146.640000
252.270020	146.420000
252.362885	146.500000
252.455750	146.480000
252.548615	145.960000
252.641479	145.740000
252.734360	145.680000
252.827240	145.480000
252.920105	145.700000
253.012970	145.740000
253.105850	145.960000
253.198715	145.820000
253.291595	145.880000
253.384460	145.460000
253.477341	145.520000
253.570221	145.920000
253.663086	146.020000
253.755966	146.680000
253.848846	146.680000
253.941727	147.220000
254.034592	147.000000
254.127472	146.520000
254.220367	146.180000
254.313248	146.380000
254.406128	145.920000
254.499008	146.100000
254.591904	147.120000
254.684784	147.500000
254.777664	147.500000
254.870544	147.100000
254.963440	146.900000
255.056335	146.640000
255.149216	146.360000
255.242111	146.700000
255.334991	147.240000
255.427887	147.560000
255.520767	147.660000
255.613663	147.760000
255.706558	147.300000
255.799438	147.000000
255.892334	146.480000
255.985229	146.340000
256.078125	145.980000
256.171021	146.040000
256.263916	146.780000
256.356812	147.060000
256.449707	147.000000
256.542603	147.080000
256.635498	147.340000
256.728394	146.660000
256.821289	146.360000
256.914215	146.700000
257.007080	147.060000
257.100006	147.080000
257.192932	147.960000
257.285828	148.300000
257.378723	147.880000
257.471619	147.200000
257.564545	146.660000
257.657440	146.360000
257.750336	147.060000
257.843262	146.880000
257.936157	148.360000
258.029053	148.680000
258.121979	148.460000
258.214874	147.420000
258.307800	147.360000
258.400696	146.060000
258.493622	146.080000
258.586517	145.520000
258.679443	146.080000
258.772339	145.980000
258.865265	145.820000
258.958160	145.220000
259.051086	146.300000
259.144012	145.840000
259.236938	146.740000
259.329834	147.200000
259.422791	147.400000
259.515717	146.440000
259.608612	146.360000
259.701538	146.120000
259.794464	145.860000
259.887390	145.880000
259.980316	145.840000
260.073212	145.560000
260.166138	144.680000
260.259064	145.140000
260.351990	145.740000
260.444916	145.940000
260.537842	146.480000
260.630768	147.540000
260.723694	147.160000
260.816620	147.040000
260.909546	146.760000
261.002472	146.460000
261.095398	145.660000
261.188354	145.680000
261.281281	145.080000
261.374207	145.440000
261.467133	146.140000
261.560089	146.380000
261.653015	146.060000
261.745972	146.900000
261.838867	147.180000
261.931824	146.980000
262.024780	146.500000
262.117706	147.040000
262.210663	146.700000
262.303589	146.500000
262.396515	146.540000
262.489471	147.680000
262.582397	147.340000
262.675354	147.000000
262.768280	147.120000
262.861237	147.040000
262.954163	146.780000
263.047119	146.920000
263.140045	146.980000
263.233002	146.760000
263.325958	146.500000
263.418884	146.060000
263.511841	146.040000
263.604797	146.040000
263.697723	146.240000
263.790680	146.340000
263.883636	146.800000
263.976593	146.600000
264.069550	146.680000
264.162476	146.200000
264.255463	146.260000
264.348419	146.140000
264.441376	146.660000
264.534332	146.380000
264.627289	146.820000
264.720245	147.280000
264.813202	146.760000
264.906158	147.020000
264.999115	147.640000
265.092072	147.480000
265.185028	147.680000
265.277985	147.940000
265.370941	147.300000
265.463898	146.920000
265.556854	146.980000
265.649811	145.760000
265.742798	145.940000
265.835754	146.040000
265.928711	146.740000
266.021667	146.540000
266.114655	147.040000
266.207611	147.120000
266.300568	146.740000
266.393585	146.040000
266.486511	146.500000
266.579498	146.100000
266.672485	145.940000
266.765442	146.020000
266.858429	146.640000
266.951385	146.160000
267.044342	146.440000
267.137329	146.480000
267.230316	146.560000
267.323273	145.880000
267.416260	146.520000
267.509216	146.220000
267.602203	146.080000
267.695160	146.680000
267.788147	146.820000
267.881134	146.140000
267.974091	146.600000
268.067078	146.460000
268.160065	146.000000
268.253052	145.940000
268.346008	146.140000
268.438995	146.240000
268.531982	146.640000
268.624969	146.540000
268.717987	146.780000
268.810944	146.780000
268.903961	146.680000
268.996948	146.200000
269.089905	146.740000
269.182892	146.600000
269.275879	146.860000
269.368866	146.580000
269.461853	146.800000
269.554871	146.580000
269.647858	146.780000
269.740845	147.040000
269.833832	147.300000
269.926819	147.180000
270.019806	147.140000
270.112793	146.540000
270.205811	146.580000
270.298798	146.220000
270.391785	146.860000
270.484772	146.540000
270.577789	146.900000
270.670776	146.200000
270.763763	146.300000
270.856750	146.020000
270.949768	145.980000
271.042786	145.880000
271.135773	145.940000
271.228790	146.220000
271.321808	145.640000
271.414795	145.140000
271.507782	145.240000
271.600800	145.240000
271.693817	145.100000
271.786804	145.700000
271.879822	146.340000
271.972809	146.140000
272.065826	146.420000
272.158844	146.220000
272.251831	146.780000
272.344849	146.640000
272.437866	146.420000
272.530853	146.240000
272.623871	146.560000
272.716888	145.240000
272.809906	145.580000
272.902893	145.820000
272.995911	145.520000
273.088928	145.440000
273.181946	146.020000
273.274963	145.820000
273.367981	145.700000
273.460999	145.900000
273.554047	146.340000
273.647003	147.080000
273.740051	147.020000
273.833069	147.580000
273.926086	147.760000
274.019135	147.380000
274.112152	146.800000
274.205170	146.880000
274.298187	146.840000
274.391205	146.520000
274.484222	146.620000
274.577240	146.380000
274.670258	146.360000
274.763306	146.060000
274.856323	146.700000
274.949341	146.660000
275.042358	147.160000
275.135406	147.020000
275.228424	147.140000
275.321442	146.840000
275.414490	146.640000
275.507507	146.960000
275.600525	147.420000
275.693573	147.320000
275.786591	147.080000
275.879669	147.180000
275.972656	146.420000
276.065735	146.240000
276.158752	146.500000
276.251801	147.460000
276.344818	147.500000
276.437866	147.580000
276.530884	147.520000
276.623932	146.820000
276.716980	146.380000
276.809998	146.480000
276.903046	146.600000
276.996094	147.240000
277.089111	147.980000
277.182159	148.540000
277.275208	148.240000
277.368256	148.240000
277.461304	147.900000
277.554321	147.180000
277.647369	146.340000
277.740417	146.480000
277.833466	146.040000
277.926514	145.520000
278.019562	146.420000
278.112610	145.800000
278.205688	145.800000
278.298706	146.100000
278.391785	145.960000
278.484833	145.220000
278.577881	145.700000
278.670929	145.700000
278.763977	146.040000
278.857025	146.640000
278.950073	146.960000
279.043121	147.140000
279.136169	147.160000
279.229248	146.640000
279.322296	146.520000
279.415344	146.320000
279.508392	146.020000
279.601440	145.960000
279.694519	146.260000
279.787567	145.960000
279.880615	146.060000
279.973694	146.180000
280.066742	146.360000
280.159790	146.140000
280.252869	145.900000
280.345917	145.700000
280.438995	145.740000
280.532074	145.520000
280.625122	145.960000
280.718201	147.200000
280.811279	147.480000
280.904327	147.260000
280.997406	147.540000
281.090454	147.380000
281.183533	146.320000
281.276581	146.380000
281.369659	146.420000
281.462738	146.300000
281.555786	146.520000
281.648865	146.600000
281.741943	146.420000
281.835022	146.860000
281.928070	146.720000
282.021149	146.200000
282.114227	146.040000
282.207306	146.060000
282.300385	146.020000
282.393433	146.020000
282.486511	146.220000
282.579590	146.660000
282.672668	146.920000
282.765747	146.240000
282.858856	145.960000
282.951904	146.120000
283.045013	146.340000
283.138062	146.560000
283.231171	146.940000
283.324249	147.820000
283.417328	147.960000
283.510406	147.440000
283.603485	147.120000
283.696564	147.160000
283.789642	146.860000
283.882751	146.400000
283.975830	146.900000
284.068909	146.480000
284.161987	147.160000
284.255066	146.380000
284.348175	146.500000
284.441254	146.360000
284.534332	146.840000
284.627441	145.940000
284.720520	145.760000
284.813599	145.780000
284.906708	145.900000
284.999786	145.140000
285.092896	145.120000
285.185974	146.520000
285.279053	145.940000
285.372192	145.700000
285.465240	146.940000
285.558380	147.140000
285.651459	146.600000
285.744568	147.760000
285.837677	147.440000
285.930756	146.840000
286.023865	147.200000
286.116943	146.800000
286.210052	146.520000
286.303162	146.740000
286.396240	146.660000
286.489349	146.080000
286.582458	146.500000
286.675568	146.080000
286.768646	145.660000
286.861755	146.000000
286.954865	146.880000
287.047974	146.320000
287.141083	146.380000
287.234161	146.460000
287.327271	146.100000
287.420380	146.500000
287.513519	146.700000
287.606598	146.720000
287.699738	147.240000
287.792816	147.280000
287.885956	146.620000
287.979034	146.600000
288.072174	146.600000
288.165283	146.440000
288.258392	146.640000
288.351501	145.940000
288.444611	146.000000
288.537720	146.220000
288.630859	146.460000
288.723969	146.500000
288.817078	146.860000
288.910187	146.800000
289.003296	146.360000
289.096436	145.820000
289.189545	145.760000
289.282654	145.380000
289.375763	145.720000
289.468903	146.340000
289.562012	146.960000
289.655121	147.120000
289.748260	147.360000
289.841400	147.720000
289.934509	147.520000
290.027649	147.340000
290.120728	146.880000
290.213898	147.000000
290.306976	146.640000
290.400146	146.660000
290.493256	146.080000
290.586395	146.260000
290.679535	146.460000
290.772644	146.320000
290.865784	145.720000
290.958893	146.100000
291.052032	146.160000
291.145172	146.140000
291.238281	145.920000
291.331421	146.200000
291.424561	146.640000
291.517670	146.340000
291.610809	146.480000
291.703949	146.500000
291.797089	146.640000
291.890228	146.040000
291.983337	146.500000
292.076477	146.000000
292.169617	146.480000
292.262756	146.600000
292.355927	146.640000
292.449036	146.180000
292.542206	146.660000
292.635315	146.560000
292.728485	146.540000
292.821625	146.180000
292.914764	146.920000
293.007904	146.780000
293.101044	146.700000
293.194183	146.540000
293.287323	146.860000
293.380463	146.100000
293.473602	145.680000
293.566742	145.940000
293.659882	146.780000
293.753021	146.980000
293.846191	147.080000
293.939331	146.860000
294.032471	146.500000
294.125610	145.580000
294.218781	145.840000
294.311920	146.320000
294.405060	146.880000
294.498230	147.180000
294.591370	147.500000
294.684540	146.720000
294.777679	146.120000
294.870850	146.280000
294.963959	145.860000
295.057159	145.240000
295.150299	145.700000
295.243469	145.740000
295.336609	145.360000
295.429779	145.160000
295.522919	145.980000
295.616089	145.920000
295.709229	146.420000
295.802399	146.720000
295.895569	146.560000
295.988708	146.280000
296.081879	146.540000
296.175018	146.240000
296.268188	146.100000
296.361359	146.860000
296.454529	146.900000
296.547668	146.440000
296.640839	146.680000
296.734009	146.360000
296.827179	146.380000
296.920319	146.400000
297.013519	146.520000
297.106659	146.540000
297.199860	146.840000
297.292999	146.440000
297.386200	146.340000
297.479309	146.260000
297.572510	146.300000
297.665680	145.940000
297.758850	145.880000
297.852020	145.720000
297.945190	145.860000
298.038361	145.220000
298.131531	146.220000
298.224701	146.200000
298.317871	145.960000
298.411072	145.640000
298.504242	145.620000
298.597412	145.040000
298.690582	145.420000
298.783752	145.780000
298.876923	146.220000
298.970093	146.420000
299.063293	146.800000
299.156464	147.020000
299.249634	147.000000
299.342834	147.320000
299.436005	147.880000
299.529205	147.400000
299.622345	147.180000
299.715576	146.800000
299.808716	146.520000
299.901917	146.300000
299.995117	146.600000
300.088287	146.960000
300.181488	147.080000
300.274658	146.900000
300.367828	146.600000
300.461029	146.500000
300.554199	146.340000
300.647400	146.300000
300.740601	146.540000
300.833771	146.680000
300.926971	146.840000
301.020142	146.160000
301.113342	146.360000
301.206512	146.640000
301.299713	147.100000
301.392914	146.880000
301.486084	147.680000
301.579285	147.500000
301.672516	147.460000
301.765686	147.200000
301.858887	147.180000
301.952057	147.140000
302.045288	147.480000
302.138458	147.200000
302.231659	146.660000
302.324860	146.600000
302.418060	146.000000
302.511261	145.600000
302.604462	145.960000
302.697662	146.140000
302.790863	146.200000
302.884064	146.060000
302.977264	146.180000
303.070465	146.020000
303.163666	146.660000
303.256866	146.840000
303.350067	146.860000
303.443268	146.940000
303.536469	146.940000
303.629669	146.200000
303.722870	146.440000
303.816071	146.620000
303.909271	146.840000
304.002472	146.280000
304.095673	146.260000
304.188934	145.460000
304.282104	146.180000
304.375336	145.780000
304.468506	145.920000
304.561768	145.900000
304.654968	146.320000
304.748169	145.580000
304.841370	145.480000
304.934601	145.800000
305.027802	145.760000
305.121002	145.960000
305.214233	146.280000
305.307434	146.600000
305.400665	147.240000
305.493866	147.420000
305.587097	147.520000
305.680298	147.240000
305.773499	147.460000
305.866730	146.780000
305.959930	147.260000
306.053162	147.180000
306.146393	146.860000
306.239594	146.340000
306.332825	146.360000
306.426025	146.280000
306.519287	145.980000
306.612488	146.500000
306.705719	146.780000
306.798920	146.740000
306.892181	146.160000
306.985352	145.820000
307.078613	145.020000
307.171844	145.020000
307.265045	144.540000
307.358276	144.240000
307.451508	144.760000
307.544739	145.560000
307.637970	145.160000
307.731201	145.020000
307.824402	145.840000
307.917633	146.000000
308.010864	146.260000
308.104095	146.900000
308.197327	147.420000
308.290558	147.560000
308.383789	147.040000
308.477020	146.700000
308.570251	146.060000
308.663483	145.700000
308.756714	145.160000
308.849976	145.220000
308.943176	145.540000
309.036438	145.420000
309.129639	145.560000
309.222900	145.660000
309.316101	145.580000
309.409393	145.060000
309.502625	145.140000
309.595856	145.460000
309.689087	145.460000
309.782318	145.600000
309.875580	145.620000
309.968811	145.920000
310.062042	145.480000
310.155273	145.320000
310.248535	145.860000
310.341766	145.760000
310.434998	145.560000
310.528259	145.640000
310.621490	146.100000
310.714722	145.440000
310.807983	145.620000
310.901215	145.480000
310.994476	146.020000
311.087708	145.640000
311.181000	145.740000
311.274200	145.420000
311.367462	145.460000
311.460693	144.740000
311.553986	145.500000
311.647186	145.600000
311.740479	146.480000
311.833710	146.440000
311.926971	146.500000
312.020203	145.700000
312.113464	145.640000
312.206726	144.680000
312.299957	145.080000
312.393219	146.000000
312.486481	146.140000
312.579712	146.060000
312.672974	146.340000
312.766235	146.260000
312.859497	145.920000
312.952759	145.940000
313.045990	146.820000
313.139252	146.420000
313.232513	146.580000
313.325775	146.340000
313.419037	146.100000
313.512299	145.100000
313.605530	145.680000
313.698822	145.700000
313.792053	145.860000
313.885345	145.680000
313.978577	146.160000
314.071869	145.920000
314.165131	146.060000
314.258392	146.260000
314.351654	146.800000
314.444916	146.040000
314.538177	146.260000
314.631439	146.500000
314.724701	146.220000
314.817993	146.000000
314.911255	146.520000
315.004517	146.080000
315.097778	145.760000
315.191040	146.120000
315.284302	146.360000
315.377594	145.820000
315.470856	146.140000
315.564117	145.620000
315.657379	144.860000
315.750671	144.360000
315.843933	145.120000
315.937195	144.600000
316.030518	144.580000
316.123749	144.840000
316.217041	145.700000
316.310303	145.480000
316.403595	146.040000
316.496857	146.260000
316.590149	146.440000
316.683411	145.860000
316.776703	145.740000
316.869965	145.660000
316.963257	145.460000
317.056519	144.800000
317.149811	144.580000
317.243073	144.600000
317.336365	144.840000
317.429626	145.180000
317.522919	145.780000
317.616180	145.840000
317.709473	145.660000
317.802765	145.380000
317.896027	145.400000
317.989319	145.720000
318.082611	145.640000
318.175873	145.520000
318.269165	145.820000
318.362488	145.680000
318.455750	145.220000
318.549042	145.780000
318.642303	146.620000
318.735626	146.080000
318.828888	146.240000
318.922211	145.980000
319.015472	146.380000
319.108765	145.580000
319.202057	145.580000
319.295349	145.560000
319.388641	145.820000
319.481934	145.280000
319.575226	145.180000
319.668518	145.720000
319.761810	145.980000
319.855103	145.960000
319.948395	145.920000
320.041687	146.500000
320.134979	146.380000
320.228271	146.220000
320.321564	146.000000
320.414856	145.700000
320.508148	144.880000
320.601440	144.660000
320.694763	144.320000
320.788025	145.240000
320.881348	145.460000
320.974640	145.740000
321.067963	145.360000
321.161224	145.600000
321.254547	144.580000
321.347839	145.320000
321.441162	145.380000
321.534454	145.720000
321.627747	145.740000
321.721069	146.600000
321.814362	146.340000
321.907654	146.480000
322.000946	146.340000
322.094269	146.700000
322.187561	146.020000
322.280884	146.400000
322.374176	146.420000
322.467468	146.940000
322.560791	146.700000
322.654083	147.000000
322.747406	146.780000
322.840698	146.900000
322.934021	146.980000
323.027344	147.160000
323.120636	146.960000
323.213959	146.560000
323.307251	146.100000
323.400574	145.760000
323.493866	144.960000
323.587219	145.460000
323.680511	145.600000
323.773834	146.100000
323.867157	146.140000
323.960449	146.620000
324.053772	146.320000
324.147095	146.420000
324.240387	146.700000
324.333710	146.820000
324.427032	146.920000
324.520355	146.880000
324.613647	146.500000
324.706970	146.360000
324.800293	146.480000
324.893616	146.860000
324.986938	147.240000
325.080231	147.200000
325.173553	147.560000
325.266876	147.880000
325.360199	147.520000
325.453522	146.440000
325.546875	146.440000
325.640167	146.440000
325.733521	146.320000
325.826813	146.500000
325.920166	147.000000
326.013489	146.800000
326.106812	145.720000
326.200134	145.120000
326.293457	144.740000
326.386780	145.100000
326.480103	145.020000
326.573425	145.100000
326.666748	145.440000
326.760071	145.660000
326.853424	145.860000
326.946747	146.060000
327.040070	147.080000
327.133392	146.740000
327.226715	146.160000
327.320068	145.440000
327.413391	146.000000
327.506714	145.140000
327.600037	145.220000
327.693390	145.700000
327.786713	145.700000
327.880066	145.100000
327.973358	145.400000
328.066742	145.940000
328.160034	146.120000
328.253418	146.660000
328.346710	146.600000
328.440063	146.180000
328.533417	145.700000
328.626740	145.940000
328.720093	145.220000
328.813416	145.520000
328.906769	145.660000
329.000092	145.960000
329.093445	145.520000
329.186768	145.820000
329.280121	146.040000
329.373444	146.660000
329.466797	146.520000
329.560120	146.500000
329.653473	146.780000
329.746796	146.360000
329.840149	145.840000
329.933502	145.680000
330.026825	145.700000
330.120178	145.500000
330.213562	145.680000
330.306854	145.800000
330.400238	145.840000
330.493561	145.540000
330.586945	146.160000
330.680237	146.200000
330.773621	146.240000
330.866974	146.420000
330.960327	147.020000
331.053680	146.620000
331.147003	146.980000
331.240356	146.920000
331.333710	146.980000
331.427063	146.500000
331.520416	146.160000
331.613770	145.640000
331.707123	145.840000
331.800476	145.780000
331.893829	146.700000
331.987152	147.200000
332.080505	147.300000
332.173859	147.100000
332.267212	146.820000
332.360565	146.120000
332.453918	145.520000
332.547333	145.320000
332.640656	145.480000
332.734039	145.600000
332.827362	145.480000
332.920746	146.080000
333.014069	146.400000
333.107452	146.800000
333.200806	146.820000
333.294159	147.280000
333.387543	146.800000
333.480896	146.240000
333.574249	145.620000
333.667603	145.460000
333.760956	145.380000
333.854340	145.480000
333.947693	145.580000
334.041046	145.900000
334.134430	146.360000
334.227783	145.960000
334.321136	145.980000
334.414520	145.820000
334.507874	145.640000
334.601227	145.400000
334.694611	145.540000
334.787964	145.640000
334.881348	146.360000
334.974701	146.340000
335.068085	145.720000
335.161438	145.860000
335.254822	145.720000
335.348175	145.580000
335.441559	145.360000
335.534943	146.260000
335.628296	145.900000
335.721680	145.840000
335.815033	146.100000
335.908417	146.280000
336.001770	145.920000
336.095154	146.140000
336.188538	145.940000
336.281891	145.260000
336.375275	144.940000
336.468658	144.720000
336.562012	144.520000
336.655396	145.000000
336.748779	145.380000
336.842133	145.800000
336.935516	146.380000
337.028900	146.180000
337.122284	146.000000
337.215637	146.220000
337.309021	146.180000
337.402435	145.560000
337.495789	145.700000
337.589203	145.760000
337.682526	145.400000
337.775940	145.400000
337.869324	145.800000
337.962708	145.540000
338.056091	146.040000
338.149475	145.700000
338.242859	145.860000
338.336243	145.660000
338.429626	146.240000
338.523010	145.800000
338.616394	145.940000
338.709778	146.040000
338.803162	146.300000
338.896545	146.260000
338.989929	145.880000
339.083313	146.200000
339.176697	145.960000
339.270081	145.660000
339.363464	146.160000
339.456848	146.520000
339.550232	145.960000
339.643616	145.520000
339.737030	145.700000
339.830383	145.120000
339.923828	145.320000
340.017181	145.580000
340.110596	145.940000
340.203949	145.900000
340.297363	145.760000
340.390778	145.640000
340.484161	145.880000
340.577545	146.000000
340.670959	146.180000
340.764343	146.220000
340.857727	146.280000
340.951111	146.140000
341.044525	146.200000
341.137909	145.640000
341.231293	145.360000
341.324707	144.860000
341.418091	145.480000
341.511505	145.340000
341.604889	145.740000
341.698303	146.140000
341.791687	146.520000
341.885071	145.700000
341.978485	145.420000
342.071899	145.680000
342.165283	145.980000
342.258698	145.980000
342.352081	146.580000
342.445496	147.180000
342.538879	147.120000
342.632324	146.560000
342.725708	146.580000
342.819122	145.980000
342.912506	145.680000
343.005920	145.640000
343.099335	146.480000
343.192719	146.500000
343.286133	146.420000
343.379547	146.380000
343.472931	146.120000
343.566345	145.360000
343.659760	145.440000
343.753143	145.560000
343.846558	145.640000
343.939972	145.760000
344.033386	146.300000
344.126770	146.140000
344.220184	146.340000
344.313599	146.640000
344.407043	146.380000
344.500427	145.500000
344.593872	145.880000
344.687225	145.540000
344.780670	144.960000
344.874054	145.080000
344.967499	146.140000
345.060913	146.280000
345.154327	146.260000
345.247742	145.960000
345.341156	145.620000
345.434570	144.960000
345.527985	144.600000
345.621399	144.900000
345.714813	145.300000
345.808228	145.940000
345.901642	145.860000
345.995056	145.540000
346.088470	145.540000
346.181885	145.460000
346.275299	144.920000
346.368713	144.840000
346.462128	144.620000
346.555573	144.420000
346.648987	144.820000
346.742401	144.840000
346.835815	145.340000
346.929260	145.140000
347.022644	145.380000
347.116119	145.580000
347.209503	146.040000
347.302948	146.720000
347.396362	147.620000
347.489807	147.800000
347.583221	147.920000
347.676636	147.640000
347.770050	146.420000
347.863495	145.660000
347.956909	145.500000
348.050323	144.680000
348.143768	144.660000
348.237183	144.780000
348.330597	145.380000
348.424042	145.500000
348.517456	146.020000
348.610901	146.140000
348.704315	146.220000
348.797760	145.640000
348.891174	144.800000
348.984619	144.480000
349.078033	144.880000
349.171448	145.660000
349.264923	145.800000
349.358337	146.320000
349.451782	146.320000
349.545197	145.760000
349.638641	145.080000
349.732086	144.620000
349.825500	145.240000
349.918945	145.120000
350.012390	145.520000
350.105804	145.920000
350.199249	146.520000
350.292664	146.700000
350.386108	147.160000
350.479553	147.660000
350.572968	147.040000
350.666412	147.180000
350.759857	146.760000
350.853302	146.860000
350.946716	146.100000
351.040161	146.560000
351.133606	146.460000
351.227081	146.340000
351.320465	147.020000
351.413940	147.280000
351.507355	147.440000
351.600830	147.760000
351.694244	147.420000
351.787720	146.680000
351.881104	146.540000
351.974579	146.060000
352.067993	146.440000
352.161469	146.720000
352.254883	146.220000
352.348358	146.180000
352.441803	146.360000
352.535248	145.820000
352.628693	146.420000
352.722137	146.720000
352.815582	146.700000
352.909027	146.900000
353.002472	146.820000
353.095917	146.420000
353.189362	146.440000
353.282806	146.160000
353.376251	146.040000
353.469696	145.900000
353.563141	146.100000
353.656586	145.820000
353.750061	145.680000
353.843475	145.500000
353.936981	146.020000
354.030396	145.480000
354.123871	145.720000
354.217285	146.480000
354.310760	146.620000
354.404175	146.380000
354.497681	146.560000
354.591095	146.560000
354.684570	146.120000
354.777985	145.840000
354.871490	145.500000
354.964935	145.720000
355.058380	145.800000
355.151855	145.760000
355.245300	146.120000
355.338745	146.600000
355.432220	146.400000
355.525665	145.980000
355.619110	146.260000
355.712585	146.320000
355.806030	146.080000
355.899475	145.800000
355.992950	146.540000
356.086426	146.800000
356.179871	146.540000
356.273346	146.380000
356.366791	146.680000
356.460266	146.680000
356.553711	145.960000
356.647186	146.040000
356.740631	145.760000
356.834106	145.420000
356.927551	145.120000
357.021027	145.340000
357.114471	145.720000
357.207947	146.260000
357.301422	146.960000
357.394867	147.140000
357.488342	147.740000
357.581818	147.460000
357.675262	147.820000
357.768738	147.300000
357.862213	146.800000
357.955658	146.520000
358.049133	146.420000
358.142609	145.740000
358.236053	145.560000
358.329529	145.620000
358.423035	145.440000
358.516449	144.860000
358.609955	145.580000
358.703400	146.340000
358.796906	146.640000
358.890350	146.180000
358.983826	146.880000
359.077271	146.100000
359.170776	145.800000
359.264221	145.360000
359.357727	145.920000
359.451172	146.180000
359.544647	146.640000
359.638123	146.400000
359.731598	146.860000
359.825073	146.920000
359.918549	146.460000
360.012024	146.260000
360.105499	145.960000
360.198975	145.980000
360.292450	145.780000
360.385925	145.940000
360.479401	145.740000
360.572876	146.200000
360.666351	146.400000
360.759857	146.500000
360.853302	146.480000
360.946808	146.000000
361.040253	145.840000
361.133759	145.540000
361.227203	145.540000
361.320709	145.020000
361.414154	145.940000
361.507660	146.340000
361.601105	146.680000
361.694641	147.040000
361.788086	147.200000
361.881592	147.380000
361.975067	147.000000
362.068542	146.980000
362.162018	146.600000
362.255524	146.400000
362.348999	146.300000
362.442474	146.400000
362.535950	145.900000
362.629456	145.840000
362.722931	146.080000
362.816406	145.900000
362.909882	146.360000
363.003387	146.060000
363.096863	146.560000
363.190338	146.500000
363.283875	146.080000
363.377319	145.600000
363.470825	146.200000
363.564301	145.580000
363.657806	145.900000
363.751282	145.940000
363.844788	146.900000
363.938232	146.420000
364.031769	147.140000
364.125214	147.420000
364.218750	148.020000
364.312225	146.980000
364.405731	147.160000
364.499207	146.340000
364.592712	145.960000
364.686188	145.800000
364.779694	145.880000
364.873169	145.800000
364.966675	146.000000
365.060150	145.800000
365.153656	146.080000
365.247131	146.000000
365.340637	146.580000
365.434143	146.980000
365.527618	147.220000
365.621155	146.460000
365.714600	146.500000
365.808136	146.220000
365.901611	144.980000
365.995117	144.760000
366.088593	144.940000
366.182129	144.860000
366.275604	144.800000
366.369110	145.440000
366.462585	145.460000
366.556122	145.980000
366.649567	146.080000
366.743103	146.060000
366.836609	146.000000
366.930115	146.160000
367.023590	146.220000
367.117096	146.160000
367.210602	146.400000
367.304108	147.140000
367.397614	147.460000
367.491119	147.480000
367.584595	147.720000
367.678101	147.760000
367.771606	146.880000
367.865112	146.680000
367.958649	145.940000
368.052124	145.540000
368.145660	145.440000
368.239136	146.200000
368.332672	146.180000
368.426147	146.500000
368.519684	146.540000
368.613159	146.520000
368.706696	146.140000
368.800171	146.020000
368.893707	145.640000
368.987183	145.800000
369.080719	146.060000
369.174225	145.900000
369.267731	146.020000
369.361237	146.240000
369.454742	146.280000
369.548248	146.460000
369.641754	146.320000
369.735260	146.200000
369.828766	145.320000
369.922272	145.560000
370.015808	144.620000
370.109314	144.720000
370.202820	144.480000
370.296356	146.120000
370.389832	145.700000
370.483368	145.700000
370.576874	145.500000
370.670410	145.940000
370.763885	144.700000
370.857422	144.920000
370.950928	145.140000
371.044464	146.100000
371.137939	146.260000
371.231476	146.760000
371.324982	147.400000
371.418518	147.700000
371.512024	147.380000
371.605560	146.800000
371.699066	147.320000
371.792572	146.620000
371.886108	146.660000
371.979614	146.240000
372.073120	146.900000
372.166656	146.320000
372.260162	146.580000
372.353668	146.120000
372.447205	146.180000
372.540710	145.860000
372.634277	145.920000
372.727753	145.880000
372.821320	146.440000
372.914795	146.400000
373.008362	146.420000
373.101837	146.600000
373.195404	146.500000
373.288879	146.180000
373.382446	147.080000
373.475922	147.000000
373.569489	147.300000
373.662964	147.540000
373.756531	147.380000
373.850037	147.040000
373.943573	146.820000
374.037109	146.100000
374.130615	146.360000
374.224152	146.580000
374.317657	146.220000
374.411194	147.120000
374.504730	147.100000
374.598236	146.640000
374.691772	146.580000
374.785309	146.600000
374.878815	145.920000
374.972351	146.620000
375.065887	146.220000
375.159454	146.720000
375.252930	146.320000
375.346497	146.580000
375.440002	146.820000
375.533569	147.020000
375.627045	146.440000
375.720612	147.000000
375.814117	147.120000
375.907684	146.360000
376.001160	146.200000
376.094727	145.780000
376.188232	146.060000
376.281799	146.020000
376.375336	146.300000
376.468872	147.040000
376.562408	147.500000
376.655914	147.100000
376.749451	146.940000
376.842987	147.020000
376.936523	146.440000
377.030060	146.480000
377.123596	146.960000
377.217133	146.620000
377.310669	146.600000
377.404205	147.160000
377.497772	147.440000
377.591278	146.840000
377.684845	147.760000
377.778351	147.780000
377.871918	147.360000
377.965424	146.640000
378.058990	146.460000
378.152496	145.840000
378.246063	145.920000
378.339569	146.120000
378.433136	146.480000
378.526642	146.640000
378.620209	146.580000
378.713745	146.100000
378.807312	146.360000
378.900848	146.260000
378.994385	146.380000
379.087921	145.800000
379.181458	145.920000
379.274994	144.880000
379.368530	145.040000
379.462097	145.260000
379.555634	145.980000
379.649170	145.700000
379.742706	145.980000
379.836273	146.020000
379.929810	145.540000
380.023376	145.060000
380.116882	145.020000
380.210449	145.140000
380.303986	144.660000
380.397552	144.380000
380.491058	144.740000
380.584656	144.820000
380.678162	145.040000
380.771729	145.220000
380.865265	146.140000
380.958832	146.360000
381.052368	146.680000
381.145935	146.920000
381.239471	147.340000
381.333008	146.960000
381.426575	146.440000
381.520111	146.980000
381.613647	147.020000
381.707214	146.860000
381.800751	146.620000
381.894318	147.140000
381.987854	146.240000
382.081421	146.160000
382.174988	146.260000
382.268524	146.080000
382.362091	145.800000
382.455627	146.780000
382.549194	146.320000
382.642731	145.640000
382.736298	145.760000
382.829834	145.740000
382.923401	146.080000
383.016937	146.700000
383.110504	147.200000
383.204041	147.440000
383.297607	147.500000
383.391174	146.200000
383.484741	146.520000
383.578278	146.460000
383.671844	145.900000
383.765411	145.340000
383.858948	145.960000
383.952515	145.360000
384.046051	145.860000
384.139618	146.520000
384.233185	146.960000
384.326721	146.840000
384.420288	147.500000
384.513855	147.100000
384.607422	147.240000
384.700989	147.560000
384.794525	147.420000
384.888123	146.820000
384.981659	146.940000
385.075226	146.580000
385.168762	146.320000
385.262360	146.380000
385.355896	145.660000
385.449463	145.520000
385.542999	145.640000
385.636597	146.200000
385.730164	146.280000
385.823730	146.520000
385.917267	146.480000
386.010834	146.660000
386.104401	146.500000
386.197968	146.780000
386.291534	147.160000
386.385101	147.220000
386.478668	147.340000
386.572235	146.980000
386.665802	146.600000
386.759338	146.280000
386.852905	145.920000
386.946472	145.620000
387.040070	145.600000
387.133606	145.680000
387.227203	145.720000
387.320740	146.000000
387.414337	145.660000
387.507874	145.640000
387.601471	145.640000
387.695007	145.340000
387.788605	145.200000
387.882141	145.560000
387.975739	145.920000
388.069275	145.760000
388.162872	146.100000
388.256439	146.000000
388.350037	145.580000
388.443604	145.080000
388.537170	144.980000
388.630737	145.680000
388.724304	146.140000
388.817871	146.340000
388.911438	146.500000
389.005005	146.940000
389.098602	146.860000
389.192169	146.680000
389.285736	147.280000
389.379333	147.480000
389.472870	146.860000
389.566467	146.500000
389.660034	146.300000
389.753632	145.640000
389.847168	145.580000
389.940765	146.200000
390.034332	146.320000
390.127930	145.880000
390.221466	146.240000
390.315063	146.000000
390.408630	145.220000
390.502228	144.500000
390.595795	145.120000
390.689362	145.000000
390.782959	145.360000
390.876526	145.860000
390.970093	146.040000
391.063690	146.380000
391.157257	146.500000
391.250824	146.640000
391.344421	146.260000
391.437988	146.980000
391.531555	146.900000
391.625153	146.840000
391.718750	146.760000
391.812317	146.900000
391.905914	146.160000
391.999481	145.980000
392.093079	146.000000
392.186615	146.060000
392.280243	146.100000
392.373779	146.300000
392.467407	146.960000
392.560944	147.060000
392.654572	146.660000
392.748108	146.540000
392.841736	146.760000
392.935303	146.100000
393.028900	145.800000
393.122467	146.040000
393.216064	145.940000
393.309631	145.700000
393.403229	145.400000
393.496796	145.340000
393.590393	144.780000
393.683990	145.140000
393.777557	145.640000
393.871155	146.000000
393.964722	146.620000
394.058350	146.840000
394.151917	146.700000
394.245514	146.000000
394.339081	146.300000
394.432678	146.200000
394.526245	146.360000
394.619873	146.340000
394.713409	146.640000
394.807037	146.460000
394.900604	146.600000
394.994202	146.740000
395.087769	147.220000
395.181396	146.900000
395.274994	147.560000
395.368561	146.840000
395.462158	146.920000
395.555756	146.300000
395.649353	146.840000
395.742920	146.040000
395.836517	146.760000
395.930115	146.080000
396.023712	146.460000
396.117279	146.560000
396.210876	146.300000
396.304474	146.060000
396.398071	146.620000
396.491669	146.860000
396.585266	146.420000
396.678833	146.380000
396.772461	146.420000
396.866028	146.260000
396.959656	146.300000
397.053223	146.840000
397.146851	146.760000
397.240417	146.820000
397.334015	147.820000
397.427582	147.900000
397.521210	148.160000
397.614807	149.160000
397.708405	150.240000
397.802002	151.200000
397.895599	153.200000
397.989197	155.120000
398.082794	157.740000
398.176392	161.020000
398.269989	164.880000
398.363586	169.900000
398.457184	176.200000
398.550781	183.080000
398.644379	189.540000
398.737976	197.140000
398.831573	204.960000
398.925201	212.920000
399.018768	221.520000
399.112396	230.860000
399.205963	239.900000
399.299591	249.720000
399.393158	259.820000
399.486786	271.720000
399.580353	284.560000
399.673981	298.260000
399.767578	313.120000
399.861206	329.980000
399.954773	344.740000
400.048401	357.800000
400.141998	367.840000
400.235596	375.660000
400.329193	378.540000
400.422791	380.060000
400.516418	378.740000
400.610016	378.820000
400.703613	375.900000
400.797211	370.860000
400.890808	363.660000
400.984436	355.720000
401.078033	342.520000
401.171631	327.440000
401.265259	311.480000
401.358826	294.040000
401.452484	275.240000
401.546051	257.980000
401.639679	240.180000
401.733246	224.920000
401.826904	210.480000
401.920471	198.140000
402.014099	187.620000
402.107697	179.580000
402.201324	172.280000
402.294891	166.800000
402.388550	162.600000
402.482147	159.000000
402.575745	155.880000
402.669373	153.160000
402.762970	151.660000
402.856567	150.320000
402.950195	149.460000
403.043793	148.800000
403.137390	149.020000
403.231018	147.760000
403.324615	147.900000
403.418243	147.080000
403.511841	147.200000
403.605469	146.660000
403.699066	147.100000
403.792694	146.500000
403.886292	146.660000
403.979919	146.660000
404.073517	146.360000
404.167145	146.540000
404.260712	146.860000
404.354370	146.740000
404.447937	146.760000
404.541595	147.180000
404.635162	147.420000
404.728821	147.980000
404.822418	147.800000
404.916046	147.680000
405.009644	147.780000
405.103271	147.700000
405.196899	147.000000
405.290497	147.320000
405.384125	147.500000
405.477722	147.280000
405.571350	146.680000
405.664948	147.040000
405.758575	146.580000
405.852203	146.000000
405.945801	145.940000
406.039429	146.260000
406.133057	145.600000
406.226654	145.600000
406.320312	146.000000
406.413879	146.200000
406.507538	146.300000
406.601135	146.400000
406.694763	146.740000
406.788361	146.260000
406.882019	145.740000
406.975586	146.320000
407.069244	146.900000
407.162872	146.840000
407.256470	147.000000
407.350098	147.120000
407.443726	146.460000
407.537323	145.840000
407.630951	146.240000
407.724579	146.040000
407.818207	146.520000
407.911804	146.260000
408.005432	146.080000
408.099060	146.000000
408.192688	146.720000
408.286285	146.180000
408.379913	145.880000
408.473572	146.400000
408.567169	145.720000
408.660828	145.420000
408.754395	144.880000
408.848053	145.120000
408.941650	144.980000
409.035309	145.140000
409.128906	145.200000
409.222565	146.040000
409.316132	146.300000
409.409790	145.880000
409.503387	145.680000
409.597046	145.400000
409.690674	145.460000
409.784302	145.260000
409.877930	145.420000
409.971558	145.620000
410.065186	145.540000
410.158783	145.360000
410.252411	145.620000
410.346039	145.780000
410.439667	146.020000
410.533295	146.320000
410.626923	146.560000
410.720551	146.240000
410.814209	146.840000
410.907806	146.940000
411.001465	146.800000
411.095062	146.800000
411.188721	146.940000
411.282318	146.260000
411.375977	145.700000
411.469574	145.800000
411.563232	145.400000
411.656830	145.180000
411.750488	145.180000
411.844086	144.980000
411.937744	144.980000
412.031372	145.020000
412.125000	144.920000
412.218628	145.180000
412.312256	146.060000
412.405884	146.480000
412.499512	146.520000
412.593170	147.220000
412.686798	147.300000
412.780426	146.740000
412.874054	146.620000
412.967682	146.920000
413.061310	147.140000
413.154968	147.140000
413.248566	147.460000
413.342224	147.220000
413.435852	147.180000
413.529510	146.700000
413.623108	145.900000
413.716766	145.560000
413.810364	145.720000
413.904022	145.400000
413.997650	145.300000
414.091309	146.340000
414.184906	146.300000
414.278564	145.920000
414.372192	146.200000
414.465851	146.380000
414.559479	145.760000
414.653107	146.540000
414.746735	146.760000
414.840393	146.820000
414.934021	147.000000
415.027649	146.900000
415.121277	146.660000
415.214935	147.220000
415.308563	147.020000
415.402191	146.120000
415.495850	146.320000
415.589478	146.040000
415.683136	145.060000
415.776733	145.280000
415.870422	146.280000
415.964020	145.760000
416.057678	145.840000
416.151306	146.240000
416.244965	146.240000
416.338562	146.040000
416.432251	147.000000
416.525848	147.820000
416.619507	148.280000
416.713165	148.660000
416.806793	148.600000
416.900421	148.120000
416.994080	147.280000
417.087708	146.920000
417.181366	146.220000
417.274994	146.220000
417.368622	146.460000
417.462280	147.100000
417.555908	147.000000
417.649567	147.040000
417.743195	147.060000
417.836853	146.960000
417.930481	146.880000
418.024170	146.900000
418.117767	147.280000
418.211426	147.560000
418.305054	147.820000
418.398712	147.100000
418.492340	147.240000
418.585999	147.400000
418.679626	147.300000
418.773285	147.020000
418.866913	147.800000
418.960571	147.980000
419.054230	147.920000
419.147858	147.920000
419.241516	148.060000
419.335144	147.260000
419.428802	146.700000
419.522461	146.220000
419.616089	145.840000
419.709747	145.980000
419.803375	146.560000
419.897034	146.660000
419.990662	146.740000
420.084320	147.000000
420.177979	147.140000
420.271606	147.120000
420.365295	147.480000
420.458893	147.740000
420.552582	148.060000
420.646210	147.960000
420.739868	147.320000
420.833496	147.180000
420.927155	146.800000
421.020782	146.260000
421.114471	145.720000
421.208069	146.260000
421.301758	146.580000
421.395386	147.100000
421.489044	146.960000
421.582703	147.220000
421.676361	147.520000
421.769989	146.800000
421.863647	146.620000
421.957306	146.820000
422.050934	146.960000
422.144592	146.720000
422.238251	146.440000
422.331909	146.320000
422.425537	146.260000
422.519196	146.340000
422.612854	145.900000
422.706543	146.240000
422.800140	146.540000
422.893829	146.140000
422.987457	145.440000
423.081146	145.500000
423.174744	146.120000
423.268433	145.720000
423.362061	146.200000
423.455750	146.600000
423.549347	146.660000
423.643036	145.820000
423.736664	146.420000
423.830353	146.220000
423.924011	146.700000
424.017639	146.340000
424.111298	146.360000
424.204956	146.020000
424.298615	145.960000
424.392273	145.540000
424.485931	146.000000
424.579559	146.460000
424.673218	146.240000
424.766876	146.360000
424.860535	146.060000
424.954193	145.660000
425.047882	145.860000
425.141510	145.980000
425.235199	146.140000
425.328796	146.120000
425.422485	145.960000
425.516113	145.280000
425.609802	145.320000
425.703430	145.280000
425.797119	145.200000
425.890747	145.400000
425.984436	145.700000
426.078064	145.660000
426.171753	145.680000
426.265411	145.680000
426.359070	146.040000
426.452728	146.040000
426.546356	145.900000
426.640015	145.800000
426.733673	146.060000
426.827332	145.680000
426.920990	146.440000
427.014648	146.080000
427.108307	146.140000
427.201965	146.520000
427.295624	146.940000
427.389282	146.180000
427.482941	146.680000
427.576630	146.520000
427.670258	145.740000
427.763947	145.360000
427.857574	145.320000
427.951263	145.140000
428.044922	144.940000
428.138611	145.300000
428.232239	145.940000
428.325928	146.360000
428.419556	146.580000
428.513245	146.880000
428.606903	146.780000
428.700562	146.140000
428.794220	145.320000
428.887878	145.140000
428.981537	145.240000
429.075195	145.320000
429.168854	145.720000
429.262512	145.940000
429.356201	146.060000
429.449860	145.840000
429.543518	145.840000
429.637177	146.080000
429.730835	146.040000
429.824493	145.920000
429.918182	146.100000
430.011810	145.800000
430.105530	144.840000
430.199158	145.320000
430.292847	145.260000
430.386475	145.040000
430.480164	145.140000
430.573792	145.180000
430.667511	145.020000
430.761139	145.040000
430.854828	145.360000
430.948456	145.360000
431.042145	146.200000
431.135834	145.740000
431.229492	145.560000
431.323151	145.440000
431.416809	145.780000
431.510468	145.440000
431.604156	146.000000
431.697815	146.260000
431.791473	145.900000
431.885132	145.800000
431.978821	146.100000
432.072479	146.100000
432.166138	146.520000
432.259827	146.900000
432.353485	146.960000
432.447174	147.340000
432.540802	147.140000
432.634491	146.820000
432.728149	147.040000
432.821838	147.380000
432.915466	146.480000
433.009186	146.660000
433.102814	146.240000
433.196503	145.620000
433.290131	145.380000
433.383850	145.860000
433.477509	145.740000
433.571167	146.700000
433.664856	147.360000
433.758514	147.720000
433.852173	147.680000
433.945862	147.640000
434.039520	147.340000
434.133179	146.960000
434.226868	146.480000
434.320526	145.800000
434.414185	146.260000
434.507874	145.900000
434.601562	146.320000
434.695221	146.380000
434.788910	146.880000
434.882538	146.760000
434.976257	146.460000
435.069885	146.080000
435.163574	146.360000
435.257233	145.840000
435.350922	145.620000
435.444580	145.760000
435.538269	145.520000
435.631897	145.420000
435.725616	146.260000
435.819275	146.920000
435.912964	147.200000
436.006622	147.580000
436.100311	147.400000
436.193970	146.580000
436.287628	145.780000
436.381317	145.540000
436.474976	145.400000
436.568665	145.160000
436.662323	145.680000
436.756012	145.940000
436.849670	145.820000
436.943390	145.640000
437.037018	145.740000
437.130737	145.680000
437.224365	145.560000
437.318085	145.840000
437.411713	146.180000
437.505432	146.660000
437.599060	147.060000
437.692780	147.620000
437.786407	147.660000
437.880127	147.660000
437.973755	147.200000
438.067474	146.860000
438.161133	146.460000
438.254822	146.780000
438.348480	146.320000
438.442169	146.660000
438.535828	146.960000
438.629517	146.800000
438.723175	146.220000
438.816864	146.800000
438.910553	146.620000
439.004211	146.300000
439.097900	146.360000
439.191559	146.580000
439.285248	146.020000
439.378906	146.380000
439.472626	146.380000
439.566284	146.200000
439.659973	146.260000
439.753632	146.500000
439.847321	146.540000
439.940979	146.360000
440.034698	146.240000
440.128326	145.660000
440.222046	145.380000
440.315674	144.620000
440.409393	144.860000
440.503082	145.100000
440.596741	145.900000
440.690430	146.280000
440.784088	146.300000
440.877777	145.700000
440.971466	145.840000
441.065125	145.320000
441.158813	145.120000
441.252502	145.340000
441.346161	145.660000
441.439850	145.920000
441.533539	145.900000
441.627197	146.020000
441.720886	146.220000
441.814606	146.860000
441.908234	146.720000
442.001953	146.800000
442.095612	146.640000
442.189301	146.600000
442.282959	146.460000
442.376678	145.840000
442.470306	146.460000
442.564026	146.560000
442.657684	146.700000
442.751404	146.420000
442.845032	147.340000
442.938751	146.560000
443.032440	146.760000
443.126099	146.060000
443.219788	146.260000
443.313477	146.100000
443.407166	146.840000
443.500824	146.640000
443.594513	147.380000
443.688202	147.420000
443.781891	146.860000
443.875549	146.120000
443.969238	146.140000
444.062927	145.640000
444.156647	145.200000
444.250275	145.660000
444.343994	145.880000
444.437653	146.100000
444.531372	146.220000
444.625031	146.200000
444.718719	145.600000
444.812378	145.620000
444.906097	145.200000
444.999756	144.840000
445.093445	145.160000
445.187103	145.560000
445.280823	146.160000
445.374512	146.120000
445.468201	146.200000
445.561859	145.900000
445.655548	145.860000
445.749237	145.240000
445.842926	145.560000
445.936615	146.400000
446.030304	146.400000
446.123962	146.800000
446.217651	146.740000
446.311340	146.560000
446.405029	146.080000
446.498749	145.980000
446.592407	145.380000
446.686096	145.560000
446.779755	145.580000
446.873474	145.860000
446.967133	146.080000
447.060852	145.860000
447.154510	145.700000
447.248230	145.900000
447.341858	145.580000
447.435577	145.200000
447.529236	145.200000
447.622955	145.260000
447.716644	145.120000
447.810333	145.120000
447.904022	145.860000
447.997711	145.820000
448.091400	145.980000
448.185059	145.980000
448.278748	146.020000
448.372437	145.660000
448.466125	146.360000
448.559814	146.420000
448.653503	146.880000
448.747192	147.360000
448.840912	147.680000
448.934570	147.440000
449.028290	147.500000
449.121948	146.880000
449.215637	146.320000
449.309296	145.920000
449.403015	146.120000
449.496674	146.200000
449.590393	146.320000
449.684052	146.040000
449.777771	146.800000
449.871429	146.320000
449.965149	146.160000
450.058838	146.400000
450.152527	147.080000
450.246216	146.300000
450.339905	146.140000
450.433594	145.940000
450.527283	146.540000
450.620972	145.980000
450.714661	146.220000
450.808350	146.760000
450.902039	147.080000
450.995728	146.560000
451.089417	146.600000
451.183105	146.520000
451.276794	146.640000
451.370514	145.720000
451.464172	145.100000
451.557892	145.240000
451.651550	145.460000
451.745270	145.060000
451.838928	145.000000
451.932648	145.380000
452.026306	145.880000
452.120026	145.420000
452.213684	145.640000
452.307404	145.880000
452.401062	146.220000
452.494781	145.960000
452.588470	146.100000
452.682159	145.480000
452.775848	145.760000
452.869537	145.000000
452.963226	144.720000
453.056915	144.620000
453.150604	144.880000
453.244293	145.040000
453.337982	145.960000
453.431671	146.240000
453.525360	146.840000
453.619049	147.160000
453.712769	147.260000
453.806427	146.440000
453.900146	145.960000
453.993805	145.560000
454.087555	145.980000
454.181213	145.600000
454.274933	145.680000
454.368591	145.740000
454.462311	145.560000
454.555969	145.000000
454.649689	146.060000
454.743347	145.940000
454.837067	146.680000
454.930756	147.380000
455.024445	147.780000
455.118134	147.000000
455.211853	147.420000
455.305542	146.760000
455.399231	146.380000
455.492920	145.680000
455.586609	145.700000
455.680298	145.960000
455.773987	145.860000
455.867676	146.020000
455.961365	146.740000
456.055084	146.640000
456.148773	146.000000
456.242493	146.120000
456.336151	146.040000
456.429871	145.760000
456.523529	146.500000
456.617249	146.300000
456.710907	147.000000
456.804626	146.820000
456.898315	146.700000
456.992035	145.840000
457.085693	145.940000
457.179413	145.260000
457.273102	146.020000
457.366791	146.200000
457.460480	146.840000
457.554199	147.800000
457.647888	147.740000
457.741577	147.060000
457.835266	147.140000
457.928955	147.120000
458.022644	147.220000
458.116364	147.600000
458.210052	147.520000
458.303741	147.460000
458.397461	146.740000
458.491119	145.780000
458.584839	145.780000
458.678528	145.620000
458.772247	145.380000
458.865906	145.840000
458.959625	146.840000
459.053284	146.600000
459.147003	146.640000
459.240692	147.240000
459.334412	147.160000
459.428070	146.760000
459.521790	146.800000
459.615479	146.880000
459.709198	146.900000
459.802887	146.400000
459.896576	145.820000
459.990265	146.080000
460.083954	146.320000
460.177673	145.800000
460.271362	146.160000
460.365051	146.520000
460.458740	145.960000
460.552429	145.260000
460.646149	145.520000
460.739838	145.300000
460.833527	145.400000
460.927246	145.340000
461.020905	145.500000
461.114655	145.340000
461.208313	145.580000
461.302032	144.940000
461.395691	145.360000
461.489441	145.620000
461.583099	145.100000
461.676819	144.900000
461.770477	145.360000
461.864197	144.900000
461.957916	144.820000
462.051605	144.880000
462.145294	145.860000
462.238983	145.500000
462.332703	146.380000
462.426392	146.900000
462.520081	147.060000
462.613770	146.200000
462.707489	146.720000
462.801178	146.260000
462.894867	145.940000
462.988556	145.960000
463.082275	146.120000
463.175964	145.480000
463.269684	145.860000
463.363342	145.780000
463.457092	145.580000
463.550751	145.840000
463.644470	146.520000
463.738129	146.280000
463.831879	146.540000
463.925537	147.320000
464.019257	147.380000
464.112946	147.160000
464.206665	146.760000
464.300323	146.340000
464.394043	145.740000
464.487762	145.520000
464.581451	145.780000
464.675140	145.900000
464.768829	146.220000
464.862549	146.640000
464.956238	146.760000
465.049927	146.840000
465.143646	146.960000
465.237335	146.620000
465.331024	147.000000
465.424713	146.960000
465.518433	146.840000
465.612152	146.660000
465.705811	146.940000
465.799561	146.200000
465.893219	146.040000
465.986938	145.840000
466.080597	145.740000
466.174347	145.880000
466.268005	146.040000
466.361725	145.880000
466.455414	145.800000
466.549133	145.980000
466.642792	146.120000
466.736542	145.760000
466.830231	145.760000
466.923920	145.800000
467.017609	145.980000
467.111328	145.240000
467.205017	145.300000
467.298706	145.680000
467.392426	145.880000
467.486115	146.040000
467.579803	146.120000
467.673523	146.520000
467.767212	146.400000
467.860901	146.140000
467.954651	145.920000
468.048309	146.260000
468.142029	146.260000
468.235718	146.320000
468.329437	146.140000
468.423096	146.280000
468.516846	146.100000
468.610504	145.720000
468.704224	145.020000
468.797913	145.120000
468.891632	145.200000
468.985291	145.300000
469.079010	145.220000
469.172729	145.420000
469.266418	145.880000
469.360107	145.720000
469.453827	145.760000
469.547516	146.060000
469.641205	146.720000
469.734924	146.940000
469.828613	147.420000
469.922302	147.540000
470.016022	147.260000
470.109711	146.920000
470.203430	146.220000
470.297150	145.220000
470.390808	145.280000
470.484558	145.380000
470.578217	145.920000
470.671936	146.620000
470.765625	147.340000
470.859344	146.940000
470.953003	147.260000
471.046753	146.640000
471.140411	145.940000
471.234131	146.100000
471.327820	146.840000
471.421539	146.860000
471.515228	146.880000
471.608948	147.420000
471.702637	146.820000
471.796326	146.380000
471.890045	146.280000
471.983734	146.340000
472.077423	145.800000
472.171143	145.960000
472.264832	145.920000
472.358521	145.860000
472.452240	145.460000
472.545929	146.280000
472.639648	146.460000
472.733337	146.780000
472.827057	146.700000
472.920746	147.100000
473.014465	147.000000
473.108124	146.760000
473.201874	146.760000
473.295532	146.820000
473.389252	147.020000
473.482941	147.100000
473.576660	147.100000
473.670319	146.980000
473.764069	147.260000
473.857727	147.200000
473.951477	147.040000
474.045166	147.560000
474.138855	147.100000
474.232574	146.520000
474.326263	146.640000
474.419952	146.660000
474.513672	146.380000
474.607361	146.540000
474.701050	146.920000
474.794769	147.020000
474.888458	147.140000
474.982178	147.280000
475.075867	147.560000
475.169586	147.560000
475.263275	147.080000
475.356995	146.780000
475.450653	146.140000
475.544403	145.680000
475.638062	146.400000
475.731812	146.240000
475.825470	146.060000
475.919189	146.720000
476.012878	146.940000
476.106598	146.140000
476.200256	146.860000
476.294006	146.860000
476.387695	146.500000
476.481384	146.180000
476.575104	146.380000
476.668793	145.680000
476.762512	145.340000
476.856201	146.180000
476.949890	146.080000
477.043610	145.600000
477.137299	145.860000
477.230988	146.260000
477.324707	145.400000
477.418396	146.160000
477.512146	146.560000
477.605804	146.540000
477.699524	146.780000
477.793213	146.880000
477.886932	146.440000
477.980591	146.260000
478.074341	145.960000
478.167999	145.460000
478.261749	145.340000
478.355408	145.060000
478.449127	145.520000
478.542816	146.360000
478.636536	146.780000
478.730225	146.880000
478.823944	147.240000
478.917633	146.820000
479.011322	146.700000
479.105042	146.480000
479.198730	146.840000
479.292450	146.920000
479.386139	147.380000
479.479828	147.040000
479.573547	147.700000
479.667267	147.560000
479.760925	147.540000
479.854675	147.380000
479.948334	147.820000
480.042084	147.040000
480.135742	147.420000
480.229462	146.940000
480.323151	146.620000
480.416870	145.820000
480.510529	145.860000
480.604279	144.840000
480.697937	145.580000
480.791656	145.580000
480.885345	145.400000
480.979065	145.480000
481.072754	146.180000
481.166473	146.300000
481.260132	146.340000
481.353882	146.560000
481.447540	146.360000
481.541260	146.160000
481.635010	145.480000
481.728668	145.340000
481.822388	145.400000
481.916077	145.440000
482.009796	145.440000
482.103485	145.800000
482.197205	146.020000
482.290863	146.540000
482.384613	146.460000
482.478271	145.940000
482.571991	145.760000
482.665680	145.420000
482.759399	145.520000
482.853058	145.680000
482.946808	145.820000
483.040466	145.800000
483.134216	145.900000
483.227875	145.540000
483.321594	146.420000
483.415283	146.580000
483.509003	146.420000
483.602661	146.300000
483.696411	146.580000
483.790070	146.180000
483.883789	146.200000
483.977478	146.640000
484.071198	146.940000
484.164917	146.440000
484.258606	145.920000
484.352325	146.480000
484.445984	146.600000
484.539734	146.280000
484.633392	146.080000
484.727142	146.560000
484.820801	146.000000
484.914520	145.620000
485.008209	146.100000
485.101929	146.700000
485.195587	146.080000
485.289337	146.160000
485.382996	146.220000
485.476715	146.100000
485.570404	146.360000
485.664124	146.340000
485.757782	146.920000
485.851532	146.540000
485.945190	146.420000
486.038910	146.240000
486.132599	146.880000
486.226318	146.120000
486.319977	146.640000
486.413727	147.380000
486.507446	147.040000
486.601105	146.520000
486.694855	146.620000
486.788513	146.280000
486.882233	145.640000
486.975922	145.740000
487.069641	145.600000
487.163300	145.500000
487.257050	146.540000
487.350708	146.200000
487.444427	146.000000
487.538116	146.180000
487.631836	146.240000
487.725494	145.840000
487.819214	146.180000
487.912903	146.100000
488.006622	146.620000
488.100281	146.980000
488.194031	146.640000
488.287689	146.800000
488.381409	147.320000
488.475098	146.720000
488.568817	146.620000
488.662476	146.460000
488.756226	146.120000
488.849945	145.360000
488.943604	145.440000
489.037354	145.560000
489.131012	145.380000
489.224731	145.300000
489.318390	145.360000
489.412140	145.360000
489.505798	145.180000
489.599518	145.380000
489.693207	145.980000
489.786926	146.060000
489.880585	146.140000
489.974335	146.380000
490.067993	147.460000
490.161713	147.240000
490.255371	148.160000
490.349121	148.400000
490.442780	148.180000
490.536499	146.840000
490.630188	146.700000
490.723907	145.700000
490.817566	145.520000
490.911285	145.420000
491.004974	145.500000
491.098694	145.120000
491.192413	146.160000
491.286102	146.060000
491.379822	146.420000
491.473480	146.780000
491.567200	147.100000
491.660889	146.080000
491.754608	146.300000
491.848267	145.940000
491.941986	145.580000
492.035675	145.940000
492.129395	146.560000
492.223053	146.400000
492.316772	146.720000
492.410461	146.860000
492.504181	146.440000
492.597839	145.860000
492.691559	145.940000
492.785248	145.780000
492.878967	145.940000
492.972626	145.760000
493.066345	146.200000
493.160034	145.540000
493.253754	145.460000
493.347412	145.260000
493.441132	145.620000
493.534882	145.800000
493.628540	146.600000
493.722260	146.720000
493.815918	146.820000
493.909668	147.180000
494.003326	147.540000
494.097046	147.220000
494.190704	147.100000
494.284454	147.400000
494.378113	147.360000
494.471832	146.900000
494.565491	146.860000
494.659210	146.600000
494.752899	146.360000
494.846619	145.660000
494.940277	145.680000
495.033997	145.560000
495.127686	145.560000
495.221405	145.320000
495.315063	145.700000
495.408783	145.660000
495.502441	145.880000
495.596191	146.200000
495.689850	146.140000
495.783569	146.120000
495.877228	145.960000
495.970947	145.540000
496.064697	145.380000
496.158356	146.200000
496.252075	146.240000
496.345734	146.080000
496.439453	146.960000
496.533142	147.060000
496.626862	147.120000
496.720520	147.160000
496.814240	147.520000
496.907898	147.300000
497.001617	147.160000
497.095306	146.320000
497.189026	146.000000
497.282684	146.100000
497.376404	146.200000
497.470062	146.040000
497.563782	146.360000
497.657471	146.500000
497.751190	146.000000
497.844849	145.760000
497.938568	146.140000
498.032227	145.900000
498.125946	146.080000
498.219635	145.960000
498.313354	145.940000
498.407074	145.880000
498.500732	146.320000
498.594452	146.340000
498.688110	146.360000
498.781830	146.060000
498.875519	145.980000
498.969238	145.480000
499.062897	145.160000
499.156616	145.600000
499.250275	145.700000
499.343994	144.960000
499.437653	145.280000
499.531372	145.520000
499.625061	146.160000
499.718781	146.540000
499.812439	147.740000
499.906158	147.620000
499.999817	147.380000
500.093536	146.380000
500.187195	146.240000
500.280914	145.840000
500.374573	145.900000
500.468323	145.640000
500.561981	146.060000
500.655701	145.600000
500.749420	145.680000
500.843079	145.780000
500.936798	146.160000
501.030457	146.400000
501.124176	146.600000
501.217834	146.180000
501.311554	146.200000
501.405212	145.940000
501.498962	145.260000
501.592621	145.520000
501.686340	145.880000
501.779999	145.740000
501.873718	145.960000
501.967377	146.240000
502.061096	146.580000
502.154755	145.980000
502.248474	145.900000
502.342133	145.860000
502.435852	145.720000
502.529510	145.820000
502.623230	146.740000
502.716888	146.360000
502.810608	146.420000
502.904266	146.980000
502.997986	146.300000
503.091705	145.620000
503.185364	145.700000
503.279083	145.960000
503.372772	145.500000
503.466492	145.420000
503.560150	145.720000
503.653870	146.080000
503.747528	145.800000
503.841248	145.820000
503.934906	146.080000
504.028625	145.860000
504.122284	146.200000
504.216003	147.020000
504.309662	146.880000
504.403381	147.080000
504.497040	146.800000
504.590759	146.460000
504.684418	146.500000
504.778137	147.080000
504.871796	147.360000
504.965515	147.640000
505.059174	147.540000
505.152893	146.520000
505.246521	145.760000
505.340240	145.200000
505.433899	145.480000
505.527618	145.580000
505.621338	146.020000
505.714996	146.140000
505.808716	145.980000
505.902374	146.080000
505.996094	146.260000
506.089752	146.020000
506.183472	146.200000
506.277130	146.340000
506.370850	145.980000
506.464508	145.540000
506.558228	145.880000
506.651886	145.640000
506.745605	145.840000
506.839264	146.040000
506.932983	146.220000
507.026611	145.680000
507.120331	146.400000
507.213989	146.140000
507.307709	146.580000
507.401367	146.900000
507.495087	148.120000
507.588745	147.400000
507.682465	148.340000
507.776123	147.660000
507.869843	147.560000
507.963531	146.940000
508.057190	147.660000
508.150909	146.700000
508.244568	147.000000
508.338287	146.760000
508.431946	146.300000
508.525665	145.800000
508.619324	145.940000
508.713013	145.980000
508.806671	146.460000
508.900391	147.520000
508.994049	147.760000
509.087769	147.660000
509.181427	147.620000
509.275146	147.020000
509.368774	145.980000
509.462494	145.900000
509.556152	145.740000
509.649872	146.320000
509.743530	146.680000
509.837250	146.820000
509.930878	146.740000
510.024597	146.760000
510.118256	146.360000
510.211975	146.260000
510.305695	146.180000
510.399353	146.500000
510.493042	147.000000
510.586700	147.000000
510.680420	147.260000
510.774078	147.300000
510.867798	147.140000
510.961426	146.580000
511.055145	146.520000
511.148804	146.280000
511.242523	146.420000
511.336151	146.240000
511.429871	146.960000
511.523529	146.620000
511.617249	146.300000
511.710876	146.300000
511.804596	146.180000
511.898254	145.700000
511.991974	146.060000
512.085632	146.100000
512.179321	145.860000
512.272949	146.200000
512.366699	146.360000
512.460327	146.140000
512.554077	146.780000
512.647766	146.980000
512.741394	146.960000
512.835144	147.560000
512.928772	147.500000
513.022461	147.480000
513.116150	147.160000
513.209839	147.420000
513.303467	146.540000
513.397217	146.300000
513.490845	145.860000
513.584595	145.920000
513.678223	145.420000
513.771912	145.280000
513.865601	145.920000
513.959290	145.700000
514.052917	146.000000
514.146667	146.700000
514.240295	147.340000
514.333984	147.240000
514.427673	147.240000
514.521362	147.640000
514.614990	146.760000
514.708740	146.420000
514.802368	146.420000
514.896057	146.760000
514.989746	147.340000
515.083435	147.340000
515.177124	147.600000
515.270752	147.220000
515.364502	147.180000
515.458130	146.580000
515.551819	146.160000
515.645508	145.860000
515.739197	145.880000
515.832825	145.620000
515.926575	145.080000
516.020203	145.300000
516.113892	145.880000
516.207520	145.960000
516.301270	146.200000
516.394897	146.500000
516.488586	147.460000
516.582275	147.340000
516.675964	146.880000
516.769592	146.660000
516.863281	147.240000
516.956970	147.320000
517.050659	146.820000
517.144287	146.960000
517.238037	147.340000
517.331665	146.300000
517.425354	145.560000
517.519043	145.500000
517.612732	146.060000
517.706421	145.760000
517.800049	145.880000
517.893738	145.680000
517.987427	145.820000
518.081116	145.560000
518.174744	145.420000
518.268433	145.720000
518.362122	146.560000
518.455811	146.620000
518.549438	147.180000
518.643127	148.320000
518.736816	148.160000
518.830505	147.520000
518.924133	147.640000
519.017822	147.440000
519.111511	146.740000
519.205200	147.180000
519.298828	147.480000
519.392517	147.080000
519.486206	147.160000
519.579895	147.020000
519.673523	146.580000
519.767212	146.160000
519.860901	146.640000
519.954590	146.100000
520.048279	145.700000
520.141907	145.620000
520.235596	146.740000
520.329224	146.940000
520.422974	147.180000
520.516602	147.220000
520.610291	146.940000
520.703918	146.600000
520.797607	145.900000
520.891296	145.720000
520.984985	145.960000
521.078613	146.560000
521.172302	145.920000
521.265930	147.180000
521.359680	147.600000
521.453308	147.640000
521.546997	147.700000
521.640625	148.100000
521.734314	147.120000
521.827942	147.240000
521.921692	147.380000
522.015320	147.180000
522.109009	146.920000
522.202698	146.920000
522.296326	146.700000
522.390015	146.720000
522.483704	146.780000
522.577393	146.640000
522.671021	146.420000
522.764709	145.900000
522.858337	146.360000
522.952026	146.460000
523.045654	147.080000
523.139404	147.920000
523.233032	148.240000
523.326721	147.720000
523.420349	147.600000
523.514038	147.000000
523.607666	146.880000
523.701355	146.280000
523.795044	146.120000
523.888733	146.320000
523.982361	146.580000
524.076050	145.820000
524.169678	146.440000
524.263367	146.360000
524.356995	145.720000
524.450684	145.720000
524.544373	145.980000
524.638062	145.940000
524.731750	146.160000
524.825378	146.140000
524.919067	145.660000
525.012695	145.520000
525.106384	145.320000
525.200012	145.360000
525.293701	145.320000
525.387329	145.940000
525.481018	146.180000
525.574646	146.560000
525.668396	146.580000
525.762024	147.020000
525.855713	146.900000
525.949341	146.620000
526.043030	146.760000
526.136658	146.460000
526.230347	146.220000
526.323975	145.860000
526.417664	145.740000
526.511292	145.740000
526.604980	146.240000
526.698608	146.200000
526.792297	146.360000
526.885925	146.600000
526.979614	146.420000
527.073303	146.000000
527.166931	146.340000
527.260620	146.400000
527.354309	146.660000
527.447998	146.460000
527.541626	146.420000
527.635315	146.280000
527.728943	146.880000
527.822632	146.900000
527.916260	147.000000
528.009949	147.260000
528.103577	147.040000
528.197266	146.100000
528.290894	145.980000
528.384583	145.960000
528.478210	145.880000
528.571899	146.120000
528.665527	146.620000
528.759216	146.680000
528.852844	147.260000
528.946533	147.260000
529.040161	147.220000
529.133850	146.800000
529.227478	146.980000
529.321167	146.720000
529.414856	147.100000
529.508484	147.500000
529.602173	147.240000
529.695801	146.800000
529.789490	146.520000
529.883057	145.940000
529.976746	145.880000
530.070374	146.540000
530.164062	146.720000
530.257690	147.220000
530.351379	147.820000
530.445007	147.380000
530.538696	146.780000
530.632324	146.980000
530.726013	146.720000
530.819641	146.460000
530.913330	146.620000
531.006958	146.880000
531.100647	146.920000
531.194275	146.820000
531.287964	146.380000
531.381592	146.500000
531.475220	146.600000
531.568848	146.500000
531.662537	146.100000
531.756226	146.580000
531.849854	146.400000
531.943542	146.520000
532.037170	145.900000
532.130859	146.500000
532.224487	146.160000
532.318176	145.820000
532.411804	146.240000
532.505432	146.540000
532.599060	146.140000
532.692749	146.120000
532.786377	146.560000
532.880066	145.680000
532.973694	145.520000
533.067383	145.640000
533.161011	145.640000
533.254639	145.680000
533.348267	145.920000
533.441956	146.160000
533.535583	145.860000
533.629272	146.080000
533.722900	145.600000
533.816589	145.840000
533.910156	146.340000
534.003845	145.980000
534.097534	146.480000
534.191162	147.200000
534.284851	147.020000
534.378479	146.260000
534.472107	146.540000
534.565735	145.740000
534.659424	145.880000
534.753052	146.240000
534.846741	146.320000
534.940369	147.300000
535.033997	147.500000
535.127625	147.160000
535.221313	147.320000
535.314941	147.340000
535.408630	146.340000
535.502197	146.760000
535.595886	146.560000
535.689514	146.120000
535.783203	146.720000
535.876831	147.400000
535.970459	146.900000
536.064087	146.680000
536.157776	146.840000
536.251404	146.660000
536.345093	146.220000
536.438721	146.220000
536.532349	146.580000
536.626038	146.340000
536.719666	146.580000
536.813293	146.500000
536.906921	146.800000
537.000610	146.860000
537.094238	146.980000
537.187866	146.280000
537.281494	146.300000
537.375183	146.120000
537.468811	145.840000
537.562439	145.760000
537.656067	146.000000
537.749756	146.140000
537.843384	146.600000
537.937012	146.840000
538.030640	146.760000
538.124329	146.700000
538.217896	147.000000
538.311584	146.960000
538.405212	146.840000
538.498901	147.220000
538.592468	147.800000
538.686157	147.260000
538.779785	146.320000
538.873413	146.280000
538.967102	145.680000
539.060730	145.160000
539.154358	145.480000
539.247986	146.160000
539.341675	146.020000
539.435242	146.120000
539.528931	146.400000
539.622559	145.780000
539.716187	146.240000
539.809814	146.220000
539.903503	146.240000
539.997070	145.940000
540.090759	146.460000
540.184387	145.840000
540.278015	146.620000
540.371643	146.940000
540.465332	147.080000
540.558899	147.080000
540.652588	147.060000
540.746216	146.420000
540.839844	146.540000
540.933472	146.440000
541.027100	146.400000
541.120728	146.400000
541.214417	146.580000
541.308044	146.760000
541.401672	146.560000
541.495300	146.220000
541.588928	146.040000
541.682617	145.900000
541.776184	145.540000
541.869873	146.120000
541.963440	146.720000
542.057129	147.100000
542.150757	147.240000
542.244385	147.060000
542.338013	146.200000
542.431641	145.920000
542.525269	145.760000
542.618958	146.040000
542.712524	146.380000
542.806213	146.680000
542.899780	146.820000
542.993469	146.620000
543.087036	146.140000
543.180725	145.600000
543.274292	146.000000
543.367981	146.160000
543.461548	146.720000
543.555237	146.620000
543.648926	147.040000
543.742493	147.320000
543.836182	147.220000
543.929749	146.940000
544.023437	147.200000
544.117004	147.020000
544.210693	146.940000
544.304260	146.780000
544.397949	146.500000
544.491516	146.560000
544.585205	146.700000
544.678772	146.420000
544.772461	146.720000
544.866028	146.640000
544.959717	146.520000
545.053284	146.320000
545.146973	146.540000
545.240540	146.220000
545.334229	146.800000
545.427795	147.220000
545.521423	147.080000
545.615051	146.700000
545.708679	147.160000
545.802307	147.100000
545.895935	147.000000
545.989624	147.860000
546.083191	147.700000
546.176880	147.420000
546.270447	146.820000
546.364136	147.200000
546.457703	146.660000
546.551331	146.900000
546.644958	147.220000
546.738586	147.580000
546.832214	146.880000
546.925842	146.580000
547.019409	146.780000
547.113098	146.140000
547.206665	146.000000
547.300354	146.100000
547.393921	146.480000
547.487549	146.500000
547.581177	146.240000
547.674805	146.320000
547.768433	145.800000
547.862061	145.740000
547.955627	145.160000
548.049316	145.620000
548.142883	145.640000
548.236572	146.260000
548.330139	146.300000
548.423767	146.480000
548.517456	146.820000
548.611023	147.240000
548.704651	146.760000
548.798279	146.840000
548.891907	147.320000
548.985474	147.080000
549.079163	147.120000
549.172729	146.980000
549.266357	146.520000
549.359985	146.280000
549.453613	145.780000
549.547180	145.500000
549.640869	146.320000
549.734436	146.180000
549.828064	146.500000
549.921631	146.760000
550.015320	146.300000
550.108887	146.280000
550.202515	146.480000
550.296143	145.940000
550.389771	146.140000
550.483337	146.240000
550.576965	145.680000
550.670593	146.300000
550.764221	146.600000
550.857849	146.140000
550.951477	146.100000
551.045105	145.920000
551.138672	145.680000
551.232300	145.340000
551.325928	145.800000
551.419556	146.120000
551.513123	146.420000
551.606750	146.260000
551.700378	146.280000
551.794006	146.120000
551.887573	145.980000
551.981201	146.480000
552.074768	146.240000
552.168457	146.140000
552.262024	146.900000
552.355652	146.660000
552.449219	146.960000
552.542847	147.320000
552.636475	147.280000
552.730103	146.420000
552.823669	146.540000
552.917297	145.680000
553.010864	145.500000
553.104553	145.700000
553.198181	145.400000
553.291748	145.840000
553.385376	146.060000
553.478943	145.720000
553.572571	145.560000
553.666199	145.940000
553.759827	145.620000
553.853394	145.220000
553.947021	145.440000
554.040588	145.920000
554.134216	146.160000
554.227783	146.820000
554.321411	147.480000
554.415039	147.280000
554.508667	146.760000
554.602234	146.940000
554.695862	146.260000
554.789429	146.160000
554.883057	146.260000
554.976624	146.480000
555.070251	145.880000
555.163818	145.780000
555.257507	145.620000
555.351074	145.800000
555.444702	146.920000
555.538330	146.740000
555.631897	147.120000
555.725525	146.980000
555.819092	146.960000
555.912720	145.720000
556.006287	146.760000
556.099915	146.440000
556.193481	146.460000
556.287109	146.640000
556.380676	146.540000
556.474304	146.200000
556.567871	146.720000
556.661499	146.600000
556.755066	146.640000
556.848694	146.780000
556.942261	146.360000
557.035889	146.420000
557.129517	146.720000
557.223145	147.200000
557.316711	147.300000
557.410339	147.700000
557.503906	147.080000
557.597473	147.040000
557.691040	146.380000
557.784668	146.420000
557.878296	146.160000
557.971863	146.440000
558.065491	146.400000
558.159058	146.120000
558.252686	146.720000
558.346252	147.360000
558.439880	147.160000
558.533447	146.920000
558.627075	146.940000
558.720642	146.220000
558.814270	145.820000
558.907837	145.820000
559.001465	145.620000
559.095032	146.680000
559.188660	147.000000
559.282227	146.300000
559.375854	147.060000
559.469360	147.280000
559.562988	147.120000
559.656555	147.080000
559.750183	147.520000
559.843750	147.180000
559.937378	147.360000
560.030945	146.920000
560.124573	0.000000
560.218140	0.000000
560.311707	0.000000
560.405334	0.000000
560.498901	0.000000
560.592529	0.000000
560.686096	0.000000
560.779724	0.000000
560.873291	0.000000
560.966858	0.000000
561.060425	0.000000
561.154053	0.000000
561.247620	0.000000
561.341248	0.000000
561.434814	0.000000
561.528381	0.000000
561.621948	0.000000
561.715576	0.000000
561.809143	0.000000
561.902771	0.000000
561.996277	0.000000
562.089905	0.000000
562.183472	0.000000
562.277100	0.000000
