Model Number: SPM-002-B   
Serial Number: 70087108
Firmware Version: 004.15.4
Exposure Time: 100000.000000us
Data Taken on: 11-12-2020 18:50:32.034
Wavelength	Amplitude
221.570786	0.000000
221.663406	0.000000
221.756027	0.000000
221.848648	0.000000
221.941269	0.000000
222.033905	0.000000
222.126526	0.000000
222.219162	0.000000
222.311798	0.000000
222.404419	0.000000
222.497055	0.000000
222.589676	0.000000
222.682312	0.000000
222.774933	0.000000
222.867569	0.000000
222.960205	0.000000
223.052841	0.000000
223.145462	0.000000
223.238098	0.000000
223.330734	0.000000
223.423386	0.000000
223.516022	0.000000
223.608658	0.000000
223.701309	0.000000
223.793945	0.000000
223.886581	0.000000
223.979218	0.000000
224.071869	0.000000
224.164505	0.000000
224.257156	0.000000
224.349792	0.000000
224.442444	0.000000
224.535095	0.000000
224.627747	0.000000
224.720398	0.000000
224.813034	0.000000
224.905685	0.000000
224.998337	145.860000
225.090988	145.420000
225.183640	145.420000
225.276291	145.880000
225.368942	146.340000
225.461594	146.900000
225.554245	147.520000
225.646912	147.100000
225.739578	147.240000
225.832230	147.360000
225.924896	146.140000
226.017548	146.380000
226.110199	147.220000
226.202866	146.640000
226.295532	146.520000
226.388184	147.020000
226.480850	146.140000
226.573517	145.760000
226.666168	146.260000
226.758835	146.420000
226.851501	146.460000
226.944183	146.920000
227.036850	146.640000
227.129517	146.500000
227.222183	146.940000
227.314850	147.320000
227.407516	147.580000
227.500198	148.600000
227.592865	148.020000
227.685532	146.980000
227.778214	146.560000
227.870880	146.740000
227.963562	146.640000
228.056229	147.100000
228.148926	147.360000
228.241592	148.280000
228.334274	148.020000
228.426956	147.480000
228.519638	147.760000
228.612305	147.480000
228.704987	147.120000
228.797668	147.120000
228.890350	146.940000
228.983032	146.300000
229.075714	147.240000
229.168396	147.000000
229.261108	146.500000
229.353790	146.540000
229.446472	146.920000
229.539169	146.260000
229.631851	146.000000
229.724533	146.360000
229.817230	146.680000
229.909912	147.340000
230.002609	147.580000
230.095306	147.220000
230.187988	147.200000
230.280685	147.000000
230.373383	146.100000
230.466095	145.720000
230.558792	146.100000
230.651474	146.000000
230.744171	145.740000
230.836868	145.820000
230.929581	146.100000
231.022278	146.240000
231.114975	146.040000
231.207672	146.040000
231.300369	146.240000
231.393082	146.340000
231.485779	145.900000
231.578506	146.060000
231.671204	146.500000
231.763916	146.460000
231.856613	146.400000
231.949326	146.780000
232.042023	146.980000
232.134735	146.620000
232.227448	146.660000
232.320160	146.900000
232.412872	147.000000
232.505585	147.580000
232.598297	148.020000
232.691010	147.720000
232.783722	147.520000
232.876450	147.860000
232.969162	147.260000
233.061874	146.740000
233.154587	146.500000
233.247314	146.820000
233.340027	146.100000
233.432739	146.760000
233.525467	146.560000
233.618179	147.080000
233.710907	146.360000
233.803635	147.160000
233.896347	146.560000
233.989090	147.340000
234.081818	147.140000
234.174545	147.780000
234.267258	146.820000
234.359985	146.800000
234.452713	146.460000
234.545441	146.220000
234.638168	146.000000
234.730896	146.880000
234.823639	146.680000
234.916367	147.020000
235.009094	147.420000
235.101822	147.260000
235.194580	146.920000
235.287308	147.120000
235.380051	146.680000
235.472778	146.860000
235.565521	147.200000
235.658249	146.940000
235.750992	147.120000
235.843719	147.220000
235.936462	147.020000
236.029205	146.540000
236.121948	146.180000
236.214691	146.540000
236.307449	147.040000
236.400192	146.620000
236.492935	146.660000
236.585678	147.100000
236.678421	147.040000
236.771164	146.900000
236.863907	147.860000
236.956665	148.160000
237.049408	149.540000
237.142151	148.820000
237.234909	149.180000
237.327652	148.740000
237.420410	148.300000
237.513153	147.520000
237.605927	147.460000
237.698669	146.560000
237.791428	145.980000
237.884186	146.620000
237.976944	145.820000
238.069702	146.340000
238.162445	146.180000
238.255203	146.580000
238.347961	146.960000
238.440720	146.840000
238.533478	146.780000
238.626266	146.700000
238.719025	146.920000
238.811783	146.440000
238.904541	146.700000
238.997314	146.280000
239.090073	146.480000
239.182831	146.420000
239.275604	146.900000
239.368362	146.680000
239.461136	147.120000
239.553909	146.940000
239.646667	147.100000
239.739441	146.720000
239.832214	147.120000
239.925003	147.360000
240.017761	148.220000
240.110535	148.660000
240.203308	148.460000
240.296082	148.640000
240.388855	148.000000
240.481628	148.020000
240.574417	147.860000
240.667191	147.840000
240.759964	147.540000
240.852737	147.640000
240.945526	146.840000
241.038315	146.680000
241.131088	146.740000
241.223877	147.120000
241.316650	147.200000
241.409439	147.640000
241.502228	146.960000
241.595001	147.440000
241.687790	146.840000
241.780579	146.680000
241.873367	146.680000
241.966141	147.280000
242.058929	146.340000
242.151718	146.700000
242.244507	147.120000
242.337311	146.300000
242.430099	146.680000
242.522903	147.360000
242.615692	146.800000
242.708481	146.960000
242.801270	147.980000
242.894073	147.380000
242.986862	147.200000
243.079651	148.200000
243.172455	147.520000
243.265244	147.360000
243.358063	147.080000
243.450867	147.240000
243.543655	146.760000
243.636459	147.040000
243.729263	147.240000
243.822067	147.580000
243.914856	147.920000
244.007660	147.880000
244.100464	147.960000
244.193268	147.660000
244.286072	147.540000
244.378876	146.800000
244.471680	146.520000
244.564499	146.640000
244.657318	147.360000
244.750122	147.440000
244.842926	147.160000
244.935745	148.000000
245.028549	147.500000
245.121368	146.500000
245.214172	146.640000
245.306992	147.180000
245.399796	146.440000
245.492615	146.980000
245.585434	147.240000
245.678253	147.120000
245.771072	147.020000
245.863892	147.480000
245.956711	147.320000
246.049530	147.280000
246.142349	147.080000
246.235168	146.940000
246.327988	147.300000
246.420807	147.220000
246.513626	147.180000
246.606445	146.980000
246.699280	147.100000
246.792099	146.500000
246.884918	146.040000
246.977753	145.960000
247.070587	146.200000
247.163422	146.080000
247.256241	145.700000
247.349075	146.080000
247.441895	146.060000
247.534729	146.020000
247.627563	145.920000
247.720383	146.860000
247.813217	146.720000
247.906052	146.420000
247.998886	146.360000
248.091736	146.460000
248.184570	145.720000
248.277405	145.780000
248.370239	146.660000
248.463074	147.520000
248.555908	147.680000
248.648743	147.820000
248.741592	147.980000
248.834427	147.340000
248.927261	146.300000
249.020111	146.580000
249.112946	147.280000
249.205795	146.820000
249.298630	146.940000
249.391495	147.300000
249.484344	146.880000
249.577179	146.460000
249.670029	146.900000
249.762878	147.460000
249.855728	147.340000
249.948563	147.380000
250.041412	146.720000
250.134262	147.040000
250.227112	147.020000
250.319962	147.220000
250.412827	147.380000
250.505692	147.500000
250.598541	147.100000
250.691391	146.780000
250.784241	147.040000
250.877106	147.000000
250.969955	146.680000
251.062805	147.600000
251.155670	148.000000
251.248520	147.180000
251.341385	147.640000
251.434235	148.220000
251.527100	147.700000
251.619965	147.180000
251.712814	148.340000
251.805695	147.860000
251.898560	147.740000
251.991425	147.780000
252.084290	147.940000
252.177155	147.160000
252.270020	147.020000
252.362885	147.060000
252.455750	146.620000
252.548615	146.380000
252.641479	146.600000
252.734360	146.580000
252.827240	146.320000
252.920105	146.580000
253.012970	146.640000
253.105850	146.360000
253.198715	145.940000
253.291595	146.400000
253.384460	146.240000
253.477341	145.760000
253.570221	145.860000
253.663086	146.000000
253.755966	146.160000
253.848846	145.980000
253.941727	146.720000
254.034592	146.740000
254.127472	146.300000
254.220367	146.180000
254.313248	146.340000
254.406128	145.900000
254.499008	146.120000
254.591904	147.360000
254.684784	147.880000
254.777664	147.760000
254.870544	147.420000
254.963440	147.420000
255.056335	147.200000
255.149216	146.540000
255.242111	147.040000
255.334991	147.840000
255.427887	147.780000
255.520767	147.780000
255.613663	148.020000
255.706558	147.440000
255.799438	146.820000
255.892334	146.300000
255.985229	146.040000
256.078125	145.780000
256.171021	145.960000
256.263916	146.600000
256.356812	147.440000
256.449707	147.660000
256.542603	147.640000
256.635498	148.220000
256.728394	147.900000
256.821289	147.360000
256.914215	147.520000
257.007080	147.820000
257.100006	147.380000
257.192932	147.680000
257.285828	147.900000
257.378723	147.760000
257.471619	147.720000
257.564545	147.460000
257.657440	147.600000
257.750336	147.960000
257.843262	147.560000
257.936157	148.200000
258.029053	148.440000
258.121979	148.240000
258.214874	147.700000
258.307800	147.840000
258.400696	146.960000
258.493622	147.140000
258.586517	146.520000
258.679443	146.960000
258.772339	146.420000
258.865265	146.460000
258.958160	145.840000
259.051086	146.780000
259.144012	146.440000
259.236938	147.360000
259.329834	147.300000
259.422791	147.520000
259.515717	146.580000
259.608612	146.180000
259.701538	146.020000
259.794464	145.960000
259.887390	145.980000
259.980316	145.960000
260.073212	145.940000
260.166138	145.080000
260.259064	145.460000
260.351990	145.560000
260.444916	145.780000
260.537842	146.400000
260.630768	147.180000
260.723694	146.940000
260.816620	147.080000
260.909546	146.920000
261.002472	146.280000
261.095398	145.840000
261.188354	145.820000
261.281281	145.360000
261.374207	145.780000
261.467133	147.000000
261.560089	146.980000
261.653015	146.560000
261.745972	147.240000
261.838867	147.620000
261.931824	147.260000
262.024780	147.180000
262.117706	147.600000
262.210663	147.620000
262.303589	146.960000
262.396515	146.860000
262.489471	147.700000
262.582397	147.560000
262.675354	146.780000
262.768280	146.960000
262.861237	146.860000
262.954163	146.640000
263.047119	146.880000
263.140045	146.880000
263.233002	146.920000
263.325958	146.600000
263.418884	145.900000
263.511841	145.720000
263.604797	145.780000
263.697723	145.700000
263.790680	145.660000
263.883636	146.520000
263.976593	146.200000
264.069550	146.580000
264.162476	146.320000
264.255463	146.820000
264.348419	146.420000
264.441376	147.120000
264.534332	146.680000
264.627289	146.860000
264.720245	147.020000
264.813202	146.660000
264.906158	146.720000
264.999115	147.580000
265.092072	147.640000
265.185028	147.560000
265.277985	147.840000
265.370941	147.560000
265.463898	146.860000
265.556854	146.700000
265.649811	146.000000
265.742798	146.040000
265.835754	146.200000
265.928711	146.760000
266.021667	146.760000
266.114655	146.840000
266.207611	146.960000
266.300568	146.180000
266.393585	145.540000
266.486511	145.960000
266.579498	145.420000
266.672485	145.620000
266.765442	145.860000
266.858429	146.500000
266.951385	146.080000
267.044342	146.500000
267.137329	145.920000
267.230316	146.340000
267.323273	145.820000
267.416260	146.420000
267.509216	146.420000
267.602203	146.720000
267.695160	146.980000
267.788147	147.260000
267.881134	146.300000
267.974091	146.720000
268.067078	146.540000
268.160065	146.360000
268.253052	145.900000
268.346008	146.460000
268.438995	146.040000
268.531982	146.060000
268.624969	145.680000
268.717987	146.460000
268.810944	146.280000
268.903961	146.420000
268.996948	146.220000
269.089905	146.560000
269.182892	146.180000
269.275879	146.360000
269.368866	145.940000
269.461853	146.280000
269.554871	146.040000
269.647858	146.160000
269.740845	146.300000
269.833832	147.060000
269.926819	146.600000
270.019806	146.960000
270.112793	146.660000
270.205811	146.940000
270.298798	146.540000
270.391785	147.280000
270.484772	146.760000
270.577789	146.760000
270.670776	146.120000
270.763763	145.920000
270.856750	145.680000
270.949768	145.640000
271.042786	145.640000
271.135773	145.760000
271.228790	146.100000
271.321808	145.900000
271.414795	145.820000
271.507782	145.680000
271.600800	145.400000
271.693817	145.460000
271.786804	145.900000
271.879822	145.960000
271.972809	145.920000
272.065826	146.600000
272.158844	146.180000
272.251831	146.520000
272.344849	146.620000
272.437866	146.340000
272.530853	146.020000
272.623871	146.500000
272.716888	145.340000
272.809906	145.700000
272.902893	146.180000
272.995911	145.820000
273.088928	145.900000
273.181946	146.200000
273.274963	145.860000
273.367981	145.920000
273.460999	146.320000
273.554047	146.400000
273.647003	147.240000
273.740051	147.540000
273.833069	147.640000
273.926086	147.840000
274.019135	147.520000
274.112152	147.120000
274.205170	147.000000
274.298187	147.080000
274.391205	146.460000
274.484222	146.520000
274.577240	146.300000
274.670258	145.900000
274.763306	145.760000
274.856323	146.540000
274.949341	146.660000
275.042358	147.060000
275.135406	147.140000
275.228424	147.040000
275.321442	146.620000
275.414490	146.120000
275.507507	146.180000
275.600525	146.760000
275.693573	146.700000
275.786591	146.440000
275.879669	146.840000
275.972656	146.240000
276.065735	145.600000
276.158752	145.940000
276.251801	146.720000
276.344818	146.720000
276.437866	147.000000
276.530884	147.100000
276.623932	146.200000
276.716980	146.200000
276.809998	146.160000
276.903046	146.220000
276.996094	146.960000
277.089111	148.020000
277.182159	148.220000
277.275208	148.280000
277.368256	148.080000
277.461304	147.620000
277.554321	146.680000
277.647369	146.240000
277.740417	146.100000
277.833466	146.220000
277.926514	145.940000
278.019562	146.920000
278.112610	146.540000
278.205688	146.720000
278.298706	146.860000
278.391785	146.880000
278.484833	146.180000
278.577881	146.080000
278.670929	146.140000
278.763977	146.020000
278.857025	146.600000
278.950073	146.960000
279.043121	146.820000
279.136169	146.680000
279.229248	146.380000
279.322296	146.140000
279.415344	145.700000
279.508392	145.900000
279.601440	145.880000
279.694519	145.660000
279.787567	145.220000
279.880615	145.280000
279.973694	145.140000
280.066742	145.140000
280.159790	145.660000
280.252869	145.740000
280.345917	146.040000
280.438995	146.180000
280.532074	146.100000
280.625122	146.280000
280.718201	147.200000
280.811279	147.240000
280.904327	147.360000
280.997406	147.800000
281.090454	147.800000
281.183533	147.300000
281.276581	147.080000
281.369659	146.820000
281.462738	146.920000
281.555786	147.100000
281.648865	146.720000
281.741943	146.620000
281.835022	147.240000
281.928070	146.600000
282.021149	146.080000
282.114227	146.080000
282.207306	146.560000
282.300385	146.940000
282.393433	147.200000
282.486511	147.260000
282.579590	147.780000
282.672668	147.940000
282.765747	146.880000
282.858856	146.700000
282.951904	146.740000
283.045013	146.480000
283.138062	146.220000
283.231171	146.860000
283.324249	147.420000
283.417328	147.400000
283.510406	147.220000
283.603485	147.080000
283.696564	146.680000
283.789642	146.640000
283.882751	146.480000
283.975830	147.300000
284.068909	146.960000
284.161987	147.540000
284.255066	146.920000
284.348175	147.220000
284.441254	146.740000
284.534332	147.200000
284.627441	146.820000
284.720520	146.560000
284.813599	146.600000
284.906708	146.540000
284.999786	146.000000
285.092896	145.800000
285.185974	147.040000
285.279053	146.520000
285.372192	146.700000
285.465240	147.640000
285.558380	147.460000
285.651459	146.740000
285.744568	147.720000
285.837677	147.280000
285.930756	147.000000
286.023865	147.420000
286.116943	147.480000
286.210052	147.560000
286.303162	147.780000
286.396240	147.560000
286.489349	147.340000
286.582458	147.720000
286.675568	147.140000
286.768646	147.160000
286.861755	147.460000
286.954865	148.060000
287.047974	147.380000
287.141083	147.340000
287.234161	147.180000
287.327271	147.220000
287.420380	147.360000
287.513519	147.300000
287.606598	147.320000
287.699738	147.580000
287.792816	147.380000
287.885956	146.940000
287.979034	147.100000
288.072174	146.880000
288.165283	146.680000
288.258392	146.720000
288.351501	146.140000
288.444611	146.140000
288.537720	146.980000
288.630859	146.840000
288.723969	146.800000
288.817078	147.460000
288.910187	147.340000
289.003296	146.620000
289.096436	146.740000
289.189545	146.500000
289.282654	145.860000
289.375763	146.520000
289.468903	146.920000
289.562012	146.940000
289.655121	146.840000
289.748260	147.200000
289.841400	147.500000
289.934509	147.100000
290.027649	146.960000
290.120728	147.220000
290.213898	147.180000
290.306976	146.380000
290.400146	146.680000
290.493256	146.460000
290.586395	146.400000
290.679535	146.880000
290.772644	146.860000
290.865784	146.020000
290.958893	146.160000
291.052032	145.900000
291.145172	145.320000
291.238281	145.240000
291.331421	145.640000
291.424561	146.000000
291.517670	145.840000
291.610809	146.300000
291.703949	146.180000
291.797089	146.660000
291.890228	146.620000
291.983337	146.980000
292.076477	146.420000
292.169617	146.780000
292.262756	146.620000
292.355927	146.480000
292.449036	146.260000
292.542206	146.540000
292.635315	146.680000
292.728485	146.860000
292.821625	146.500000
292.914764	147.520000
293.007904	147.860000
293.101044	147.600000
293.194183	147.400000
293.287323	147.560000
293.380463	146.880000
293.473602	146.520000
293.566742	146.700000
293.659882	147.260000
293.753021	147.760000
293.846191	147.540000
293.939331	147.260000
294.032471	147.000000
294.125610	146.340000
294.218781	146.360000
294.311920	147.100000
294.405060	147.320000
294.498230	147.460000
294.591370	147.600000
294.684540	147.280000
294.777679	146.480000
294.870850	146.780000
294.963959	146.580000
295.057159	146.200000
295.150299	146.360000
295.243469	146.620000
295.336609	146.020000
295.429779	146.360000
295.522919	147.220000
295.616089	147.100000
295.709229	147.440000
295.802399	147.880000
295.895569	147.220000
295.988708	146.840000
296.081879	147.040000
296.175018	146.500000
296.268188	146.420000
296.361359	147.260000
296.454529	147.100000
296.547668	146.820000
296.640839	147.560000
296.734009	147.320000
296.827179	146.920000
296.920319	147.000000
297.013519	146.660000
297.106659	146.160000
297.199860	146.260000
297.292999	146.160000
297.386200	145.980000
297.479309	146.100000
297.572510	146.300000
297.665680	145.880000
297.758850	146.080000
297.852020	145.900000
297.945190	145.820000
298.038361	145.020000
298.131531	146.380000
298.224701	146.400000
298.317871	146.300000
298.411072	145.780000
298.504242	146.020000
298.597412	145.320000
298.690582	145.320000
298.783752	145.260000
298.876923	146.400000
298.970093	146.400000
299.063293	146.580000
299.156464	146.860000
299.249634	147.320000
299.342834	147.160000
299.436005	147.900000
299.529205	147.460000
299.622345	147.440000
299.715576	147.080000
299.808716	146.760000
299.901917	146.520000
299.995117	147.200000
300.088287	146.860000
300.181488	146.880000
300.274658	146.760000
300.367828	146.680000
300.461029	146.240000
300.554199	146.780000
300.647400	146.820000
300.740601	147.560000
300.833771	147.540000
300.926971	147.580000
301.020142	146.860000
301.113342	146.880000
301.206512	146.360000
301.299713	146.620000
301.392914	146.760000
301.486084	147.160000
301.579285	147.060000
301.672516	147.960000
301.765686	147.580000
301.858887	147.440000
301.952057	147.460000
302.045288	147.620000
302.138458	146.860000
302.231659	146.520000
302.324860	146.140000
302.418060	145.840000
302.511261	145.700000
302.604462	146.080000
302.697662	146.400000
302.790863	146.840000
302.884064	146.640000
302.977264	146.820000
303.070465	146.800000
303.163666	147.080000
303.256866	147.160000
303.350067	147.380000
303.443268	147.380000
303.536469	147.300000
303.629669	146.780000
303.722870	146.760000
303.816071	146.640000
303.909271	146.740000
304.002472	145.940000
304.095673	146.240000
304.188934	145.780000
304.282104	146.720000
304.375336	146.480000
304.468506	146.760000
304.561768	146.460000
304.654968	147.020000
304.748169	146.380000
304.841370	145.980000
304.934601	146.100000
305.027802	146.060000
305.121002	145.640000
305.214233	145.720000
305.307434	146.380000
305.400665	147.220000
305.493866	146.980000
305.587097	147.300000
305.680298	147.060000
305.773499	147.120000
305.866730	146.600000
305.959930	147.420000
306.053162	147.560000
306.146393	147.500000
306.239594	146.880000
306.332825	146.640000
306.426025	146.620000
306.519287	145.820000
306.612488	145.980000
306.705719	146.400000
306.798920	146.460000
306.892181	145.740000
306.985352	145.940000
307.078613	145.360000
307.171844	145.380000
307.265045	144.860000
307.358276	144.600000
307.451508	144.820000
307.544739	145.340000
307.637970	145.080000
307.731201	145.020000
307.824402	146.160000
307.917633	146.180000
308.010864	146.620000
308.104095	147.220000
308.197327	147.680000
308.290558	147.560000
308.383789	147.360000
308.477020	146.740000
308.570251	146.020000
308.663483	146.080000
308.756714	145.500000
308.849976	145.540000
308.943176	145.980000
309.036438	145.900000
309.129639	145.540000
309.222900	145.900000
309.316101	145.760000
309.409393	145.080000
309.502625	145.080000
309.595856	145.220000
309.689087	145.220000
309.782318	145.800000
309.875580	146.360000
309.968811	146.660000
310.062042	146.480000
310.155273	146.220000
310.248535	146.400000
310.341766	146.060000
310.434998	145.780000
310.528259	145.900000
310.621490	146.220000
310.714722	145.420000
310.807983	145.580000
310.901215	145.660000
310.994476	146.020000
311.087708	145.740000
311.181000	146.140000
311.274200	145.780000
311.367462	146.060000
311.460693	145.600000
311.553986	146.580000
311.647186	146.840000
311.740479	147.640000
311.833710	147.280000
311.926971	147.420000
312.020203	146.320000
312.113464	145.900000
312.206726	145.300000
312.299957	145.640000
312.393219	146.340000
312.486481	146.620000
312.579712	146.460000
312.672974	146.260000
312.766235	146.060000
312.859497	145.540000
312.952759	145.420000
313.045990	146.540000
313.139252	146.680000
313.232513	147.200000
313.325775	147.360000
313.419037	146.840000
313.512299	145.740000
313.605530	146.480000
313.698822	146.480000
313.792053	146.300000
313.885345	146.540000
313.978577	146.620000
314.071869	145.940000
314.165131	145.920000
314.258392	146.220000
314.351654	146.580000
314.444916	146.020000
314.538177	146.500000
314.631439	146.620000
314.724701	146.140000
314.817993	146.060000
314.911255	146.740000
315.004517	146.100000
315.097778	146.040000
315.191040	146.720000
315.284302	146.940000
315.377594	146.480000
315.470856	146.640000
315.564117	145.880000
315.657379	145.440000
315.750671	144.800000
315.843933	145.380000
315.937195	145.100000
316.030518	145.180000
316.123749	145.340000
316.217041	146.460000
316.310303	146.280000
316.403595	146.700000
316.496857	147.140000
316.590149	147.320000
316.683411	146.500000
316.776703	146.440000
316.869965	146.340000
316.963257	146.200000
317.056519	145.420000
317.149811	145.280000
317.243073	145.280000
317.336365	145.400000
317.429626	145.380000
317.522919	146.000000
317.616180	146.260000
317.709473	146.000000
317.802765	145.860000
317.896027	145.800000
317.989319	146.120000
318.082611	146.120000
318.175873	146.260000
318.269165	146.340000
318.362488	146.480000
318.455750	145.780000
318.549042	146.040000
318.642303	146.740000
318.735626	146.560000
318.828888	146.600000
318.922211	146.620000
319.015472	147.220000
319.108765	146.040000
319.202057	145.780000
319.295349	146.000000
319.388641	145.880000
319.481934	145.120000
319.575226	145.720000
319.668518	146.000000
319.761810	145.980000
319.855103	146.240000
319.948395	146.320000
320.041687	146.360000
320.134979	146.880000
320.228271	146.700000
320.321564	146.580000
320.414856	146.460000
320.508148	145.960000
320.601440	145.360000
320.694763	145.160000
320.788025	145.740000
320.881348	145.780000
320.974640	145.960000
321.067963	145.540000
321.161224	145.620000
321.254547	145.100000
321.347839	145.480000
321.441162	145.440000
321.534454	146.080000
321.627747	145.620000
321.721069	146.260000
321.814362	146.080000
321.907654	146.200000
322.000946	145.880000
322.094269	146.940000
322.187561	146.460000
322.280884	146.860000
322.374176	147.040000
322.467468	147.680000
322.560791	147.200000
322.654083	147.540000
322.747406	147.340000
322.840698	147.560000
322.934021	147.380000
323.027344	147.600000
323.120636	147.220000
323.213959	147.160000
323.307251	146.880000
323.400574	146.840000
323.493866	146.480000
323.587219	146.520000
323.680511	146.660000
323.773834	146.660000
323.867157	146.440000
323.960449	146.360000
324.053772	146.360000
324.147095	145.880000
324.240387	146.480000
324.333710	146.720000
324.427032	146.940000
324.520355	146.820000
324.613647	146.860000
324.706970	146.340000
324.800293	146.440000
324.893616	146.540000
324.986938	146.620000
325.080231	146.420000
325.173553	146.900000
325.266876	147.160000
325.360199	147.400000
325.453522	147.280000
325.546875	146.980000
325.640167	146.800000
325.733521	146.860000
325.826813	146.640000
325.920166	146.600000
326.013489	146.880000
326.106812	145.940000
326.200134	145.480000
326.293457	144.900000
326.386780	144.800000
326.480103	144.840000
326.573425	145.280000
326.666748	145.060000
326.760071	145.560000
326.853424	145.780000
326.946747	145.720000
327.040070	146.520000
327.133392	146.720000
327.226715	146.360000
327.320068	146.000000
327.413391	146.620000
327.506714	145.700000
327.600037	145.640000
327.693390	145.900000
327.786713	145.880000
327.880066	145.380000
327.973358	145.860000
328.066742	146.240000
328.160034	146.320000
328.253418	147.180000
328.346710	147.080000
328.440063	146.580000
328.533417	146.060000
328.626740	146.380000
328.720093	145.860000
328.813416	145.840000
328.906769	146.020000
329.000092	146.240000
329.093445	145.760000
329.186768	145.520000
329.280121	145.940000
329.373444	146.220000
329.466797	146.220000
329.560120	146.340000
329.653473	146.600000
329.746796	146.180000
329.840149	146.080000
329.933502	146.280000
330.026825	145.920000
330.120178	145.720000
330.213562	145.920000
330.306854	146.000000
330.400238	146.040000
330.493561	146.240000
330.586945	146.800000
330.680237	147.000000
330.773621	147.080000
330.866974	146.800000
330.960327	146.980000
331.053680	146.420000
331.147003	146.240000
331.240356	146.160000
331.333710	146.380000
331.427063	146.180000
331.520416	146.240000
331.613770	146.280000
331.707123	146.080000
331.800476	146.140000
331.893829	147.240000
331.987152	147.240000
332.080505	147.120000
332.173859	147.260000
332.267212	147.040000
332.360565	146.400000
332.453918	146.420000
332.547333	146.400000
332.640656	146.380000
332.734039	146.440000
332.827362	145.920000
332.920746	146.440000
333.014069	146.800000
333.107452	147.020000
333.200806	147.060000
333.294159	147.440000
333.387543	146.500000
333.480896	145.880000
333.574249	145.680000
333.667603	145.340000
333.760956	145.320000
333.854340	145.740000
333.947693	146.020000
334.041046	146.260000
334.134430	146.720000
334.227783	146.420000
334.321136	146.300000
334.414520	146.140000
334.507874	146.000000
334.601227	145.980000
334.694611	146.120000
334.787964	146.080000
334.881348	146.540000
334.974701	146.660000
335.068085	146.500000
335.161438	146.900000
335.254822	146.980000
335.348175	146.640000
335.441559	146.340000
335.534943	147.000000
335.628296	146.360000
335.721680	146.420000
335.815033	146.600000
335.908417	146.880000
336.001770	146.520000
336.095154	146.900000
336.188538	146.700000
336.281891	146.220000
336.375275	145.600000
336.468658	145.120000
336.562012	145.000000
336.655396	145.440000
336.748779	146.040000
336.842133	146.600000
336.935516	147.120000
337.028900	146.760000
337.122284	146.780000
337.215637	146.740000
337.309021	146.760000
337.402435	146.020000
337.495789	146.560000
337.589203	146.320000
337.682526	146.180000
337.775940	146.400000
337.869324	146.720000
337.962708	146.160000
338.056091	147.100000
338.149475	146.940000
338.242859	146.920000
338.336243	146.820000
338.429626	147.260000
338.523010	146.440000
338.616394	146.480000
338.709778	146.260000
338.803162	146.700000
338.896545	146.740000
338.989929	146.240000
339.083313	146.440000
339.176697	146.220000
339.270081	145.460000
339.363464	145.660000
339.456848	146.800000
339.550232	146.340000
339.643616	146.280000
339.737030	146.740000
339.830383	146.240000
339.923828	145.820000
340.017181	146.360000
340.110596	146.540000
340.203949	146.540000
340.297363	146.720000
340.390778	146.680000
340.484161	146.400000
340.577545	146.300000
340.670959	146.420000
340.764343	146.160000
340.857727	146.180000
340.951111	145.740000
341.044525	146.080000
341.137909	145.520000
341.231293	145.840000
341.324707	145.440000
341.418091	146.640000
341.511505	146.460000
341.604889	147.240000
341.698303	147.420000
341.791687	147.460000
341.885071	146.780000
341.978485	146.760000
342.071899	146.720000
342.165283	146.840000
342.258698	147.400000
342.352081	147.620000
342.445496	148.140000
342.538879	147.860000
342.632324	147.200000
342.725708	146.980000
342.819122	146.520000
342.912506	146.040000
343.005920	146.040000
343.099335	147.220000
343.192719	147.180000
343.286133	147.160000
343.379547	147.380000
343.472931	147.440000
343.566345	146.400000
343.659760	146.440000
343.753143	146.380000
343.846558	146.140000
343.939972	146.120000
344.033386	146.940000
344.126770	146.840000
344.220184	147.160000
344.313599	147.320000
344.407043	147.420000
344.500427	146.680000
344.593872	146.860000
344.687225	146.660000
344.780670	146.320000
344.874054	145.720000
344.967499	146.360000
345.060913	146.500000
345.154327	146.340000
345.247742	146.420000
345.341156	146.600000
345.434570	146.000000
345.527985	145.820000
345.621399	146.220000
345.714813	146.200000
345.808228	146.620000
345.901642	146.400000
345.995056	146.080000
346.088470	146.240000
346.181885	146.380000
346.275299	145.940000
346.368713	146.100000
346.462128	146.060000
346.555573	146.000000
346.648987	146.360000
346.742401	146.680000
346.835815	147.200000
346.929260	147.040000
347.022644	146.780000
347.116119	146.520000
347.209503	146.760000
347.302948	147.240000
347.396362	147.920000
347.489807	148.040000
347.583221	148.580000
347.676636	148.180000
347.770050	147.340000
347.863495	146.740000
347.956909	146.900000
348.050323	146.060000
348.143768	146.160000
348.237183	145.800000
348.330597	146.640000
348.424042	147.160000
348.517456	147.520000
348.610901	147.780000
348.704315	148.000000
348.797760	147.060000
348.891174	146.140000
348.984619	145.560000
349.078033	145.740000
349.171448	146.260000
349.264923	146.260000
349.358337	146.020000
349.451782	146.320000
349.545197	145.540000
349.638641	144.880000
349.732086	144.860000
349.825500	145.660000
349.918945	145.200000
350.012390	145.840000
350.105804	146.380000
350.199249	146.480000
350.292664	146.820000
350.386108	147.320000
350.479553	147.540000
350.572968	147.280000
350.666412	147.760000
350.759857	147.180000
350.853302	147.500000
350.946716	147.100000
351.040161	147.160000
351.133606	147.000000
351.227081	147.060000
351.320465	147.660000
351.413940	147.820000
351.507355	148.320000
351.600830	148.320000
351.694244	147.960000
351.787720	147.480000
351.881104	147.580000
351.974579	147.000000
352.067993	147.560000
352.161469	147.840000
352.254883	147.180000
352.348358	146.740000
352.441803	146.720000
352.535248	146.120000
352.628693	146.320000
352.722137	146.260000
352.815582	146.540000
352.909027	147.020000
353.002472	146.860000
353.095917	146.560000
353.189362	147.220000
353.282806	146.900000
353.376251	146.440000
353.469696	146.280000
353.563141	146.720000
353.656586	146.280000
353.750061	146.080000
353.843475	146.040000
353.936981	146.660000
354.030396	146.200000
354.123871	146.200000
354.217285	146.980000
354.310760	147.480000
354.404175	147.140000
354.497681	147.100000
354.591095	147.100000
354.684570	146.320000
354.777985	145.900000
354.871490	145.620000
354.964935	145.820000
355.058380	146.020000
355.151855	146.120000
355.245300	146.460000
355.338745	146.880000
355.432220	146.860000
355.525665	146.480000
355.619110	147.020000
355.712585	146.700000
355.806030	146.380000
355.899475	146.040000
355.992950	146.440000
356.086426	146.560000
356.179871	146.540000
356.273346	146.980000
356.366791	147.300000
356.460266	147.620000
356.553711	147.140000
356.647186	147.120000
356.740631	146.660000
356.834106	146.320000
356.927551	146.000000
357.021027	145.940000
357.114471	146.300000
357.207947	146.500000
357.301422	147.140000
357.394867	147.200000
357.488342	147.700000
357.581818	147.500000
357.675262	147.740000
357.768738	147.060000
357.862213	146.680000
357.955658	146.380000
358.049133	146.060000
358.142609	146.080000
358.236053	146.320000
358.329529	146.380000
358.423035	146.840000
358.516449	146.600000
358.609955	146.820000
358.703400	147.440000
358.796906	147.780000
358.890350	146.820000
358.983826	147.580000
359.077271	146.980000
359.170776	146.460000
359.264221	146.120000
359.357727	146.800000
359.451172	146.780000
359.544647	146.860000
359.638123	146.880000
359.731598	147.420000
359.825073	147.560000
359.918549	147.420000
360.012024	147.580000
360.105499	147.140000
360.198975	146.700000
360.292450	146.280000
360.385925	145.880000
360.479401	145.440000
360.572876	145.640000
360.666351	145.960000
360.759857	146.020000
360.853302	146.380000
360.946808	146.340000
361.040253	146.600000
361.133759	146.100000
361.227203	146.180000
361.320709	146.040000
361.414154	146.660000
361.507660	146.880000
361.601105	147.620000
361.694641	148.060000
361.788086	148.040000
361.881592	148.320000
361.975067	147.900000
362.068542	147.980000
362.162018	147.640000
362.255524	147.040000
362.348999	146.620000
362.442474	147.000000
362.535950	146.440000
362.629456	146.620000
362.722931	146.960000
362.816406	147.260000
362.909882	147.380000
363.003387	147.240000
363.096863	147.300000
363.190338	147.540000
363.283875	146.980000
363.377319	146.760000
363.470825	147.020000
363.564301	146.640000
363.657806	146.760000
363.751282	146.640000
363.844788	147.420000
363.938232	147.240000
364.031769	147.880000
364.125214	147.840000
364.218750	148.380000
364.312225	147.020000
364.405731	147.380000
364.499207	146.620000
364.592712	146.480000
364.686188	146.260000
364.779694	146.800000
364.873169	146.360000
364.966675	146.480000
365.060150	146.160000
365.153656	146.820000
365.247131	146.880000
365.340637	147.180000
365.434143	147.760000
365.527618	148.220000
365.621155	147.080000
365.714600	146.960000
365.808136	146.980000
365.901611	145.640000
365.995117	145.320000
366.088593	145.800000
366.182129	145.440000
366.275604	145.480000
366.369110	146.260000
366.462585	146.160000
366.556122	146.780000
366.649567	147.120000
366.743103	146.740000
366.836609	146.420000
366.930115	146.980000
367.023590	146.400000
367.117096	146.200000
367.210602	146.380000
367.304108	147.200000
367.397614	147.620000
367.491119	147.660000
367.584595	147.700000
367.678101	147.960000
367.771606	147.320000
367.865112	146.740000
367.958649	146.500000
368.052124	146.740000
368.145660	146.440000
368.239136	146.680000
368.332672	146.780000
368.426147	146.880000
368.519684	146.520000
368.613159	146.820000
368.706696	146.620000
368.800171	146.240000
368.893707	146.500000
368.987183	146.520000
369.080719	146.460000
369.174225	146.480000
369.267731	146.680000
369.361237	146.400000
369.454742	146.480000
369.548248	146.780000
369.641754	146.500000
369.735260	146.560000
369.828766	145.920000
369.922272	146.700000
370.015808	146.200000
370.109314	146.180000
370.202820	145.900000
370.296356	146.960000
370.389832	146.260000
370.483368	145.760000
370.576874	145.780000
370.670410	146.180000
370.763885	145.200000
370.857422	145.120000
370.950928	145.380000
371.044464	146.240000
371.137939	146.360000
371.231476	146.820000
371.324982	147.580000
371.418518	147.820000
371.512024	147.140000
371.605560	146.840000
371.699066	147.280000
371.792572	146.500000
371.886108	146.880000
371.979614	147.080000
372.073120	147.480000
372.166656	147.140000
372.260162	147.640000
372.353668	147.260000
372.447205	146.960000
372.540710	146.540000
372.634277	146.400000
372.727753	146.360000
372.821320	146.500000
372.914795	146.640000
373.008362	146.760000
373.101837	146.900000
373.195404	146.260000
373.288879	146.260000
373.382446	146.740000
373.475922	146.820000
373.569489	147.760000
373.662964	148.560000
373.756531	148.540000
373.850037	148.500000
373.943573	148.240000
374.037109	146.880000
374.130615	146.920000
374.224152	146.840000
374.317657	146.460000
374.411194	147.200000
374.504730	147.300000
374.598236	146.700000
374.691772	146.680000
374.785309	146.740000
374.878815	145.940000
374.972351	146.800000
375.065887	146.980000
375.159454	147.440000
375.252930	147.200000
375.346497	147.500000
375.440002	147.600000
375.533569	147.540000
375.627045	146.840000
375.720612	146.960000
375.814117	147.000000
375.907684	146.480000
376.001160	146.220000
376.094727	146.100000
376.188232	146.920000
376.281799	147.080000
376.375336	146.920000
376.468872	147.660000
376.562408	147.820000
376.655914	146.940000
376.749451	146.880000
376.842987	147.120000
376.936523	146.700000
377.030060	146.940000
377.123596	147.600000
377.217133	147.080000
377.310669	147.100000
377.404205	147.620000
377.497772	147.880000
377.591278	147.560000
377.684845	148.320000
377.778351	148.500000
377.871918	147.980000
377.965424	147.140000
378.058990	146.880000
378.152496	146.380000
378.246063	146.340000
378.339569	146.640000
378.433136	147.080000
378.526642	147.180000
378.620209	147.080000
378.713745	146.520000
378.807312	146.600000
378.900848	146.440000
378.994385	146.560000
379.087921	146.080000
379.181458	146.680000
379.274994	146.080000
379.368530	146.100000
379.462097	146.220000
379.555634	146.940000
379.649170	146.220000
379.742706	146.260000
379.836273	146.280000
379.929810	145.960000
380.023376	145.600000
380.116882	145.500000
380.210449	145.480000
380.303986	145.340000
380.397552	145.080000
380.491058	145.240000
380.584656	145.320000
380.678162	145.680000
380.771729	145.800000
380.865265	146.920000
380.958832	147.240000
381.052368	147.620000
381.145935	147.740000
381.239471	148.180000
381.333008	147.440000
381.426575	147.160000
381.520111	147.680000
381.613647	147.700000
381.707214	147.320000
381.800751	146.760000
381.894318	147.020000
381.987854	146.320000
382.081421	145.860000
382.174988	145.920000
382.268524	145.740000
382.362091	145.860000
382.455627	146.420000
382.549194	146.460000
382.642731	146.220000
382.736298	146.340000
382.829834	145.900000
382.923401	145.980000
383.016937	146.180000
383.110504	146.520000
383.204041	147.020000
383.297607	147.320000
383.391174	146.760000
383.484741	147.320000
383.578278	146.680000
383.671844	146.420000
383.765411	145.560000
383.858948	145.920000
383.952515	145.440000
384.046051	146.140000
384.139618	146.420000
384.233185	147.200000
384.326721	147.220000
384.420288	147.700000
384.513855	147.700000
384.607422	148.100000
384.700989	148.380000
384.794525	147.700000
384.888123	147.240000
384.981659	147.020000
385.075226	146.420000
385.168762	145.760000
385.262360	146.020000
385.355896	145.580000
385.449463	145.800000
385.542999	145.860000
385.636597	146.600000
385.730164	147.260000
385.823730	147.320000
385.917267	147.000000
386.010834	147.040000
386.104401	147.020000
386.197968	146.880000
386.291534	147.240000
386.385101	147.460000
386.478668	147.960000
386.572235	147.500000
386.665802	146.940000
386.759338	146.560000
386.852905	146.300000
386.946472	145.660000
387.040070	145.900000
387.133606	145.780000
387.227203	145.820000
387.320740	146.340000
387.414337	146.220000
387.507874	145.580000
387.601471	146.020000
387.695007	146.040000
387.788605	145.480000
387.882141	145.840000
387.975739	146.440000
388.069275	145.880000
388.162872	146.020000
388.256439	146.240000
388.350037	145.780000
388.443604	145.440000
388.537170	145.680000
388.630737	145.920000
388.724304	145.800000
388.817871	145.940000
388.911438	146.100000
389.005005	146.580000
389.098602	146.680000
389.192169	146.320000
389.285736	147.100000
389.379333	147.140000
389.472870	146.440000
389.566467	146.240000
389.660034	146.660000
389.753632	145.780000
389.847168	145.980000
389.940765	146.260000
390.034332	146.540000
390.127930	146.180000
390.221466	146.360000
390.315063	145.740000
390.408630	145.300000
390.502228	144.820000
390.595795	145.260000
390.689362	145.540000
390.782959	146.480000
390.876526	147.160000
390.970093	147.220000
391.063690	147.420000
391.157257	147.100000
391.250824	147.060000
391.344421	146.900000
391.437988	147.180000
391.531555	147.300000
391.625153	147.760000
391.718750	147.700000
391.812317	147.500000
391.905914	147.180000
391.999481	146.720000
392.093079	146.560000
392.186615	146.420000
392.280243	146.460000
392.373779	146.440000
392.467407	146.920000
392.560944	146.780000
392.654572	146.220000
392.748108	146.180000
392.841736	146.500000
392.935303	146.220000
393.028900	146.020000
393.122467	146.380000
393.216064	146.060000
393.309631	145.480000
393.403229	145.300000
393.496796	145.280000
393.590393	144.720000
393.683990	145.140000
393.777557	145.620000
393.871155	145.760000
393.964722	146.380000
394.058350	146.640000
394.151917	146.580000
394.245514	146.300000
394.339081	146.640000
394.432678	146.520000
394.526245	146.500000
394.619873	146.280000
394.713409	146.500000
394.807037	145.980000
394.900604	145.940000
394.994202	146.320000
395.087769	146.580000
395.181396	146.420000
395.274994	147.220000
395.368561	146.660000
395.462158	146.540000
395.555756	146.340000
395.649353	146.660000
395.742920	145.980000
395.836517	146.720000
395.930115	145.980000
396.023712	146.460000
396.117279	146.420000
396.210876	146.020000
396.304474	145.940000
396.398071	146.580000
396.491669	146.300000
396.585266	145.980000
396.678833	146.340000
396.772461	146.460000
396.866028	146.740000
396.959656	147.460000
397.053223	147.980000
397.146851	147.820000
397.240417	147.840000
397.334015	148.420000
397.427582	148.080000
397.521210	148.340000
397.614807	149.360000
397.708405	150.060000
397.802002	150.700000
397.895599	152.800000
397.989197	154.500000
398.082794	156.800000
398.176392	160.000000
398.269989	163.960000
398.363586	168.620000
398.457184	174.840000
398.550781	181.220000
398.644379	187.640000
398.737976	194.560000
398.831573	201.940000
398.925201	209.560000
399.018768	217.820000
399.112396	227.260000
399.205963	237.040000
399.299591	247.400000
399.393158	258.540000
399.486786	272.340000
399.580353	286.180000
399.673981	301.180000
399.767578	317.460000
399.861206	334.500000
399.954773	349.780000
400.048401	363.840000
400.141998	374.540000
400.235596	382.620000
400.329193	386.180000
400.422791	387.520000
400.516418	386.840000
400.610016	386.180000
400.703613	383.540000
400.797211	379.460000
400.890808	373.260000
400.984436	365.340000
401.078033	352.940000
401.171631	338.360000
401.265259	322.160000
401.358826	304.560000
401.452484	284.960000
401.546051	267.700000
401.639679	249.620000
401.733246	233.600000
401.826904	217.920000
401.920471	204.680000
402.014099	192.380000
402.107697	182.760000
402.201324	174.300000
402.294891	168.620000
402.388550	164.000000
402.482147	160.580000
402.575745	157.300000
402.669373	154.520000
402.762970	152.000000
402.856567	150.780000
402.950195	149.720000
403.043793	148.900000
403.137390	149.200000
403.231018	148.380000
403.324615	148.440000
403.418243	147.660000
403.511841	148.040000
403.605469	147.700000
403.699066	148.340000
403.792694	147.860000
403.886292	148.280000
403.979919	148.160000
404.073517	147.600000
404.167145	147.580000
404.260712	147.480000
404.354370	146.900000
404.447937	146.900000
404.541595	146.840000
404.635162	146.980000
404.728821	147.640000
404.822418	147.460000
404.916046	147.400000
405.009644	148.200000
405.103271	148.440000
405.196899	147.760000
405.290497	148.020000
405.384125	147.960000
405.477722	147.160000
405.571350	146.480000
405.664948	146.500000
405.758575	146.240000
405.852203	145.780000
405.945801	146.040000
406.039429	146.060000
406.133057	145.840000
406.226654	146.140000
406.320312	146.360000
406.413879	146.660000
406.507538	146.980000
406.601135	146.960000
406.694763	147.200000
406.788361	147.060000
406.882019	146.460000
406.975586	146.860000
407.069244	147.480000
407.162872	147.540000
407.256470	147.300000
407.350098	147.400000
407.443726	146.620000
407.537323	145.820000
407.630951	145.640000
407.724579	145.760000
407.818207	146.380000
407.911804	146.560000
408.005432	146.620000
408.099060	147.040000
408.192688	147.540000
408.286285	146.920000
408.379913	146.680000
408.473572	147.120000
408.567169	146.240000
408.660828	145.980000
408.754395	145.980000
408.848053	145.960000
408.941650	145.720000
409.035309	145.760000
409.128906	145.760000
409.222565	146.200000
409.316132	146.860000
409.409790	146.620000
409.503387	146.720000
409.597046	146.780000
409.690674	146.380000
409.784302	146.100000
409.877930	146.180000
409.971558	146.440000
410.065186	146.420000
410.158783	146.620000
410.252411	146.340000
410.346039	146.700000
410.439667	146.620000
410.533295	146.860000
410.626923	147.280000
410.720551	147.340000
410.814209	147.640000
410.907806	147.780000
411.001465	147.120000
411.095062	146.860000
411.188721	146.880000
411.282318	146.160000
411.375977	145.920000
411.469574	146.640000
411.563232	146.160000
411.656830	146.220000
411.750488	146.440000
411.844086	146.360000
411.937744	146.000000
412.031372	146.040000
412.125000	146.000000
412.218628	145.940000
412.312256	146.860000
412.405884	147.240000
412.499512	147.320000
412.593170	147.460000
412.686798	147.700000
412.780426	146.620000
412.874054	146.620000
412.967682	146.780000
413.061310	147.400000
413.154968	147.380000
413.248566	147.840000
413.342224	147.640000
413.435852	147.660000
413.529510	146.720000
413.623108	146.180000
413.716766	146.080000
413.810364	146.440000
413.904022	145.880000
413.997650	145.860000
414.091309	146.740000
414.184906	146.620000
414.278564	146.020000
414.372192	146.780000
414.465851	147.120000
414.559479	146.680000
414.653107	147.780000
414.746735	147.900000
414.840393	147.820000
414.934021	148.240000
415.027649	147.640000
415.121277	147.020000
415.214935	147.140000
415.308563	147.120000
415.402191	146.500000
415.495850	146.920000
415.589478	146.520000
415.683136	146.280000
415.776733	146.360000
415.870422	146.700000
415.964020	146.440000
416.057678	146.560000
416.151306	146.600000
416.244965	146.540000
416.338562	146.460000
416.432251	146.880000
416.525848	147.660000
416.619507	147.880000
416.713165	147.940000
416.806793	147.980000
416.900421	148.100000
416.994080	146.900000
417.087708	146.640000
417.181366	146.080000
417.274994	145.840000
417.368622	146.240000
417.462280	147.180000
417.555908	147.180000
417.649567	147.380000
417.743195	147.280000
417.836853	146.780000
417.930481	146.660000
418.024170	146.980000
418.117767	147.360000
418.211426	147.640000
418.305054	147.840000
418.398712	147.220000
418.492340	147.320000
418.585999	147.440000
418.679626	147.400000
418.773285	147.320000
418.866913	147.780000
418.960571	147.720000
419.054230	147.700000
419.147858	147.900000
419.241516	147.900000
419.335144	147.540000
419.428802	147.460000
419.522461	146.860000
419.616089	146.520000
419.709747	146.840000
419.803375	147.080000
419.897034	146.880000
419.990662	147.240000
420.084320	147.620000
420.177979	147.520000
420.271606	147.480000
420.365295	148.020000
420.458893	148.120000
420.552582	148.260000
420.646210	148.140000
420.739868	148.040000
420.833496	147.560000
420.927155	147.060000
421.020782	146.640000
421.114471	146.080000
421.208069	146.020000
421.301758	146.260000
421.395386	146.500000
421.489044	146.040000
421.582703	146.260000
421.676361	146.820000
421.769989	146.260000
421.863647	146.840000
421.957306	147.340000
422.050934	147.420000
422.144592	146.840000
422.238251	146.920000
422.331909	146.180000
422.425537	145.880000
422.519196	145.940000
422.612854	145.800000
422.706543	145.720000
422.800140	146.220000
422.893829	146.040000
422.987457	145.640000
423.081146	145.760000
423.174744	146.380000
423.268433	145.960000
423.362061	145.960000
423.455750	146.020000
423.549347	145.980000
423.643036	145.280000
423.736664	145.820000
423.830353	146.240000
423.924011	146.960000
424.017639	146.540000
424.111298	146.860000
424.204956	146.700000
424.298615	146.460000
424.392273	146.040000
424.485931	146.420000
424.579559	146.240000
424.673218	146.180000
424.766876	146.420000
424.860535	146.240000
424.954193	146.320000
425.047882	147.020000
425.141510	146.740000
425.235199	146.780000
425.328796	146.680000
425.422485	146.620000
425.516113	145.760000
425.609802	145.600000
425.703430	145.540000
425.797119	145.620000
425.890747	145.540000
425.984436	145.680000
426.078064	146.160000
426.171753	146.220000
426.265411	145.940000
426.359070	146.260000
426.452728	146.440000
426.546356	146.080000
426.640015	145.900000
426.733673	146.040000
426.827332	145.600000
426.920990	146.440000
427.014648	146.200000
427.108307	146.140000
427.201965	146.640000
427.295624	147.040000
427.389282	145.940000
427.482941	146.500000
427.576630	146.480000
427.670258	145.760000
427.763947	145.580000
427.857574	145.740000
427.951263	145.560000
428.044922	145.560000
428.138611	145.940000
428.232239	146.440000
428.325928	147.120000
428.419556	147.500000
428.513245	147.440000
428.606903	147.660000
428.700562	147.240000
428.794220	146.560000
428.887878	146.080000
428.981537	146.400000
429.075195	146.240000
429.168854	146.440000
429.262512	146.540000
429.356201	146.620000
429.449860	146.640000
429.543518	146.900000
429.637177	146.820000
429.730835	146.840000
429.824493	146.960000
429.918182	147.000000
430.011810	146.300000
430.105530	145.820000
430.199158	145.960000
430.292847	145.700000
430.386475	145.480000
430.480164	145.600000
430.573792	145.500000
430.667511	145.200000
430.761139	145.180000
430.854828	145.540000
430.948456	145.760000
431.042145	146.660000
431.135834	146.660000
431.229492	146.780000
431.323151	146.380000
431.416809	146.360000
431.510468	145.680000
431.604156	145.580000
431.697815	145.540000
431.791473	145.360000
431.885132	144.860000
431.978821	145.240000
432.072479	145.740000
432.166138	146.020000
432.259827	146.460000
432.353485	147.300000
432.447174	147.480000
432.540802	147.120000
432.634491	147.020000
432.728149	146.980000
432.821838	147.380000
432.915466	146.860000
433.009186	146.980000
433.102814	146.520000
433.196503	146.040000
433.290131	145.560000
433.383850	146.000000
433.477509	146.300000
433.571167	147.200000
433.664856	147.860000
433.758514	148.120000
433.852173	148.040000
433.945862	147.500000
434.039520	147.280000
434.133179	146.480000
434.226868	146.200000
434.320526	145.660000
434.414185	146.300000
434.507874	145.940000
434.601562	146.540000
434.695221	146.200000
434.788910	146.640000
434.882538	146.520000
434.976257	145.920000
435.069885	146.100000
435.163574	146.400000
435.257233	145.820000
435.350922	145.660000
435.444580	146.100000
435.538269	145.900000
435.631897	146.060000
435.725616	146.960000
435.819275	147.140000
435.912964	147.440000
436.006622	147.720000
436.100311	147.460000
436.193970	146.860000
436.287628	146.560000
436.381317	146.420000
436.474976	145.960000
436.568665	145.840000
436.662323	145.960000
436.756012	146.040000
436.849670	145.820000
436.943390	145.760000
437.037018	145.600000
437.130737	145.920000
437.224365	145.980000
437.318085	146.040000
437.411713	146.280000
437.505432	146.960000
437.599060	147.100000
437.692780	147.660000
437.786407	147.580000
437.880127	147.460000
437.973755	146.720000
438.067474	146.000000
438.161133	145.600000
438.254822	146.140000
438.348480	145.880000
438.442169	146.840000
438.535828	147.440000
438.629517	146.880000
438.723175	146.340000
438.816864	146.920000
438.910553	145.880000
439.004211	145.620000
439.097900	145.580000
439.191559	145.740000
439.285248	144.980000
439.378906	145.880000
439.472626	146.020000
439.566284	146.280000
439.659973	146.620000
439.753632	146.740000
439.847321	146.880000
439.940979	146.880000
440.034698	146.960000
440.128326	146.540000
440.222046	146.680000
440.315674	145.840000
440.409393	145.800000
440.503082	145.780000
440.596741	145.880000
440.690430	146.100000
440.784088	146.280000
440.877777	145.840000
440.971466	145.880000
441.065125	145.920000
441.158813	145.660000
441.252502	145.580000
441.346161	145.960000
441.439850	146.100000
441.533539	146.020000
441.627197	146.520000
441.720886	146.520000
441.814606	146.880000
441.908234	147.100000
442.001953	147.020000
442.095612	146.660000
442.189301	147.000000
442.282959	146.920000
442.376678	146.200000
442.470306	147.060000
442.564026	146.760000
442.657684	146.960000
442.751404	146.820000
442.845032	147.720000
442.938751	146.820000
443.032440	147.420000
443.126099	146.720000
443.219788	146.980000
443.313477	146.300000
443.407166	146.780000
443.500824	146.660000
443.594513	147.040000
443.688202	146.640000
443.781891	146.540000
443.875549	146.240000
443.969238	146.180000
444.062927	146.120000
444.156647	146.000000
444.250275	146.580000
444.343994	146.600000
444.437653	146.400000
444.531372	146.380000
444.625031	146.420000
444.718719	146.000000
444.812378	145.900000
444.906097	145.860000
444.999756	145.480000
445.093445	145.460000
445.187103	145.620000
445.280823	146.380000
445.374512	146.020000
445.468201	146.600000
445.561859	146.720000
445.655548	146.540000
445.749237	145.600000
445.842926	146.340000
445.936615	146.720000
446.030304	146.560000
446.123962	147.040000
446.217651	147.340000
446.311340	147.160000
446.405029	146.340000
446.498749	146.160000
446.592407	145.780000
446.686096	145.940000
446.779755	146.300000
446.873474	146.660000
446.967133	146.940000
447.060852	147.040000
447.154510	146.740000
447.248230	146.460000
447.341858	146.280000
447.435577	145.920000
447.529236	145.360000
447.622955	145.380000
447.716644	145.540000
447.810333	145.800000
447.904022	146.220000
447.997711	146.380000
448.091400	146.560000
448.185059	146.200000
448.278748	146.340000
448.372437	146.200000
448.466125	146.580000
448.559814	146.320000
448.653503	146.480000
448.747192	146.580000
448.840912	146.820000
448.934570	146.740000
449.028290	147.200000
449.121948	146.980000
449.215637	146.520000
449.309296	146.200000
449.403015	146.320000
449.496674	146.000000
449.590393	145.960000
449.684052	145.860000
449.777771	146.900000
449.871429	146.280000
449.965149	146.460000
450.058838	146.860000
450.152527	147.360000
450.246216	146.680000
450.339905	146.920000
450.433594	146.240000
450.527283	146.780000
450.620972	146.340000
450.714661	146.200000
450.808350	146.340000
450.902039	147.080000
450.995728	146.440000
451.089417	146.200000
451.183105	146.240000
451.276794	146.580000
451.370514	146.040000
451.464172	145.340000
451.557892	145.560000
451.651550	145.820000
451.745270	145.240000
451.838928	145.200000
451.932648	145.800000
452.026306	146.240000
452.120026	145.640000
452.213684	146.160000
452.307404	146.660000
452.401062	146.560000
452.494781	146.620000
452.588470	146.920000
452.682159	146.420000
452.775848	146.480000
452.869537	146.180000
452.963226	145.560000
453.056915	145.600000
453.150604	145.640000
453.244293	145.660000
453.337982	146.660000
453.431671	147.300000
453.525360	147.560000
453.619049	147.820000
453.712769	147.840000
453.806427	147.000000
453.900146	146.260000
453.993805	146.140000
454.087555	146.340000
454.181213	146.300000
454.274933	146.300000
454.368591	146.480000
454.462311	146.240000
454.555969	145.900000
454.649689	146.200000
454.743347	146.300000
454.837067	147.040000
454.930756	147.600000
455.024445	147.820000
455.118134	147.580000
455.211853	147.680000
455.305542	146.920000
455.399231	146.600000
455.492920	146.460000
455.586609	146.600000
455.680298	146.720000
455.773987	146.680000
455.867676	146.880000
455.961365	147.040000
456.055084	146.680000
456.148773	146.680000
456.242493	146.660000
456.336151	146.460000
456.429871	146.600000
456.523529	146.860000
456.617249	146.460000
456.710907	147.420000
456.804626	147.240000
456.898315	146.500000
456.992035	146.380000
457.085693	146.240000
457.179413	145.140000
457.273102	146.180000
457.366791	146.720000
457.460480	146.800000
457.554199	147.640000
457.647888	148.180000
457.741577	147.460000
457.835266	147.700000
457.928955	148.020000
458.022644	148.180000
458.116364	148.100000
458.210052	147.920000
458.303741	147.800000
458.397461	146.880000
458.491119	145.820000
458.584839	145.680000
458.678528	145.340000
458.772247	145.220000
458.865906	145.700000
458.959625	147.080000
459.053284	147.060000
459.147003	146.940000
459.240692	147.920000
459.334412	147.740000
459.428070	147.040000
459.521790	147.040000
459.615479	147.200000
459.709198	146.840000
459.802887	146.720000
459.896576	146.560000
459.990265	146.720000
460.083954	147.180000
460.177673	146.480000
460.271362	146.540000
460.365051	146.460000
460.458740	145.860000
460.552429	145.140000
460.646149	145.120000
460.739838	144.940000
460.833527	145.080000
460.927246	145.200000
461.020905	145.460000
461.114655	145.780000
461.208313	146.320000
461.302032	146.080000
461.395691	146.300000
461.489441	146.140000
461.583099	145.900000
461.676819	145.280000
461.770477	145.600000
461.864197	145.540000
461.957916	145.700000
462.051605	145.200000
462.145294	146.360000
462.238983	145.720000
462.332703	146.340000
462.426392	146.780000
462.520081	147.080000
462.613770	146.300000
462.707489	146.700000
462.801178	146.080000
462.894867	146.000000
462.988556	145.960000
463.082275	146.000000
463.175964	145.700000
463.269684	146.100000
463.363342	145.860000
463.457092	145.660000
463.550751	145.920000
463.644470	146.420000
463.738129	146.240000
463.831879	146.520000
463.925537	147.280000
464.019257	147.400000
464.112946	147.200000
464.206665	147.020000
464.300323	146.960000
464.394043	146.600000
464.487762	146.180000
464.581451	146.520000
464.675140	146.700000
464.768829	146.800000
464.862549	147.080000
464.956238	147.300000
465.049927	147.240000
465.143646	147.480000
465.237335	147.100000
465.331024	147.380000
465.424713	147.500000
465.518433	147.440000
465.612152	147.060000
465.705811	147.340000
465.799561	146.800000
465.893219	146.620000
465.986938	146.320000
466.080597	146.100000
466.174347	146.380000
466.268005	146.740000
466.361725	146.640000
466.455414	146.580000
466.549133	146.580000
466.642792	146.560000
466.736542	145.920000
466.830231	145.860000
466.923920	146.000000
467.017609	146.140000
467.111328	145.720000
467.205017	145.920000
467.298706	146.060000
467.392426	146.140000
467.486115	146.540000
467.579803	146.240000
467.673523	146.600000
467.767212	146.800000
467.860901	146.920000
467.954651	146.780000
468.048309	147.080000
468.142029	146.680000
468.235718	146.540000
468.329437	146.160000
468.423096	146.200000
468.516846	145.980000
468.610504	145.940000
468.704224	145.620000
468.797913	145.720000
468.891632	145.820000
468.985291	145.720000
469.079010	145.880000
469.172729	145.540000
469.266418	146.140000
469.360107	145.940000
469.453827	145.920000
469.547516	145.940000
469.641205	146.640000
469.734924	146.600000
469.828613	147.040000
469.922302	147.500000
470.016022	147.300000
470.109711	147.240000
470.203430	146.740000
470.297150	146.200000
470.390808	146.300000
470.484558	146.660000
470.578217	146.840000
470.671936	147.060000
470.765625	147.160000
470.859344	146.520000
470.953003	146.400000
471.046753	146.140000
471.140411	145.180000
471.234131	145.540000
471.327820	146.480000
471.421539	146.460000
471.515228	146.160000
471.608948	146.740000
471.702637	146.160000
471.796326	145.520000
471.890045	145.880000
471.983734	146.160000
472.077423	145.920000
472.171143	146.340000
472.264832	146.560000
472.358521	145.920000
472.452240	145.460000
472.545929	146.560000
472.639648	146.660000
472.733337	146.920000
472.827057	147.420000
472.920746	147.900000
473.014465	147.900000
473.108124	148.000000
473.201874	147.640000
473.295532	147.360000
473.389252	147.440000
473.482941	147.140000
473.576660	146.540000
473.670319	146.600000
473.764069	146.920000
473.857727	147.320000
473.951477	147.620000
474.045166	148.200000
474.138855	147.960000
474.232574	147.660000
474.326263	147.320000
474.419952	147.240000
474.513672	147.140000
474.607361	147.000000
474.701050	147.340000
474.794769	147.780000
474.888458	147.740000
474.982178	147.440000
475.075867	147.900000
475.169586	147.480000
475.263275	147.020000
475.356995	146.840000
475.450653	146.720000
475.544403	146.320000
475.638062	147.180000
475.731812	147.040000
475.825470	146.740000
475.919189	147.080000
476.012878	147.420000
476.106598	146.440000
476.200256	146.760000
476.294006	146.760000
476.387695	146.520000
476.481384	146.500000
476.575104	146.700000
476.668793	146.180000
476.762512	146.040000
476.856201	146.500000
476.949890	146.000000
477.043610	145.380000
477.137299	145.300000
477.230988	145.580000
477.324707	144.940000
477.418396	145.560000
477.512146	146.100000
477.605804	146.160000
477.699524	145.980000
477.793213	146.440000
477.886932	146.400000
477.980591	146.180000
478.074341	146.120000
478.167999	145.680000
478.261749	145.660000
478.355408	145.280000
478.449127	145.760000
478.542816	146.640000
478.636536	147.600000
478.730225	147.600000
478.823944	148.240000
478.917633	148.260000
479.011322	147.940000
479.105042	147.500000
479.198730	147.440000
479.292450	146.940000
479.386139	146.940000
479.479828	146.980000
479.573547	147.400000
479.667267	147.140000
479.760925	147.200000
479.854675	147.180000
479.948334	147.340000
480.042084	146.720000
480.135742	147.120000
480.229462	146.440000
480.323151	146.500000
480.416870	145.760000
480.510529	145.900000
480.604279	145.320000
480.697937	146.180000
480.791656	145.460000
480.885345	145.580000
480.979065	145.660000
481.072754	146.300000
481.166473	146.600000
481.260132	147.000000
481.353882	147.020000
481.447540	147.060000
481.541260	146.840000
481.635010	145.880000
481.728668	145.900000
481.822388	145.640000
481.916077	145.500000
482.009796	145.260000
482.103485	146.160000
482.197205	145.960000
482.290863	146.460000
482.384613	146.340000
482.478271	146.040000
482.571991	145.560000
482.665680	145.700000
482.759399	146.400000
482.853058	146.780000
482.946808	147.160000
483.040466	147.000000
483.134216	146.780000
483.227875	145.960000
483.321594	146.300000
483.415283	146.500000
483.509003	146.660000
483.602661	146.720000
483.696411	146.940000
483.790070	146.480000
483.883789	146.040000
483.977478	146.120000
484.071198	146.320000
484.164917	145.920000
484.258606	145.700000
484.352325	146.280000
484.445984	146.480000
484.539734	146.520000
484.633392	146.240000
484.727142	146.580000
484.820801	146.200000
484.914520	145.860000
485.008209	145.840000
485.101929	146.800000
485.195587	146.540000
485.289337	146.720000
485.382996	146.580000
485.476715	146.700000
485.570404	146.480000
485.664124	146.660000
485.757782	147.220000
485.851532	147.360000
485.945190	147.200000
486.038910	147.000000
486.132599	147.460000
486.226318	146.580000
486.319977	146.680000
486.413727	147.200000
486.507446	147.160000
486.601105	146.200000
486.694855	146.200000
486.788513	145.740000
486.882233	145.260000
486.975922	145.180000
487.069641	145.440000
487.163300	145.160000
487.257050	146.740000
487.350708	146.620000
487.444427	146.180000
487.538116	146.060000
487.631836	146.200000
487.725494	145.320000
487.819214	145.300000
487.912903	145.380000
488.006622	145.920000
488.100281	146.240000
488.194031	146.160000
488.287689	146.560000
488.381409	147.380000
488.475098	147.260000
488.568817	147.320000
488.662476	147.040000
488.756226	146.620000
488.849945	145.680000
488.943604	145.360000
489.037354	145.520000
489.131012	145.540000
489.224731	145.400000
489.318390	145.620000
489.412140	145.920000
489.505798	145.580000
489.599518	145.380000
489.693207	145.900000
489.786926	145.720000
489.880585	145.600000
489.974335	146.100000
490.067993	147.280000
490.161713	147.360000
490.255371	148.380000
490.349121	148.260000
490.442780	147.920000
490.536499	146.780000
490.630188	146.660000
490.723907	146.140000
490.817566	146.180000
490.911285	146.180000
491.004974	146.520000
491.098694	146.200000
491.192413	146.520000
491.286102	146.360000
491.379822	146.560000
491.473480	146.340000
491.567200	146.560000
491.660889	146.040000
491.754608	146.440000
491.848267	146.080000
491.941986	145.960000
492.035675	145.820000
492.129395	146.160000
492.223053	145.840000
492.316772	146.080000
492.410461	146.340000
492.504181	146.380000
492.597839	145.880000
492.691559	146.180000
492.785248	146.240000
492.878967	146.500000
492.972626	146.280000
493.066345	146.580000
493.160034	145.860000
493.253754	145.760000
493.347412	145.180000
493.441132	145.480000
493.534882	146.100000
493.628540	146.800000
493.722260	146.940000
493.815918	147.300000
493.909668	147.640000
494.003326	147.600000
494.097046	147.500000
494.190704	147.200000
494.284454	147.140000
494.378113	146.960000
494.471832	146.440000
494.565491	146.220000
494.659210	146.560000
494.752899	146.700000
494.846619	146.120000
494.940277	146.420000
495.033997	146.480000
495.127686	145.960000
495.221405	145.800000
495.315063	146.280000
495.408783	146.180000
495.502441	146.520000
495.596191	147.000000
495.689850	146.800000
495.783569	146.960000
495.877228	147.040000
495.970947	146.460000
496.064697	146.040000
496.158356	146.880000
496.252075	146.720000
496.345734	146.680000
496.439453	147.600000
496.533142	147.780000
496.626862	147.900000
496.720520	147.940000
496.814240	147.680000
496.907898	146.920000
497.001617	146.800000
497.095306	145.860000
497.189026	145.740000
497.282684	146.240000
497.376404	146.580000
497.470062	146.600000
497.563782	146.880000
497.657471	146.920000
497.751190	146.200000
497.844849	145.960000
497.938568	146.260000
498.032227	146.180000
498.125946	146.020000
498.219635	146.160000
498.313354	146.660000
498.407074	146.580000
498.500732	146.600000
498.594452	146.960000
498.688110	146.840000
498.781830	146.180000
498.875519	145.960000
498.969238	145.880000
499.062897	145.640000
499.156616	146.220000
499.250275	146.700000
499.343994	146.420000
499.437653	146.440000
499.531372	146.860000
499.625061	146.880000
499.718781	146.980000
499.812439	147.500000
499.906158	147.440000
499.999817	146.540000
500.093536	145.920000
500.187195	145.480000
500.280914	145.240000
500.374573	145.420000
500.468323	145.640000
500.561981	146.040000
500.655701	146.020000
500.749420	145.820000
500.843079	146.100000
500.936798	146.380000
501.030457	146.680000
501.124176	146.720000
501.217834	146.980000
501.311554	146.440000
501.405212	146.140000
501.498962	145.140000
501.592621	145.180000
501.686340	145.480000
501.779999	145.920000
501.873718	146.240000
501.967377	146.880000
502.061096	147.320000
502.154755	146.980000
502.248474	146.940000
502.342133	147.260000
502.435852	147.020000
502.529510	147.580000
502.623230	147.980000
502.716888	147.540000
502.810608	147.400000
502.904266	147.900000
502.997986	146.900000
503.091705	146.500000
503.185364	146.780000
503.279083	146.300000
503.372772	145.940000
503.466492	145.680000
503.560150	145.900000
503.653870	145.780000
503.747528	146.280000
503.841248	146.180000
503.934906	146.320000
504.028625	145.760000
504.122284	145.960000
504.216003	146.280000
504.309662	146.000000
504.403381	146.460000
504.497040	146.560000
504.590759	146.280000
504.684418	145.840000
504.778137	146.520000
504.871796	146.460000
504.965515	146.340000
505.059174	146.460000
505.152893	146.000000
505.246521	145.560000
505.340240	145.220000
505.433899	145.560000
505.527618	145.680000
505.621338	146.400000
505.714996	146.140000
505.808716	146.320000
505.902374	146.820000
505.996094	147.020000
506.089752	146.400000
506.183472	146.820000
506.277130	146.760000
506.370850	146.300000
506.464508	145.860000
506.558228	146.160000
506.651886	145.600000
506.745605	145.980000
506.839264	146.140000
506.932983	146.540000
507.026611	146.600000
507.120331	147.180000
507.213989	146.320000
507.307709	146.460000
507.401367	146.520000
507.495087	147.200000
507.588745	147.100000
507.682465	148.160000
507.776123	147.880000
507.869843	147.740000
507.963531	147.180000
508.057190	147.560000
508.150909	146.660000
508.244568	146.920000
508.338287	146.180000
508.431946	146.080000
508.525665	145.680000
508.619324	145.860000
508.713013	145.840000
508.806671	146.860000
508.900391	147.660000
508.994049	147.980000
509.087769	147.880000
509.181427	148.140000
509.275146	147.500000
509.368774	146.600000
509.462494	146.260000
509.556152	146.500000
509.649872	146.560000
509.743530	147.200000
509.837250	147.500000
509.930878	147.640000
510.024597	147.300000
510.118256	146.840000
510.211975	146.420000
510.305695	146.140000
510.399353	146.400000
510.493042	146.880000
510.586700	146.960000
510.680420	147.640000
510.774078	147.520000
510.867798	147.360000
510.961426	146.940000
511.055145	147.080000
511.148804	146.140000
511.242523	146.660000
511.336151	146.940000
511.429871	147.300000
511.523529	147.000000
511.617249	146.940000
511.710876	146.540000
511.804596	145.700000
511.898254	145.500000
511.991974	145.800000
512.085632	145.860000
512.179321	146.000000
512.272949	146.680000
512.366699	147.280000
512.460327	147.100000
512.554077	147.900000
512.647766	147.680000
512.741394	147.500000
512.835144	147.360000
512.928772	147.260000
513.022461	147.160000
513.116150	146.900000
513.209839	147.280000
513.303467	146.920000
513.397217	146.660000
513.490845	146.220000
513.584595	146.180000
513.678223	145.560000
513.771912	144.920000
513.865601	145.480000
513.959290	145.300000
514.052917	145.560000
514.146667	146.540000
514.240295	147.440000
514.333984	147.360000
514.427673	147.440000
514.521362	147.820000
514.614990	147.100000
514.708740	147.040000
514.802368	147.080000
514.896057	147.120000
514.989746	147.380000
515.083435	147.140000
515.177124	147.280000
515.270752	146.820000
515.364502	146.980000
515.458130	146.900000
515.551819	146.980000
515.645508	146.380000
515.739197	146.660000
515.832825	146.720000
515.926575	146.240000
516.020203	146.400000
516.113892	147.140000
516.207520	147.040000
516.301270	147.180000
516.394897	147.360000
516.488586	147.780000
516.582275	147.380000
516.675964	146.700000
516.769592	146.380000
516.863281	146.880000
516.956970	146.680000
517.050659	146.500000
517.144287	146.840000
517.238037	146.980000
517.331665	146.100000
517.425354	145.800000
517.519043	145.920000
517.612732	146.440000
517.706421	146.340000
517.800049	146.420000
517.893738	146.280000
517.987427	146.360000
518.081116	146.260000
518.174744	145.740000
518.268433	146.340000
518.362122	147.200000
518.455811	147.000000
518.549438	147.560000
518.643127	148.660000
518.736816	148.180000
518.830505	147.140000
518.924133	146.940000
519.017822	146.780000
519.111511	146.300000
519.205200	146.660000
519.298828	146.980000
519.392517	146.940000
519.486206	146.700000
519.579895	146.600000
519.673523	146.160000
519.767212	146.440000
519.860901	147.000000
519.954590	146.540000
520.048279	146.180000
520.141907	146.080000
520.235596	146.680000
520.329224	146.840000
520.422974	147.120000
520.516602	147.100000
520.610291	147.140000
520.703918	146.860000
520.797607	146.280000
520.891296	146.400000
520.984985	146.540000
521.078613	147.120000
521.172302	146.180000
521.265930	146.940000
521.359680	147.220000
521.453308	147.240000
521.546997	146.860000
521.640625	147.360000
521.734314	146.660000
521.827942	146.320000
521.921692	146.760000
522.015320	146.760000
522.109009	146.440000
522.202698	146.520000
522.296326	146.520000
522.390015	146.660000
522.483704	146.740000
522.577393	146.880000
522.671021	146.740000
522.764709	146.560000
522.858337	146.680000
522.952026	146.560000
523.045654	146.920000
523.139404	147.860000
523.233032	148.220000
523.326721	147.600000
523.420349	147.740000
523.514038	147.120000
523.607666	146.960000
523.701355	146.580000
523.795044	146.900000
523.888733	146.800000
523.982361	147.400000
524.076050	146.720000
524.169678	147.160000
524.263367	146.960000
524.356995	146.900000
524.450684	146.720000
524.544373	146.640000
524.638062	146.060000
524.731750	146.160000
524.825378	146.080000
524.919067	145.560000
525.012695	145.880000
525.106384	145.920000
525.200012	145.740000
525.293701	145.860000
525.387329	146.600000
525.481018	146.620000
525.574646	147.100000
525.668396	147.380000
525.762024	147.560000
525.855713	147.580000
525.949341	147.120000
526.043030	147.120000
526.136658	146.380000
526.230347	146.220000
526.323975	145.440000
526.417664	145.560000
526.511292	145.660000
526.604980	146.360000
526.698608	146.080000
526.792297	146.460000
526.885925	146.760000
526.979614	146.500000
527.073303	146.280000
527.166931	146.440000
527.260620	146.740000
527.354309	146.960000
527.447998	146.820000
527.541626	146.660000
527.635315	146.800000
527.728943	147.220000
527.822632	147.080000
527.916260	147.260000
528.009949	147.320000
528.103577	147.060000
528.197266	146.340000
528.290894	146.380000
528.384583	146.000000
528.478210	146.280000
528.571899	146.420000
528.665527	146.700000
528.759216	146.940000
528.852844	147.580000
528.946533	147.620000
529.040161	147.800000
529.133850	147.280000
529.227478	147.000000
529.321167	147.200000
529.414856	147.320000
529.508484	147.860000
529.602173	147.940000
529.695801	147.820000
529.789490	147.480000
529.883057	147.140000
529.976746	146.960000
530.070374	147.400000
530.164062	147.380000
530.257690	147.720000
530.351379	147.920000
530.445007	147.860000
530.538696	147.180000
530.632324	147.480000
530.726013	147.220000
530.819641	147.260000
530.913330	147.080000
531.006958	147.380000
531.100647	147.220000
531.194275	146.820000
531.287964	146.300000
531.381592	146.140000
531.475220	146.260000
531.568848	146.140000
531.662537	146.140000
531.756226	146.960000
531.849854	147.260000
531.943542	147.200000
532.037170	146.700000
532.130859	147.140000
532.224487	146.360000
532.318176	145.660000
532.411804	146.140000
532.505432	146.500000
532.599060	146.200000
532.692749	146.220000
532.786377	147.020000
532.880066	146.280000
532.973694	146.040000
533.067383	146.100000
533.161011	146.480000
533.254639	146.120000
533.348267	145.940000
533.441956	146.440000
533.535583	146.260000
533.629272	146.140000
533.722900	145.980000
533.816589	146.120000
533.910156	146.060000
534.003845	145.620000
534.097534	145.980000
534.191162	146.340000
534.284851	146.600000
534.378479	146.520000
534.472107	146.660000
534.565735	146.060000
534.659424	146.060000
534.753052	146.200000
534.846741	146.040000
534.940369	146.960000
535.033997	146.940000
535.127625	146.900000
535.221313	147.440000
535.314941	147.420000
535.408630	146.280000
535.502197	146.840000
535.595886	146.440000
535.689514	145.740000
535.783203	146.440000
535.876831	147.200000
535.970459	147.080000
536.064087	147.000000
536.157776	147.120000
536.251404	146.820000
536.345093	146.500000
536.438721	146.460000
536.532349	146.960000
536.626038	147.160000
536.719666	147.460000
536.813293	147.360000
536.906921	147.500000
537.000610	147.500000
537.094238	147.220000
537.187866	147.080000
537.281494	147.160000
537.375183	146.900000
537.468811	146.640000
537.562439	146.580000
537.656067	146.160000
537.749756	146.240000
537.843384	146.660000
537.937012	146.780000
538.030640	146.700000
538.124329	146.780000
538.217896	147.080000
538.311584	146.860000
538.405212	146.640000
538.498901	147.160000
538.592468	147.680000
538.686157	147.240000
538.779785	146.720000
538.873413	146.900000
538.967102	146.360000
539.060730	145.800000
539.154358	146.280000
539.247986	146.920000
539.341675	147.040000
539.435242	147.140000
539.528931	147.440000
539.622559	146.920000
539.716187	147.100000
539.809814	147.000000
539.903503	147.220000
539.997070	146.860000
540.090759	147.200000
540.184387	147.000000
540.278015	147.380000
540.371643	147.260000
540.465332	147.320000
540.558899	146.960000
540.652588	147.020000
540.746216	146.480000
540.839844	146.800000
540.933472	146.860000
541.027100	147.340000
541.120728	147.020000
541.214417	147.340000
541.308044	147.300000
541.401672	147.180000
541.495300	146.880000
541.588928	146.960000
541.682617	146.660000
541.776184	146.200000
541.869873	146.700000
541.963440	146.780000
542.057129	146.580000
542.150757	147.000000
542.244385	147.140000
542.338013	146.680000
542.431641	146.560000
542.525269	146.620000
542.618958	146.660000
542.712524	146.920000
542.806213	146.840000
542.899780	146.940000
542.993469	146.880000
543.087036	146.440000
543.180725	145.760000
543.274292	145.860000
543.367981	146.080000
543.461548	146.420000
543.555237	146.260000
543.648926	146.980000
543.742493	147.480000
543.836182	147.220000
543.929749	146.960000
544.023437	147.040000
544.117004	146.960000
544.210693	146.900000
544.304260	147.120000
544.397949	146.880000
544.491516	147.480000
544.585205	147.500000
544.678772	147.160000
544.772461	147.360000
544.866028	147.360000
544.959717	147.220000
545.053284	146.660000
545.146973	146.600000
545.240540	146.540000
545.334229	147.220000
545.427795	147.120000
545.521423	147.420000
545.615051	147.460000
545.708679	147.500000
545.802307	147.060000
545.895935	147.280000
545.989624	148.020000
546.083191	148.160000
546.176880	148.120000
546.270447	147.960000
546.364136	148.040000
546.457703	147.440000
546.551331	147.180000
546.644958	147.340000
546.738586	147.780000
546.832214	147.160000
546.925842	147.020000
547.019409	147.360000
547.113098	146.900000
547.206665	146.400000
547.300354	146.880000
547.393921	147.240000
547.487549	147.580000
547.581177	147.360000
547.674805	147.620000
547.768433	146.840000
547.862061	146.720000
547.955627	145.800000
548.049316	146.000000
548.142883	146.240000
548.236572	146.860000
548.330139	147.100000
548.423767	147.080000
548.517456	147.180000
548.611023	147.380000
548.704651	146.920000
548.798279	146.720000
548.891907	147.500000
548.985474	147.360000
549.079163	147.380000
549.172729	147.340000
549.266357	147.060000
549.359985	146.580000
549.453613	146.400000
549.547180	146.080000
549.640869	146.640000
549.734436	146.480000
549.828064	146.880000
549.921631	146.740000
550.015320	146.480000
550.108887	146.620000
550.202515	146.880000
550.296143	146.500000
550.389771	146.960000
550.483337	146.880000
550.576965	146.420000
550.670593	146.640000
550.764221	146.860000
550.857849	146.800000
550.951477	146.460000
551.045105	146.080000
551.138672	146.000000
551.232300	145.400000
551.325928	145.320000
551.419556	145.960000
551.513123	146.420000
551.606750	146.080000
551.700378	146.320000
551.794006	146.320000
551.887573	146.080000
551.981201	146.540000
552.074768	146.640000
552.168457	146.340000
552.262024	147.200000
552.355652	147.000000
552.449219	146.920000
552.542847	146.920000
552.636475	147.300000
552.730103	146.360000
552.823669	146.280000
552.917297	145.720000
553.010864	145.800000
553.104553	146.060000
553.198181	145.760000
553.291748	146.420000
553.385376	146.680000
553.478943	146.220000
553.572571	145.940000
553.666199	146.420000
553.759827	146.360000
553.853394	145.740000
553.947021	146.340000
554.040588	146.420000
554.134216	146.600000
554.227783	146.960000
554.321411	148.020000
554.415039	147.360000
554.508667	147.380000
554.602234	147.480000
554.695862	146.720000
554.789429	146.620000
554.883057	147.180000
554.976624	147.140000
555.070251	147.100000
555.163818	147.280000
555.257507	146.700000
555.351074	146.660000
555.444702	147.740000
555.538330	147.240000
555.631897	147.640000
555.725525	147.740000
555.819092	147.360000
555.912720	146.160000
556.006287	146.920000
556.099915	146.440000
556.193481	146.400000
556.287109	147.000000
556.380676	146.920000
556.474304	146.580000
556.567871	146.840000
556.661499	146.400000
556.755066	146.160000
556.848694	146.320000
556.942261	146.140000
557.035889	146.200000
557.129517	146.960000
557.223145	147.180000
557.316711	147.240000
557.410339	147.360000
557.503906	146.880000
557.597473	146.940000
557.691040	146.640000
557.784668	146.640000
557.878296	146.580000
557.971863	147.060000
558.065491	146.920000
558.159058	146.920000
558.252686	147.680000
558.346252	148.240000
558.439880	147.580000
558.533447	147.420000
558.627075	147.180000
558.720642	146.400000
558.814270	145.900000
558.907837	146.040000
559.001465	145.760000
559.095032	146.420000
559.188660	146.760000
559.282227	146.300000
559.375854	147.240000
559.469360	146.980000
559.562988	147.020000
559.656555	146.500000
559.750183	147.020000
559.843750	146.740000
559.937378	147.280000
560.030945	147.040000
560.124573	0.000000
560.218140	0.000000
560.311707	0.000000
560.405334	0.000000
560.498901	0.000000
560.592529	0.000000
560.686096	0.000000
560.779724	0.000000
560.873291	0.000000
560.966858	0.000000
561.060425	0.000000
561.154053	0.000000
561.247620	0.000000
561.341248	0.000000
561.434814	0.000000
561.528381	0.000000
561.621948	0.000000
561.715576	0.000000
561.809143	0.000000
561.902771	0.000000
561.996277	0.000000
562.089905	0.000000
562.183472	0.000000
562.277100	0.000000
