Model Number: SPM-002-B   
Serial Number: 70087108
Firmware Version: 004.15.4
Exposure Time: 100000.000000us
Data Taken on: 11-12-2020 18:51:03.479
Wavelength	Amplitude
221.570786	0.000000
221.663406	0.000000
221.756027	0.000000
221.848648	0.000000
221.941269	0.000000
222.033905	0.000000
222.126526	0.000000
222.219162	0.000000
222.311798	0.000000
222.404419	0.000000
222.497055	0.000000
222.589676	0.000000
222.682312	0.000000
222.774933	0.000000
222.867569	0.000000
222.960205	0.000000
223.052841	0.000000
223.145462	0.000000
223.238098	0.000000
223.330734	0.000000
223.423386	0.000000
223.516022	0.000000
223.608658	0.000000
223.701309	0.000000
223.793945	0.000000
223.886581	0.000000
223.979218	0.000000
224.071869	0.000000
224.164505	0.000000
224.257156	0.000000
224.349792	0.000000
224.442444	0.000000
224.535095	0.000000
224.627747	0.000000
224.720398	0.000000
224.813034	0.000000
224.905685	0.000000
224.998337	144.680000
225.090988	144.620000
225.183640	144.680000
225.276291	144.520000
225.368942	144.920000
225.461594	145.320000
225.554245	145.500000
225.646912	145.660000
225.739578	145.980000
225.832230	146.400000
225.924896	145.380000
226.017548	145.800000
226.110199	146.000000
226.202866	145.220000
226.295532	144.900000
226.388184	145.200000
226.480850	144.680000
226.573517	144.060000
226.666168	144.700000
226.758835	145.040000
226.851501	145.720000
226.944183	145.980000
227.036850	145.720000
227.129517	145.640000
227.222183	145.580000
227.314850	145.280000
227.407516	145.420000
227.500198	146.160000
227.592865	145.880000
227.685532	145.440000
227.778214	145.060000
227.870880	145.400000
227.963562	145.700000
228.056229	146.160000
228.148926	146.420000
228.241592	147.220000
228.334274	146.540000
228.426956	146.060000
228.519638	145.860000
228.612305	145.600000
228.704987	145.300000
228.797668	145.320000
228.890350	145.300000
228.983032	144.640000
229.075714	145.220000
229.168396	144.840000
229.261108	144.660000
229.353790	144.620000
229.446472	145.120000
229.539169	144.880000
229.631851	144.600000
229.724533	144.800000
229.817230	145.100000
229.909912	146.240000
230.002609	146.180000
230.095306	146.580000
230.187988	146.520000
230.280685	146.440000
230.373383	145.420000
230.466095	145.480000
230.558792	145.980000
230.651474	146.380000
230.744171	146.100000
230.836868	146.040000
230.929581	146.020000
231.022278	145.640000
231.114975	145.380000
231.207672	145.140000
231.300369	145.260000
231.393082	145.520000
231.485779	145.300000
231.578506	145.240000
231.671204	145.780000
231.763916	145.660000
231.856613	145.200000
231.949326	145.520000
232.042023	145.320000
232.134735	144.920000
232.227448	144.640000
232.320160	144.700000
232.412872	144.640000
232.505585	145.660000
232.598297	145.920000
232.691010	145.860000
232.783722	145.960000
232.876450	146.380000
232.969162	145.540000
233.061874	145.360000
233.154587	145.200000
233.247314	145.180000
233.340027	144.580000
233.432739	144.900000
233.525467	144.580000
233.618179	145.000000
233.710907	144.480000
233.803635	145.020000
233.896347	144.840000
233.989090	145.840000
234.081818	145.880000
234.174545	146.360000
234.267258	145.680000
234.359985	145.960000
234.452713	145.560000
234.545441	145.400000
234.638168	145.320000
234.730896	145.760000
234.823639	145.280000
234.916367	145.780000
235.009094	145.740000
235.101822	145.860000
235.194580	145.640000
235.287308	145.840000
235.380051	144.800000
235.472778	145.280000
235.565521	145.280000
235.658249	144.680000
235.750992	144.640000
235.843719	145.000000
235.936462	144.980000
236.029205	144.760000
236.121948	145.020000
236.214691	145.360000
236.307449	145.760000
236.400192	145.200000
236.492935	145.140000
236.585678	145.360000
236.678421	145.300000
236.771164	145.300000
236.863907	145.900000
236.956665	146.100000
237.049408	147.660000
237.142151	147.140000
237.234909	147.560000
237.327652	147.440000
237.420410	147.340000
237.513153	146.360000
237.605927	146.440000
237.698669	145.680000
237.791428	145.100000
237.884186	145.640000
237.976944	145.020000
238.069702	145.540000
238.162445	145.000000
238.255203	145.320000
238.347961	145.260000
238.440720	145.600000
238.533478	145.400000
238.626266	145.480000
238.719025	145.700000
238.811783	145.560000
238.904541	144.840000
238.997314	144.700000
239.090073	144.760000
239.182831	144.880000
239.275604	145.480000
239.368362	145.500000
239.461136	145.500000
239.553909	145.500000
239.646667	145.200000
239.739441	144.680000
239.832214	145.260000
239.925003	145.520000
240.017761	146.420000
240.110535	146.860000
240.203308	146.580000
240.296082	146.940000
240.388855	146.660000
240.481628	146.360000
240.574417	146.720000
240.667191	146.780000
240.759964	146.300000
240.852737	146.300000
240.945526	145.960000
241.038315	145.120000
241.131088	145.020000
241.223877	145.040000
241.316650	144.660000
241.409439	145.000000
241.502228	144.920000
241.595001	145.460000
241.687790	145.420000
241.780579	145.520000
241.873367	145.460000
241.966141	145.900000
242.058929	145.240000
242.151718	145.380000
242.244507	145.960000
242.337311	145.260000
242.430099	145.380000
242.522903	146.000000
242.615692	145.660000
242.708481	145.560000
242.801270	146.380000
242.894073	146.360000
242.986862	146.260000
243.079651	147.040000
243.172455	146.740000
243.265244	146.800000
243.358063	146.220000
243.450867	146.280000
243.543655	145.900000
243.636459	145.940000
243.729263	145.800000
243.822067	146.300000
243.914856	146.560000
244.007660	146.580000
244.100464	146.700000
244.193268	146.240000
244.286072	145.780000
244.378876	145.240000
244.471680	144.840000
244.564499	145.140000
244.657318	145.920000
244.750122	146.560000
244.842926	146.140000
244.935745	146.620000
245.028549	146.060000
245.121368	145.460000
245.214172	145.040000
245.306992	145.540000
245.399796	145.160000
245.492615	145.720000
245.585434	145.840000
245.678253	145.900000
245.771072	145.640000
245.863892	145.920000
245.956711	145.700000
246.049530	145.540000
246.142349	145.160000
246.235168	145.220000
246.327988	145.660000
246.420807	145.420000
246.513626	145.340000
246.606445	145.400000
246.699280	145.600000
246.792099	145.240000
246.884918	145.260000
246.977753	145.100000
247.070587	145.160000
247.163422	144.920000
247.256241	144.860000
247.349075	145.040000
247.441895	145.180000
247.534729	145.180000
247.627563	145.180000
247.720383	145.720000
247.813217	145.700000
247.906052	145.920000
247.998886	145.980000
248.091736	146.060000
248.184570	145.500000
248.277405	145.500000
248.370239	146.140000
248.463074	147.200000
248.555908	147.260000
248.648743	147.120000
248.741592	147.080000
248.834427	146.380000
248.927261	145.000000
249.020111	145.140000
249.112946	145.800000
249.205795	145.440000
249.298630	145.380000
249.391495	145.640000
249.484344	145.280000
249.577179	144.900000
249.670029	145.420000
249.762878	145.900000
249.855728	146.000000
249.948563	146.140000
250.041412	145.620000
250.134262	145.520000
250.227112	145.620000
250.319962	145.620000
250.412827	145.640000
250.505692	145.460000
250.598541	145.440000
250.691391	144.860000
250.784241	144.920000
250.877106	145.060000
250.969955	145.180000
251.062805	145.520000
251.155670	146.380000
251.248520	145.980000
251.341385	146.120000
251.434235	145.980000
251.527100	145.680000
251.619965	144.840000
251.712814	145.720000
251.805695	145.520000
251.898560	145.880000
251.991425	146.000000
252.084290	146.220000
252.177155	145.400000
252.270020	145.120000
252.362885	144.760000
252.455750	144.760000
252.548615	144.420000
252.641479	144.560000
252.734360	144.560000
252.827240	144.580000
252.920105	144.280000
253.012970	144.540000
253.105850	144.660000
253.198715	144.440000
253.291595	144.860000
253.384460	144.720000
253.477341	144.360000
253.570221	144.720000
253.663086	145.100000
253.755966	145.620000
253.848846	145.720000
253.941727	145.960000
254.034592	145.860000
254.127472	145.120000
254.220367	144.760000
254.313248	145.060000
254.406128	144.820000
254.499008	145.140000
254.591904	146.400000
254.684784	146.940000
254.777664	146.740000
254.870544	146.840000
254.963440	146.420000
255.056335	146.140000
255.149216	145.580000
255.242111	146.000000
255.334991	146.380000
255.427887	146.440000
255.520767	146.420000
255.613663	146.460000
255.706558	145.780000
255.799438	145.420000
255.892334	145.240000
255.985229	145.100000
256.078125	145.040000
256.171021	145.600000
256.263916	146.100000
256.356812	146.160000
256.449707	146.260000
256.542603	146.140000
256.635498	146.560000
256.728394	146.480000
256.821289	146.400000
256.914215	146.640000
257.007080	146.920000
257.100006	146.480000
257.192932	146.600000
257.285828	146.740000
257.378723	146.280000
257.471619	146.080000
257.564545	145.860000
257.657440	145.600000
257.750336	146.320000
257.843262	146.080000
257.936157	146.900000
258.029053	146.800000
258.121979	146.800000
258.214874	145.900000
258.307800	145.480000
258.400696	144.540000
258.493622	144.640000
258.586517	144.300000
258.679443	144.900000
258.772339	145.160000
258.865265	145.180000
258.958160	144.880000
259.051086	145.580000
259.144012	145.200000
259.236938	146.040000
259.329834	146.100000
259.422791	146.140000
259.515717	145.520000
259.608612	144.940000
259.701538	144.820000
259.794464	144.820000
259.887390	144.940000
259.980316	144.940000
260.073212	145.660000
260.166138	144.760000
260.259064	145.160000
260.351990	145.620000
260.444916	145.640000
260.537842	145.500000
260.630768	146.500000
260.723694	146.100000
260.816620	145.720000
260.909546	145.920000
261.002472	145.780000
261.095398	145.120000
261.188354	145.460000
261.281281	145.420000
261.374207	145.440000
261.467133	145.920000
261.560089	146.300000
261.653015	145.680000
261.745972	146.200000
261.838867	146.460000
261.931824	146.500000
262.024780	146.100000
262.117706	146.600000
262.210663	146.400000
262.303589	146.160000
262.396515	146.100000
262.489471	146.920000
262.582397	146.540000
262.675354	146.260000
262.768280	146.320000
262.861237	146.300000
262.954163	145.820000
263.047119	146.120000
263.140045	146.000000
263.233002	145.980000
263.325958	145.540000
263.418884	145.180000
263.511841	145.260000
263.604797	145.480000
263.697723	145.440000
263.790680	145.680000
263.883636	146.220000
263.976593	145.820000
264.069550	145.880000
264.162476	145.320000
264.255463	145.280000
264.348419	144.920000
264.441376	145.500000
264.534332	145.240000
264.627289	145.920000
264.720245	146.360000
264.813202	146.000000
264.906158	145.720000
264.999115	146.080000
265.092072	145.940000
265.185028	146.020000
265.277985	146.420000
265.370941	146.280000
265.463898	146.080000
265.556854	145.900000
265.649811	144.880000
265.742798	145.120000
265.835754	145.300000
265.928711	145.780000
266.021667	145.720000
266.114655	146.260000
266.207611	146.140000
266.300568	145.600000
266.393585	144.960000
266.486511	145.620000
266.579498	144.760000
266.672485	144.520000
266.765442	144.580000
266.858429	145.200000
266.951385	144.340000
267.044342	144.560000
267.137329	144.660000
267.230316	145.120000
267.323273	144.380000
267.416260	145.180000
267.509216	145.500000
267.602203	145.640000
267.695160	145.860000
267.788147	145.860000
267.881134	145.280000
267.974091	145.120000
268.067078	145.000000
268.160065	144.740000
268.253052	144.820000
268.346008	145.020000
268.438995	145.120000
268.531982	145.120000
268.624969	144.780000
268.717987	145.220000
268.810944	145.000000
268.903961	145.140000
268.996948	144.920000
269.089905	145.560000
269.182892	145.660000
269.275879	146.040000
269.368866	145.460000
269.461853	145.660000
269.554871	145.300000
269.647858	145.000000
269.740845	145.200000
269.833832	146.120000
269.926819	145.820000
270.019806	145.780000
270.112793	145.480000
270.205811	145.340000
270.298798	145.080000
270.391785	146.140000
270.484772	145.900000
270.577789	146.120000
270.670776	145.800000
270.763763	145.620000
270.856750	144.920000
270.949768	145.040000
271.042786	145.020000
271.135773	145.140000
271.228790	145.440000
271.321808	145.240000
271.414795	145.060000
271.507782	144.760000
271.600800	144.360000
271.693817	144.400000
271.786804	145.040000
271.879822	145.360000
271.972809	145.580000
272.065826	146.260000
272.158844	145.660000
272.251831	145.980000
272.344849	145.940000
272.437866	145.900000
272.530853	145.720000
272.623871	146.340000
272.716888	145.160000
272.809906	145.240000
272.902893	145.060000
272.995911	144.760000
273.088928	144.620000
273.181946	144.820000
273.274963	144.680000
273.367981	144.800000
273.460999	145.040000
273.554047	145.440000
273.647003	146.340000
273.740051	146.260000
273.833069	146.740000
273.926086	146.860000
274.019135	146.260000
274.112152	145.600000
274.205170	145.560000
274.298187	145.580000
274.391205	145.160000
274.484222	145.420000
274.577240	145.560000
274.670258	146.020000
274.763306	145.440000
274.856323	145.980000
274.949341	145.980000
275.042358	146.220000
275.135406	145.600000
275.228424	145.820000
275.321442	145.560000
275.414490	144.960000
275.507507	145.320000
275.600525	145.880000
275.693573	145.740000
275.786591	145.220000
275.879669	145.720000
275.972656	145.140000
276.065735	145.120000
276.158752	145.660000
276.251801	146.700000
276.344818	146.980000
276.437866	147.200000
276.530884	146.980000
276.623932	146.220000
276.716980	146.200000
276.809998	145.840000
276.903046	145.660000
276.996094	146.240000
277.089111	147.080000
277.182159	147.280000
277.275208	147.040000
277.368256	147.120000
277.461304	146.780000
277.554321	145.940000
277.647369	145.600000
277.740417	145.820000
277.833466	145.640000
277.926514	145.400000
278.019562	146.400000
278.112610	146.020000
278.205688	146.380000
278.298706	146.400000
278.391785	146.520000
278.484833	145.700000
278.577881	145.540000
278.670929	145.700000
278.763977	145.820000
278.857025	146.180000
278.950073	146.300000
279.043121	146.140000
279.136169	145.720000
279.229248	145.600000
279.322296	145.380000
279.415344	145.140000
279.508392	145.180000
279.601440	145.180000
279.694519	145.200000
279.787567	144.880000
279.880615	144.900000
279.973694	144.840000
280.066742	145.160000
280.159790	145.380000
280.252869	145.160000
280.345917	145.180000
280.438995	145.260000
280.532074	144.740000
280.625122	144.920000
280.718201	145.980000
280.811279	146.180000
280.904327	146.280000
280.997406	146.700000
281.090454	146.500000
281.183533	145.940000
281.276581	146.180000
281.369659	145.920000
281.462738	146.060000
281.555786	145.940000
281.648865	146.060000
281.741943	145.900000
281.835022	146.520000
281.928070	146.000000
282.021149	145.800000
282.114227	145.520000
282.207306	145.260000
282.300385	145.360000
282.393433	145.580000
282.486511	145.860000
282.579590	146.220000
282.672668	146.680000
282.765747	146.200000
282.858856	146.280000
282.951904	146.380000
283.045013	146.720000
283.138062	146.600000
283.231171	146.920000
283.324249	147.100000
283.417328	146.880000
283.510406	146.060000
283.603485	145.940000
283.696564	145.860000
283.789642	145.920000
283.882751	145.880000
283.975830	146.700000
284.068909	146.680000
284.161987	147.220000
284.255066	146.600000
284.348175	146.600000
284.441254	146.200000
284.534332	146.760000
284.627441	146.160000
284.720520	145.860000
284.813599	145.840000
284.906708	145.880000
284.999786	144.940000
285.092896	144.820000
285.185974	146.280000
285.279053	145.780000
285.372192	145.660000
285.465240	146.480000
285.558380	146.300000
285.651459	145.600000
285.744568	146.860000
285.837677	146.320000
285.930756	146.220000
286.023865	146.420000
286.116943	145.800000
286.210052	145.280000
286.303162	145.600000
286.396240	145.280000
286.489349	145.060000
286.582458	145.600000
286.675568	145.380000
286.768646	145.500000
286.861755	145.740000
286.954865	146.540000
287.047974	146.000000
287.141083	145.960000
287.234161	145.680000
287.327271	145.600000
287.420380	145.660000
287.513519	145.720000
287.606598	145.940000
287.699738	146.340000
287.792816	146.340000
287.885956	146.200000
287.979034	146.400000
288.072174	146.300000
288.165283	146.160000
288.258392	146.200000
288.351501	145.340000
288.444611	145.720000
288.537720	146.020000
288.630859	146.000000
288.723969	146.020000
288.817078	146.640000
288.910187	146.360000
289.003296	145.920000
289.096436	145.720000
289.189545	145.540000
289.282654	144.980000
289.375763	145.360000
289.468903	145.480000
289.562012	145.720000
289.655121	145.760000
289.748260	146.160000
289.841400	146.240000
289.934509	146.340000
290.027649	146.460000
290.120728	146.480000
290.213898	146.460000
290.306976	146.220000
290.400146	146.380000
290.493256	145.920000
290.586395	146.040000
290.679535	146.320000
290.772644	146.100000
290.865784	145.360000
290.958893	145.260000
291.052032	144.800000
291.145172	144.440000
291.238281	144.440000
291.331421	144.520000
291.424561	145.300000
291.517670	145.480000
291.610809	145.900000
291.703949	145.700000
291.797089	146.120000
291.890228	145.480000
291.983337	145.480000
292.076477	145.260000
292.169617	145.480000
292.262756	145.680000
292.355927	145.540000
292.449036	145.480000
292.542206	145.380000
292.635315	145.480000
292.728485	145.320000
292.821625	145.040000
292.914764	146.180000
293.007904	146.320000
293.101044	146.240000
293.194183	146.240000
293.287323	146.700000
293.380463	145.800000
293.473602	145.500000
293.566742	145.740000
293.659882	146.100000
293.753021	146.380000
293.846191	146.260000
293.939331	145.800000
294.032471	145.660000
294.125610	145.300000
294.218781	145.500000
294.311920	145.980000
294.405060	146.780000
294.498230	146.660000
294.591370	146.660000
294.684540	146.120000
294.777679	145.480000
294.870850	145.700000
294.963959	145.520000
295.057159	145.540000
295.150299	145.960000
295.243469	146.240000
295.336609	145.340000
295.429779	145.640000
295.522919	145.800000
295.616089	145.700000
295.709229	146.220000
295.802399	146.700000
295.895569	146.300000
295.988708	145.740000
296.081879	145.660000
296.175018	144.860000
296.268188	144.520000
296.361359	145.060000
296.454529	145.440000
296.547668	145.340000
296.640839	145.760000
296.734009	145.620000
296.827179	145.560000
296.920319	145.640000
297.013519	145.340000
297.106659	145.320000
297.199860	145.800000
297.292999	145.620000
297.386200	145.200000
297.479309	145.400000
297.572510	145.300000
297.665680	145.300000
297.758850	145.420000
297.852020	145.740000
297.945190	145.440000
298.038361	145.020000
298.131531	145.640000
298.224701	145.360000
298.317871	145.080000
298.411072	144.940000
298.504242	145.080000
298.597412	144.220000
298.690582	144.400000
298.783752	144.500000
298.876923	145.240000
298.970093	145.340000
299.063293	145.580000
299.156464	145.640000
299.249634	145.840000
299.342834	145.900000
299.436005	146.300000
299.529205	146.160000
299.622345	146.300000
299.715576	145.820000
299.808716	145.500000
299.901917	145.220000
299.995117	145.580000
300.088287	145.620000
300.181488	145.560000
300.274658	145.420000
300.367828	145.600000
300.461029	145.140000
300.554199	145.240000
300.647400	145.340000
300.740601	145.940000
300.833771	145.460000
300.926971	146.060000
301.020142	145.520000
301.113342	145.680000
301.206512	145.240000
301.299713	145.600000
301.392914	145.260000
301.486084	145.600000
301.579285	145.520000
301.672516	146.120000
301.765686	145.900000
301.858887	145.680000
301.952057	145.920000
302.045288	145.780000
302.138458	145.320000
302.231659	145.260000
302.324860	145.380000
302.418060	144.820000
302.511261	145.000000
302.604462	145.000000
302.697662	145.220000
302.790863	145.380000
302.884064	145.320000
302.977264	145.460000
303.070465	145.540000
303.163666	145.940000
303.256866	145.840000
303.350067	145.960000
303.443268	145.860000
303.536469	146.100000
303.629669	145.580000
303.722870	145.740000
303.816071	145.380000
303.909271	145.460000
304.002472	144.740000
304.095673	144.720000
304.188934	144.180000
304.282104	145.460000
304.375336	145.440000
304.468506	145.800000
304.561768	145.500000
304.654968	146.100000
304.748169	145.460000
304.841370	145.200000
304.934601	145.560000
305.027802	145.300000
305.121002	145.140000
305.214233	145.180000
305.307434	145.560000
305.400665	145.960000
305.493866	146.160000
305.587097	146.280000
305.680298	145.940000
305.773499	146.100000
305.866730	145.380000
305.959930	146.040000
306.053162	146.000000
306.146393	145.900000
306.239594	145.240000
306.332825	145.300000
306.426025	145.560000
306.519287	145.160000
306.612488	145.760000
306.705719	145.960000
306.798920	145.840000
306.892181	144.900000
306.985352	144.780000
307.078613	143.760000
307.171844	144.220000
307.265045	144.220000
307.358276	144.260000
307.451508	144.820000
307.544739	145.760000
307.637970	145.220000
307.731201	145.020000
307.824402	145.900000
307.917633	145.920000
308.010864	146.180000
308.104095	146.760000
308.197327	146.960000
308.290558	146.700000
308.383789	146.420000
308.477020	145.980000
308.570251	145.120000
308.663483	144.720000
308.756714	144.580000
308.849976	144.560000
308.943176	145.120000
309.036438	145.520000
309.129639	145.280000
309.222900	145.400000
309.316101	145.300000
309.409393	144.520000
309.502625	144.280000
309.595856	144.560000
309.689087	144.640000
309.782318	145.040000
309.875580	145.120000
309.968811	145.320000
310.062042	145.260000
310.155273	145.120000
310.248535	145.200000
310.341766	145.160000
310.434998	144.780000
310.528259	145.060000
310.621490	145.280000
310.714722	144.560000
310.807983	144.360000
310.901215	144.660000
310.994476	144.720000
311.087708	143.940000
311.181000	144.500000
311.274200	144.380000
311.367462	144.520000
311.460693	144.340000
311.553986	145.240000
311.647186	145.280000
311.740479	145.880000
311.833710	145.540000
311.926971	145.560000
312.020203	144.820000
312.113464	144.320000
312.206726	143.800000
312.299957	144.180000
312.393219	145.040000
312.486481	145.260000
312.579712	145.480000
312.672974	145.620000
312.766235	145.860000
312.859497	145.120000
312.952759	145.180000
313.045990	145.780000
313.139252	145.620000
313.232513	145.820000
313.325775	145.960000
313.419037	145.680000
313.512299	145.100000
313.605530	145.520000
313.698822	145.280000
313.792053	145.400000
313.885345	145.160000
313.978577	145.340000
314.071869	145.140000
314.165131	145.300000
314.258392	145.600000
314.351654	145.820000
314.444916	145.240000
314.538177	145.700000
314.631439	145.720000
314.724701	145.100000
314.817993	145.300000
314.911255	145.820000
315.004517	145.260000
315.097778	144.840000
315.191040	145.320000
315.284302	145.520000
315.377594	145.080000
315.470856	145.100000
315.564117	144.860000
315.657379	144.140000
315.750671	143.640000
315.843933	143.980000
315.937195	143.400000
316.030518	143.220000
316.123749	143.580000
316.217041	144.380000
316.310303	144.260000
316.403595	144.840000
316.496857	145.380000
316.590149	145.520000
316.683411	144.840000
316.776703	144.620000
316.869965	144.860000
316.963257	144.660000
317.056519	144.360000
317.149811	144.180000
317.243073	144.700000
317.336365	144.500000
317.429626	144.640000
317.522919	144.940000
317.616180	145.140000
317.709473	144.460000
317.802765	144.600000
317.896027	144.420000
317.989319	144.560000
318.082611	144.680000
318.175873	144.760000
318.269165	144.660000
318.362488	144.740000
318.455750	144.420000
318.549042	144.800000
318.642303	145.580000
318.735626	145.260000
318.828888	145.260000
318.922211	144.980000
319.015472	145.380000
319.108765	144.320000
319.202057	144.200000
319.295349	144.560000
319.388641	144.660000
319.481934	144.100000
319.575226	144.320000
319.668518	144.520000
319.761810	144.700000
319.855103	144.960000
319.948395	145.000000
320.041687	145.520000
320.134979	145.920000
320.228271	145.180000
320.321564	145.040000
320.414856	145.080000
320.508148	144.560000
320.601440	144.200000
320.694763	144.200000
320.788025	145.100000
320.881348	145.180000
320.974640	145.300000
321.067963	145.020000
321.161224	145.200000
321.254547	144.120000
321.347839	144.460000
321.441162	144.200000
321.534454	144.720000
321.627747	144.540000
321.721069	145.160000
321.814362	144.800000
321.907654	145.220000
322.000946	144.920000
322.094269	145.520000
322.187561	145.440000
322.280884	145.740000
322.374176	145.620000
322.467468	146.060000
322.560791	145.760000
322.654083	145.940000
322.747406	145.880000
322.840698	146.340000
322.934021	146.540000
323.027344	146.920000
323.120636	146.400000
323.213959	146.020000
323.307251	145.480000
323.400574	144.920000
323.493866	144.600000
323.587219	144.920000
323.680511	145.400000
323.773834	145.880000
323.867157	146.040000
323.960449	146.080000
324.053772	145.800000
324.147095	145.560000
324.240387	145.580000
324.333710	145.720000
324.427032	145.800000
324.520355	146.080000
324.613647	145.720000
324.706970	145.760000
324.800293	145.560000
324.893616	145.720000
324.986938	145.820000
325.080231	145.920000
325.173553	146.100000
325.266876	146.480000
325.360199	146.240000
325.453522	145.480000
325.546875	145.200000
325.640167	144.980000
325.733521	145.000000
325.826813	145.460000
325.920166	145.780000
326.013489	145.720000
326.106812	145.020000
326.200134	144.800000
326.293457	144.100000
326.386780	144.240000
326.480103	144.140000
326.573425	144.460000
326.666748	144.300000
326.760071	144.480000
326.853424	144.420000
326.946747	144.780000
327.040070	145.600000
327.133392	145.820000
327.226715	145.480000
327.320068	144.980000
327.413391	145.460000
327.506714	144.580000
327.600037	144.260000
327.693390	144.400000
327.786713	144.880000
327.880066	144.440000
327.973358	144.980000
328.066742	145.500000
328.160034	145.840000
328.253418	145.940000
328.346710	145.840000
328.440063	145.380000
328.533417	145.220000
328.626740	145.220000
328.720093	144.920000
328.813416	144.800000
328.906769	145.040000
329.000092	144.900000
329.093445	144.980000
329.186768	144.820000
329.280121	145.400000
329.373444	145.520000
329.466797	145.320000
329.560120	145.180000
329.653473	145.860000
329.746796	145.300000
329.840149	145.120000
329.933502	145.220000
330.026825	145.020000
330.120178	144.400000
330.213562	144.420000
330.306854	144.400000
330.400238	144.340000
330.493561	144.260000
330.586945	145.020000
330.680237	145.420000
330.773621	145.480000
330.866974	145.520000
330.960327	145.780000
331.053680	145.400000
331.147003	145.400000
331.240356	145.420000
331.333710	145.780000
331.427063	145.420000
331.520416	145.400000
331.613770	145.100000
331.707123	145.180000
331.800476	145.320000
331.893829	146.360000
331.987152	146.440000
332.080505	146.780000
332.173859	146.460000
332.267212	145.880000
332.360565	145.240000
332.453918	144.980000
332.547333	144.660000
332.640656	144.800000
332.734039	145.000000
332.827362	144.800000
332.920746	145.500000
333.014069	145.900000
333.107452	146.340000
333.200806	146.340000
333.294159	146.440000
333.387543	145.720000
333.480896	145.060000
333.574249	144.760000
333.667603	144.540000
333.760956	144.860000
333.854340	144.720000
333.947693	145.120000
334.041046	145.060000
334.134430	145.500000
334.227783	144.860000
334.321136	145.120000
334.414520	144.720000
334.507874	145.080000
334.601227	144.980000
334.694611	145.180000
334.787964	144.940000
334.881348	145.440000
334.974701	145.400000
335.068085	145.060000
335.161438	145.200000
335.254822	145.300000
335.348175	145.040000
335.441559	144.620000
335.534943	145.420000
335.628296	145.280000
335.721680	145.400000
335.815033	145.700000
335.908417	146.040000
336.001770	145.660000
336.095154	145.620000
336.188538	145.440000
336.281891	144.620000
336.375275	144.240000
336.468658	143.980000
336.562012	144.020000
336.655396	144.260000
336.748779	145.240000
336.842133	145.240000
336.935516	145.420000
337.028900	145.220000
337.122284	145.140000
337.215637	144.940000
337.309021	144.860000
337.402435	144.340000
337.495789	144.400000
337.589203	144.340000
337.682526	144.080000
337.775940	144.480000
337.869324	145.100000
337.962708	144.940000
338.056091	145.500000
338.149475	145.200000
338.242859	145.180000
338.336243	144.780000
338.429626	145.160000
338.523010	144.560000
338.616394	144.900000
338.709778	144.880000
338.803162	145.220000
338.896545	145.340000
338.989929	145.160000
339.083313	145.360000
339.176697	145.080000
339.270081	144.700000
339.363464	144.480000
339.456848	145.060000
339.550232	144.500000
339.643616	144.380000
339.737030	144.640000
339.830383	144.860000
339.923828	144.840000
340.017181	145.360000
340.110596	145.720000
340.203949	145.580000
340.297363	144.900000
340.390778	144.580000
340.484161	144.240000
340.577545	143.940000
340.670959	144.080000
340.764343	144.460000
340.857727	144.640000
340.951111	144.380000
341.044525	144.540000
341.137909	144.140000
341.231293	144.280000
341.324707	143.900000
341.418091	144.640000
341.511505	144.860000
341.604889	145.200000
341.698303	145.340000
341.791687	145.820000
341.885071	145.580000
341.978485	145.240000
342.071899	145.220000
342.165283	144.920000
342.258698	144.980000
342.352081	145.140000
342.445496	145.800000
342.538879	145.860000
342.632324	146.000000
342.725708	145.800000
342.819122	145.120000
342.912506	144.480000
343.005920	144.480000
343.099335	145.360000
343.192719	145.380000
343.286133	145.480000
343.379547	145.600000
343.472931	145.600000
343.566345	144.520000
343.659760	144.500000
343.753143	144.420000
343.846558	144.140000
343.939972	144.060000
344.033386	144.800000
344.126770	144.740000
344.220184	145.000000
344.313599	145.680000
344.407043	145.680000
344.500427	145.060000
344.593872	145.480000
344.687225	145.380000
344.780670	144.900000
344.874054	144.620000
344.967499	145.220000
345.060913	145.360000
345.154327	145.240000
345.247742	145.000000
345.341156	145.340000
345.434570	144.860000
345.527985	144.320000
345.621399	144.560000
345.714813	144.680000
345.808228	144.640000
345.901642	144.580000
345.995056	144.420000
346.088470	144.460000
346.181885	144.580000
346.275299	144.420000
346.368713	144.100000
346.462128	143.820000
346.555573	143.980000
346.648987	144.040000
346.742401	144.140000
346.835815	144.500000
346.929260	144.740000
347.022644	144.440000
347.116119	144.600000
347.209503	144.760000
347.302948	145.760000
347.396362	146.420000
347.489807	146.880000
347.583221	147.620000
347.676636	147.320000
347.770050	146.000000
347.863495	145.320000
347.956909	145.220000
348.050323	144.200000
348.143768	144.480000
348.237183	144.560000
348.330597	145.100000
348.424042	145.340000
348.517456	145.860000
348.610901	145.760000
348.704315	146.060000
348.797760	145.080000
348.891174	144.220000
348.984619	143.580000
349.078033	144.080000
349.171448	144.540000
349.264923	145.000000
349.358337	145.120000
349.451782	145.400000
349.545197	144.640000
349.638641	144.040000
349.732086	143.740000
349.825500	144.440000
349.918945	144.160000
350.012390	144.820000
350.105804	145.060000
350.199249	145.700000
350.292664	145.880000
350.386108	146.260000
350.479553	146.600000
350.572968	146.220000
350.666412	146.240000
350.759857	145.780000
350.853302	146.100000
350.946716	145.120000
351.040161	145.460000
351.133606	145.400000
351.227081	145.260000
351.320465	145.860000
351.413940	146.120000
351.507355	146.260000
351.600830	146.120000
351.694244	146.080000
351.787720	145.460000
351.881104	145.560000
351.974579	145.280000
352.067993	146.060000
352.161469	146.180000
352.254883	145.340000
352.348358	145.480000
352.441803	145.360000
352.535248	144.560000
352.628693	144.980000
352.722137	145.200000
352.815582	145.100000
352.909027	145.360000
353.002472	145.120000
353.095917	144.760000
353.189362	145.240000
353.282806	145.000000
353.376251	144.940000
353.469696	144.780000
353.563141	145.120000
353.656586	144.780000
353.750061	144.560000
353.843475	144.420000
353.936981	145.120000
354.030396	144.560000
354.123871	144.520000
354.217285	145.500000
354.310760	145.900000
354.404175	145.680000
354.497681	145.600000
354.591095	145.700000
354.684570	144.800000
354.777985	144.520000
354.871490	144.520000
354.964935	144.920000
355.058380	145.000000
355.151855	144.940000
355.245300	145.340000
355.338745	145.360000
355.432220	145.380000
355.525665	144.860000
355.619110	145.560000
355.712585	145.180000
355.806030	145.020000
355.899475	144.500000
355.992950	145.360000
356.086426	145.240000
356.179871	145.440000
356.273346	145.480000
356.366791	145.800000
356.460266	145.680000
356.553711	145.400000
356.647186	145.120000
356.740631	145.120000
356.834106	144.740000
356.927551	144.800000
357.021027	144.780000
357.114471	145.060000
357.207947	145.060000
357.301422	145.560000
357.394867	145.180000
357.488342	145.600000
357.581818	145.360000
357.675262	145.700000
357.768738	145.600000
357.862213	145.200000
357.955658	144.820000
358.049133	145.040000
358.142609	145.160000
358.236053	145.040000
358.329529	145.340000
358.423035	145.660000
358.516449	145.140000
358.609955	145.300000
358.703400	145.960000
358.796906	146.080000
358.890350	145.260000
358.983826	145.860000
359.077271	145.140000
359.170776	144.600000
359.264221	144.480000
359.357727	144.900000
359.451172	145.220000
359.544647	145.560000
359.638123	145.260000
359.731598	145.520000
359.825073	145.960000
359.918549	145.440000
360.012024	145.280000
360.105499	145.180000
360.198975	145.060000
360.292450	144.740000
360.385925	144.420000
360.479401	144.140000
360.572876	144.220000
360.666351	144.360000
360.759857	144.160000
360.853302	144.420000
360.946808	143.960000
361.040253	144.440000
361.133759	144.320000
361.227203	144.540000
361.320709	144.340000
361.414154	145.200000
361.507660	145.180000
361.601105	145.640000
361.694641	146.060000
361.788086	145.900000
361.881592	146.120000
361.975067	145.820000
362.068542	145.840000
362.162018	145.800000
362.255524	145.600000
362.348999	145.360000
362.442474	145.880000
362.535950	145.320000
362.629456	145.020000
362.722931	145.360000
362.816406	145.600000
362.909882	145.700000
363.003387	145.460000
363.096863	145.560000
363.190338	145.500000
363.283875	145.200000
363.377319	144.780000
363.470825	145.380000
363.564301	144.820000
363.657806	145.220000
363.751282	144.880000
363.844788	145.780000
363.938232	145.280000
364.031769	146.120000
364.125214	146.280000
364.218750	146.960000
364.312225	145.620000
364.405731	146.040000
364.499207	145.120000
364.592712	144.660000
364.686188	144.420000
364.779694	145.060000
364.873169	144.680000
364.966675	145.060000
365.060150	144.960000
365.153656	145.540000
365.247131	145.340000
365.340637	145.820000
365.434143	146.300000
365.527618	146.640000
365.621155	145.520000
365.714600	145.460000
365.808136	145.160000
365.901611	144.160000
365.995117	143.700000
366.088593	143.920000
366.182129	143.700000
366.275604	143.980000
366.369110	144.360000
366.462585	144.460000
366.556122	144.880000
366.649567	145.260000
366.743103	145.120000
366.836609	144.900000
366.930115	145.140000
367.023590	145.320000
367.117096	145.180000
367.210602	145.200000
367.304108	145.680000
367.397614	146.020000
367.491119	145.660000
367.584595	145.840000
367.678101	146.220000
367.771606	145.960000
367.865112	145.460000
367.958649	145.140000
368.052124	144.660000
368.145660	143.980000
368.239136	144.480000
368.332672	144.500000
368.426147	144.820000
368.519684	144.960000
368.613159	145.420000
368.706696	145.140000
368.800171	145.400000
368.893707	145.360000
368.987183	145.440000
369.080719	145.540000
369.174225	145.440000
369.267731	145.540000
369.361237	145.340000
369.454742	145.420000
369.548248	145.520000
369.641754	145.220000
369.735260	144.860000
369.828766	144.400000
369.922272	145.000000
370.015808	144.500000
370.109314	144.320000
370.202820	144.060000
370.296356	145.140000
370.389832	144.480000
370.483368	144.120000
370.576874	144.380000
370.670410	144.920000
370.763885	144.020000
370.857422	144.100000
370.950928	144.180000
371.044464	144.820000
371.137939	144.740000
371.231476	145.260000
371.324982	145.720000
371.418518	145.920000
371.512024	145.700000
371.605560	145.540000
371.699066	145.900000
371.792572	145.140000
371.886108	145.760000
371.979614	145.600000
372.073120	146.220000
372.166656	145.820000
372.260162	146.300000
372.353668	145.660000
372.447205	145.300000
372.540710	144.920000
372.634277	144.980000
372.727753	144.880000
372.821320	145.000000
372.914795	145.280000
373.008362	144.700000
373.101837	144.460000
373.195404	144.400000
373.288879	144.280000
373.382446	144.700000
373.475922	145.280000
373.569489	145.900000
373.662964	146.120000
373.756531	146.220000
373.850037	146.260000
373.943573	146.280000
374.037109	145.320000
374.130615	145.500000
374.224152	145.480000
374.317657	145.160000
374.411194	145.840000
374.504730	146.200000
374.598236	145.760000
374.691772	145.600000
374.785309	145.580000
374.878815	144.320000
374.972351	144.760000
375.065887	144.780000
375.159454	145.800000
375.252930	145.660000
375.346497	146.240000
375.440002	146.620000
375.533569	146.660000
375.627045	145.520000
375.720612	145.460000
375.814117	145.820000
375.907684	145.000000
376.001160	144.580000
376.094727	144.540000
376.188232	145.420000
376.281799	145.180000
376.375336	145.220000
376.468872	146.320000
376.562408	146.620000
376.655914	145.700000
376.749451	145.420000
376.842987	145.460000
376.936523	144.700000
377.030060	144.680000
377.123596	145.140000
377.217133	144.860000
377.310669	145.060000
377.404205	145.320000
377.497772	145.640000
377.591278	145.300000
377.684845	145.940000
377.778351	146.180000
377.871918	146.100000
377.965424	145.620000
378.058990	145.560000
378.152496	145.220000
378.246063	145.400000
378.339569	145.460000
378.433136	145.520000
378.526642	146.000000
378.620209	146.000000
378.713745	145.020000
378.807312	145.440000
378.900848	145.340000
378.994385	145.140000
379.087921	144.540000
379.181458	145.240000
379.274994	144.460000
379.368530	144.540000
379.462097	144.820000
379.555634	145.600000
379.649170	144.840000
379.742706	144.920000
379.836273	145.200000
379.929810	144.660000
380.023376	144.260000
380.116882	144.720000
380.210449	144.420000
380.303986	144.040000
380.397552	143.520000
380.491058	143.940000
380.584656	143.840000
380.678162	144.240000
380.771729	144.100000
380.865265	145.040000
380.958832	144.960000
381.052368	145.380000
381.145935	145.840000
381.239471	146.340000
381.333008	146.180000
381.426575	146.060000
381.520111	146.140000
381.613647	145.960000
381.707214	145.680000
381.800751	145.080000
381.894318	145.480000
381.987854	144.820000
382.081421	144.740000
382.174988	145.200000
382.268524	145.220000
382.362091	145.060000
382.455627	145.900000
382.549194	145.480000
382.642731	144.720000
382.736298	144.760000
382.829834	144.480000
382.923401	144.640000
383.016937	145.020000
383.110504	145.560000
383.204041	146.160000
383.297607	146.680000
383.391174	145.920000
383.484741	146.600000
383.578278	146.100000
383.671844	145.480000
383.765411	144.620000
383.858948	145.040000
383.952515	144.420000
384.046051	145.180000
384.139618	145.620000
384.233185	146.280000
384.326721	146.220000
384.420288	146.580000
384.513855	146.480000
384.607422	146.860000
384.700989	146.800000
384.794525	146.040000
384.888123	145.900000
384.981659	145.900000
385.075226	145.340000
385.168762	144.800000
385.262360	145.180000
385.355896	144.240000
385.449463	144.160000
385.542999	144.140000
385.636597	144.960000
385.730164	145.220000
385.823730	145.400000
385.917267	144.820000
386.010834	145.000000
386.104401	144.900000
386.197968	145.240000
386.291534	145.700000
386.385101	145.920000
386.478668	146.380000
386.572235	146.300000
386.665802	145.740000
386.759338	145.240000
386.852905	145.140000
386.946472	144.580000
387.040070	144.460000
387.133606	144.480000
387.227203	144.640000
387.320740	145.060000
387.414337	145.020000
387.507874	144.880000
387.601471	144.920000
387.695007	144.780000
387.788605	144.480000
387.882141	144.520000
387.975739	144.600000
388.069275	144.700000
388.162872	145.180000
388.256439	145.160000
388.350037	144.880000
388.443604	144.800000
388.537170	144.560000
388.630737	144.860000
388.724304	145.120000
388.817871	145.420000
388.911438	145.500000
389.005005	145.680000
389.098602	145.780000
389.192169	145.220000
389.285736	145.320000
389.379333	145.400000
389.472870	145.120000
389.566467	144.740000
389.660034	145.200000
389.753632	144.940000
389.847168	145.000000
389.940765	145.420000
390.034332	145.700000
390.127930	145.340000
390.221466	145.360000
390.315063	144.860000
390.408630	144.100000
390.502228	143.120000
390.595795	143.380000
390.689362	143.400000
390.782959	143.940000
390.876526	144.600000
390.970093	144.960000
391.063690	145.480000
391.157257	145.580000
391.250824	145.880000
391.344421	145.480000
391.437988	145.780000
391.531555	145.500000
391.625153	145.680000
391.718750	145.820000
391.812317	146.260000
391.905914	145.840000
391.999481	145.960000
392.093079	146.020000
392.186615	145.860000
392.280243	145.640000
392.373779	146.000000
392.467407	145.960000
392.560944	145.580000
392.654572	145.080000
392.748108	144.920000
392.841736	144.920000
392.935303	144.660000
393.028900	144.760000
393.122467	144.760000
393.216064	144.480000
393.309631	144.120000
393.403229	143.840000
393.496796	143.620000
393.590393	142.980000
393.683990	143.700000
393.777557	144.140000
393.871155	144.340000
393.964722	144.880000
394.058350	145.540000
394.151917	145.500000
394.245514	145.420000
394.339081	146.020000
394.432678	146.000000
394.526245	145.940000
394.619873	145.740000
394.713409	145.760000
394.807037	145.340000
394.900604	145.480000
394.994202	145.500000
395.087769	145.500000
395.181396	145.200000
395.274994	145.940000
395.368561	145.340000
395.462158	145.500000
395.555756	145.160000
395.649353	145.700000
395.742920	144.980000
395.836517	145.700000
395.930115	144.880000
396.023712	145.560000
396.117279	145.600000
396.210876	145.340000
396.304474	145.160000
396.398071	145.820000
396.491669	145.760000
396.585266	145.340000
396.678833	145.360000
396.772461	145.480000
396.866028	145.380000
396.959656	145.420000
397.053223	145.740000
397.146851	145.700000
397.240417	145.800000
397.334015	146.720000
397.427582	146.720000
397.521210	147.120000
397.614807	147.960000
397.708405	148.480000
397.802002	148.920000
397.895599	150.400000
397.989197	151.680000
398.082794	153.540000
398.176392	156.020000
398.269989	158.680000
398.363586	162.040000
398.457184	166.240000
398.550781	170.860000
398.644379	174.880000
398.737976	180.540000
398.831573	186.080000
398.925201	191.800000
399.018768	197.280000
399.112396	204.140000
399.205963	210.100000
399.299591	217.200000
399.393158	224.960000
399.486786	235.320000
399.580353	245.680000
399.673981	256.940000
399.767578	269.060000
399.861206	282.100000
399.954773	293.760000
400.048401	305.100000
400.141998	313.960000
400.235596	321.780000
400.329193	325.880000
400.422791	328.800000
400.516418	328.480000
400.610016	330.240000
400.703613	328.700000
400.797211	325.880000
400.890808	321.180000
400.984436	316.060000
401.078033	306.020000
401.171631	295.080000
401.265259	282.800000
401.358826	269.680000
401.452484	255.340000
401.546051	241.900000
401.639679	227.600000
401.733246	215.080000
401.826904	202.740000
401.920471	191.600000
402.014099	182.240000
402.107697	174.760000
402.201324	168.560000
402.294891	163.580000
402.388550	160.000000
402.482147	156.920000
402.575745	154.320000
402.669373	151.720000
402.762970	150.020000
402.856567	148.820000
402.950195	148.160000
403.043793	147.860000
403.137390	148.280000
403.231018	147.140000
403.324615	147.480000
403.418243	146.800000
403.511841	146.860000
403.605469	146.160000
403.699066	146.700000
403.792694	146.440000
403.886292	146.240000
403.979919	145.840000
404.073517	146.120000
404.167145	146.580000
404.260712	146.460000
404.354370	146.580000
404.447937	146.480000
404.541595	146.120000
404.635162	146.220000
404.728821	146.700000
404.822418	146.460000
404.916046	146.420000
405.009644	146.760000
405.103271	146.720000
405.196899	146.180000
405.290497	146.340000
405.384125	146.800000
405.477722	146.180000
405.571350	145.420000
405.664948	145.640000
405.758575	145.780000
405.852203	145.120000
405.945801	145.500000
406.039429	145.960000
406.133057	145.760000
406.226654	145.320000
406.320312	145.500000
406.413879	145.680000
406.507538	145.740000
406.601135	145.440000
406.694763	146.180000
406.788361	146.240000
406.882019	145.780000
406.975586	145.820000
407.069244	146.380000
407.162872	146.060000
407.256470	145.840000
407.350098	146.040000
407.443726	145.380000
407.537323	144.800000
407.630951	144.820000
407.724579	144.760000
407.818207	145.100000
407.911804	145.700000
408.005432	145.920000
408.099060	146.220000
408.192688	146.760000
408.286285	146.300000
408.379913	145.840000
408.473572	146.000000
408.567169	145.040000
408.660828	144.780000
408.754395	144.840000
408.848053	145.040000
408.941650	144.960000
409.035309	145.020000
409.128906	144.780000
409.222565	145.060000
409.316132	145.400000
409.409790	145.000000
409.503387	145.160000
409.597046	145.380000
409.690674	145.380000
409.784302	145.180000
409.877930	145.400000
409.971558	145.700000
410.065186	145.620000
410.158783	145.560000
410.252411	145.320000
410.346039	145.640000
410.439667	145.540000
410.533295	145.740000
410.626923	145.900000
410.720551	146.000000
410.814209	146.300000
410.907806	146.400000
411.001465	145.800000
411.095062	145.820000
411.188721	145.880000
411.282318	145.240000
411.375977	144.900000
411.469574	145.300000
411.563232	144.740000
411.656830	144.600000
411.750488	144.480000
411.844086	144.420000
411.937744	144.680000
412.031372	144.960000
412.125000	144.800000
412.218628	144.700000
412.312256	145.600000
412.405884	145.720000
412.499512	145.620000
412.593170	145.960000
412.686798	146.420000
412.780426	145.760000
412.874054	145.800000
412.967682	146.060000
413.061310	146.380000
413.154968	146.380000
413.248566	146.520000
413.342224	146.320000
413.435852	146.040000
413.529510	145.740000
413.623108	144.960000
413.716766	144.940000
413.810364	144.940000
413.904022	144.540000
413.997650	144.020000
414.091309	144.840000
414.184906	144.520000
414.278564	144.380000
414.372192	145.200000
414.465851	145.680000
414.559479	145.440000
414.653107	146.660000
414.746735	146.540000
414.840393	146.560000
414.934021	146.780000
415.027649	146.380000
415.121277	145.680000
415.214935	146.240000
415.308563	146.060000
415.402191	145.560000
415.495850	145.860000
415.589478	145.700000
415.683136	145.140000
415.776733	145.160000
415.870422	145.720000
415.964020	145.440000
416.057678	145.520000
416.151306	145.500000
416.244965	145.360000
416.338562	144.960000
416.432251	145.560000
416.525848	146.160000
416.619507	146.460000
416.713165	146.680000
416.806793	146.780000
416.900421	146.740000
416.994080	146.040000
417.087708	145.620000
417.181366	145.380000
417.274994	145.280000
417.368622	145.480000
417.462280	145.800000
417.555908	145.900000
417.649567	145.620000
417.743195	145.740000
417.836853	145.560000
417.930481	145.860000
418.024170	145.900000
418.117767	146.640000
418.211426	147.020000
418.305054	146.840000
418.398712	145.960000
418.492340	146.300000
418.585999	146.140000
418.679626	145.740000
418.773285	145.940000
418.866913	146.560000
418.960571	146.740000
419.054230	146.740000
419.147858	147.080000
419.241516	146.960000
419.335144	146.440000
419.428802	146.180000
419.522461	145.720000
419.616089	145.200000
419.709747	145.520000
419.803375	145.640000
419.897034	145.500000
419.990662	145.540000
420.084320	146.200000
420.177979	146.440000
420.271606	146.740000
420.365295	147.260000
420.458893	147.420000
420.552582	147.160000
420.646210	146.900000
420.739868	146.620000
420.833496	146.280000
420.927155	145.820000
421.020782	145.520000
421.114471	145.060000
421.208069	145.280000
421.301758	145.060000
421.395386	145.620000
421.489044	145.700000
421.582703	145.680000
421.676361	146.240000
421.769989	146.200000
421.863647	146.480000
421.957306	146.720000
422.050934	147.000000
422.144592	146.500000
422.238251	146.360000
422.331909	146.100000
422.425537	145.900000
422.519196	145.760000
422.612854	145.320000
422.706543	145.300000
422.800140	145.640000
422.893829	145.440000
422.987457	145.320000
423.081146	145.580000
423.174744	146.160000
423.268433	145.440000
423.362061	145.180000
423.455750	145.000000
423.549347	145.060000
423.643036	144.520000
423.736664	145.200000
423.830353	145.460000
423.924011	146.220000
424.017639	145.940000
424.111298	145.820000
424.204956	145.540000
424.298615	145.520000
424.392273	144.960000
424.485931	145.040000
424.579559	145.500000
424.673218	145.080000
424.766876	145.380000
424.860535	145.140000
424.954193	145.020000
425.047882	145.240000
425.141510	145.440000
425.235199	145.400000
425.328796	145.340000
425.422485	145.160000
425.516113	144.300000
425.609802	144.600000
425.703430	144.640000
425.797119	144.760000
425.890747	145.100000
425.984436	145.520000
426.078064	145.320000
426.171753	145.200000
426.265411	145.180000
426.359070	145.220000
426.452728	145.100000
426.546356	145.000000
426.640015	144.640000
426.733673	144.760000
426.827332	144.640000
426.920990	145.500000
427.014648	145.040000
427.108307	145.380000
427.201965	145.760000
427.295624	145.660000
427.389282	144.460000
427.482941	144.820000
427.576630	144.600000
427.670258	144.020000
427.763947	143.980000
427.857574	144.480000
427.951263	144.640000
428.044922	144.660000
428.138611	144.620000
428.232239	144.860000
428.325928	144.900000
428.419556	145.240000
428.513245	144.960000
428.606903	145.240000
428.700562	145.060000
428.794220	144.740000
428.887878	144.380000
428.981537	144.760000
429.075195	144.660000
429.168854	145.100000
429.262512	145.160000
429.356201	145.280000
429.449860	145.100000
429.543518	145.340000
429.637177	145.320000
429.730835	145.440000
429.824493	145.240000
429.918182	145.640000
430.011810	145.220000
430.105530	144.500000
430.199158	144.720000
430.292847	144.800000
430.386475	144.420000
430.480164	144.200000
430.573792	144.180000
430.667511	143.940000
430.761139	143.820000
430.854828	144.220000
430.948456	144.700000
431.042145	145.420000
431.135834	145.100000
431.229492	145.340000
431.323151	145.540000
431.416809	145.520000
431.510468	145.260000
431.604156	145.380000
431.697815	145.200000
431.791473	144.460000
431.885132	144.240000
431.978821	144.520000
432.072479	144.840000
432.166138	145.500000
432.259827	145.500000
432.353485	145.660000
432.447174	145.860000
432.540802	145.120000
432.634491	144.620000
432.728149	145.000000
432.821838	145.540000
432.915466	145.060000
433.009186	145.600000
433.102814	145.100000
433.196503	144.920000
433.290131	144.440000
433.383850	144.460000
433.477509	144.860000
433.571167	145.900000
433.664856	146.200000
433.758514	146.980000
433.852173	146.980000
433.945862	146.780000
434.039520	146.480000
434.133179	146.140000
434.226868	145.480000
434.320526	145.060000
434.414185	145.520000
434.507874	145.160000
434.601562	145.380000
434.695221	145.100000
434.788910	145.700000
434.882538	145.560000
434.976257	145.180000
435.069885	144.980000
435.163574	145.280000
435.257233	144.820000
435.350922	144.780000
435.444580	144.940000
435.538269	145.100000
435.631897	145.540000
435.725616	146.120000
435.819275	146.240000
435.912964	146.960000
436.006622	147.320000
436.100311	146.960000
436.193970	146.060000
436.287628	145.920000
436.381317	145.560000
436.474976	145.000000
436.568665	144.340000
436.662323	144.840000
436.756012	144.600000
436.849670	144.080000
436.943390	144.140000
437.037018	144.440000
437.130737	144.380000
437.224365	144.140000
437.318085	144.560000
437.411713	144.500000
437.505432	144.740000
437.599060	145.600000
437.692780	146.040000
437.786407	146.120000
437.880127	146.440000
437.973755	146.280000
438.067474	145.440000
438.161133	145.120000
438.254822	145.200000
438.348480	144.720000
438.442169	145.380000
438.535828	145.680000
438.629517	145.340000
438.723175	144.820000
438.816864	145.440000
438.910553	144.560000
439.004211	144.100000
439.097900	144.280000
439.191559	144.500000
439.285248	143.740000
439.378906	144.300000
439.472626	144.140000
439.566284	144.160000
439.659973	144.520000
439.753632	144.520000
439.847321	144.780000
439.940979	145.240000
440.034698	145.220000
440.128326	144.520000
440.222046	144.760000
440.315674	144.120000
440.409393	144.040000
440.503082	144.000000
440.596741	144.240000
440.690430	144.700000
440.784088	144.780000
440.877777	144.380000
440.971466	144.420000
441.065125	144.360000
441.158813	143.600000
441.252502	143.640000
441.346161	143.900000
441.439850	144.280000
441.533539	144.320000
441.627197	144.800000
441.720886	144.600000
441.814606	145.140000
441.908234	145.460000
442.001953	145.380000
442.095612	145.220000
442.189301	145.620000
442.282959	145.600000
442.376678	144.720000
442.470306	145.640000
442.564026	145.680000
442.657684	145.540000
442.751404	145.260000
442.845032	146.260000
442.938751	145.220000
443.032440	145.340000
443.126099	145.000000
443.219788	145.400000
443.313477	145.020000
443.407166	145.380000
443.500824	145.400000
443.594513	145.780000
443.688202	145.380000
443.781891	144.800000
443.875549	144.640000
443.969238	144.680000
444.062927	144.720000
444.156647	144.640000
444.250275	145.240000
444.343994	145.520000
444.437653	145.460000
444.531372	145.040000
444.625031	144.940000
444.718719	144.440000
444.812378	144.320000
444.906097	144.320000
444.999756	144.360000
445.093445	144.660000
445.187103	145.040000
445.280823	145.340000
445.374512	144.780000
445.468201	144.920000
445.561859	144.660000
445.655548	144.720000
445.749237	143.880000
445.842926	144.500000
445.936615	144.920000
446.030304	144.860000
446.123962	144.980000
446.217651	145.080000
446.311340	145.080000
446.405029	144.400000
446.498749	144.420000
446.592407	143.920000
446.686096	144.260000
446.779755	144.040000
446.873474	144.360000
446.967133	144.620000
447.060852	144.440000
447.154510	144.600000
447.248230	144.640000
447.341858	144.760000
447.435577	144.180000
447.529236	144.140000
447.622955	143.820000
447.716644	143.920000
447.810333	143.760000
447.904022	144.400000
447.997711	144.440000
448.091400	144.680000
448.185059	144.820000
448.278748	145.260000
448.372437	145.100000
448.466125	145.700000
448.559814	145.620000
448.653503	145.700000
448.747192	145.660000
448.840912	145.980000
448.934570	145.640000
449.028290	146.280000
449.121948	146.080000
449.215637	145.700000
449.309296	145.200000
449.403015	145.220000
449.496674	144.860000
449.590393	144.680000
449.684052	144.800000
449.777771	146.040000
449.871429	145.520000
449.965149	145.280000
450.058838	145.600000
450.152527	145.800000
450.246216	145.040000
450.339905	145.660000
450.433594	145.520000
450.527283	146.180000
450.620972	145.880000
450.714661	145.720000
450.808350	145.680000
450.902039	146.080000
450.995728	145.480000
451.089417	145.300000
451.183105	145.460000
451.276794	146.020000
451.370514	145.620000
451.464172	144.960000
451.557892	145.120000
451.651550	145.300000
451.745270	144.500000
451.838928	144.020000
451.932648	144.880000
452.026306	145.380000
452.120026	144.600000
452.213684	145.300000
452.307404	145.880000
452.401062	145.500000
452.494781	145.240000
452.588470	145.680000
452.682159	144.880000
452.775848	145.040000
452.869537	144.800000
452.963226	144.220000
453.056915	144.280000
453.150604	144.440000
453.244293	144.700000
453.337982	145.580000
453.431671	146.500000
453.525360	146.560000
453.619049	146.680000
453.712769	146.360000
453.806427	145.600000
453.900146	145.100000
453.993805	144.940000
454.087555	145.580000
454.181213	145.640000
454.274933	145.580000
454.368591	145.680000
454.462311	145.380000
454.555969	144.900000
454.649689	145.600000
454.743347	145.500000
454.837067	146.000000
454.930756	146.740000
455.024445	146.380000
455.118134	145.900000
455.211853	146.220000
455.305542	145.780000
455.399231	145.200000
455.492920	145.660000
455.586609	145.400000
455.680298	145.460000
455.773987	144.720000
455.867676	144.840000
455.961365	144.980000
456.055084	145.040000
456.148773	144.760000
456.242493	145.420000
456.336151	145.480000
456.429871	145.240000
456.523529	145.580000
456.617249	145.420000
456.710907	145.640000
456.804626	145.320000
456.898315	144.900000
456.992035	144.520000
457.085693	144.600000
457.179413	144.240000
457.273102	145.080000
457.366791	145.360000
457.460480	145.640000
457.554199	146.220000
457.647888	146.220000
457.741577	145.640000
457.835266	145.640000
457.928955	145.760000
458.022644	145.920000
458.116364	146.280000
458.210052	146.180000
458.303741	146.640000
458.397461	145.700000
458.491119	144.900000
458.584839	144.560000
458.678528	144.480000
458.772247	144.020000
458.865906	144.560000
458.959625	145.620000
459.053284	145.960000
459.147003	145.760000
459.240692	146.180000
459.334412	146.440000
459.428070	145.640000
459.521790	145.500000
459.615479	145.660000
459.709198	145.880000
459.802887	145.420000
459.896576	145.340000
459.990265	145.220000
460.083954	145.320000
460.177673	144.900000
460.271362	145.200000
460.365051	145.200000
460.458740	144.980000
460.552429	144.380000
460.646149	144.040000
460.739838	143.860000
460.833527	144.120000
460.927246	144.160000
461.020905	144.580000
461.114655	144.720000
461.208313	144.860000
461.302032	144.220000
461.395691	144.480000
461.489441	144.780000
461.583099	144.800000
461.676819	144.500000
461.770477	145.440000
461.864197	145.180000
461.957916	145.100000
462.051605	145.000000
462.145294	146.020000
462.238983	145.400000
462.332703	145.760000
462.426392	146.320000
462.520081	146.260000
462.613770	145.420000
462.707489	145.660000
462.801178	145.480000
462.894867	144.800000
462.988556	145.100000
463.082275	145.180000
463.175964	144.940000
463.269684	144.880000
463.363342	145.160000
463.457092	144.460000
463.550751	144.660000
463.644470	144.780000
463.738129	144.460000
463.831879	144.520000
463.925537	145.320000
464.019257	145.320000
464.112946	145.520000
464.206665	145.740000
464.300323	145.480000
464.394043	145.080000
464.487762	144.900000
464.581451	144.820000
464.675140	144.800000
464.768829	144.780000
464.862549	144.980000
464.956238	145.140000
465.049927	145.180000
465.143646	145.280000
465.237335	145.600000
465.331024	145.900000
465.424713	145.760000
465.518433	145.960000
465.612152	145.760000
465.705811	145.280000
465.799561	145.020000
465.893219	145.000000
465.986938	144.720000
466.080597	144.840000
466.174347	145.340000
466.268005	145.360000
466.361725	145.140000
466.455414	145.180000
466.549133	144.980000
466.642792	144.900000
466.736542	144.320000
466.830231	144.560000
466.923920	144.140000
467.017609	144.180000
467.111328	143.680000
467.205017	144.160000
467.298706	144.240000
467.392426	144.720000
467.486115	145.080000
467.579803	144.900000
467.673523	145.300000
467.767212	145.400000
467.860901	145.140000
467.954651	145.300000
468.048309	145.800000
468.142029	145.260000
468.235718	145.240000
468.329437	145.120000
468.423096	144.880000
468.516846	144.880000
468.610504	144.800000
468.704224	144.400000
468.797913	144.360000
468.891632	144.320000
468.985291	144.340000
469.079010	144.560000
469.172729	144.440000
469.266418	145.040000
469.360107	145.260000
469.453827	145.000000
469.547516	144.800000
469.641205	145.340000
469.734924	145.160000
469.828613	145.460000
469.922302	145.660000
470.016022	145.900000
470.109711	145.480000
470.203430	145.060000
470.297150	144.000000
470.390808	144.160000
470.484558	143.920000
470.578217	144.640000
470.671936	145.240000
470.765625	146.260000
470.859344	145.880000
470.953003	146.240000
471.046753	145.660000
471.140411	145.020000
471.234131	144.840000
471.327820	145.600000
471.421539	145.460000
471.515228	145.020000
471.608948	145.360000
471.702637	144.720000
471.796326	144.040000
471.890045	144.140000
471.983734	144.820000
472.077423	144.520000
472.171143	145.020000
472.264832	145.020000
472.358521	144.780000
472.452240	144.220000
472.545929	144.780000
472.639648	145.000000
472.733337	145.480000
472.827057	145.560000
472.920746	145.980000
473.014465	146.440000
473.108124	146.600000
473.201874	146.400000
473.295532	146.300000
473.389252	146.380000
473.482941	146.080000
473.576660	145.500000
473.670319	145.440000
473.764069	145.940000
473.857727	146.120000
473.951477	145.960000
474.045166	146.400000
474.138855	146.280000
474.232574	145.720000
474.326263	145.520000
474.419952	145.540000
474.513672	145.320000
474.607361	145.220000
474.701050	145.480000
474.794769	145.800000
474.888458	145.880000
474.982178	145.660000
475.075867	145.920000
475.169586	146.060000
475.263275	145.760000
475.356995	145.580000
475.450653	145.400000
475.544403	145.060000
475.638062	145.580000
475.731812	145.240000
475.825470	145.140000
475.919189	145.660000
476.012878	146.160000
476.106598	145.400000
476.200256	145.900000
476.294006	145.780000
476.387695	145.680000
476.481384	145.340000
476.575104	145.580000
476.668793	144.940000
476.762512	144.680000
476.856201	145.200000
476.949890	144.960000
477.043610	144.440000
477.137299	144.720000
477.230988	145.420000
477.324707	144.640000
477.418396	145.420000
477.512146	145.700000
477.605804	145.600000
477.699524	145.400000
477.793213	145.480000
477.886932	144.900000
477.980591	144.780000
478.074341	144.820000
478.167999	144.560000
478.261749	144.600000
478.355408	144.160000
478.449127	144.440000
478.542816	145.160000
478.636536	145.700000
478.730225	145.880000
478.823944	146.560000
478.917633	146.760000
479.011322	146.440000
479.105042	146.240000
479.198730	146.480000
479.292450	146.220000
479.386139	146.240000
479.479828	146.120000
479.573547	146.300000
479.667267	145.900000
479.760925	146.160000
479.854675	146.340000
479.948334	146.720000
480.042084	146.200000
480.135742	146.480000
480.229462	145.920000
480.323151	145.540000
480.416870	144.660000
480.510529	144.820000
480.604279	144.420000
480.697937	144.940000
480.791656	144.600000
480.885345	144.820000
480.979065	144.520000
481.072754	145.000000
481.166473	145.320000
481.260132	145.280000
481.353882	145.380000
481.447540	145.420000
481.541260	145.500000
481.635010	144.900000
481.728668	144.860000
481.822388	144.620000
481.916077	145.080000
482.009796	144.740000
482.103485	145.280000
482.197205	145.560000
482.290863	145.800000
482.384613	145.220000
482.478271	144.800000
482.571991	144.420000
482.665680	144.320000
482.759399	145.020000
482.853058	145.740000
482.946808	145.940000
483.040466	146.020000
483.134216	146.120000
483.227875	145.500000
483.321594	145.760000
483.415283	145.740000
483.509003	146.020000
483.602661	145.460000
483.696411	145.600000
483.790070	145.340000
483.883789	145.260000
483.977478	145.320000
484.071198	145.660000
484.164917	145.440000
484.258606	144.960000
484.352325	145.620000
484.445984	145.480000
484.539734	145.700000
484.633392	145.320000
484.727142	145.860000
484.820801	145.420000
484.914520	145.180000
485.008209	145.460000
485.101929	146.040000
485.195587	145.600000
485.289337	145.700000
485.382996	145.700000
485.476715	145.720000
485.570404	146.260000
485.664124	146.100000
485.757782	146.360000
485.851532	146.200000
485.945190	145.760000
486.038910	145.320000
486.132599	145.940000
486.226318	144.960000
486.319977	145.160000
486.413727	145.540000
486.507446	144.980000
486.601105	144.460000
486.694855	144.740000
486.788513	144.360000
486.882233	144.320000
486.975922	144.520000
487.069641	144.100000
487.163300	144.300000
487.257050	145.560000
487.350708	145.080000
487.444427	144.780000
487.538116	145.120000
487.631836	144.900000
487.725494	144.240000
487.819214	144.180000
487.912903	144.320000
488.006622	144.660000
488.100281	145.000000
488.194031	144.760000
488.287689	145.520000
488.381409	146.240000
488.475098	146.040000
488.568817	145.960000
488.662476	145.760000
488.756226	145.140000
488.849945	144.080000
488.943604	144.400000
489.037354	144.520000
489.131012	144.660000
489.224731	144.360000
489.318390	144.600000
489.412140	144.320000
489.505798	144.040000
489.599518	143.420000
489.693207	144.060000
489.786926	144.240000
489.880585	144.020000
489.974335	144.460000
490.067993	146.160000
490.161713	146.220000
490.255371	146.900000
490.349121	147.260000
490.442780	146.960000
490.536499	145.620000
490.630188	145.280000
490.723907	144.560000
490.817566	144.480000
490.911285	144.820000
491.004974	144.960000
491.098694	144.660000
491.192413	145.360000
491.286102	145.440000
491.379822	145.160000
491.473480	145.480000
491.567200	145.680000
491.660889	144.740000
491.754608	144.560000
491.848267	144.360000
491.941986	143.940000
492.035675	144.180000
492.129395	144.700000
492.223053	144.800000
492.316772	145.140000
492.410461	145.260000
492.504181	145.380000
492.597839	145.080000
492.691559	144.860000
492.785248	144.800000
492.878967	144.800000
492.972626	144.020000
493.066345	144.040000
493.160034	143.740000
493.253754	143.580000
493.347412	143.220000
493.441132	143.980000
493.534882	144.380000
493.628540	144.800000
493.722260	145.360000
493.815918	145.840000
493.909668	146.140000
494.003326	146.300000
494.097046	146.080000
494.190704	145.380000
494.284454	145.320000
494.378113	145.040000
494.471832	144.720000
494.565491	144.820000
494.659210	145.120000
494.752899	145.080000
494.846619	145.060000
494.940277	145.440000
495.033997	145.200000
495.127686	144.840000
495.221405	144.820000
495.315063	144.640000
495.408783	144.180000
495.502441	144.600000
495.596191	144.880000
495.689850	144.900000
495.783569	145.380000
495.877228	145.540000
495.970947	145.000000
496.064697	144.760000
496.158356	145.480000
496.252075	145.100000
496.345734	144.680000
496.439453	145.900000
496.533142	146.080000
496.626862	145.900000
496.720520	145.840000
496.814240	146.280000
496.907898	145.660000
497.001617	145.640000
497.095306	144.840000
497.189026	144.940000
497.282684	144.900000
497.376404	145.040000
497.470062	145.020000
497.563782	145.400000
497.657471	145.100000
497.751190	144.720000
497.844849	144.340000
497.938568	144.340000
498.032227	144.340000
498.125946	144.740000
498.219635	144.900000
498.313354	144.840000
498.407074	144.980000
498.500732	145.160000
498.594452	145.260000
498.688110	145.040000
498.781830	145.160000
498.875519	145.140000
498.969238	144.780000
499.062897	144.220000
499.156616	145.100000
499.250275	144.940000
499.343994	144.480000
499.437653	144.480000
499.531372	144.940000
499.625061	145.140000
499.718781	145.380000
499.812439	145.920000
499.906158	146.000000
499.999817	145.700000
500.093536	144.900000
500.187195	145.100000
500.280914	144.940000
500.374573	145.040000
500.468323	144.820000
500.561981	145.000000
500.655701	144.500000
500.749420	144.640000
500.843079	144.740000
500.936798	145.040000
501.030457	145.180000
501.124176	145.580000
501.217834	145.580000
501.311554	145.700000
501.405212	145.960000
501.498962	145.460000
501.592621	145.260000
501.686340	145.580000
501.779999	145.520000
501.873718	145.400000
501.967377	145.800000
502.061096	146.160000
502.154755	145.500000
502.248474	145.620000
502.342133	145.660000
502.435852	145.320000
502.529510	145.760000
502.623230	146.640000
502.716888	146.020000
502.810608	145.820000
502.904266	146.480000
502.997986	145.860000
503.091705	145.160000
503.185364	145.520000
503.279083	145.580000
503.372772	145.320000
503.466492	145.020000
503.560150	144.980000
503.653870	145.180000
503.747528	145.200000
503.841248	145.180000
503.934906	145.440000
504.028625	145.300000
504.122284	145.300000
504.216003	145.820000
504.309662	145.280000
504.403381	145.520000
504.497040	145.760000
504.590759	145.180000
504.684418	145.180000
504.778137	146.120000
504.871796	145.900000
504.965515	145.600000
505.059174	146.020000
505.152893	145.260000
505.246521	144.240000
505.340240	144.080000
505.433899	144.460000
505.527618	144.460000
505.621338	145.040000
505.714996	145.460000
505.808716	145.500000
505.902374	145.940000
505.996094	145.860000
506.089752	145.340000
506.183472	145.380000
506.277130	145.500000
506.370850	145.060000
506.464508	145.060000
506.558228	145.180000
506.651886	144.960000
506.745605	145.020000
506.839264	144.900000
506.932983	144.860000
507.026611	145.060000
507.120331	145.720000
507.213989	145.260000
507.307709	145.560000
507.401367	145.920000
507.495087	146.640000
507.588745	146.040000
507.682465	146.700000
507.776123	146.600000
507.869843	146.440000
507.963531	145.760000
508.057190	146.480000
508.150909	145.800000
508.244568	145.700000
508.338287	145.260000
508.431946	144.720000
508.525665	144.140000
508.619324	144.260000
508.713013	144.520000
508.806671	145.020000
508.900391	146.000000
508.994049	146.240000
509.087769	146.120000
509.181427	146.000000
509.275146	145.620000
509.368774	144.740000
509.462494	144.620000
509.556152	144.620000
509.649872	144.860000
509.743530	145.200000
509.837250	145.560000
509.930878	145.600000
510.024597	145.900000
510.118256	145.380000
510.211975	145.120000
510.305695	144.960000
510.399353	144.740000
510.493042	145.000000
510.586700	145.300000
510.680420	145.840000
510.774078	145.840000
510.867798	146.080000
510.961426	145.440000
511.055145	145.220000
511.148804	144.680000
511.242523	145.180000
511.336151	145.100000
511.429871	145.760000
511.523529	145.780000
511.617249	145.460000
511.710876	145.280000
511.804596	144.900000
511.898254	144.600000
511.991974	144.880000
512.085632	145.100000
512.179321	145.280000
512.272949	146.100000
512.366699	146.780000
512.460327	146.340000
512.554077	147.420000
512.647766	147.020000
512.741394	146.480000
512.835144	146.600000
512.928772	146.600000
513.022461	145.940000
513.116150	145.700000
513.209839	146.260000
513.303467	145.260000
513.397217	145.440000
513.490845	145.200000
513.584595	145.580000
513.678223	144.880000
513.771912	144.600000
513.865601	144.660000
513.959290	144.260000
514.052917	143.900000
514.146667	144.800000
514.240295	145.420000
514.333984	145.820000
514.427673	145.820000
514.521362	146.340000
514.614990	145.380000
514.708740	145.460000
514.802368	145.120000
514.896057	145.400000
514.989746	145.720000
515.083435	145.900000
515.177124	145.840000
515.270752	145.560000
515.364502	145.580000
515.458130	145.300000
515.551819	144.960000
515.645508	144.780000
515.739197	145.120000
515.832825	145.340000
515.926575	144.720000
516.020203	145.180000
516.113892	145.840000
516.207520	145.500000
516.301270	145.300000
516.394897	145.740000
516.488586	145.960000
516.582275	145.420000
516.675964	144.900000
516.769592	145.000000
516.863281	145.520000
516.956970	145.920000
517.050659	145.860000
517.144287	146.460000
517.238037	146.400000
517.331665	145.860000
517.425354	145.060000
517.519043	145.120000
517.612732	145.320000
517.706421	145.420000
517.800049	144.980000
517.893738	144.840000
517.987427	144.600000
518.081116	144.400000
518.174744	144.040000
518.268433	144.440000
518.362122	145.280000
518.455811	145.300000
518.549438	146.040000
518.643127	146.940000
518.736816	146.560000
518.830505	145.960000
518.924133	146.100000
519.017822	145.680000
519.111511	145.340000
519.205200	146.080000
519.298828	146.000000
519.392517	145.700000
519.486206	145.940000
519.579895	145.980000
519.673523	145.220000
519.767212	145.320000
519.860901	145.820000
519.954590	145.120000
520.048279	144.660000
520.141907	144.820000
520.235596	145.720000
520.329224	145.720000
520.422974	145.920000
520.516602	145.860000
520.610291	145.540000
520.703918	145.040000
520.797607	144.780000
520.891296	144.780000
520.984985	144.820000
521.078613	145.740000
521.172302	144.940000
521.265930	145.820000
521.359680	146.300000
521.453308	146.320000
521.546997	146.040000
521.640625	146.560000
521.734314	145.720000
521.827942	145.420000
521.921692	145.520000
522.015320	145.560000
522.109009	145.400000
522.202698	145.120000
522.296326	145.140000
522.390015	145.360000
522.483704	145.140000
522.577393	144.860000
522.671021	145.200000
522.764709	144.860000
522.858337	145.260000
522.952026	145.140000
523.045654	145.840000
523.139404	146.420000
523.233032	146.700000
523.326721	146.300000
523.420349	146.360000
523.514038	145.640000
523.607666	145.420000
523.701355	144.860000
523.795044	144.580000
523.888733	145.000000
523.982361	145.480000
524.076050	145.100000
524.169678	145.880000
524.263367	145.780000
524.356995	145.360000
524.450684	144.860000
524.544373	144.520000
524.638062	144.180000
524.731750	144.560000
524.825378	144.700000
524.919067	144.600000
525.012695	144.900000
525.106384	144.440000
525.200012	144.380000
525.293701	144.140000
525.387329	144.540000
525.481018	144.940000
525.574646	145.720000
525.668396	145.460000
525.762024	145.960000
525.855713	146.180000
525.949341	145.280000
526.043030	144.820000
526.136658	144.820000
526.230347	144.380000
526.323975	144.100000
526.417664	144.280000
526.511292	144.680000
526.604980	145.220000
526.698608	144.940000
526.792297	144.880000
526.885925	145.360000
526.979614	145.220000
527.073303	144.720000
527.166931	145.120000
527.260620	145.640000
527.354309	145.800000
527.447998	145.700000
527.541626	145.580000
527.635315	145.640000
527.728943	145.860000
527.822632	145.640000
527.916260	145.660000
528.009949	145.900000
528.103577	145.480000
528.197266	144.700000
528.290894	144.880000
528.384583	144.480000
528.478210	144.340000
528.571899	144.600000
528.665527	144.900000
528.759216	145.060000
528.852844	145.760000
528.946533	145.860000
529.040161	145.820000
529.133850	145.360000
529.227478	145.120000
529.321167	145.120000
529.414856	145.460000
529.508484	146.080000
529.602173	146.200000
529.695801	145.960000
529.789490	145.660000
529.883057	145.460000
529.976746	145.140000
530.070374	145.420000
530.164062	145.840000
530.257690	146.200000
530.351379	146.480000
530.445007	146.320000
530.538696	146.080000
530.632324	146.020000
530.726013	145.960000
530.819641	145.680000
530.913330	145.940000
531.006958	145.680000
531.100647	145.660000
531.194275	145.280000
531.287964	145.100000
531.381592	144.540000
531.475220	145.160000
531.568848	144.780000
531.662537	144.520000
531.756226	145.020000
531.849854	145.680000
531.943542	145.360000
532.037170	144.780000
532.130859	145.640000
532.224487	145.100000
532.318176	144.300000
532.411804	145.180000
532.505432	145.880000
532.599060	145.040000
532.692749	144.780000
532.786377	145.520000
532.880066	144.420000
532.973694	143.940000
533.067383	144.140000
533.161011	144.320000
533.254639	143.940000
533.348267	143.660000
533.441956	144.040000
533.535583	143.980000
533.629272	144.340000
533.722900	143.800000
533.816589	144.200000
533.910156	144.640000
534.003845	144.520000
534.097534	144.420000
534.191162	145.200000
534.284851	145.340000
534.378479	145.100000
534.472107	145.200000
534.565735	145.020000
534.659424	145.040000
534.753052	145.580000
534.846741	145.160000
534.940369	145.840000
535.033997	145.820000
535.127625	145.720000
535.221313	145.920000
535.314941	146.060000
535.408630	145.160000
535.502197	145.680000
535.595886	145.520000
535.689514	144.840000
535.783203	145.340000
535.876831	145.900000
535.970459	145.760000
536.064087	145.720000
536.157776	145.920000
536.251404	145.540000
536.345093	145.300000
536.438721	145.160000
536.532349	145.320000
536.626038	145.360000
536.719666	145.680000
536.813293	145.480000
536.906921	145.220000
537.000610	145.380000
537.094238	145.000000
537.187866	144.720000
537.281494	144.760000
537.375183	145.140000
537.468811	144.900000
537.562439	145.120000
537.656067	145.140000
537.749756	145.280000
537.843384	145.560000
537.937012	145.520000
538.030640	145.340000
538.124329	145.460000
538.217896	145.580000
538.311584	144.960000
538.405212	145.020000
538.498901	145.360000
538.592468	145.880000
538.686157	145.520000
538.779785	145.500000
538.873413	145.400000
538.967102	144.900000
539.060730	144.120000
539.154358	144.520000
539.247986	144.960000
539.341675	145.200000
539.435242	145.260000
539.528931	145.500000
539.622559	144.800000
539.716187	145.120000
539.809814	144.940000
539.903503	145.100000
539.997070	145.020000
540.090759	145.500000
540.184387	144.960000
540.278015	145.200000
540.371643	145.320000
540.465332	145.320000
540.558899	145.280000
540.652588	145.180000
540.746216	144.620000
540.839844	144.940000
540.933472	145.120000
541.027100	145.060000
541.120728	145.380000
541.214417	146.040000
541.308044	145.840000
541.401672	145.400000
541.495300	145.380000
541.588928	144.920000
541.682617	144.560000
541.776184	144.360000
541.869873	144.840000
541.963440	144.980000
542.057129	145.120000
542.150757	145.200000
542.244385	144.960000
542.338013	144.420000
542.431641	144.460000
542.525269	144.540000
542.618958	144.980000
542.712524	145.460000
542.806213	145.560000
542.899780	145.460000
542.993469	145.180000
543.087036	144.560000
543.180725	144.000000
543.274292	144.260000
543.367981	144.700000
543.461548	145.380000
543.555237	145.320000
543.648926	145.960000
543.742493	146.520000
543.836182	146.120000
543.929749	145.660000
544.023437	146.060000
544.117004	145.760000
544.210693	145.400000
544.304260	145.460000
544.397949	145.280000
544.491516	145.300000
544.585205	145.220000
544.678772	144.960000
544.772461	145.340000
544.866028	145.540000
544.959717	145.460000
545.053284	145.440000
545.146973	145.740000
545.240540	145.760000
545.334229	146.380000
545.427795	146.540000
545.521423	146.740000
545.615051	146.740000
545.708679	146.980000
545.802307	146.560000
545.895935	147.020000
545.989624	147.560000
546.083191	147.200000
546.176880	146.820000
546.270447	146.300000
546.364136	146.300000
546.457703	145.700000
546.551331	145.980000
546.644958	146.060000
546.738586	146.580000
546.832214	145.960000
546.925842	145.980000
547.019409	146.200000
547.113098	145.880000
547.206665	145.460000
547.300354	145.660000
547.393921	145.780000
547.487549	145.720000
547.581177	145.380000
547.674805	145.420000
547.768433	144.800000
547.862061	144.500000
547.955627	143.820000
548.049316	144.440000
548.142883	144.700000
548.236572	145.520000
548.330139	145.940000
548.423767	146.440000
548.517456	146.460000
548.611023	146.660000
548.704651	145.800000
548.798279	145.680000
548.891907	145.660000
548.985474	145.240000
549.079163	145.220000
549.172729	145.320000
549.266357	145.060000
549.359985	145.320000
549.453613	144.960000
549.547180	144.800000
549.640869	145.140000
549.734436	144.920000
549.828064	145.100000
549.921631	145.500000
550.015320	145.200000
550.108887	145.560000
550.202515	145.700000
550.296143	145.020000
550.389771	145.020000
550.483337	145.140000
550.576965	144.440000
550.670593	144.840000
550.764221	145.060000
550.857849	144.940000
550.951477	144.700000
551.045105	144.860000
551.138672	144.580000
551.232300	144.380000
551.325928	144.780000
551.419556	145.020000
551.513123	144.900000
551.606750	144.840000
551.700378	145.240000
551.794006	144.940000
551.887573	144.780000
551.981201	145.500000
552.074768	145.300000
552.168457	144.620000
552.262024	146.060000
552.355652	146.280000
552.449219	146.620000
552.542847	146.880000
552.636475	146.860000
552.730103	145.040000
552.823669	144.860000
552.917297	143.940000
553.010864	143.820000
553.104553	144.320000
553.198181	144.660000
553.291748	145.080000
553.385376	145.460000
553.478943	145.480000
553.572571	145.560000
553.666199	145.740000
553.759827	145.440000
553.853394	145.120000
553.947021	145.400000
554.040588	145.140000
554.134216	145.160000
554.227783	145.860000
554.321411	146.440000
554.415039	145.760000
554.508667	145.900000
554.602234	146.260000
554.695862	145.420000
554.789429	145.100000
554.883057	145.260000
554.976624	145.160000
555.070251	144.880000
555.163818	144.980000
555.257507	144.880000
555.351074	145.240000
555.444702	146.420000
555.538330	145.820000
555.631897	146.300000
555.725525	146.480000
555.819092	146.340000
555.912720	144.840000
556.006287	145.820000
556.099915	145.520000
556.193481	145.660000
556.287109	145.940000
556.380676	146.100000
556.474304	146.040000
556.567871	146.020000
556.661499	145.340000
556.755066	145.440000
556.848694	145.900000
556.942261	145.320000
557.035889	145.680000
557.129517	146.120000
557.223145	146.160000
557.316711	145.920000
557.410339	146.280000
557.503906	145.840000
557.597473	146.180000
557.691040	145.980000
557.784668	145.860000
557.878296	146.100000
557.971863	146.220000
558.065491	145.980000
558.159058	145.720000
558.252686	146.560000
558.346252	146.760000
558.439880	146.220000
558.533447	145.720000
558.627075	145.400000
558.720642	144.720000
558.814270	144.360000
558.907837	144.820000
559.001465	144.660000
559.095032	145.800000
559.188660	146.080000
559.282227	145.600000
559.375854	145.980000
559.469360	146.040000
559.562988	145.960000
559.656555	145.600000
559.750183	145.900000
559.843750	146.120000
559.937378	146.320000
560.030945	145.700000
560.124573	0.000000
560.218140	0.000000
560.311707	0.000000
560.405334	0.000000
560.498901	0.000000
560.592529	0.000000
560.686096	0.000000
560.779724	0.000000
560.873291	0.000000
560.966858	0.000000
561.060425	0.000000
561.154053	0.000000
561.247620	0.000000
561.341248	0.000000
561.434814	0.000000
561.528381	0.000000
561.621948	0.000000
561.715576	0.000000
561.809143	0.000000
561.902771	0.000000
561.996277	0.000000
562.089905	0.000000
562.183472	0.000000
562.277100	0.000000
