Model Number: SPM-002-B   
Serial Number: 70087108
Firmware Version: 004.15.4
Exposure Time: 100000.000000us
Data Taken on: 11-12-2020 18:51:09.603
Wavelength	Amplitude
221.570786	0.000000
221.663406	0.000000
221.756027	0.000000
221.848648	0.000000
221.941269	0.000000
222.033905	0.000000
222.126526	0.000000
222.219162	0.000000
222.311798	0.000000
222.404419	0.000000
222.497055	0.000000
222.589676	0.000000
222.682312	0.000000
222.774933	0.000000
222.867569	0.000000
222.960205	0.000000
223.052841	0.000000
223.145462	0.000000
223.238098	0.000000
223.330734	0.000000
223.423386	0.000000
223.516022	0.000000
223.608658	0.000000
223.701309	0.000000
223.793945	0.000000
223.886581	0.000000
223.979218	0.000000
224.071869	0.000000
224.164505	0.000000
224.257156	0.000000
224.349792	0.000000
224.442444	0.000000
224.535095	0.000000
224.627747	0.000000
224.720398	0.000000
224.813034	0.000000
224.905685	0.000000
224.998337	145.460000
225.090988	145.340000
225.183640	145.180000
225.276291	145.040000
225.368942	145.700000
225.461594	146.180000
225.554245	146.580000
225.646912	146.820000
225.739578	147.200000
225.832230	147.420000
225.924896	146.560000
226.017548	146.760000
226.110199	147.080000
226.202866	146.680000
226.295532	146.340000
226.388184	146.600000
226.480850	146.160000
226.573517	145.540000
226.666168	145.840000
226.758835	146.460000
226.851501	146.760000
226.944183	146.980000
227.036850	147.080000
227.129517	146.720000
227.222183	146.360000
227.314850	146.600000
227.407516	146.740000
227.500198	147.340000
227.592865	147.120000
227.685532	146.460000
227.778214	145.680000
227.870880	146.140000
227.963562	146.460000
228.056229	147.120000
228.148926	147.420000
228.241592	148.540000
228.334274	147.960000
228.426956	147.280000
228.519638	147.240000
228.612305	147.000000
228.704987	146.720000
228.797668	146.520000
228.890350	146.660000
228.983032	145.740000
229.075714	146.280000
229.168396	145.740000
229.261108	145.560000
229.353790	145.320000
229.446472	145.880000
229.539169	145.760000
229.631851	145.580000
229.724533	145.460000
229.817230	145.680000
229.909912	146.760000
230.002609	146.740000
230.095306	146.820000
230.187988	147.320000
230.280685	147.240000
230.373383	145.840000
230.466095	145.520000
230.558792	145.840000
230.651474	145.520000
230.744171	145.260000
230.836868	145.220000
230.929581	145.660000
231.022278	145.500000
231.114975	145.740000
231.207672	145.680000
231.300369	146.080000
231.393082	146.140000
231.485779	145.840000
231.578506	145.740000
231.671204	145.980000
231.763916	146.200000
231.856613	146.200000
231.949326	146.580000
232.042023	146.740000
232.134735	146.480000
232.227448	146.000000
232.320160	146.140000
232.412872	145.900000
232.505585	146.360000
232.598297	146.820000
232.691010	146.760000
232.783722	146.220000
232.876450	146.880000
232.969162	146.200000
233.061874	146.000000
233.154587	146.140000
233.247314	146.400000
233.340027	145.820000
233.432739	146.500000
233.525467	146.040000
233.618179	146.180000
233.710907	146.180000
233.803635	146.620000
233.896347	146.020000
233.989090	147.120000
234.081818	147.160000
234.174545	147.180000
234.267258	146.600000
234.359985	147.000000
234.452713	146.700000
234.545441	146.240000
234.638168	146.080000
234.730896	146.720000
234.823639	146.340000
234.916367	146.520000
235.009094	146.840000
235.101822	146.840000
235.194580	146.560000
235.287308	146.620000
235.380051	146.000000
235.472778	146.280000
235.565521	146.760000
235.658249	146.380000
235.750992	146.440000
235.843719	146.480000
235.936462	146.560000
236.029205	145.800000
236.121948	145.400000
236.214691	145.820000
236.307449	146.360000
236.400192	145.760000
236.492935	145.740000
236.585678	146.420000
236.678421	146.220000
236.771164	145.740000
236.863907	146.320000
236.956665	146.820000
237.049408	148.140000
237.142151	147.500000
237.234909	148.180000
237.327652	148.240000
237.420410	147.780000
237.513153	146.840000
237.605927	146.780000
237.698669	146.060000
237.791428	145.360000
237.884186	146.000000
237.976944	145.200000
238.069702	145.820000
238.162445	145.460000
238.255203	145.800000
238.347961	146.020000
238.440720	146.320000
238.533478	146.060000
238.626266	145.960000
238.719025	146.340000
238.811783	145.800000
238.904541	145.600000
238.997314	145.660000
239.090073	145.800000
239.182831	145.640000
239.275604	146.520000
239.368362	146.500000
239.461136	146.460000
239.553909	146.900000
239.646667	146.720000
239.739441	145.860000
239.832214	146.080000
239.925003	146.400000
240.017761	146.720000
240.110535	147.120000
240.203308	146.820000
240.296082	147.340000
240.388855	146.940000
240.481628	146.660000
240.574417	146.520000
240.667191	146.800000
240.759964	146.140000
240.852737	146.240000
240.945526	145.980000
241.038315	145.720000
241.131088	145.780000
241.223877	146.220000
241.316650	145.940000
241.409439	146.160000
241.502228	145.880000
241.595001	146.120000
241.687790	145.920000
241.780579	146.100000
241.873367	146.320000
241.966141	146.700000
242.058929	146.160000
242.151718	146.140000
242.244507	146.840000
242.337311	146.000000
242.430099	146.140000
242.522903	146.460000
242.615692	146.220000
242.708481	145.480000
242.801270	146.260000
242.894073	146.200000
242.986862	146.180000
243.079651	147.120000
243.172455	147.240000
243.265244	147.100000
243.358063	146.760000
243.450867	147.200000
243.543655	146.660000
243.636459	146.820000
243.729263	147.060000
243.822067	147.200000
243.914856	147.000000
244.007660	146.980000
244.100464	146.940000
244.193268	146.100000
244.286072	145.980000
244.378876	145.520000
244.471680	145.240000
244.564499	145.600000
244.657318	146.800000
244.750122	147.180000
244.842926	146.940000
244.935745	147.380000
245.028549	146.660000
245.121368	146.060000
245.214172	145.920000
245.306992	146.640000
245.399796	146.140000
245.492615	146.580000
245.585434	146.460000
245.678253	146.380000
245.771072	146.060000
245.863892	146.560000
245.956711	146.600000
246.049530	146.360000
246.142349	146.160000
246.235168	146.240000
246.327988	146.620000
246.420807	146.200000
246.513626	146.480000
246.606445	146.300000
246.699280	146.320000
246.792099	145.780000
246.884918	145.560000
246.977753	145.180000
247.070587	145.720000
247.163422	145.540000
247.256241	145.360000
247.349075	145.720000
247.441895	145.760000
247.534729	145.540000
247.627563	145.520000
247.720383	146.040000
247.813217	146.080000
247.906052	145.980000
247.998886	146.040000
248.091736	145.840000
248.184570	145.440000
248.277405	145.460000
248.370239	146.580000
248.463074	147.360000
248.555908	147.820000
248.648743	147.900000
248.741592	147.780000
248.834427	147.140000
248.927261	145.860000
249.020111	146.280000
249.112946	146.560000
249.205795	146.380000
249.298630	146.360000
249.391495	146.800000
249.484344	146.200000
249.577179	146.120000
249.670029	146.420000
249.762878	146.880000
249.855728	147.000000
249.948563	147.000000
250.041412	146.260000
250.134262	146.420000
250.227112	146.180000
250.319962	146.040000
250.412827	146.020000
250.505692	146.340000
250.598541	146.280000
250.691391	146.040000
250.784241	146.080000
250.877106	146.420000
250.969955	145.960000
251.062805	146.420000
251.155670	146.700000
251.248520	146.620000
251.341385	146.520000
251.434235	146.620000
251.527100	146.180000
251.619965	145.820000
251.712814	146.780000
251.805695	146.640000
251.898560	147.200000
251.991425	147.320000
252.084290	147.700000
252.177155	146.440000
252.270020	146.200000
252.362885	146.220000
252.455750	146.240000
252.548615	145.640000
252.641479	145.820000
252.734360	145.680000
252.827240	145.340000
252.920105	145.240000
253.012970	145.120000
253.105850	145.220000
253.198715	145.540000
253.291595	145.680000
253.384460	145.400000
253.477341	145.720000
253.570221	145.960000
253.663086	145.700000
253.755966	146.320000
253.848846	146.440000
253.941727	146.660000
254.034592	146.340000
254.127472	145.880000
254.220367	145.580000
254.313248	145.840000
254.406128	145.160000
254.499008	145.640000
254.591904	146.600000
254.684784	146.980000
254.777664	146.600000
254.870544	146.540000
254.963440	146.100000
255.056335	145.940000
255.149216	145.400000
255.242111	146.000000
255.334991	146.560000
255.427887	146.940000
255.520767	146.980000
255.613663	147.300000
255.706558	146.360000
255.799438	146.160000
255.892334	145.820000
255.985229	145.500000
256.078125	145.120000
256.171021	145.400000
256.263916	145.960000
256.356812	146.180000
256.449707	146.320000
256.542603	146.260000
256.635498	146.600000
256.728394	146.360000
256.821289	145.940000
256.914215	146.440000
257.007080	146.720000
257.100006	146.700000
257.192932	146.840000
257.285828	147.300000
257.378723	146.560000
257.471619	146.080000
257.564545	145.920000
257.657440	145.880000
257.750336	146.200000
257.843262	146.560000
257.936157	147.800000
258.029053	147.880000
258.121979	147.840000
258.214874	147.380000
258.307800	147.000000
258.400696	146.040000
258.493622	146.140000
258.586517	145.520000
258.679443	146.040000
258.772339	145.720000
258.865265	145.580000
258.958160	145.100000
259.051086	146.120000
259.144012	145.540000
259.236938	146.640000
259.329834	146.620000
259.422791	146.700000
259.515717	145.800000
259.608612	145.560000
259.701538	145.480000
259.794464	145.360000
259.887390	145.460000
259.980316	145.460000
260.073212	145.440000
260.166138	144.360000
260.259064	144.880000
260.351990	145.280000
260.444916	145.420000
260.537842	146.000000
260.630768	146.840000
260.723694	146.600000
260.816620	146.520000
260.909546	146.360000
261.002472	145.780000
261.095398	145.160000
261.188354	145.180000
261.281281	144.840000
261.374207	145.040000
261.467133	145.640000
261.560089	146.180000
261.653015	146.020000
261.745972	146.300000
261.838867	146.680000
261.931824	146.780000
262.024780	146.280000
262.117706	146.620000
262.210663	146.760000
262.303589	146.320000
262.396515	146.040000
262.489471	146.880000
262.582397	146.460000
262.675354	146.060000
262.768280	146.320000
262.861237	146.340000
262.954163	146.280000
263.047119	146.540000
263.140045	146.380000
263.233002	146.320000
263.325958	146.360000
263.418884	145.700000
263.511841	145.640000
263.604797	145.760000
263.697723	145.700000
263.790680	145.460000
263.883636	145.880000
263.976593	145.860000
264.069550	146.240000
264.162476	145.880000
264.255463	146.040000
264.348419	145.520000
264.441376	145.760000
264.534332	145.280000
264.627289	145.780000
264.720245	146.180000
264.813202	146.220000
264.906158	146.280000
264.999115	146.900000
265.092072	146.880000
265.185028	147.040000
265.277985	147.460000
265.370941	147.060000
265.463898	146.820000
265.556854	146.740000
265.649811	145.700000
265.742798	145.640000
265.835754	145.900000
265.928711	146.240000
266.021667	145.940000
266.114655	146.400000
266.207611	146.500000
266.300568	145.660000
266.393585	145.140000
266.486511	145.580000
266.579498	145.260000
266.672485	145.140000
266.765442	145.620000
266.858429	146.140000
266.951385	145.920000
267.044342	146.160000
267.137329	146.160000
267.230316	146.620000
267.323273	145.960000
267.416260	146.580000
267.509216	146.180000
267.602203	146.360000
267.695160	146.360000
267.788147	146.560000
267.881134	145.560000
267.974091	146.000000
268.067078	145.640000
268.160065	145.520000
268.253052	145.540000
268.346008	145.880000
268.438995	145.660000
268.531982	145.800000
268.624969	145.400000
268.717987	145.640000
268.810944	145.720000
268.903961	146.020000
268.996948	145.780000
269.089905	146.140000
269.182892	145.800000
269.275879	146.120000
269.368866	145.460000
269.461853	145.800000
269.554871	145.480000
269.647858	145.960000
269.740845	146.160000
269.833832	146.620000
269.926819	146.420000
270.019806	146.840000
270.112793	146.320000
270.205811	146.180000
270.298798	146.240000
270.391785	146.600000
270.484772	146.340000
270.577789	146.680000
270.670776	146.360000
270.763763	146.140000
270.856750	145.880000
270.949768	145.500000
271.042786	145.500000
271.135773	145.560000
271.228790	145.960000
271.321808	145.580000
271.414795	145.700000
271.507782	145.320000
271.600800	145.080000
271.693817	144.980000
271.786804	145.720000
271.879822	145.940000
271.972809	145.860000
272.065826	146.160000
272.158844	145.900000
272.251831	146.320000
272.344849	146.560000
272.437866	146.440000
272.530853	146.200000
272.623871	146.500000
272.716888	145.280000
272.809906	145.120000
272.902893	145.300000
272.995911	145.180000
273.088928	145.200000
273.181946	145.600000
273.274963	145.520000
273.367981	145.540000
273.460999	145.800000
273.554047	146.040000
273.647003	146.600000
273.740051	146.640000
273.833069	147.040000
273.926086	147.040000
274.019135	146.600000
274.112152	146.080000
274.205170	145.780000
274.298187	145.840000
274.391205	145.620000
274.484222	145.540000
274.577240	145.840000
274.670258	146.080000
274.763306	145.900000
274.856323	146.360000
274.949341	146.600000
275.042358	146.580000
275.135406	146.500000
275.228424	146.400000
275.321442	146.180000
275.414490	145.620000
275.507507	145.920000
275.600525	146.440000
275.693573	146.120000
275.786591	145.480000
275.879669	146.100000
275.972656	145.460000
276.065735	145.140000
276.158752	145.840000
276.251801	146.940000
276.344818	147.020000
276.437866	147.300000
276.530884	147.300000
276.623932	146.580000
276.716980	146.580000
276.809998	146.660000
276.903046	146.900000
276.996094	147.340000
277.089111	148.160000
277.182159	148.240000
277.275208	147.700000
277.368256	147.380000
277.461304	146.880000
277.554321	145.960000
277.647369	145.600000
277.740417	145.620000
277.833466	145.340000
277.926514	145.460000
278.019562	146.280000
278.112610	145.740000
278.205688	145.880000
278.298706	146.200000
278.391785	145.980000
278.484833	145.260000
278.577881	145.400000
278.670929	145.780000
278.763977	145.800000
278.857025	146.400000
278.950073	146.440000
279.043121	146.500000
279.136169	146.420000
279.229248	146.260000
279.322296	146.080000
279.415344	145.940000
279.508392	145.840000
279.601440	145.540000
279.694519	145.600000
279.787567	145.080000
279.880615	145.240000
279.973694	145.220000
280.066742	145.400000
280.159790	145.400000
280.252869	145.380000
280.345917	145.420000
280.438995	145.520000
280.532074	145.200000
280.625122	145.480000
280.718201	146.460000
280.811279	146.680000
280.904327	146.740000
280.997406	147.120000
281.090454	147.020000
281.183533	146.220000
281.276581	146.060000
281.369659	145.840000
281.462738	145.740000
281.555786	145.700000
281.648865	146.000000
281.741943	145.700000
281.835022	146.280000
281.928070	146.020000
282.021149	145.640000
282.114227	145.300000
282.207306	145.480000
282.300385	145.500000
282.393433	145.580000
282.486511	145.680000
282.579590	146.140000
282.672668	146.500000
282.765747	145.740000
282.858856	145.680000
282.951904	145.940000
283.045013	145.780000
283.138062	145.900000
283.231171	146.560000
283.324249	146.860000
283.417328	146.900000
283.510406	146.660000
283.603485	146.620000
283.696564	146.360000
283.789642	146.540000
283.882751	146.160000
283.975830	146.860000
284.068909	146.460000
284.161987	146.820000
284.255066	145.860000
284.348175	146.360000
284.441254	145.920000
284.534332	146.260000
284.627441	145.760000
284.720520	145.920000
284.813599	145.740000
284.906708	145.680000
284.999786	145.260000
285.092896	145.260000
285.185974	146.680000
285.279053	146.240000
285.372192	146.260000
285.465240	146.960000
285.558380	146.780000
285.651459	146.200000
285.744568	147.220000
285.837677	146.920000
285.930756	146.300000
286.023865	146.700000
286.116943	146.380000
286.210052	146.200000
286.303162	146.300000
286.396240	146.560000
286.489349	146.420000
286.582458	146.500000
286.675568	146.160000
286.768646	146.080000
286.861755	146.400000
286.954865	147.200000
287.047974	146.680000
287.141083	146.460000
287.234161	146.620000
287.327271	146.020000
287.420380	146.060000
287.513519	146.320000
287.606598	146.480000
287.699738	146.740000
287.792816	147.020000
287.885956	146.560000
287.979034	146.380000
288.072174	146.380000
288.165283	146.020000
288.258392	146.160000
288.351501	145.520000
288.444611	145.820000
288.537720	146.060000
288.630859	146.180000
288.723969	146.120000
288.817078	146.800000
288.910187	146.940000
289.003296	146.440000
289.096436	145.900000
289.189545	145.480000
289.282654	145.020000
289.375763	145.200000
289.468903	145.780000
289.562012	146.220000
289.655121	146.560000
289.748260	146.760000
289.841400	146.840000
289.934509	146.540000
290.027649	146.880000
290.120728	146.720000
290.213898	146.580000
290.306976	146.420000
290.400146	146.300000
290.493256	145.940000
290.586395	146.080000
290.679535	146.460000
290.772644	145.920000
290.865784	145.480000
290.958893	145.060000
291.052032	144.760000
291.145172	144.400000
291.238281	144.440000
291.331421	144.580000
291.424561	145.520000
291.517670	145.240000
291.610809	145.480000
291.703949	145.440000
291.797089	145.640000
291.890228	145.040000
291.983337	145.340000
292.076477	144.900000
292.169617	145.240000
292.262756	145.020000
292.355927	144.780000
292.449036	144.840000
292.542206	145.220000
292.635315	145.180000
292.728485	145.680000
292.821625	145.740000
292.914764	146.620000
293.007904	146.800000
293.101044	146.840000
293.194183	146.820000
293.287323	146.920000
293.380463	146.080000
293.473602	145.660000
293.566742	146.040000
293.659882	146.400000
293.753021	146.780000
293.846191	147.040000
293.939331	146.700000
294.032471	146.100000
294.125610	145.820000
294.218781	146.020000
294.311920	146.120000
294.405060	146.380000
294.498230	146.600000
294.591370	146.500000
294.684540	145.600000
294.777679	145.200000
294.870850	145.800000
294.963959	145.580000
295.057159	145.400000
295.150299	146.080000
295.243469	146.160000
295.336609	145.580000
295.429779	145.820000
295.522919	146.020000
295.616089	145.960000
295.709229	146.580000
295.802399	146.560000
295.895569	146.420000
295.988708	146.220000
296.081879	146.440000
296.175018	145.780000
296.268188	145.740000
296.361359	146.040000
296.454529	146.360000
296.547668	145.860000
296.640839	146.120000
296.734009	146.080000
296.827179	146.300000
296.920319	146.200000
297.013519	146.180000
297.106659	146.360000
297.199860	146.440000
297.292999	146.180000
297.386200	146.060000
297.479309	145.860000
297.572510	145.560000
297.665680	145.480000
297.758850	145.200000
297.852020	145.160000
297.945190	145.340000
298.038361	145.240000
298.131531	146.140000
298.224701	146.220000
298.317871	145.720000
298.411072	145.520000
298.504242	145.360000
298.597412	144.560000
298.690582	144.860000
298.783752	145.280000
298.876923	145.820000
298.970093	146.160000
299.063293	146.620000
299.156464	146.740000
299.249634	146.960000
299.342834	146.980000
299.436005	147.400000
299.529205	147.320000
299.622345	147.100000
299.715576	146.520000
299.808716	146.360000
299.901917	145.780000
299.995117	145.780000
300.088287	145.740000
300.181488	145.800000
300.274658	145.600000
300.367828	145.940000
300.461029	145.960000
300.554199	146.220000
300.647400	146.680000
300.740601	147.240000
300.833771	147.080000
300.926971	147.260000
301.020142	146.800000
301.113342	146.580000
301.206512	146.360000
301.299713	146.500000
301.392914	146.460000
301.486084	147.080000
301.579285	147.080000
301.672516	147.320000
301.765686	147.120000
301.858887	147.040000
301.952057	146.740000
302.045288	146.800000
302.138458	146.340000
302.231659	146.020000
302.324860	145.540000
302.418060	145.100000
302.511261	144.880000
302.604462	145.160000
302.697662	145.120000
302.790863	144.980000
302.884064	144.960000
302.977264	145.320000
303.070465	145.620000
303.163666	146.440000
303.256866	147.100000
303.350067	147.300000
303.443268	147.160000
303.536469	146.800000
303.629669	146.440000
303.722870	146.620000
303.816071	146.520000
303.909271	146.580000
304.002472	146.080000
304.095673	145.600000
304.188934	144.780000
304.282104	145.780000
304.375336	145.660000
304.468506	146.040000
304.561768	146.440000
304.654968	147.040000
304.748169	146.180000
304.841370	146.040000
304.934601	146.200000
305.027802	145.720000
305.121002	145.600000
305.214233	145.580000
305.307434	145.700000
305.400665	145.880000
305.493866	145.700000
305.587097	145.800000
305.680298	145.680000
305.773499	146.080000
305.866730	145.700000
305.959930	146.580000
306.053162	146.680000
306.146393	146.560000
306.239594	145.680000
306.332825	145.860000
306.426025	145.760000
306.519287	145.220000
306.612488	145.580000
306.705719	146.100000
306.798920	146.040000
306.892181	145.460000
306.985352	145.060000
307.078613	144.740000
307.171844	145.100000
307.265045	144.500000
307.358276	144.220000
307.451508	144.900000
307.544739	145.260000
307.637970	144.740000
307.731201	145.040000
307.824402	146.020000
307.917633	146.160000
308.010864	146.720000
308.104095	147.660000
308.197327	148.140000
308.290558	148.000000
308.383789	147.760000
308.477020	147.180000
308.570251	145.920000
308.663483	145.220000
308.756714	145.080000
308.849976	144.960000
308.943176	145.520000
309.036438	145.520000
309.129639	145.400000
309.222900	145.660000
309.316101	145.520000
309.409393	144.700000
309.502625	145.100000
309.595856	145.540000
309.689087	145.560000
309.782318	146.140000
309.875580	146.580000
309.968811	146.720000
310.062042	146.740000
310.155273	146.200000
310.248535	146.060000
310.341766	145.900000
310.434998	145.640000
310.528259	145.320000
310.621490	145.780000
310.714722	145.140000
310.807983	145.240000
310.901215	145.080000
310.994476	145.420000
311.087708	144.720000
311.181000	145.260000
311.274200	144.720000
311.367462	144.880000
311.460693	144.740000
311.553986	145.680000
311.647186	145.820000
311.740479	146.540000
311.833710	146.520000
311.926971	146.400000
312.020203	145.760000
312.113464	145.620000
312.206726	144.940000
312.299957	145.260000
312.393219	146.160000
312.486481	146.400000
312.579712	146.200000
312.672974	146.460000
312.766235	146.160000
312.859497	145.820000
312.952759	145.560000
313.045990	146.340000
313.139252	145.940000
313.232513	146.220000
313.325775	146.000000
313.419037	146.260000
313.512299	145.160000
313.605530	145.840000
313.698822	145.800000
313.792053	145.800000
313.885345	145.180000
313.978577	145.480000
314.071869	144.900000
314.165131	144.980000
314.258392	145.380000
314.351654	146.040000
314.444916	145.780000
314.538177	146.340000
314.631439	146.480000
314.724701	146.100000
314.817993	145.840000
314.911255	146.220000
315.004517	145.680000
315.097778	145.580000
315.191040	146.020000
315.284302	146.240000
315.377594	145.960000
315.470856	146.060000
315.564117	145.560000
315.657379	144.920000
315.750671	144.700000
315.843933	145.160000
315.937195	144.720000
316.030518	144.840000
316.123749	144.900000
316.217041	145.560000
316.310303	145.700000
316.403595	146.220000
316.496857	146.500000
316.590149	146.740000
316.683411	146.020000
316.776703	145.620000
316.869965	145.720000
316.963257	145.220000
317.056519	144.740000
317.149811	144.560000
317.243073	144.360000
317.336365	144.180000
317.429626	144.860000
317.522919	145.360000
317.616180	145.660000
317.709473	145.860000
317.802765	146.060000
317.896027	145.920000
317.989319	146.020000
318.082611	145.820000
318.175873	145.860000
318.269165	145.820000
318.362488	145.740000
318.455750	145.440000
318.549042	146.100000
318.642303	146.540000
318.735626	146.380000
318.828888	146.500000
318.922211	146.400000
319.015472	146.700000
319.108765	146.020000
319.202057	145.940000
319.295349	145.700000
319.388641	145.800000
319.481934	145.260000
319.575226	145.440000
319.668518	145.760000
319.761810	146.120000
319.855103	146.120000
319.948395	146.180000
320.041687	146.220000
320.134979	146.120000
320.228271	145.780000
320.321564	145.540000
320.414856	145.440000
320.508148	145.180000
320.601440	144.960000
320.694763	144.960000
320.788025	145.900000
320.881348	146.040000
320.974640	145.940000
321.067963	145.680000
321.161224	146.000000
321.254547	145.060000
321.347839	145.200000
321.441162	144.920000
321.534454	145.160000
321.627747	144.600000
321.721069	145.420000
321.814362	145.360000
321.907654	145.820000
322.000946	145.900000
322.094269	146.660000
322.187561	146.400000
322.280884	146.620000
322.374176	146.740000
322.467468	147.040000
322.560791	146.820000
322.654083	146.940000
322.747406	146.820000
322.840698	147.100000
322.934021	147.420000
323.027344	147.360000
323.120636	147.120000
323.213959	146.940000
323.307251	146.460000
323.400574	145.860000
323.493866	145.380000
323.587219	145.560000
323.680511	145.880000
323.773834	146.140000
323.867157	146.180000
323.960449	146.580000
324.053772	146.340000
324.147095	146.040000
324.240387	146.420000
324.333710	146.740000
324.427032	146.700000
324.520355	146.500000
324.613647	146.400000
324.706970	146.040000
324.800293	146.000000
324.893616	146.260000
324.986938	146.580000
325.080231	146.060000
325.173553	146.380000
325.266876	146.540000
325.360199	146.520000
325.453522	145.820000
325.546875	146.220000
325.640167	146.300000
325.733521	146.440000
325.826813	146.240000
325.920166	146.720000
326.013489	146.380000
326.106812	145.400000
326.200134	144.760000
326.293457	144.720000
326.386780	144.520000
326.480103	144.200000
326.573425	144.460000
326.666748	144.640000
326.760071	145.000000
326.853424	145.100000
326.946747	145.680000
327.040070	146.380000
327.133392	145.980000
327.226715	145.040000
327.320068	145.140000
327.413391	145.360000
327.506714	144.740000
327.600037	145.060000
327.693390	145.540000
327.786713	145.260000
327.880066	145.180000
327.973358	145.120000
328.066742	145.440000
328.160034	145.380000
328.253418	145.700000
328.346710	145.620000
328.440063	145.700000
328.533417	145.480000
328.626740	145.820000
328.720093	145.560000
328.813416	145.640000
328.906769	145.600000
329.000092	145.660000
329.093445	145.580000
329.186768	145.480000
329.280121	145.760000
329.373444	146.340000
329.466797	146.400000
329.560120	146.380000
329.653473	146.520000
329.746796	146.160000
329.840149	145.620000
329.933502	145.300000
330.026825	145.140000
330.120178	145.000000
330.213562	144.900000
330.306854	144.960000
330.400238	145.220000
330.493561	145.020000
330.586945	145.860000
330.680237	146.160000
330.773621	146.360000
330.866974	146.400000
330.960327	146.740000
331.053680	146.260000
331.147003	146.380000
331.240356	146.400000
331.333710	146.320000
331.427063	146.220000
331.520416	145.880000
331.613770	145.580000
331.707123	145.940000
331.800476	146.080000
331.893829	146.940000
331.987152	147.500000
332.080505	147.400000
332.173859	147.040000
332.267212	146.420000
332.360565	145.400000
332.453918	145.100000
332.547333	145.140000
332.640656	145.080000
332.734039	145.180000
332.827362	145.240000
332.920746	145.520000
333.014069	145.940000
333.107452	146.300000
333.200806	146.820000
333.294159	147.200000
333.387543	146.580000
333.480896	145.820000
333.574249	145.340000
333.667603	145.020000
333.760956	144.780000
333.854340	145.000000
333.947693	145.340000
334.041046	145.420000
334.134430	145.940000
334.227783	145.920000
334.321136	146.040000
334.414520	145.920000
334.507874	146.160000
334.601227	146.020000
334.694611	145.620000
334.787964	145.740000
334.881348	145.920000
334.974701	145.720000
335.068085	145.460000
335.161438	145.900000
335.254822	145.840000
335.348175	145.800000
335.441559	145.560000
335.534943	146.020000
335.628296	145.860000
335.721680	145.620000
335.815033	146.000000
335.908417	146.280000
336.001770	145.940000
336.095154	145.960000
336.188538	146.220000
336.281891	145.420000
336.375275	144.980000
336.468658	144.620000
336.562012	144.880000
336.655396	145.020000
336.748779	145.680000
336.842133	146.060000
336.935516	146.460000
337.028900	146.220000
337.122284	146.260000
337.215637	146.180000
337.309021	146.000000
337.402435	145.740000
337.495789	145.600000
337.589203	145.140000
337.682526	144.920000
337.775940	145.240000
337.869324	145.500000
337.962708	145.040000
338.056091	145.700000
338.149475	145.560000
338.242859	145.280000
338.336243	145.040000
338.429626	145.560000
338.523010	145.000000
338.616394	145.300000
338.709778	145.940000
338.803162	146.320000
338.896545	146.140000
338.989929	145.740000
339.083313	145.840000
339.176697	145.400000
339.270081	145.040000
339.363464	145.760000
339.456848	146.280000
339.550232	145.620000
339.643616	145.420000
339.737030	145.380000
339.830383	144.920000
339.923828	145.100000
340.017181	145.520000
340.110596	145.660000
340.203949	145.600000
340.297363	145.600000
340.390778	145.640000
340.484161	145.460000
340.577545	145.240000
340.670959	145.640000
340.764343	145.520000
340.857727	145.320000
340.951111	145.060000
341.044525	145.260000
341.137909	144.500000
341.231293	144.620000
341.324707	144.180000
341.418091	145.160000
341.511505	145.060000
341.604889	145.400000
341.698303	145.460000
341.791687	145.820000
341.885071	145.020000
341.978485	144.800000
342.071899	145.300000
342.165283	145.460000
342.258698	145.480000
342.352081	145.940000
342.445496	146.720000
342.538879	146.200000
342.632324	145.720000
342.725708	145.760000
342.819122	145.200000
342.912506	144.780000
343.005920	144.640000
343.099335	145.580000
343.192719	145.520000
343.286133	145.860000
343.379547	146.020000
343.472931	146.300000
343.566345	145.360000
343.659760	145.460000
343.753143	145.360000
343.846558	144.840000
343.939972	144.880000
344.033386	145.800000
344.126770	145.700000
344.220184	145.860000
344.313599	146.560000
344.407043	146.700000
344.500427	145.940000
344.593872	146.500000
344.687225	145.960000
344.780670	145.420000
344.874054	144.940000
344.967499	145.400000
345.060913	145.040000
345.154327	145.340000
345.247742	145.160000
345.341156	145.260000
345.434570	144.880000
345.527985	144.740000
345.621399	144.900000
345.714813	144.980000
345.808228	145.240000
345.901642	145.020000
345.995056	144.540000
346.088470	144.780000
346.181885	144.900000
346.275299	144.880000
346.368713	144.780000
346.462128	145.160000
346.555573	145.160000
346.648987	145.220000
346.742401	145.020000
346.835815	145.580000
346.929260	145.300000
347.022644	144.780000
347.116119	145.020000
347.209503	145.120000
347.302948	145.780000
347.396362	146.220000
347.489807	146.420000
347.583221	146.620000
347.676636	146.580000
347.770050	145.500000
347.863495	145.300000
347.956909	145.400000
348.050323	144.760000
348.143768	144.800000
348.237183	144.860000
348.330597	145.160000
348.424042	145.180000
348.517456	145.700000
348.610901	145.940000
348.704315	146.060000
348.797760	145.420000
348.891174	144.860000
348.984619	144.420000
349.078033	144.540000
349.171448	144.820000
349.264923	144.860000
349.358337	145.140000
349.451782	145.500000
349.545197	144.940000
349.638641	144.560000
349.732086	144.320000
349.825500	145.040000
349.918945	144.680000
350.012390	145.400000
350.105804	145.800000
350.199249	146.360000
350.292664	146.480000
350.386108	146.560000
350.479553	146.660000
350.572968	146.240000
350.666412	146.260000
350.759857	145.720000
350.853302	146.340000
350.946716	145.860000
351.040161	146.260000
351.133606	146.180000
351.227081	146.120000
351.320465	146.440000
351.413940	146.320000
351.507355	146.260000
351.600830	146.420000
351.694244	146.080000
351.787720	145.640000
351.881104	145.740000
351.974579	145.580000
352.067993	146.160000
352.161469	146.420000
352.254883	145.820000
352.348358	145.700000
352.441803	145.720000
352.535248	145.160000
352.628693	145.420000
352.722137	145.700000
352.815582	146.300000
352.909027	146.240000
353.002472	145.840000
353.095917	145.660000
353.189362	145.760000
353.282806	145.400000
353.376251	145.280000
353.469696	145.060000
353.563141	145.740000
353.656586	145.380000
353.750061	144.860000
353.843475	145.040000
353.936981	145.820000
354.030396	144.860000
354.123871	145.120000
354.217285	146.120000
354.310760	146.220000
354.404175	146.020000
354.497681	145.860000
354.591095	145.940000
354.684570	144.960000
354.777985	144.720000
354.871490	144.480000
354.964935	145.400000
355.058380	145.240000
355.151855	145.100000
355.245300	145.600000
355.338745	146.080000
355.432220	145.720000
355.525665	145.460000
355.619110	146.040000
355.712585	145.600000
355.806030	145.300000
355.899475	144.740000
355.992950	145.380000
356.086426	145.700000
356.179871	145.840000
356.273346	145.940000
356.366791	146.320000
356.460266	146.380000
356.553711	145.680000
356.647186	145.720000
356.740631	145.440000
356.834106	145.620000
356.927551	145.460000
357.021027	145.720000
357.114471	145.620000
357.207947	145.920000
357.301422	146.080000
357.394867	146.140000
357.488342	146.200000
357.581818	146.520000
357.675262	146.520000
357.768738	146.000000
357.862213	145.080000
357.955658	145.240000
358.049133	144.860000
358.142609	145.140000
358.236053	145.320000
358.329529	145.900000
358.423035	146.100000
358.516449	146.120000
358.609955	146.400000
358.703400	146.860000
358.796906	147.140000
358.890350	146.680000
358.983826	146.920000
359.077271	145.980000
359.170776	145.460000
359.264221	145.220000
359.357727	145.400000
359.451172	145.640000
359.544647	146.040000
359.638123	146.120000
359.731598	146.380000
359.825073	146.320000
359.918549	145.720000
360.012024	145.740000
360.105499	145.540000
360.198975	145.400000
360.292450	145.220000
360.385925	145.480000
360.479401	145.040000
360.572876	145.400000
360.666351	145.640000
360.759857	145.740000
360.853302	145.540000
360.946808	145.540000
361.040253	145.260000
361.133759	144.640000
361.227203	144.760000
361.320709	144.760000
361.414154	145.100000
361.507660	145.420000
361.601105	146.140000
361.694641	146.740000
361.788086	146.440000
361.881592	146.900000
361.975067	146.700000
362.068542	146.760000
362.162018	146.380000
362.255524	146.560000
362.348999	145.840000
362.442474	145.980000
362.535950	145.500000
362.629456	145.220000
362.722931	145.260000
362.816406	145.880000
362.909882	146.140000
363.003387	145.920000
363.096863	146.540000
363.190338	146.520000
363.283875	146.100000
363.377319	146.180000
363.470825	146.880000
363.564301	146.140000
363.657806	146.360000
363.751282	146.100000
363.844788	146.720000
363.938232	145.900000
364.031769	146.660000
364.125214	146.820000
364.218750	147.780000
364.312225	146.460000
364.405731	146.980000
364.499207	146.240000
364.592712	145.880000
364.686188	145.300000
364.779694	145.860000
364.873169	145.660000
364.966675	145.640000
365.060150	145.680000
365.153656	145.860000
365.247131	145.540000
365.340637	145.740000
365.434143	146.480000
365.527618	146.660000
365.621155	145.880000
365.714600	145.700000
365.808136	145.740000
365.901611	144.420000
365.995117	144.000000
366.088593	144.540000
366.182129	144.780000
366.275604	144.500000
366.369110	145.060000
366.462585	145.360000
366.556122	145.620000
366.649567	145.820000
366.743103	146.220000
366.836609	145.780000
366.930115	145.760000
367.023590	145.880000
367.117096	145.680000
367.210602	145.460000
367.304108	146.320000
367.397614	147.040000
367.491119	146.900000
367.584595	146.960000
367.678101	147.400000
367.771606	146.980000
367.865112	146.220000
367.958649	145.760000
368.052124	145.520000
368.145660	144.880000
368.239136	145.500000
368.332672	145.640000
368.426147	145.780000
368.519684	145.780000
368.613159	146.220000
368.706696	145.720000
368.800171	145.700000
368.893707	145.500000
368.987183	145.680000
369.080719	145.480000
369.174225	145.360000
369.267731	145.420000
369.361237	145.480000
369.454742	145.280000
369.548248	145.720000
369.641754	145.520000
369.735260	145.220000
369.828766	144.880000
369.922272	145.520000
370.015808	145.020000
370.109314	145.020000
370.202820	145.020000
370.296356	146.280000
370.389832	145.820000
370.483368	145.620000
370.576874	145.720000
370.670410	145.980000
370.763885	144.940000
370.857422	145.000000
370.950928	145.020000
371.044464	145.760000
371.137939	145.420000
371.231476	145.680000
371.324982	146.000000
371.418518	146.140000
371.512024	145.960000
371.605560	146.200000
371.699066	146.440000
371.792572	145.780000
371.886108	146.000000
371.979614	145.480000
372.073120	145.920000
372.166656	145.860000
372.260162	146.340000
372.353668	146.020000
372.447205	145.940000
372.540710	145.640000
372.634277	145.620000
372.727753	145.400000
372.821320	145.540000
372.914795	145.720000
373.008362	145.560000
373.101837	145.540000
373.195404	145.640000
373.288879	145.320000
373.382446	145.960000
373.475922	145.900000
373.569489	146.560000
373.662964	146.780000
373.756531	147.060000
373.850037	146.860000
373.943573	146.980000
374.037109	145.920000
374.130615	145.940000
374.224152	146.180000
374.317657	145.860000
374.411194	146.540000
374.504730	146.800000
374.598236	146.380000
374.691772	145.820000
374.785309	145.920000
374.878815	144.720000
374.972351	145.100000
375.065887	145.000000
375.159454	145.840000
375.252930	145.860000
375.346497	146.240000
375.440002	146.240000
375.533569	146.240000
375.627045	145.520000
375.720612	145.200000
375.814117	145.580000
375.907684	145.140000
376.001160	144.920000
376.094727	144.400000
376.188232	145.320000
376.281799	145.240000
376.375336	145.320000
376.468872	146.440000
376.562408	147.040000
376.655914	146.260000
376.749451	146.160000
376.842987	146.700000
376.936523	145.820000
377.030060	145.820000
377.123596	146.140000
377.217133	145.780000
377.310669	145.200000
377.404205	145.740000
377.497772	146.300000
377.591278	145.960000
377.684845	146.860000
377.778351	147.260000
377.871918	146.760000
377.965424	145.800000
378.058990	145.860000
378.152496	145.400000
378.246063	145.460000
378.339569	145.880000
378.433136	146.360000
378.526642	146.340000
378.620209	146.040000
378.713745	145.440000
378.807312	146.020000
378.900848	145.800000
378.994385	146.200000
379.087921	145.900000
379.181458	146.320000
379.274994	145.340000
379.368530	145.540000
379.462097	145.500000
379.555634	146.440000
379.649170	145.800000
379.742706	145.940000
379.836273	145.900000
379.929810	145.600000
380.023376	145.120000
380.116882	145.420000
380.210449	145.380000
380.303986	145.120000
380.397552	144.940000
380.491058	145.260000
380.584656	145.260000
380.678162	145.560000
380.771729	145.800000
380.865265	146.500000
380.958832	146.280000
381.052368	146.520000
381.145935	146.560000
381.239471	146.900000
381.333008	146.560000
381.426575	146.380000
381.520111	146.200000
381.613647	146.540000
381.707214	146.040000
381.800751	145.620000
381.894318	145.840000
381.987854	145.520000
382.081421	144.780000
382.174988	145.260000
382.268524	145.180000
382.362091	145.120000
382.455627	146.080000
382.549194	146.160000
382.642731	145.380000
382.736298	145.300000
382.829834	144.840000
382.923401	145.240000
383.016937	145.480000
383.110504	145.960000
383.204041	146.400000
383.297607	147.240000
383.391174	146.100000
383.484741	146.680000
383.578278	146.500000
383.671844	145.980000
383.765411	145.060000
383.858948	145.440000
383.952515	145.120000
384.046051	145.660000
384.139618	146.320000
384.233185	146.860000
384.326721	146.880000
384.420288	147.220000
384.513855	146.820000
384.607422	146.900000
384.700989	146.960000
384.794525	146.540000
384.888123	146.200000
384.981659	146.240000
385.075226	145.680000
385.168762	145.340000
385.262360	145.500000
385.355896	144.940000
385.449463	144.840000
385.542999	145.000000
385.636597	145.360000
385.730164	145.880000
385.823730	145.620000
385.917267	145.380000
386.010834	145.380000
386.104401	145.700000
386.197968	145.880000
386.291534	146.240000
386.385101	146.460000
386.478668	147.020000
386.572235	146.600000
386.665802	145.760000
386.759338	146.000000
386.852905	145.880000
386.946472	145.340000
387.040070	145.500000
387.133606	145.540000
387.227203	145.260000
387.320740	145.660000
387.414337	145.540000
387.507874	145.340000
387.601471	145.460000
387.695007	145.080000
387.788605	144.940000
387.882141	145.320000
387.975739	145.820000
388.069275	145.900000
388.162872	146.380000
388.256439	146.020000
388.350037	145.640000
388.443604	144.940000
388.537170	144.800000
388.630737	145.280000
388.724304	145.740000
388.817871	145.900000
388.911438	146.260000
389.005005	146.880000
389.098602	146.860000
389.192169	146.620000
389.285736	146.960000
389.379333	146.660000
389.472870	145.500000
389.566467	145.260000
389.660034	145.240000
389.753632	144.680000
389.847168	145.040000
389.940765	145.900000
390.034332	145.980000
390.127930	145.540000
390.221466	145.540000
390.315063	145.220000
390.408630	144.560000
390.502228	144.020000
390.595795	144.520000
390.689362	144.840000
390.782959	145.260000
390.876526	145.820000
390.970093	145.860000
391.063690	146.140000
391.157257	146.060000
391.250824	146.160000
391.344421	145.980000
391.437988	146.240000
391.531555	146.120000
391.625153	146.060000
391.718750	146.120000
391.812317	145.980000
391.905914	145.540000
391.999481	145.880000
392.093079	146.020000
392.186615	146.440000
392.280243	146.520000
392.373779	146.840000
392.467407	146.840000
392.560944	146.760000
392.654572	145.780000
392.748108	145.880000
392.841736	146.060000
392.935303	145.620000
393.028900	145.140000
393.122467	145.460000
393.216064	145.100000
393.309631	144.440000
393.403229	144.400000
393.496796	144.680000
393.590393	143.900000
393.683990	144.560000
393.777557	145.400000
393.871155	145.380000
393.964722	146.000000
394.058350	146.640000
394.151917	146.340000
394.245514	145.900000
394.339081	146.160000
394.432678	145.940000
394.526245	146.000000
394.619873	145.620000
394.713409	145.980000
394.807037	145.700000
394.900604	145.780000
394.994202	145.760000
395.087769	145.920000
395.181396	145.600000
395.274994	146.280000
395.368561	145.740000
395.462158	145.820000
395.555756	145.720000
395.649353	146.040000
395.742920	145.260000
395.836517	146.040000
395.930115	145.220000
396.023712	145.660000
396.117279	145.540000
396.210876	145.280000
396.304474	144.780000
396.398071	145.500000
396.491669	145.460000
396.585266	145.160000
396.678833	145.460000
396.772461	145.780000
396.866028	145.740000
396.959656	145.860000
397.053223	146.360000
397.146851	146.140000
397.240417	146.260000
397.334015	147.000000
397.427582	146.840000
397.521210	147.140000
397.614807	148.100000
397.708405	148.660000
397.802002	149.140000
397.895599	151.040000
397.989197	152.340000
398.082794	154.040000
398.176392	156.280000
398.269989	158.640000
398.363586	161.140000
398.457184	165.300000
398.550781	169.920000
398.644379	173.780000
398.737976	178.400000
398.831573	183.620000
398.925201	188.120000
399.018768	193.140000
399.112396	198.980000
399.205963	205.180000
399.299591	211.960000
399.393158	219.200000
399.486786	227.720000
399.580353	236.960000
399.673981	247.020000
399.767578	257.580000
399.861206	268.900000
399.954773	279.920000
400.048401	290.400000
400.141998	298.860000
400.235596	306.740000
400.329193	311.100000
400.422791	314.060000
400.516418	315.280000
400.610016	316.340000
400.703613	315.160000
400.797211	312.960000
400.890808	308.300000
400.984436	303.140000
401.078033	294.120000
401.171631	283.680000
401.265259	272.840000
401.358826	260.960000
401.452484	247.040000
401.546051	234.820000
401.639679	221.540000
401.733246	209.440000
401.826904	198.160000
401.920471	188.160000
402.014099	179.560000
402.107697	172.960000
402.201324	167.280000
402.294891	162.980000
402.388550	159.620000
402.482147	156.920000
402.575745	154.340000
402.669373	152.040000
402.762970	150.480000
402.856567	149.660000
402.950195	148.740000
403.043793	147.700000
403.137390	148.000000
403.231018	146.900000
403.324615	147.020000
403.418243	146.200000
403.511841	147.180000
403.605469	146.660000
403.699066	147.380000
403.792694	146.760000
403.886292	147.140000
403.979919	146.640000
404.073517	146.180000
404.167145	146.300000
404.260712	146.440000
404.354370	146.340000
404.447937	146.260000
404.541595	146.600000
404.635162	146.440000
404.728821	147.000000
404.822418	146.460000
404.916046	146.600000
405.009644	146.940000
405.103271	147.080000
405.196899	146.540000
405.290497	147.020000
405.384125	146.960000
405.477722	146.280000
405.571350	145.560000
405.664948	145.560000
405.758575	145.220000
405.852203	144.820000
405.945801	145.220000
406.039429	145.700000
406.133057	145.260000
406.226654	145.320000
406.320312	145.460000
406.413879	145.280000
406.507538	145.400000
406.601135	145.360000
406.694763	146.140000
406.788361	145.840000
406.882019	145.760000
406.975586	146.060000
407.069244	146.860000
407.162872	146.480000
407.256470	146.440000
407.350098	146.700000
407.443726	146.000000
407.537323	145.120000
407.630951	145.220000
407.724579	145.160000
407.818207	145.380000
407.911804	145.460000
408.005432	145.720000
408.099060	145.960000
408.192688	146.500000
408.286285	146.060000
408.379913	145.820000
408.473572	145.900000
408.567169	145.180000
408.660828	145.040000
408.754395	145.040000
408.848053	144.740000
408.941650	144.600000
409.035309	144.500000
409.128906	144.080000
409.222565	144.240000
409.316132	145.060000
409.409790	144.760000
409.503387	144.960000
409.597046	145.380000
409.690674	145.160000
409.784302	145.060000
409.877930	145.080000
409.971558	145.280000
410.065186	145.180000
410.158783	145.280000
410.252411	144.920000
410.346039	145.660000
410.439667	145.780000
410.533295	146.100000
410.626923	146.340000
410.720551	146.380000
410.814209	146.240000
410.907806	146.240000
411.001465	145.700000
411.095062	145.580000
411.188721	145.620000
411.282318	145.660000
411.375977	145.440000
411.469574	145.520000
411.563232	145.280000
411.656830	145.060000
411.750488	144.660000
411.844086	144.320000
411.937744	144.740000
412.031372	144.580000
412.125000	144.660000
412.218628	144.960000
412.312256	145.780000
412.405884	146.040000
412.499512	146.080000
412.593170	146.200000
412.686798	146.260000
412.780426	145.520000
412.874054	145.320000
412.967682	145.460000
413.061310	146.360000
413.154968	146.340000
413.248566	146.460000
413.342224	146.240000
413.435852	146.440000
413.529510	145.680000
413.623108	144.880000
413.716766	145.000000
413.810364	145.420000
413.904022	144.900000
413.997650	144.780000
414.091309	145.860000
414.184906	145.680000
414.278564	145.260000
414.372192	145.720000
414.465851	146.060000
414.559479	145.500000
414.653107	146.480000
414.746735	146.240000
414.840393	146.240000
414.934021	146.400000
415.027649	146.280000
415.121277	146.020000
415.214935	146.560000
415.308563	146.820000
415.402191	145.720000
415.495850	145.880000
415.589478	145.160000
415.683136	144.720000
415.776733	144.660000
415.870422	145.740000
415.964020	145.320000
416.057678	145.540000
416.151306	145.720000
416.244965	145.380000
416.338562	145.420000
416.432251	146.360000
416.525848	147.180000
416.619507	147.260000
416.713165	147.820000
416.806793	147.480000
416.900421	146.940000
416.994080	146.060000
417.087708	146.040000
417.181366	145.540000
417.274994	145.560000
417.368622	146.060000
417.462280	146.580000
417.555908	146.600000
417.649567	146.280000
417.743195	146.180000
417.836853	145.880000
417.930481	145.940000
418.024170	146.240000
418.117767	147.020000
418.211426	147.300000
418.305054	147.480000
418.398712	146.540000
418.492340	146.220000
418.585999	146.220000
418.679626	146.140000
418.773285	145.700000
418.866913	146.320000
418.960571	146.480000
419.054230	146.440000
419.147858	146.500000
419.241516	147.000000
419.335144	146.640000
419.428802	146.440000
419.522461	146.220000
419.616089	145.840000
419.709747	145.840000
419.803375	146.180000
419.897034	146.020000
419.990662	145.720000
420.084320	146.200000
420.177979	146.200000
420.271606	146.140000
420.365295	146.520000
420.458893	146.640000
420.552582	146.640000
420.646210	146.820000
420.739868	146.440000
420.833496	146.260000
420.927155	146.160000
421.020782	145.820000
421.114471	145.120000
421.208069	145.520000
421.301758	145.880000
421.395386	146.140000
421.489044	146.100000
421.582703	146.260000
421.676361	146.580000
421.769989	145.860000
421.863647	146.160000
421.957306	146.200000
422.050934	146.300000
422.144592	145.940000
422.238251	146.060000
422.331909	145.300000
422.425537	145.340000
422.519196	145.240000
422.612854	145.080000
422.706543	144.920000
422.800140	145.460000
422.893829	144.940000
422.987457	144.880000
423.081146	144.840000
423.174744	145.480000
423.268433	145.120000
423.362061	145.280000
423.455750	145.080000
423.549347	145.380000
423.643036	144.580000
423.736664	145.140000
423.830353	145.340000
423.924011	145.840000
424.017639	145.640000
424.111298	145.960000
424.204956	145.400000
424.298615	145.420000
424.392273	145.340000
424.485931	145.400000
424.579559	145.640000
424.673218	145.860000
424.766876	145.720000
424.860535	145.500000
424.954193	145.300000
425.047882	145.460000
425.141510	145.520000
425.235199	145.720000
425.328796	145.480000
425.422485	145.240000
425.516113	144.540000
425.609802	144.420000
425.703430	144.360000
425.797119	144.220000
425.890747	144.560000
425.984436	144.980000
426.078064	144.840000
426.171753	145.080000
426.265411	145.060000
426.359070	145.360000
426.452728	145.260000
426.546356	145.200000
426.640015	144.980000
426.733673	145.100000
426.827332	144.520000
426.920990	145.120000
427.014648	144.940000
427.108307	145.200000
427.201965	145.660000
427.295624	146.120000
427.389282	145.560000
427.482941	145.940000
427.576630	145.740000
427.670258	145.220000
427.763947	144.960000
427.857574	144.860000
427.951263	144.740000
428.044922	144.500000
428.138611	144.640000
428.232239	145.260000
428.325928	145.900000
428.419556	146.660000
428.513245	146.680000
428.606903	146.980000
428.700562	146.040000
428.794220	145.200000
428.887878	144.380000
428.981537	144.520000
429.075195	144.600000
429.168854	145.220000
429.262512	145.320000
429.356201	145.580000
429.449860	145.280000
429.543518	145.180000
429.637177	145.340000
429.730835	145.380000
429.824493	145.160000
429.918182	145.660000
430.011810	145.060000
430.105530	144.280000
430.199158	144.360000
430.292847	144.200000
430.386475	143.840000
430.480164	144.020000
430.573792	144.160000
430.667511	144.280000
430.761139	144.440000
430.854828	144.880000
430.948456	145.120000
431.042145	145.760000
431.135834	145.500000
431.229492	145.620000
431.323151	146.000000
431.416809	145.820000
431.510468	145.500000
431.604156	145.560000
431.697815	145.860000
431.791473	145.340000
431.885132	144.940000
431.978821	145.420000
432.072479	145.640000
432.166138	145.780000
432.259827	145.660000
432.353485	146.460000
432.447174	146.420000
432.540802	146.160000
432.634491	145.980000
432.728149	146.240000
432.821838	146.420000
432.915466	145.780000
433.009186	146.200000
433.102814	145.740000
433.196503	145.600000
433.290131	145.580000
433.383850	145.800000
433.477509	145.700000
433.571167	146.520000
433.664856	146.760000
433.758514	146.860000
433.852173	146.740000
433.945862	146.580000
434.039520	146.260000
434.133179	145.820000
434.226868	145.200000
434.320526	144.780000
434.414185	145.160000
434.507874	144.760000
434.601562	145.000000
434.695221	145.440000
434.788910	145.880000
434.882538	145.920000
434.976257	145.800000
435.069885	145.980000
435.163574	145.880000
435.257233	145.520000
435.350922	145.120000
435.444580	144.780000
435.538269	144.180000
435.631897	144.340000
435.725616	145.020000
435.819275	145.260000
435.912964	146.340000
436.006622	146.920000
436.100311	146.440000
436.193970	145.700000
436.287628	145.600000
436.381317	145.180000
436.474976	144.640000
436.568665	144.620000
436.662323	145.040000
436.756012	145.060000
436.849670	144.960000
436.943390	145.200000
437.037018	145.320000
437.130737	145.120000
437.224365	144.940000
437.318085	144.940000
437.411713	144.820000
437.505432	145.360000
437.599060	145.880000
437.692780	146.640000
437.786407	146.780000
437.880127	147.060000
437.973755	146.660000
438.067474	146.160000
438.161133	145.960000
438.254822	146.060000
438.348480	145.780000
438.442169	146.320000
438.535828	146.720000
438.629517	146.160000
438.723175	145.540000
438.816864	145.980000
438.910553	145.380000
439.004211	145.240000
439.097900	145.240000
439.191559	145.540000
439.285248	144.780000
439.378906	145.060000
439.472626	145.000000
439.566284	144.800000
439.659973	144.940000
439.753632	144.980000
439.847321	145.060000
439.940979	145.060000
440.034698	145.340000
440.128326	144.900000
440.222046	145.320000
440.315674	144.660000
440.409393	144.920000
440.503082	144.920000
440.596741	145.560000
440.690430	145.500000
440.784088	145.520000
440.877777	144.940000
440.971466	144.780000
441.065125	144.540000
441.158813	144.320000
441.252502	144.580000
441.346161	144.840000
441.439850	145.200000
441.533539	144.940000
441.627197	145.380000
441.720886	145.280000
441.814606	145.820000
441.908234	146.200000
442.001953	146.040000
442.095612	145.780000
442.189301	145.840000
442.282959	145.880000
442.376678	145.000000
442.470306	146.020000
442.564026	146.000000
442.657684	146.360000
442.751404	145.940000
442.845032	146.920000
442.938751	145.780000
443.032440	145.800000
443.126099	145.260000
443.219788	145.680000
443.313477	145.200000
443.407166	145.920000
443.500824	145.880000
443.594513	146.160000
443.688202	145.940000
443.781891	145.480000
443.875549	144.900000
443.969238	145.060000
444.062927	145.360000
444.156647	145.420000
444.250275	146.020000
444.343994	146.100000
444.437653	146.260000
444.531372	145.780000
444.625031	145.480000
444.718719	144.980000
444.812378	145.100000
444.906097	145.140000
444.999756	144.920000
445.093445	145.020000
445.187103	145.400000
445.280823	145.760000
445.374512	145.040000
445.468201	145.340000
445.561859	145.220000
445.655548	145.080000
445.749237	144.440000
445.842926	144.820000
445.936615	145.280000
446.030304	145.320000
446.123962	145.500000
446.217651	146.020000
446.311340	146.080000
446.405029	145.540000
446.498749	145.220000
446.592407	144.920000
446.686096	145.000000
446.779755	145.220000
446.873474	145.760000
446.967133	146.240000
447.060852	145.960000
447.154510	145.640000
447.248230	145.400000
447.341858	145.140000
447.435577	144.680000
447.529236	144.760000
447.622955	144.820000
447.716644	144.820000
447.810333	144.680000
447.904022	145.320000
447.997711	145.460000
448.091400	145.780000
448.185059	145.820000
448.278748	146.220000
448.372437	145.660000
448.466125	145.960000
448.559814	145.820000
448.653503	146.340000
448.747192	146.180000
448.840912	146.880000
448.934570	146.720000
449.028290	147.160000
449.121948	146.160000
449.215637	145.940000
449.309296	145.260000
449.403015	145.400000
449.496674	145.160000
449.590393	145.600000
449.684052	145.260000
449.777771	146.000000
449.871429	145.560000
449.965149	145.520000
450.058838	145.660000
450.152527	146.200000
450.246216	145.840000
450.339905	145.900000
450.433594	145.620000
450.527283	146.480000
450.620972	146.200000
450.714661	146.120000
450.808350	146.500000
450.902039	146.640000
450.995728	145.860000
451.089417	145.640000
451.183105	145.700000
451.276794	146.140000
451.370514	145.680000
451.464172	144.940000
451.557892	145.220000
451.651550	145.280000
451.745270	144.420000
451.838928	144.120000
451.932648	144.900000
452.026306	145.200000
452.120026	144.860000
452.213684	145.200000
452.307404	145.720000
452.401062	145.680000
452.494781	145.760000
452.588470	146.120000
452.682159	145.820000
452.775848	145.900000
452.869537	145.260000
452.963226	144.880000
453.056915	144.480000
453.150604	144.520000
453.244293	144.580000
453.337982	145.100000
453.431671	145.500000
453.525360	146.220000
453.619049	146.180000
453.712769	146.300000
453.806427	146.120000
453.900146	145.460000
453.993805	145.060000
454.087555	145.900000
454.181213	145.920000
454.274933	145.840000
454.368591	146.040000
454.462311	145.980000
454.555969	145.000000
454.649689	145.460000
454.743347	145.460000
454.837067	145.840000
454.930756	146.340000
455.024445	146.660000
455.118134	146.240000
455.211853	146.340000
455.305542	145.980000
455.399231	145.520000
455.492920	145.360000
455.586609	145.560000
455.680298	145.920000
455.773987	145.600000
455.867676	145.780000
455.961365	146.200000
456.055084	145.740000
456.148773	145.460000
456.242493	145.800000
456.336151	145.700000
456.429871	145.800000
456.523529	146.000000
456.617249	145.760000
456.710907	146.060000
456.804626	145.960000
456.898315	145.240000
456.992035	145.240000
457.085693	145.200000
457.179413	144.840000
457.273102	145.440000
457.366791	145.800000
457.460480	146.080000
457.554199	146.840000
457.647888	146.720000
457.741577	146.340000
457.835266	146.200000
457.928955	146.140000
458.022644	146.140000
458.116364	146.600000
458.210052	146.220000
458.303741	146.480000
458.397461	145.720000
458.491119	145.180000
458.584839	145.140000
458.678528	145.180000
458.772247	145.100000
458.865906	145.480000
458.959625	146.220000
459.053284	146.040000
459.147003	145.880000
459.240692	146.420000
459.334412	146.560000
459.428070	145.980000
459.521790	146.140000
459.615479	146.200000
459.709198	146.440000
459.802887	146.180000
459.896576	146.000000
459.990265	146.200000
460.083954	146.560000
460.177673	145.620000
460.271362	145.700000
460.365051	145.700000
460.458740	145.160000
460.552429	144.680000
460.646149	144.600000
460.739838	144.500000
460.833527	144.780000
460.927246	144.640000
461.020905	144.760000
461.114655	145.180000
461.208313	145.560000
461.302032	145.440000
461.395691	145.960000
461.489441	146.060000
461.583099	146.040000
461.676819	145.720000
461.770477	145.960000
461.864197	145.440000
461.957916	145.420000
462.051605	144.880000
462.145294	145.740000
462.238983	145.420000
462.332703	146.160000
462.426392	146.760000
462.520081	147.120000
462.613770	146.340000
462.707489	146.540000
462.801178	146.180000
462.894867	145.460000
462.988556	145.560000
463.082275	145.760000
463.175964	145.020000
463.269684	145.200000
463.363342	145.340000
463.457092	144.540000
463.550751	144.700000
463.644470	145.080000
463.738129	144.620000
463.831879	144.940000
463.925537	146.000000
464.019257	145.960000
464.112946	146.040000
464.206665	146.060000
464.300323	145.860000
464.394043	145.460000
464.487762	145.360000
464.581451	145.740000
464.675140	145.800000
464.768829	145.640000
464.862549	145.820000
464.956238	146.120000
465.049927	145.960000
465.143646	146.060000
465.237335	146.060000
465.331024	146.320000
465.424713	146.120000
465.518433	146.340000
465.612152	146.280000
465.705811	146.240000
465.799561	145.780000
465.893219	145.160000
465.986938	144.900000
466.080597	144.480000
466.174347	144.920000
466.268005	145.100000
466.361725	145.580000
466.455414	145.520000
466.549133	145.860000
466.642792	145.940000
466.736542	145.420000
466.830231	145.520000
466.923920	145.500000
467.017609	145.640000
467.111328	144.880000
467.205017	145.360000
467.298706	145.180000
467.392426	145.220000
467.486115	145.220000
467.579803	145.340000
467.673523	145.360000
467.767212	145.580000
467.860901	145.480000
467.954651	145.620000
468.048309	146.020000
468.142029	146.080000
468.235718	145.900000
468.329437	145.580000
468.423096	145.800000
468.516846	145.600000
468.610504	145.200000
468.704224	145.100000
468.797913	145.440000
468.891632	145.220000
468.985291	145.140000
469.079010	145.440000
469.172729	145.060000
469.266418	145.560000
469.360107	145.680000
469.453827	145.540000
469.547516	145.500000
469.641205	146.200000
469.734924	146.220000
469.828613	146.460000
469.922302	146.680000
470.016022	146.740000
470.109711	146.460000
470.203430	145.840000
470.297150	145.020000
470.390808	145.400000
470.484558	145.180000
470.578217	145.480000
470.671936	146.340000
470.765625	147.200000
470.859344	146.560000
470.953003	146.860000
471.046753	146.420000
471.140411	145.260000
471.234131	145.500000
471.327820	145.840000
471.421539	145.720000
471.515228	145.720000
471.608948	146.120000
471.702637	145.440000
471.796326	145.280000
471.890045	145.420000
471.983734	145.520000
472.077423	145.080000
472.171143	145.020000
472.264832	145.080000
472.358521	144.700000
472.452240	144.240000
472.545929	145.060000
472.639648	145.080000
472.733337	145.460000
472.827057	145.800000
472.920746	146.380000
473.014465	146.700000
473.108124	146.680000
473.201874	146.540000
473.295532	146.300000
473.389252	146.600000
473.482941	146.240000
473.576660	146.180000
473.670319	146.180000
473.764069	146.640000
473.857727	146.620000
473.951477	146.940000
474.045166	147.480000
474.138855	147.260000
474.232574	147.000000
474.326263	146.860000
474.419952	146.560000
474.513672	146.120000
474.607361	146.160000
474.701050	146.260000
474.794769	146.400000
474.888458	146.880000
474.982178	147.140000
475.075867	147.260000
475.169586	147.240000
475.263275	146.700000
475.356995	146.480000
475.450653	146.120000
475.544403	145.560000
475.638062	146.260000
475.731812	146.280000
475.825470	145.980000
475.919189	146.440000
476.012878	147.100000
476.106598	146.080000
476.200256	146.660000
476.294006	146.580000
476.387695	146.120000
476.481384	145.780000
476.575104	146.120000
476.668793	145.540000
476.762512	145.200000
476.856201	145.840000
476.949890	145.720000
477.043610	145.080000
477.137299	145.040000
477.230988	145.380000
477.324707	144.780000
477.418396	145.320000
477.512146	145.720000
477.605804	146.040000
477.699524	146.220000
477.793213	146.240000
477.886932	145.940000
477.980591	145.760000
478.074341	145.480000
478.167999	144.880000
478.261749	144.860000
478.355408	144.560000
478.449127	144.900000
478.542816	145.880000
478.636536	146.600000
478.730225	146.920000
478.823944	147.260000
478.917633	147.160000
479.011322	146.740000
479.105042	146.440000
479.198730	146.460000
479.292450	146.100000
479.386139	146.380000
479.479828	146.300000
479.573547	146.420000
479.667267	146.100000
479.760925	146.520000
479.854675	146.580000
479.948334	146.640000
480.042084	146.100000
480.135742	146.720000
480.229462	146.240000
480.323151	146.160000
480.416870	145.380000
480.510529	145.780000
480.604279	145.040000
480.697937	145.540000
480.791656	144.940000
480.885345	145.160000
480.979065	145.020000
481.072754	145.420000
481.166473	145.640000
481.260132	145.860000
481.353882	146.060000
481.447540	146.000000
481.541260	145.900000
481.635010	145.480000
481.728668	145.500000
481.822388	145.360000
481.916077	145.520000
482.009796	145.360000
482.103485	145.580000
482.197205	145.740000
482.290863	145.760000
482.384613	145.460000
482.478271	145.100000
482.571991	145.160000
482.665680	145.020000
482.759399	145.720000
482.853058	146.180000
482.946808	146.100000
483.040466	145.700000
483.134216	145.540000
483.227875	144.740000
483.321594	145.140000
483.415283	145.560000
483.509003	145.380000
483.602661	145.440000
483.696411	146.040000
483.790070	145.360000
483.883789	145.340000
483.977478	145.700000
484.071198	145.740000
484.164917	145.220000
484.258606	145.160000
484.352325	145.580000
484.445984	145.640000
484.539734	145.660000
484.633392	145.380000
484.727142	145.740000
484.820801	145.220000
484.914520	145.000000
485.008209	145.060000
485.101929	145.740000
485.195587	145.140000
485.289337	145.260000
485.382996	145.620000
485.476715	145.560000
485.570404	145.720000
485.664124	145.960000
485.757782	146.440000
485.851532	146.100000
485.945190	145.960000
486.038910	145.700000
486.132599	146.020000
486.226318	145.280000
486.319977	145.520000
486.413727	146.120000
486.507446	145.540000
486.601105	145.160000
486.694855	145.220000
486.788513	144.880000
486.882233	144.700000
486.975922	145.160000
487.069641	145.120000
487.163300	144.920000
487.257050	145.980000
487.350708	145.640000
487.444427	145.240000
487.538116	145.220000
487.631836	145.500000
487.725494	144.780000
487.819214	144.900000
487.912903	145.140000
488.006622	145.580000
488.100281	145.540000
488.194031	145.340000
488.287689	145.560000
488.381409	146.200000
488.475098	145.780000
488.568817	146.180000
488.662476	146.140000
488.756226	145.440000
488.849945	144.400000
488.943604	144.800000
489.037354	144.800000
489.131012	144.940000
489.224731	144.980000
489.318390	145.080000
489.412140	145.100000
489.505798	144.800000
489.599518	144.260000
489.693207	144.740000
489.786926	144.840000
489.880585	144.580000
489.974335	144.800000
490.067993	145.920000
490.161713	146.200000
490.255371	146.760000
490.349121	146.840000
490.442780	146.540000
490.536499	145.960000
490.630188	145.480000
490.723907	144.740000
490.817566	144.640000
490.911285	144.720000
491.004974	144.380000
491.098694	144.320000
491.192413	145.280000
491.286102	145.040000
491.379822	145.020000
491.473480	145.540000
491.567200	145.460000
491.660889	144.720000
491.754608	144.900000
491.848267	144.920000
491.941986	144.740000
492.035675	144.980000
492.129395	145.460000
492.223053	145.220000
492.316772	145.400000
492.410461	145.100000
492.504181	145.020000
492.597839	144.760000
492.691559	145.020000
492.785248	145.300000
492.878967	145.500000
492.972626	145.320000
493.066345	145.480000
493.160034	145.360000
493.253754	144.980000
493.347412	144.720000
493.441132	145.260000
493.534882	145.480000
493.628540	146.060000
493.722260	146.240000
493.815918	146.460000
493.909668	146.740000
494.003326	147.000000
494.097046	146.560000
494.190704	146.240000
494.284454	146.480000
494.378113	146.020000
494.471832	145.500000
494.565491	145.100000
494.659210	145.140000
494.752899	145.040000
494.846619	144.860000
494.940277	145.160000
495.033997	145.300000
495.127686	145.100000
495.221405	144.740000
495.315063	144.820000
495.408783	144.580000
495.502441	145.040000
495.596191	145.300000
495.689850	145.040000
495.783569	145.440000
495.877228	145.560000
495.970947	145.120000
496.064697	145.160000
496.158356	146.320000
496.252075	146.020000
496.345734	145.860000
496.439453	146.920000
496.533142	147.220000
496.626862	146.940000
496.720520	147.000000
496.814240	146.800000
496.907898	146.060000
497.001617	145.800000
497.095306	144.960000
497.189026	144.980000
497.282684	145.200000
497.376404	145.640000
497.470062	145.640000
497.563782	146.360000
497.657471	146.140000
497.751190	145.840000
497.844849	145.160000
497.938568	145.260000
498.032227	145.160000
498.125946	145.180000
498.219635	145.220000
498.313354	145.480000
498.407074	145.280000
498.500732	145.440000
498.594452	145.920000
498.688110	145.720000
498.781830	145.400000
498.875519	145.240000
498.969238	144.900000
499.062897	144.240000
499.156616	144.920000
499.250275	145.240000
499.343994	144.900000
499.437653	144.880000
499.531372	145.100000
499.625061	145.440000
499.718781	145.240000
499.812439	145.600000
499.906158	145.540000
499.999817	145.360000
500.093536	144.400000
500.187195	144.680000
500.280914	144.920000
500.374573	145.060000
500.468323	145.080000
500.561981	145.860000
500.655701	145.580000
500.749420	145.680000
500.843079	145.860000
500.936798	146.100000
501.030457	146.140000
501.124176	146.400000
501.217834	146.040000
501.311554	145.800000
501.405212	145.460000
501.498962	144.680000
501.592621	144.380000
501.686340	144.720000
501.779999	144.860000
501.873718	145.260000
501.967377	145.720000
502.061096	146.180000
502.154755	145.780000
502.248474	146.060000
502.342133	146.100000
502.435852	145.700000
502.529510	145.980000
502.623230	146.500000
502.716888	145.460000
502.810608	145.420000
502.904266	145.920000
502.997986	145.520000
503.091705	145.260000
503.185364	145.600000
503.279083	145.660000
503.372772	145.560000
503.466492	145.080000
503.560150	145.020000
503.653870	145.420000
503.747528	145.180000
503.841248	145.100000
503.934906	145.300000
504.028625	145.000000
504.122284	145.140000
504.216003	145.820000
504.309662	145.540000
504.403381	145.940000
504.497040	146.140000
504.590759	145.640000
504.684418	145.500000
504.778137	145.900000
504.871796	145.860000
504.965515	145.980000
505.059174	146.460000
505.152893	146.080000
505.246521	145.580000
505.340240	145.460000
505.433899	145.480000
505.527618	145.500000
505.621338	145.620000
505.714996	145.760000
505.808716	145.740000
505.902374	145.980000
505.996094	146.220000
506.089752	145.940000
506.183472	146.180000
506.277130	146.260000
506.370850	146.380000
506.464508	145.800000
506.558228	146.260000
506.651886	145.960000
506.745605	146.060000
506.839264	145.840000
506.932983	146.260000
507.026611	145.860000
507.120331	146.340000
507.213989	145.860000
507.307709	145.760000
507.401367	145.660000
507.495087	146.620000
507.588745	146.180000
507.682465	146.900000
507.776123	146.880000
507.869843	146.720000
507.963531	146.100000
508.057190	146.780000
508.150909	146.000000
508.244568	146.220000
508.338287	146.020000
508.431946	145.660000
508.525665	144.880000
508.619324	145.120000
508.713013	145.140000
508.806671	146.080000
508.900391	147.060000
508.994049	147.200000
509.087769	147.100000
509.181427	146.820000
509.275146	146.040000
509.368774	145.420000
509.462494	145.540000
509.556152	145.640000
509.649872	146.160000
509.743530	146.460000
509.837250	146.360000
509.930878	146.380000
510.024597	146.340000
510.118256	146.060000
510.211975	145.860000
510.305695	145.680000
510.399353	145.940000
510.493042	146.240000
510.586700	146.520000
510.680420	147.020000
510.774078	147.040000
510.867798	147.120000
510.961426	146.740000
511.055145	146.700000
511.148804	146.100000
511.242523	146.360000
511.336151	146.120000
511.429871	146.760000
511.523529	146.360000
511.617249	146.040000
511.710876	145.880000
511.804596	145.500000
511.898254	145.140000
511.991974	145.360000
512.085632	145.340000
512.179321	145.160000
512.272949	145.920000
512.366699	146.100000
512.460327	145.780000
512.554077	146.980000
512.647766	147.120000
512.741394	146.580000
512.835144	146.780000
512.928772	146.780000
513.022461	146.340000
513.116150	146.080000
513.209839	146.860000
513.303467	146.180000
513.397217	146.000000
513.490845	145.800000
513.584595	145.900000
513.678223	144.840000
513.771912	144.560000
513.865601	144.920000
513.959290	144.500000
514.052917	144.460000
514.146667	145.280000
514.240295	146.100000
514.333984	146.540000
514.427673	146.600000
514.521362	147.160000
514.614990	146.440000
514.708740	146.080000
514.802368	145.760000
514.896057	145.940000
514.989746	146.240000
515.083435	146.580000
515.177124	147.020000
515.270752	146.640000
515.364502	146.500000
515.458130	146.420000
515.551819	146.060000
515.645508	145.580000
515.739197	145.740000
515.832825	145.920000
515.926575	145.340000
516.020203	145.800000
516.113892	146.260000
516.207520	146.240000
516.301270	146.180000
516.394897	146.140000
516.488586	146.420000
516.582275	146.060000
516.675964	145.520000
516.769592	145.520000
516.863281	146.280000
516.956970	146.300000
517.050659	146.280000
517.144287	146.740000
517.238037	146.800000
517.331665	146.160000
517.425354	145.680000
517.519043	145.500000
517.612732	145.700000
517.706421	145.720000
517.800049	145.740000
517.893738	145.620000
517.987427	145.980000
518.081116	145.580000
518.174744	145.240000
518.268433	145.340000
518.362122	146.120000
518.455811	145.920000
518.549438	146.680000
518.643127	147.400000
518.736816	147.120000
518.830505	146.080000
518.924133	146.100000
519.017822	146.160000
519.111511	145.940000
519.205200	146.600000
519.298828	147.100000
519.392517	146.800000
519.486206	146.880000
519.579895	146.800000
519.673523	146.220000
519.767212	146.040000
519.860901	146.540000
519.954590	145.820000
520.048279	145.620000
520.141907	145.580000
520.235596	146.340000
520.329224	146.400000
520.422974	146.440000
520.516602	146.500000
520.610291	146.380000
520.703918	145.860000
520.797607	145.320000
520.891296	145.140000
520.984985	145.240000
521.078613	145.580000
521.172302	145.200000
521.265930	146.220000
521.359680	146.960000
521.453308	146.800000
521.546997	147.080000
521.640625	147.620000
521.734314	146.780000
521.827942	146.560000
521.921692	146.920000
522.015320	146.400000
522.109009	146.000000
522.202698	145.880000
522.296326	145.700000
522.390015	145.820000
522.483704	146.240000
522.577393	146.240000
522.671021	146.460000
522.764709	146.180000
522.858337	146.740000
522.952026	146.400000
523.045654	146.860000
523.139404	147.380000
523.233032	147.880000
523.326721	146.720000
523.420349	146.700000
523.514038	146.020000
523.607666	145.920000
523.701355	145.340000
523.795044	145.560000
523.888733	145.980000
523.982361	146.500000
524.076050	145.840000
524.169678	146.160000
524.263367	145.980000
524.356995	145.240000
524.450684	144.800000
524.544373	144.900000
524.638062	144.920000
524.731750	145.040000
524.825378	145.360000
524.919067	145.080000
525.012695	145.160000
525.106384	145.080000
525.200012	145.460000
525.293701	145.240000
525.387329	145.860000
525.481018	145.960000
525.574646	146.000000
525.668396	145.500000
525.762024	145.880000
525.855713	145.880000
525.949341	145.460000
526.043030	145.520000
526.136658	145.440000
526.230347	145.020000
526.323975	144.560000
526.417664	144.580000
526.511292	144.660000
526.604980	144.980000
526.698608	144.960000
526.792297	145.260000
526.885925	145.600000
526.979614	145.460000
527.073303	145.400000
527.166931	145.720000
527.260620	145.520000
527.354309	145.760000
527.447998	145.980000
527.541626	145.440000
527.635315	145.280000
527.728943	145.900000
527.822632	145.840000
527.916260	145.640000
528.009949	146.420000
528.103577	146.500000
528.197266	146.040000
528.290894	146.140000
528.384583	146.280000
528.478210	146.080000
528.571899	146.180000
528.665527	146.440000
528.759216	146.600000
528.852844	146.800000
528.946533	147.140000
529.040161	146.920000
529.133850	146.720000
529.227478	146.440000
529.321167	146.480000
529.414856	146.520000
529.508484	147.120000
529.602173	146.780000
529.695801	146.860000
529.789490	146.580000
529.883057	146.180000
529.976746	146.100000
530.070374	146.700000
530.164062	146.780000
530.257690	147.160000
530.351379	147.320000
530.445007	147.200000
530.538696	146.640000
530.632324	146.600000
530.726013	146.220000
530.819641	146.320000
530.913330	146.300000
531.006958	146.340000
531.100647	146.360000
531.194275	146.280000
531.287964	145.640000
531.381592	145.240000
531.475220	145.640000
531.568848	145.540000
531.662537	145.360000
531.756226	146.220000
531.849854	146.220000
531.943542	146.000000
532.037170	145.060000
532.130859	145.380000
532.224487	144.720000
532.318176	144.520000
532.411804	145.320000
532.505432	146.320000
532.599060	146.060000
532.692749	146.200000
532.786377	147.040000
532.880066	145.800000
532.973694	145.080000
533.067383	144.960000
533.161011	144.700000
533.254639	143.900000
533.348267	144.100000
533.441956	144.820000
533.535583	144.700000
533.629272	145.020000
533.722900	145.220000
533.816589	145.180000
533.910156	145.360000
534.003845	145.280000
534.097534	145.740000
534.191162	146.140000
534.284851	146.420000
534.378479	145.820000
534.472107	146.160000
534.565735	145.620000
534.659424	145.680000
534.753052	146.020000
534.846741	145.860000
534.940369	146.400000
535.033997	146.460000
535.127625	146.040000
535.221313	146.280000
535.314941	146.460000
535.408630	145.480000
535.502197	145.900000
535.595886	145.700000
535.689514	145.240000
535.783203	145.620000
535.876831	146.400000
535.970459	145.900000
536.064087	145.960000
536.157776	146.040000
536.251404	145.600000
536.345093	145.380000
536.438721	145.380000
536.532349	145.820000
536.626038	145.480000
536.719666	145.960000
536.813293	145.460000
536.906921	145.440000
537.000610	145.800000
537.094238	145.760000
537.187866	145.740000
537.281494	146.040000
537.375183	146.400000
537.468811	145.660000
537.562439	145.920000
537.656067	145.380000
537.749756	145.200000
537.843384	145.360000
537.937012	145.460000
538.030640	145.220000
538.124329	145.400000
538.217896	145.780000
538.311584	145.420000
538.405212	145.560000
538.498901	145.720000
538.592468	146.500000
538.686157	146.040000
538.779785	145.480000
538.873413	145.480000
538.967102	145.320000
539.060730	144.600000
539.154358	145.180000
539.247986	145.700000
539.341675	145.780000
539.435242	145.840000
539.528931	146.000000
539.622559	145.500000
539.716187	146.120000
539.809814	145.900000
539.903503	145.860000
539.997070	145.400000
540.090759	145.700000
540.184387	145.160000
540.278015	145.680000
540.371643	146.000000
540.465332	146.400000
540.558899	146.200000
540.652588	146.000000
540.746216	145.540000
540.839844	145.600000
540.933472	145.740000
541.027100	145.760000
541.120728	146.060000
541.214417	146.520000
541.308044	146.760000
541.401672	146.500000
541.495300	146.540000
541.588928	146.280000
541.682617	145.640000
541.776184	144.780000
541.869873	145.120000
541.963440	145.300000
542.057129	145.180000
542.150757	145.360000
542.244385	145.560000
542.338013	144.780000
542.431641	144.620000
542.525269	144.700000
542.618958	145.340000
542.712524	145.560000
542.806213	145.940000
542.899780	146.080000
542.993469	146.000000
543.087036	145.440000
543.180725	144.960000
543.274292	145.220000
543.367981	145.560000
543.461548	146.060000
543.555237	145.740000
543.648926	146.580000
543.742493	147.080000
543.836182	146.980000
543.929749	146.860000
544.023437	147.080000
544.117004	146.820000
544.210693	146.600000
544.304260	146.420000
544.397949	145.980000
544.491516	146.360000
544.585205	146.040000
544.678772	145.360000
544.772461	145.600000
544.866028	145.820000
544.959717	145.900000
545.053284	145.920000
545.146973	146.540000
545.240540	146.580000
545.334229	147.200000
545.427795	147.100000
545.521423	147.360000
545.615051	146.880000
545.708679	146.880000
545.802307	146.520000
545.895935	146.600000
545.989624	147.060000
546.083191	147.200000
546.176880	146.940000
546.270447	146.580000
546.364136	146.700000
546.457703	146.140000
546.551331	146.200000
546.644958	146.420000
546.738586	146.820000
546.832214	146.360000
546.925842	146.340000
547.019409	146.720000
547.113098	146.200000
547.206665	145.820000
547.300354	146.040000
547.393921	146.260000
547.487549	145.960000
547.581177	145.980000
547.674805	146.020000
547.768433	145.260000
547.862061	145.260000
547.955627	144.720000
548.049316	145.420000
548.142883	145.580000
548.236572	146.280000
548.330139	146.340000
548.423767	146.460000
548.517456	146.080000
548.611023	146.520000
548.704651	146.260000
548.798279	146.320000
548.891907	147.100000
548.985474	147.060000
549.079163	146.940000
549.172729	146.700000
549.266357	146.140000
549.359985	145.960000
549.453613	145.460000
549.547180	145.100000
549.640869	145.520000
549.734436	145.400000
549.828064	145.440000
549.921631	145.780000
550.015320	145.460000
550.108887	145.880000
550.202515	146.200000
550.296143	145.700000
550.389771	145.600000
550.483337	145.960000
550.576965	145.420000
550.670593	145.820000
550.764221	146.200000
550.857849	146.120000
550.951477	145.560000
551.045105	145.280000
551.138672	145.220000
551.232300	144.720000
551.325928	145.200000
551.419556	145.820000
551.513123	146.340000
551.606750	145.940000
551.700378	146.140000
551.794006	145.520000
551.887573	145.520000
551.981201	145.860000
552.074768	145.840000
552.168457	145.660000
552.262024	147.140000
552.355652	146.860000
552.449219	146.860000
552.542847	146.940000
552.636475	147.200000
552.730103	146.100000
552.823669	145.960000
552.917297	145.420000
553.010864	145.460000
553.104553	145.580000
553.198181	145.320000
553.291748	145.880000
553.385376	146.200000
553.478943	145.800000
553.572571	146.020000
553.666199	146.560000
553.759827	146.020000
553.853394	145.300000
553.947021	145.440000
554.040588	145.100000
554.134216	144.900000
554.227783	145.700000
554.321411	146.480000
554.415039	146.560000
554.508667	146.900000
554.602234	147.000000
554.695862	146.180000
554.789429	146.080000
554.883057	146.280000
554.976624	145.960000
555.070251	145.540000
555.163818	145.460000
555.257507	145.560000
555.351074	145.540000
555.444702	146.520000
555.538330	146.420000
555.631897	147.040000
555.725525	146.740000
555.819092	146.620000
555.912720	145.360000
556.006287	146.180000
556.099915	145.900000
556.193481	146.000000
556.287109	146.200000
556.380676	146.300000
556.474304	145.780000
556.567871	145.780000
556.661499	145.120000
556.755066	145.160000
556.848694	145.200000
556.942261	145.220000
557.035889	145.600000
557.129517	146.080000
557.223145	146.240000
557.316711	146.100000
557.410339	146.420000
557.503906	146.080000
557.597473	146.180000
557.691040	145.800000
557.784668	146.360000
557.878296	146.100000
557.971863	146.200000
558.065491	146.140000
558.159058	146.000000
558.252686	146.420000
558.346252	146.940000
558.439880	146.340000
558.533447	146.040000
558.627075	145.760000
558.720642	144.860000
558.814270	144.520000
558.907837	144.800000
559.001465	144.840000
559.095032	145.720000
559.188660	145.960000
559.282227	145.240000
559.375854	145.700000
559.469360	145.580000
559.562988	145.820000
559.656555	145.980000
559.750183	146.500000
559.843750	146.520000
559.937378	146.760000
560.030945	146.080000
560.124573	0.000000
560.218140	0.000000
560.311707	0.000000
560.405334	0.000000
560.498901	0.000000
560.592529	0.000000
560.686096	0.000000
560.779724	0.000000
560.873291	0.000000
560.966858	0.000000
561.060425	0.000000
561.154053	0.000000
561.247620	0.000000
561.341248	0.000000
561.434814	0.000000
561.528381	0.000000
561.621948	0.000000
561.715576	0.000000
561.809143	0.000000
561.902771	0.000000
561.996277	0.000000
562.089905	0.000000
562.183472	0.000000
562.277100	0.000000
