Model Number: SPM-002-B   
Serial Number: 70087108
Firmware Version: 004.15.4
Exposure Time: 100000.000000us
Data Taken on: 11-12-2020 18:51:20.016
Wavelength	Amplitude
221.570786	0.000000
221.663406	0.000000
221.756027	0.000000
221.848648	0.000000
221.941269	0.000000
222.033905	0.000000
222.126526	0.000000
222.219162	0.000000
222.311798	0.000000
222.404419	0.000000
222.497055	0.000000
222.589676	0.000000
222.682312	0.000000
222.774933	0.000000
222.867569	0.000000
222.960205	0.000000
223.052841	0.000000
223.145462	0.000000
223.238098	0.000000
223.330734	0.000000
223.423386	0.000000
223.516022	0.000000
223.608658	0.000000
223.701309	0.000000
223.793945	0.000000
223.886581	0.000000
223.979218	0.000000
224.071869	0.000000
224.164505	0.000000
224.257156	0.000000
224.349792	0.000000
224.442444	0.000000
224.535095	0.000000
224.627747	0.000000
224.720398	0.000000
224.813034	0.000000
224.905685	0.000000
224.998337	144.760000
225.090988	144.640000
225.183640	144.640000
225.276291	144.480000
225.368942	144.620000
225.461594	145.340000
225.554245	145.560000
225.646912	145.740000
225.739578	145.980000
225.832230	146.400000
225.924896	145.580000
226.017548	146.000000
226.110199	146.460000
226.202866	146.180000
226.295532	145.860000
226.388184	145.760000
226.480850	145.140000
226.573517	144.640000
226.666168	144.920000
226.758835	145.500000
226.851501	146.140000
226.944183	146.200000
227.036850	145.740000
227.129517	145.600000
227.222183	145.560000
227.314850	145.520000
227.407516	145.900000
227.500198	146.920000
227.592865	146.680000
227.685532	146.200000
227.778214	146.000000
227.870880	146.200000
227.963562	146.380000
228.056229	147.100000
228.148926	147.100000
228.241592	147.980000
228.334274	147.380000
228.426956	146.940000
228.519638	146.560000
228.612305	146.320000
228.704987	145.880000
228.797668	146.260000
228.890350	146.000000
228.983032	145.740000
229.075714	146.480000
229.168396	146.100000
229.261108	145.760000
229.353790	146.040000
229.446472	146.140000
229.539169	145.900000
229.631851	145.760000
229.724533	145.660000
229.817230	145.960000
229.909912	146.940000
230.002609	146.760000
230.095306	146.980000
230.187988	147.560000
230.280685	146.940000
230.373383	145.800000
230.466095	145.640000
230.558792	145.880000
230.651474	145.460000
230.744171	145.820000
230.836868	145.600000
230.929581	145.920000
231.022278	145.820000
231.114975	146.020000
231.207672	145.780000
231.300369	146.560000
231.393082	146.660000
231.485779	146.480000
231.578506	146.500000
231.671204	146.520000
231.763916	146.180000
231.856613	146.060000
231.949326	146.400000
232.042023	145.880000
232.134735	145.660000
232.227448	145.480000
232.320160	145.560000
232.412872	145.240000
232.505585	146.280000
232.598297	147.000000
232.691010	147.020000
232.783722	146.880000
232.876450	147.580000
232.969162	147.180000
233.061874	146.480000
233.154587	146.100000
233.247314	146.240000
233.340027	145.620000
233.432739	145.760000
233.525467	145.740000
233.618179	146.240000
233.710907	145.860000
233.803635	146.320000
233.896347	145.900000
233.989090	146.680000
234.081818	147.000000
234.174545	147.220000
234.267258	146.500000
234.359985	146.720000
234.452713	146.300000
234.545441	145.820000
234.638168	145.820000
234.730896	146.040000
234.823639	146.080000
234.916367	146.240000
235.009094	146.400000
235.101822	146.420000
235.194580	146.380000
235.287308	146.140000
235.380051	145.800000
235.472778	146.320000
235.565521	146.440000
235.658249	146.120000
235.750992	146.300000
235.843719	146.340000
235.936462	146.160000
236.029205	145.920000
236.121948	145.960000
236.214691	146.200000
236.307449	146.900000
236.400192	146.440000
236.492935	146.060000
236.585678	146.380000
236.678421	146.080000
236.771164	145.840000
236.863907	146.400000
236.956665	147.020000
237.049408	148.340000
237.142151	147.940000
237.234909	148.180000
237.327652	148.000000
237.420410	147.520000
237.513153	146.640000
237.605927	146.720000
237.698669	146.280000
237.791428	145.860000
237.884186	146.620000
237.976944	146.220000
238.069702	146.680000
238.162445	146.300000
238.255203	146.200000
238.347961	146.180000
238.440720	146.080000
238.533478	145.780000
238.626266	145.500000
238.719025	146.100000
238.811783	145.820000
238.904541	145.600000
238.997314	145.460000
239.090073	145.460000
239.182831	145.440000
239.275604	145.920000
239.368362	145.900000
239.461136	146.160000
239.553909	146.260000
239.646667	145.900000
239.739441	145.360000
239.832214	145.560000
239.925003	145.640000
240.017761	146.320000
240.110535	146.960000
240.203308	147.000000
240.296082	147.280000
240.388855	147.340000
240.481628	147.080000
240.574417	146.880000
240.667191	147.200000
240.759964	146.780000
240.852737	146.480000
240.945526	146.220000
241.038315	145.940000
241.131088	145.640000
241.223877	145.880000
241.316650	145.640000
241.409439	146.300000
241.502228	146.000000
241.595001	146.460000
241.687790	146.220000
241.780579	146.140000
241.873367	145.900000
241.966141	146.200000
242.058929	145.620000
242.151718	145.820000
242.244507	146.420000
242.337311	145.760000
242.430099	146.220000
242.522903	146.420000
242.615692	146.100000
242.708481	145.960000
242.801270	146.480000
242.894073	146.380000
242.986862	146.560000
243.079651	147.040000
243.172455	146.800000
243.265244	146.880000
243.358063	146.100000
243.450867	146.160000
243.543655	146.120000
243.636459	146.500000
243.729263	146.840000
243.822067	147.440000
243.914856	147.540000
244.007660	147.740000
244.100464	147.540000
244.193268	146.820000
244.286072	146.380000
244.378876	145.760000
244.471680	145.280000
244.564499	145.900000
244.657318	146.780000
244.750122	147.140000
244.842926	146.820000
244.935745	147.180000
245.028549	146.580000
245.121368	145.960000
245.214172	145.900000
245.306992	146.640000
245.399796	146.320000
245.492615	146.140000
245.585434	145.800000
245.678253	145.720000
245.771072	145.340000
245.863892	145.720000
245.956711	146.420000
246.049530	146.340000
246.142349	145.980000
246.235168	146.220000
246.327988	146.380000
246.420807	145.840000
246.513626	146.160000
246.606445	146.020000
246.699280	146.080000
246.792099	145.800000
246.884918	145.820000
246.977753	145.680000
247.070587	146.360000
247.163422	146.460000
247.256241	146.480000
247.349075	146.540000
247.441895	146.580000
247.534729	146.280000
247.627563	145.920000
247.720383	146.520000
247.813217	146.460000
247.906052	146.340000
247.998886	146.460000
248.091736	146.500000
248.184570	145.980000
248.277405	145.760000
248.370239	146.640000
248.463074	147.380000
248.555908	147.620000
248.648743	147.460000
248.741592	147.780000
248.834427	147.060000
248.927261	145.980000
249.020111	146.320000
249.112946	146.920000
249.205795	146.540000
249.298630	146.560000
249.391495	146.920000
249.484344	146.460000
249.577179	146.240000
249.670029	146.820000
249.762878	147.500000
249.855728	147.680000
249.948563	147.580000
250.041412	146.780000
250.134262	146.620000
250.227112	146.360000
250.319962	146.300000
250.412827	146.580000
250.505692	146.580000
250.598541	146.520000
250.691391	146.060000
250.784241	145.940000
250.877106	145.580000
250.969955	145.660000
251.062805	145.900000
251.155670	146.580000
251.248520	146.340000
251.341385	146.740000
251.434235	146.720000
251.527100	146.420000
251.619965	145.700000
251.712814	146.600000
251.805695	146.460000
251.898560	146.700000
251.991425	147.080000
252.084290	147.660000
252.177155	146.520000
252.270020	146.300000
252.362885	146.500000
252.455750	146.140000
252.548615	145.520000
252.641479	145.840000
252.734360	145.680000
252.827240	145.120000
252.920105	145.320000
253.012970	145.320000
253.105850	145.280000
253.198715	145.260000
253.291595	145.760000
253.384460	145.240000
253.477341	145.380000
253.570221	145.840000
253.663086	145.540000
253.755966	146.240000
253.848846	146.500000
253.941727	146.860000
254.034592	146.480000
254.127472	146.500000
254.220367	145.960000
254.313248	146.120000
254.406128	145.720000
254.499008	146.080000
254.591904	146.860000
254.684784	147.140000
254.777664	147.180000
254.870544	146.840000
254.963440	146.500000
255.056335	146.440000
255.149216	146.080000
255.242111	146.540000
255.334991	146.840000
255.427887	147.140000
255.520767	147.000000
255.613663	147.100000
255.706558	146.560000
255.799438	146.540000
255.892334	146.200000
255.985229	145.980000
256.078125	145.840000
256.171021	145.680000
256.263916	146.040000
256.356812	146.240000
256.449707	146.420000
256.542603	146.060000
256.635498	146.660000
256.728394	146.600000
256.821289	146.300000
256.914215	146.720000
257.007080	147.100000
257.100006	147.020000
257.192932	147.220000
257.285828	147.700000
257.378723	147.320000
257.471619	147.160000
257.564545	146.860000
257.657440	146.800000
257.750336	147.040000
257.843262	146.780000
257.936157	147.740000
258.029053	147.980000
258.121979	147.800000
258.214874	147.220000
258.307800	147.200000
258.400696	146.000000
258.493622	145.840000
258.586517	145.040000
258.679443	145.360000
258.772339	145.100000
258.865265	145.360000
258.958160	144.820000
259.051086	146.160000
259.144012	145.920000
259.236938	146.900000
259.329834	146.980000
259.422791	147.100000
259.515717	146.140000
259.608612	145.920000
259.701538	145.760000
259.794464	145.440000
259.887390	145.620000
259.980316	145.700000
260.073212	145.360000
260.166138	144.420000
260.259064	144.740000
260.351990	145.300000
260.444916	145.320000
260.537842	146.080000
260.630768	147.020000
260.723694	147.220000
260.816620	146.800000
260.909546	146.740000
261.002472	146.120000
261.095398	145.380000
261.188354	145.180000
261.281281	144.880000
261.374207	145.100000
261.467133	146.120000
261.560089	146.580000
261.653015	146.340000
261.745972	146.960000
261.838867	147.380000
261.931824	147.080000
262.024780	146.580000
262.117706	146.880000
262.210663	146.780000
262.303589	146.400000
262.396515	146.340000
262.489471	147.280000
262.582397	147.100000
262.675354	146.620000
262.768280	146.700000
262.861237	146.560000
262.954163	146.340000
263.047119	146.480000
263.140045	146.460000
263.233002	146.580000
263.325958	146.500000
263.418884	145.920000
263.511841	146.040000
263.604797	145.820000
263.697723	145.740000
263.790680	145.700000
263.883636	146.380000
263.976593	145.980000
264.069550	146.680000
264.162476	146.280000
264.255463	146.420000
264.348419	146.020000
264.441376	146.560000
264.534332	145.880000
264.627289	146.200000
264.720245	146.700000
264.813202	146.300000
264.906158	146.360000
264.999115	147.000000
265.092072	146.780000
265.185028	146.860000
265.277985	147.060000
265.370941	146.560000
265.463898	146.100000
265.556854	146.260000
265.649811	145.220000
265.742798	145.380000
265.835754	145.360000
265.928711	145.960000
266.021667	145.880000
266.114655	146.220000
266.207611	146.580000
266.300568	146.180000
266.393585	145.820000
266.486511	146.200000
266.579498	145.660000
266.672485	145.360000
266.765442	145.560000
266.858429	145.740000
266.951385	145.280000
267.044342	145.360000
267.137329	145.300000
267.230316	145.860000
267.323273	145.580000
267.416260	146.300000
267.509216	146.600000
267.602203	146.420000
267.695160	146.480000
267.788147	146.500000
267.881134	145.620000
267.974091	146.100000
268.067078	146.120000
268.160065	145.840000
268.253052	145.720000
268.346008	145.840000
268.438995	145.180000
268.531982	145.320000
268.624969	144.900000
268.717987	145.240000
268.810944	145.440000
268.903961	145.800000
268.996948	145.380000
269.089905	146.220000
269.182892	146.300000
269.275879	146.280000
269.368866	145.760000
269.461853	146.180000
269.554871	145.820000
269.647858	145.840000
269.740845	146.280000
269.833832	146.700000
269.926819	146.400000
270.019806	146.460000
270.112793	145.880000
270.205811	145.840000
270.298798	145.860000
270.391785	146.660000
270.484772	146.460000
270.577789	146.560000
270.670776	146.180000
270.763763	146.160000
270.856750	145.720000
270.949768	145.440000
271.042786	145.660000
271.135773	145.600000
271.228790	145.560000
271.321808	145.260000
271.414795	145.320000
271.507782	144.940000
271.600800	144.540000
271.693817	144.700000
271.786804	144.780000
271.879822	144.880000
271.972809	144.780000
272.065826	145.500000
272.158844	145.140000
272.251831	145.820000
272.344849	145.780000
272.437866	145.680000
272.530853	145.680000
272.623871	146.100000
272.716888	145.200000
272.809906	145.420000
272.902893	145.760000
272.995911	145.140000
273.088928	144.820000
273.181946	145.380000
273.274963	145.040000
273.367981	144.900000
273.460999	145.220000
273.554047	145.740000
273.647003	146.060000
273.740051	146.280000
273.833069	146.820000
273.926086	147.240000
274.019135	146.900000
274.112152	146.580000
274.205170	146.740000
274.298187	146.940000
274.391205	146.160000
274.484222	146.360000
274.577240	146.260000
274.670258	146.460000
274.763306	146.160000
274.856323	146.860000
274.949341	146.780000
275.042358	147.220000
275.135406	146.780000
275.228424	146.720000
275.321442	146.540000
275.414490	146.260000
275.507507	146.200000
275.600525	146.400000
275.693573	145.960000
275.786591	145.460000
275.879669	145.740000
275.972656	145.060000
276.065735	144.980000
276.158752	145.960000
276.251801	146.880000
276.344818	146.620000
276.437866	146.960000
276.530884	146.760000
276.623932	145.840000
276.716980	145.660000
276.809998	145.860000
276.903046	146.060000
276.996094	146.800000
277.089111	147.480000
277.182159	147.920000
277.275208	148.020000
277.368256	147.860000
277.461304	147.320000
277.554321	146.360000
277.647369	145.680000
277.740417	145.380000
277.833466	144.820000
277.926514	144.840000
278.019562	145.880000
278.112610	145.520000
278.205688	145.780000
278.298706	146.320000
278.391785	145.980000
278.484833	145.260000
278.577881	145.420000
278.670929	145.380000
278.763977	145.280000
278.857025	146.020000
278.950073	145.940000
279.043121	145.840000
279.136169	146.000000
279.229248	145.620000
279.322296	145.300000
279.415344	145.460000
279.508392	145.280000
279.601440	145.220000
279.694519	145.420000
279.787567	145.300000
279.880615	144.940000
279.973694	145.160000
280.066742	145.320000
280.159790	145.420000
280.252869	145.200000
280.345917	145.760000
280.438995	145.740000
280.532074	145.400000
280.625122	145.900000
280.718201	146.860000
280.811279	146.700000
280.904327	146.620000
280.997406	146.920000
281.090454	146.940000
281.183533	145.880000
281.276581	145.900000
281.369659	145.900000
281.462738	145.680000
281.555786	145.460000
281.648865	146.040000
281.741943	146.120000
281.835022	146.460000
281.928070	146.420000
282.021149	146.100000
282.114227	146.220000
282.207306	145.960000
282.300385	146.100000
282.393433	146.140000
282.486511	146.520000
282.579590	146.360000
282.672668	146.660000
282.765747	146.260000
282.858856	145.740000
282.951904	145.580000
283.045013	146.160000
283.138062	146.320000
283.231171	146.760000
283.324249	147.360000
283.417328	147.680000
283.510406	146.920000
283.603485	147.000000
283.696564	146.640000
283.789642	146.580000
283.882751	146.280000
283.975830	146.900000
284.068909	146.200000
284.161987	146.720000
284.255066	146.520000
284.348175	146.420000
284.441254	146.120000
284.534332	146.500000
284.627441	146.200000
284.720520	145.880000
284.813599	146.060000
284.906708	145.920000
284.999786	145.660000
285.092896	145.420000
285.185974	146.700000
285.279053	146.240000
285.372192	146.480000
285.465240	147.340000
285.558380	147.440000
285.651459	146.480000
285.744568	147.220000
285.837677	146.520000
285.930756	146.200000
286.023865	146.180000
286.116943	146.040000
286.210052	145.960000
286.303162	146.160000
286.396240	146.160000
286.489349	146.020000
286.582458	146.480000
286.675568	146.300000
286.768646	146.360000
286.861755	146.520000
286.954865	147.240000
287.047974	146.580000
287.141083	146.420000
287.234161	146.340000
287.327271	145.920000
287.420380	145.640000
287.513519	145.860000
287.606598	145.920000
287.699738	146.040000
287.792816	146.100000
287.885956	146.100000
287.979034	146.320000
288.072174	146.480000
288.165283	146.500000
288.258392	146.540000
288.351501	145.920000
288.444611	146.040000
288.537720	146.140000
288.630859	145.940000
288.723969	146.500000
288.817078	146.720000
288.910187	146.720000
289.003296	146.440000
289.096436	146.120000
289.189545	145.560000
289.282654	145.300000
289.375763	145.340000
289.468903	145.720000
289.562012	146.560000
289.655121	146.460000
289.748260	146.860000
289.841400	147.360000
289.934509	147.180000
290.027649	147.060000
290.120728	146.980000
290.213898	146.900000
290.306976	146.460000
290.400146	146.500000
290.493256	146.020000
290.586395	146.300000
290.679535	146.900000
290.772644	146.600000
290.865784	145.720000
290.958893	145.780000
291.052032	145.540000
291.145172	145.340000
291.238281	145.180000
291.331421	145.680000
291.424561	146.320000
291.517670	146.100000
291.610809	146.160000
291.703949	146.040000
291.797089	146.060000
291.890228	145.560000
291.983337	145.640000
292.076477	144.900000
292.169617	145.500000
292.262756	145.480000
292.355927	145.200000
292.449036	145.060000
292.542206	145.640000
292.635315	145.480000
292.728485	145.740000
292.821625	145.780000
292.914764	147.060000
293.007904	146.740000
293.101044	146.620000
293.194183	146.260000
293.287323	146.480000
293.380463	145.420000
293.473602	145.340000
293.566742	145.600000
293.659882	146.220000
293.753021	146.360000
293.846191	146.460000
293.939331	146.380000
294.032471	146.040000
294.125610	145.420000
294.218781	145.940000
294.311920	146.300000
294.405060	146.240000
294.498230	146.240000
294.591370	146.580000
294.684540	145.820000
294.777679	145.400000
294.870850	146.380000
294.963959	146.260000
295.057159	146.160000
295.150299	146.600000
295.243469	146.340000
295.336609	145.260000
295.429779	145.280000
295.522919	145.440000
295.616089	145.400000
295.709229	146.040000
295.802399	146.320000
295.895569	146.360000
295.988708	146.440000
296.081879	146.300000
296.175018	146.000000
296.268188	146.280000
296.361359	146.560000
296.454529	146.340000
296.547668	146.300000
296.640839	146.480000
296.734009	145.940000
296.827179	146.220000
296.920319	146.560000
297.013519	146.380000
297.106659	146.360000
297.199860	146.680000
297.292999	146.420000
297.386200	145.780000
297.479309	145.820000
297.572510	145.580000
297.665680	145.320000
297.758850	145.340000
297.852020	145.300000
297.945190	145.040000
298.038361	144.820000
298.131531	145.720000
298.224701	145.480000
298.317871	145.240000
298.411072	144.780000
298.504242	144.920000
298.597412	144.180000
298.690582	144.300000
298.783752	144.720000
298.876923	145.600000
298.970093	145.740000
299.063293	146.400000
299.156464	146.720000
299.249634	146.980000
299.342834	147.120000
299.436005	147.340000
299.529205	146.700000
299.622345	146.660000
299.715576	146.060000
299.808716	145.740000
299.901917	145.840000
299.995117	146.300000
300.088287	146.360000
300.181488	146.480000
300.274658	146.200000
300.367828	145.820000
300.461029	145.660000
300.554199	145.840000
300.647400	145.860000
300.740601	146.480000
300.833771	146.400000
300.926971	146.500000
301.020142	146.000000
301.113342	145.900000
301.206512	145.760000
301.299713	146.280000
301.392914	146.180000
301.486084	146.440000
301.579285	146.640000
301.672516	147.240000
301.765686	146.940000
301.858887	146.780000
301.952057	146.580000
302.045288	146.720000
302.138458	146.180000
302.231659	146.180000
302.324860	146.280000
302.418060	145.940000
302.511261	145.900000
302.604462	146.080000
302.697662	145.740000
302.790863	145.440000
302.884064	145.360000
302.977264	145.420000
303.070465	145.420000
303.163666	146.260000
303.256866	146.860000
303.350067	147.240000
303.443268	146.940000
303.536469	147.000000
303.629669	146.280000
303.722870	146.060000
303.816071	145.700000
303.909271	146.020000
304.002472	145.220000
304.095673	145.080000
304.188934	144.160000
304.282104	145.040000
304.375336	145.060000
304.468506	145.240000
304.561768	145.180000
304.654968	145.940000
304.748169	145.480000
304.841370	145.080000
304.934601	145.440000
305.027802	145.380000
305.121002	145.340000
305.214233	145.300000
305.307434	145.520000
305.400665	146.060000
305.493866	146.080000
305.587097	146.400000
305.680298	146.300000
305.773499	146.860000
305.866730	146.560000
305.959930	147.140000
306.053162	147.220000
306.146393	146.820000
306.239594	145.760000
306.332825	145.380000
306.426025	145.720000
306.519287	145.220000
306.612488	145.800000
306.705719	146.040000
306.798920	146.300000
306.892181	145.240000
306.985352	145.060000
307.078613	144.500000
307.171844	145.280000
307.265045	144.800000
307.358276	144.760000
307.451508	145.180000
307.544739	145.720000
307.637970	145.020000
307.731201	144.900000
307.824402	145.760000
307.917633	145.980000
308.010864	146.280000
308.104095	146.660000
308.197327	147.180000
308.290558	146.940000
308.383789	146.420000
308.477020	146.000000
308.570251	145.540000
308.663483	145.180000
308.756714	145.140000
308.849976	145.220000
308.943176	145.480000
309.036438	145.320000
309.129639	145.280000
309.222900	145.360000
309.316101	145.580000
309.409393	145.240000
309.502625	145.140000
309.595856	145.420000
309.689087	145.300000
309.782318	145.020000
309.875580	145.320000
309.968811	145.640000
310.062042	145.260000
310.155273	145.260000
310.248535	145.820000
310.341766	145.180000
310.434998	145.160000
310.528259	145.240000
310.621490	145.440000
310.714722	144.900000
310.807983	145.360000
310.901215	145.280000
310.994476	145.720000
311.087708	145.360000
311.181000	145.700000
311.274200	145.540000
311.367462	145.720000
311.460693	145.380000
311.553986	146.320000
311.647186	146.420000
311.740479	146.840000
311.833710	146.720000
311.926971	146.840000
312.020203	145.980000
312.113464	145.960000
312.206726	145.700000
312.299957	146.140000
312.393219	146.860000
312.486481	146.920000
312.579712	146.380000
312.672974	146.220000
312.766235	146.160000
312.859497	145.460000
312.952759	145.300000
313.045990	146.220000
313.139252	145.840000
313.232513	145.600000
313.325775	145.520000
313.419037	145.460000
313.512299	144.860000
313.605530	145.960000
313.698822	146.320000
313.792053	146.660000
313.885345	146.700000
313.978577	146.780000
314.071869	145.840000
314.165131	145.540000
314.258392	145.420000
314.351654	145.480000
314.444916	145.040000
314.538177	145.760000
314.631439	145.800000
314.724701	145.680000
314.817993	145.560000
314.911255	145.940000
315.004517	145.200000
315.097778	145.460000
315.191040	146.120000
315.284302	146.580000
315.377594	146.000000
315.470856	146.520000
315.564117	145.920000
315.657379	145.000000
315.750671	144.620000
315.843933	145.220000
315.937195	144.600000
316.030518	144.500000
316.123749	144.480000
316.217041	145.540000
316.310303	145.220000
316.403595	145.740000
316.496857	146.020000
316.590149	146.520000
316.683411	145.580000
316.776703	145.740000
316.869965	145.900000
316.963257	145.860000
317.056519	145.140000
317.149811	144.980000
317.243073	144.820000
317.336365	144.720000
317.429626	145.060000
317.522919	146.140000
317.616180	146.200000
317.709473	146.040000
317.802765	145.740000
317.896027	145.820000
317.989319	145.840000
318.082611	145.900000
318.175873	145.940000
318.269165	146.080000
318.362488	146.080000
318.455750	145.360000
318.549042	145.820000
318.642303	146.380000
318.735626	146.120000
318.828888	145.960000
318.922211	145.840000
319.015472	146.100000
319.108765	145.260000
319.202057	145.100000
319.295349	145.200000
319.388641	145.360000
319.481934	144.660000
319.575226	144.920000
319.668518	145.460000
319.761810	145.360000
319.855103	145.820000
319.948395	146.160000
320.041687	146.560000
320.134979	146.260000
320.228271	146.100000
320.321564	145.540000
320.414856	145.240000
320.508148	145.020000
320.601440	145.120000
320.694763	145.240000
320.788025	145.960000
320.881348	146.120000
320.974640	146.200000
321.067963	145.820000
321.161224	146.120000
321.254547	145.040000
321.347839	145.860000
321.441162	145.580000
321.534454	145.940000
321.627747	145.480000
321.721069	146.600000
321.814362	146.180000
321.907654	146.240000
322.000946	146.080000
322.094269	146.700000
322.187561	146.160000
322.280884	146.180000
322.374176	146.200000
322.467468	146.920000
322.560791	146.560000
322.654083	146.800000
322.747406	146.680000
322.840698	147.180000
322.934021	147.000000
323.027344	147.440000
323.120636	146.960000
323.213959	146.760000
323.307251	146.200000
323.400574	145.780000
323.493866	144.960000
323.587219	145.440000
323.680511	145.680000
323.773834	145.760000
323.867157	145.920000
323.960449	146.140000
324.053772	145.720000
324.147095	145.340000
324.240387	145.920000
324.333710	145.880000
324.427032	146.140000
324.520355	146.320000
324.613647	146.080000
324.706970	145.420000
324.800293	145.480000
324.893616	145.580000
324.986938	145.940000
325.080231	145.880000
325.173553	146.340000
325.266876	146.740000
325.360199	146.420000
325.453522	145.560000
325.546875	145.680000
325.640167	145.400000
325.733521	145.080000
325.826813	145.540000
325.920166	145.500000
326.013489	145.400000
326.106812	144.820000
326.200134	144.580000
326.293457	143.940000
326.386780	144.660000
326.480103	144.780000
326.573425	145.260000
326.666748	145.260000
326.760071	145.840000
326.853424	145.580000
326.946747	145.580000
327.040070	146.120000
327.133392	146.020000
327.226715	145.240000
327.320068	145.020000
327.413391	145.420000
327.506714	144.720000
327.600037	144.860000
327.693390	145.120000
327.786713	145.260000
327.880066	145.140000
327.973358	145.500000
328.066742	145.900000
328.160034	146.000000
328.253418	146.280000
328.346710	146.440000
328.440063	146.160000
328.533417	145.760000
328.626740	146.140000
328.720093	145.920000
328.813416	145.460000
328.906769	145.520000
329.000092	145.800000
329.093445	145.260000
329.186768	144.940000
329.280121	145.600000
329.373444	145.660000
329.466797	145.400000
329.560120	145.700000
329.653473	145.980000
329.746796	145.220000
329.840149	145.100000
329.933502	145.160000
330.026825	145.060000
330.120178	144.820000
330.213562	145.100000
330.306854	145.320000
330.400238	145.340000
330.493561	144.900000
330.586945	145.600000
330.680237	145.680000
330.773621	145.600000
330.866974	145.700000
330.960327	146.080000
331.053680	145.500000
331.147003	145.300000
331.240356	145.420000
331.333710	145.240000
331.427063	145.100000
331.520416	145.240000
331.613770	145.240000
331.707123	145.220000
331.800476	145.660000
331.893829	146.680000
331.987152	147.020000
332.080505	146.920000
332.173859	146.800000
332.267212	146.080000
332.360565	145.480000
332.453918	145.080000
332.547333	145.040000
332.640656	145.200000
332.734039	145.140000
332.827362	144.920000
332.920746	145.080000
333.014069	145.460000
333.107452	146.040000
333.200806	146.480000
333.294159	146.480000
333.387543	146.100000
333.480896	145.720000
333.574249	145.100000
333.667603	144.860000
333.760956	145.280000
333.854340	145.680000
333.947693	145.980000
334.041046	145.860000
334.134430	146.060000
334.227783	145.420000
334.321136	145.060000
334.414520	144.640000
334.507874	145.080000
334.601227	145.100000
334.694611	145.080000
334.787964	145.140000
334.881348	145.520000
334.974701	145.220000
335.068085	144.880000
335.161438	145.500000
335.254822	145.680000
335.348175	145.560000
335.441559	145.200000
335.534943	146.040000
335.628296	145.600000
335.721680	145.500000
335.815033	145.920000
335.908417	146.520000
336.001770	146.180000
336.095154	145.980000
336.188538	145.720000
336.281891	145.220000
336.375275	144.580000
336.468658	144.580000
336.562012	144.680000
336.655396	144.900000
336.748779	145.280000
336.842133	145.520000
336.935516	145.460000
337.028900	145.280000
337.122284	145.480000
337.215637	145.480000
337.309021	145.480000
337.402435	144.820000
337.495789	145.000000
337.589203	144.880000
337.682526	144.600000
337.775940	144.880000
337.869324	145.660000
337.962708	145.220000
338.056091	145.580000
338.149475	145.420000
338.242859	145.540000
338.336243	145.220000
338.429626	145.840000
338.523010	145.400000
338.616394	145.320000
338.709778	145.320000
338.803162	145.540000
338.896545	145.400000
338.989929	145.280000
339.083313	145.320000
339.176697	144.840000
339.270081	144.480000
339.363464	145.020000
339.456848	145.300000
339.550232	144.940000
339.643616	144.940000
339.737030	144.800000
339.830383	144.320000
339.923828	144.480000
340.017181	144.920000
340.110596	145.240000
340.203949	145.500000
340.297363	145.120000
340.390778	145.060000
340.484161	144.980000
340.577545	144.620000
340.670959	144.800000
340.764343	144.720000
340.857727	144.600000
340.951111	144.080000
341.044525	144.420000
341.137909	144.020000
341.231293	144.340000
341.324707	144.020000
341.418091	145.160000
341.511505	145.120000
341.604889	145.500000
341.698303	145.600000
341.791687	146.060000
341.885071	145.500000
341.978485	144.980000
342.071899	145.280000
342.165283	145.560000
342.258698	145.640000
342.352081	145.860000
342.445496	146.760000
342.538879	146.200000
342.632324	145.700000
342.725708	145.460000
342.819122	145.200000
342.912506	144.620000
343.005920	144.700000
343.099335	145.620000
343.192719	145.980000
343.286133	145.860000
343.379547	146.260000
343.472931	146.520000
343.566345	145.640000
343.659760	145.460000
343.753143	145.560000
343.846558	145.020000
343.939972	144.800000
344.033386	145.540000
344.126770	145.180000
344.220184	145.440000
344.313599	146.120000
344.407043	146.120000
344.500427	145.280000
344.593872	145.800000
344.687225	145.220000
344.780670	144.640000
344.874054	144.720000
344.967499	145.340000
345.060913	145.240000
345.154327	145.540000
345.247742	145.740000
345.341156	145.420000
345.434570	145.040000
345.527985	144.800000
345.621399	144.760000
345.714813	144.500000
345.808228	144.580000
345.901642	144.460000
345.995056	144.500000
346.088470	144.760000
346.181885	144.800000
346.275299	145.120000
346.368713	145.360000
346.462128	144.900000
346.555573	145.040000
346.648987	145.380000
346.742401	145.020000
346.835815	145.140000
346.929260	145.240000
347.022644	145.000000
347.116119	145.080000
347.209503	145.480000
347.302948	146.200000
347.396362	146.800000
347.489807	146.880000
347.583221	147.180000
347.676636	146.660000
347.770050	145.640000
347.863495	145.040000
347.956909	145.060000
348.050323	144.480000
348.143768	144.520000
348.237183	144.660000
348.330597	145.280000
348.424042	145.080000
348.517456	145.780000
348.610901	146.060000
348.704315	145.680000
348.797760	145.240000
348.891174	145.100000
348.984619	144.180000
349.078033	144.700000
349.171448	145.300000
349.264923	145.060000
349.358337	145.080000
349.451782	145.220000
349.545197	144.160000
349.638641	143.540000
349.732086	143.440000
349.825500	143.700000
349.918945	143.400000
350.012390	144.100000
350.105804	144.740000
350.199249	145.220000
350.292664	145.600000
350.386108	146.000000
350.479553	146.340000
350.572968	146.100000
350.666412	146.160000
350.759857	146.040000
350.853302	146.540000
350.946716	145.760000
351.040161	145.840000
351.133606	145.360000
351.227081	144.960000
351.320465	145.300000
351.413940	145.600000
351.507355	145.660000
351.600830	146.220000
351.694244	146.100000
351.787720	145.780000
351.881104	145.920000
351.974579	145.660000
352.067993	146.140000
352.161469	146.440000
352.254883	145.680000
352.348358	145.480000
352.441803	145.940000
352.535248	145.500000
352.628693	145.620000
352.722137	145.620000
352.815582	145.740000
352.909027	145.660000
353.002472	145.480000
353.095917	145.280000
353.189362	145.780000
353.282806	145.720000
353.376251	145.300000
353.469696	144.780000
353.563141	145.320000
353.656586	145.200000
353.750061	144.740000
353.843475	144.880000
353.936981	145.880000
354.030396	145.240000
354.123871	145.040000
354.217285	146.100000
354.310760	146.200000
354.404175	145.980000
354.497681	145.560000
354.591095	145.780000
354.684570	144.620000
354.777985	144.440000
354.871490	143.840000
354.964935	144.800000
355.058380	144.740000
355.151855	145.020000
355.245300	145.780000
355.338745	146.280000
355.432220	146.100000
355.525665	145.820000
355.619110	146.160000
355.712585	145.380000
355.806030	145.180000
355.899475	144.800000
355.992950	145.460000
356.086426	145.840000
356.179871	146.000000
356.273346	146.260000
356.366791	146.660000
356.460266	146.600000
356.553711	145.840000
356.647186	146.040000
356.740631	145.620000
356.834106	145.300000
356.927551	145.280000
357.021027	145.540000
357.114471	145.580000
357.207947	145.940000
357.301422	146.100000
357.394867	145.960000
357.488342	146.540000
357.581818	146.340000
357.675262	146.400000
357.768738	146.220000
357.862213	145.720000
357.955658	145.280000
358.049133	145.140000
358.142609	145.080000
358.236053	145.020000
358.329529	145.340000
358.423035	145.480000
358.516449	145.540000
358.609955	145.740000
358.703400	146.140000
358.796906	146.180000
358.890350	145.640000
358.983826	146.020000
359.077271	145.400000
359.170776	145.280000
359.264221	145.000000
359.357727	145.660000
359.451172	145.600000
359.544647	145.700000
359.638123	145.480000
359.731598	145.800000
359.825073	145.820000
359.918549	145.740000
360.012024	145.940000
360.105499	145.460000
360.198975	145.200000
360.292450	144.980000
360.385925	144.920000
360.479401	144.780000
360.572876	145.160000
360.666351	145.480000
360.759857	145.280000
360.853302	145.360000
360.946808	144.940000
361.040253	145.280000
361.133759	145.140000
361.227203	145.380000
361.320709	144.960000
361.414154	145.680000
361.507660	146.000000
361.601105	146.500000
361.694641	146.900000
361.788086	146.860000
361.881592	147.100000
361.975067	146.340000
362.068542	146.500000
362.162018	146.040000
362.255524	145.840000
362.348999	145.300000
362.442474	145.720000
362.535950	144.920000
362.629456	144.680000
362.722931	144.600000
362.816406	144.940000
362.909882	145.260000
363.003387	145.080000
363.096863	145.620000
363.190338	145.960000
363.283875	145.580000
363.377319	145.460000
363.470825	146.300000
363.564301	145.720000
363.657806	145.820000
363.751282	145.600000
363.844788	146.080000
363.938232	145.640000
364.031769	146.540000
364.125214	146.720000
364.218750	147.460000
364.312225	146.180000
364.405731	146.100000
364.499207	145.500000
364.592712	145.220000
364.686188	144.800000
364.779694	145.240000
364.873169	144.980000
364.966675	144.480000
365.060150	144.360000
365.153656	144.800000
365.247131	144.820000
365.340637	145.240000
365.434143	145.980000
365.527618	146.100000
365.621155	145.440000
365.714600	145.440000
365.808136	145.240000
365.901611	144.460000
365.995117	144.460000
366.088593	144.640000
366.182129	144.520000
366.275604	144.820000
366.369110	145.200000
366.462585	145.220000
366.556122	145.680000
366.649567	145.920000
366.743103	145.880000
366.836609	145.640000
366.930115	145.880000
367.023590	145.760000
367.117096	145.600000
367.210602	145.580000
367.304108	146.720000
367.397614	147.060000
367.491119	146.940000
367.584595	147.060000
367.678101	147.520000
367.771606	146.560000
367.865112	146.220000
367.958649	145.640000
368.052124	145.420000
368.145660	144.760000
368.239136	145.000000
368.332672	144.960000
368.426147	145.320000
368.519684	145.200000
368.613159	145.680000
368.706696	145.500000
368.800171	145.460000
368.893707	145.500000
368.987183	145.800000
369.080719	145.460000
369.174225	145.140000
369.267731	145.400000
369.361237	145.320000
369.454742	145.100000
369.548248	145.540000
369.641754	145.700000
369.735260	145.340000
369.828766	144.920000
369.922272	145.640000
370.015808	145.240000
370.109314	145.200000
370.202820	145.180000
370.296356	146.440000
370.389832	145.660000
370.483368	145.240000
370.576874	145.160000
370.670410	145.220000
370.763885	144.220000
370.857422	144.340000
370.950928	144.540000
371.044464	145.320000
371.137939	145.140000
371.231476	145.500000
371.324982	146.240000
371.418518	146.040000
371.512024	145.560000
371.605560	145.500000
371.699066	145.560000
371.792572	144.980000
371.886108	145.480000
371.979614	145.060000
372.073120	145.660000
372.166656	145.220000
372.260162	145.560000
372.353668	145.400000
372.447205	145.640000
372.540710	145.480000
372.634277	145.560000
372.727753	145.500000
372.821320	145.400000
372.914795	145.740000
373.008362	145.440000
373.101837	145.700000
373.195404	145.380000
373.288879	145.340000
373.382446	145.740000
373.475922	145.820000
373.569489	146.640000
373.662964	147.060000
373.756531	147.200000
373.850037	146.900000
373.943573	146.880000
374.037109	145.740000
374.130615	145.700000
374.224152	145.780000
374.317657	145.540000
374.411194	146.520000
374.504730	146.400000
374.598236	145.960000
374.691772	145.840000
374.785309	146.020000
374.878815	144.720000
374.972351	145.420000
375.065887	145.440000
375.159454	146.080000
375.252930	145.660000
375.346497	146.300000
375.440002	146.640000
375.533569	146.600000
375.627045	146.120000
375.720612	146.320000
375.814117	146.400000
375.907684	145.660000
376.001160	145.540000
376.094727	145.040000
376.188232	146.080000
376.281799	146.240000
376.375336	146.360000
376.468872	147.120000
376.562408	147.640000
376.655914	146.640000
376.749451	146.280000
376.842987	146.500000
376.936523	145.800000
377.030060	145.680000
377.123596	145.860000
377.217133	145.500000
377.310669	145.240000
377.404205	145.580000
377.497772	145.860000
377.591278	145.620000
377.684845	146.600000
377.778351	146.860000
377.871918	146.640000
377.965424	145.840000
378.058990	145.640000
378.152496	144.880000
378.246063	145.240000
378.339569	145.660000
378.433136	145.920000
378.526642	146.220000
378.620209	146.440000
378.713745	145.500000
378.807312	145.640000
378.900848	145.480000
378.994385	145.820000
379.087921	145.060000
379.181458	145.340000
379.274994	144.740000
379.368530	145.160000
379.462097	145.160000
379.555634	145.660000
379.649170	145.500000
379.742706	145.400000
379.836273	145.440000
379.929810	145.140000
380.023376	144.820000
380.116882	144.700000
380.210449	144.960000
380.303986	144.700000
380.397552	144.220000
380.491058	144.680000
380.584656	144.720000
380.678162	144.740000
380.771729	144.680000
380.865265	145.760000
380.958832	145.760000
381.052368	146.100000
381.145935	146.720000
381.239471	147.000000
381.333008	146.480000
381.426575	146.300000
381.520111	146.300000
381.613647	146.060000
381.707214	146.020000
381.800751	145.600000
381.894318	146.100000
381.987854	145.760000
382.081421	145.600000
382.174988	145.520000
382.268524	145.420000
382.362091	145.020000
382.455627	145.740000
382.549194	145.180000
382.642731	144.200000
382.736298	144.320000
382.829834	143.900000
382.923401	144.200000
383.016937	144.720000
383.110504	145.480000
383.204041	145.680000
383.297607	146.360000
383.391174	145.540000
383.484741	146.100000
383.578278	146.140000
383.671844	145.840000
383.765411	145.220000
383.858948	145.940000
383.952515	145.140000
384.046051	145.520000
384.139618	146.260000
384.233185	146.740000
384.326721	146.600000
384.420288	146.900000
384.513855	146.820000
384.607422	146.760000
384.700989	146.760000
384.794525	146.140000
384.888123	146.360000
384.981659	146.380000
385.075226	146.040000
385.168762	145.640000
385.262360	145.500000
385.355896	144.460000
385.449463	144.520000
385.542999	144.540000
385.636597	145.440000
385.730164	145.840000
385.823730	146.040000
385.917267	145.240000
386.010834	145.220000
386.104401	144.880000
386.197968	145.280000
386.291534	145.680000
386.385101	146.220000
386.478668	146.320000
386.572235	146.000000
386.665802	145.160000
386.759338	145.080000
386.852905	144.860000
386.946472	144.540000
387.040070	144.840000
387.133606	145.180000
387.227203	145.100000
387.320740	145.560000
387.414337	145.340000
387.507874	145.320000
387.601471	145.320000
387.695007	145.160000
387.788605	144.700000
387.882141	145.080000
387.975739	144.960000
388.069275	144.900000
388.162872	145.380000
388.256439	145.420000
388.350037	145.380000
388.443604	145.140000
388.537170	145.300000
388.630737	145.700000
388.724304	146.200000
388.817871	146.100000
388.911438	146.400000
389.005005	146.340000
389.098602	146.320000
389.192169	145.600000
389.285736	146.220000
389.379333	146.080000
389.472870	145.660000
389.566467	145.120000
389.660034	145.220000
389.753632	144.520000
389.847168	144.740000
389.940765	145.100000
390.034332	145.440000
390.127930	145.140000
390.221466	145.420000
390.315063	145.120000
390.408630	144.560000
390.502228	143.560000
390.595795	144.180000
390.689362	144.020000
390.782959	144.320000
390.876526	145.300000
390.970093	145.820000
391.063690	146.220000
391.157257	146.520000
391.250824	146.680000
391.344421	146.340000
391.437988	146.460000
391.531555	146.340000
391.625153	146.300000
391.718750	146.320000
391.812317	145.900000
391.905914	145.580000
391.999481	145.640000
392.093079	145.600000
392.186615	145.760000
392.280243	145.880000
392.373779	146.180000
392.467407	146.440000
392.560944	146.440000
392.654572	146.000000
392.748108	146.220000
392.841736	146.480000
392.935303	145.580000
393.028900	145.280000
393.122467	145.500000
393.216064	145.140000
393.309631	144.440000
393.403229	144.720000
393.496796	144.680000
393.590393	143.820000
393.683990	144.140000
393.777557	144.700000
393.871155	144.880000
393.964722	145.220000
394.058350	145.580000
394.151917	145.460000
394.245514	145.080000
394.339081	145.440000
394.432678	145.820000
394.526245	145.900000
394.619873	145.720000
394.713409	146.120000
394.807037	145.300000
394.900604	144.900000
394.994202	145.100000
395.087769	145.340000
395.181396	144.880000
395.274994	146.000000
395.368561	145.740000
395.462158	145.960000
395.555756	145.660000
395.649353	146.080000
395.742920	145.400000
395.836517	145.720000
395.930115	144.860000
396.023712	145.400000
396.117279	145.540000
396.210876	145.240000
396.304474	145.320000
396.398071	145.760000
396.491669	145.780000
396.585266	145.400000
396.678833	145.200000
396.772461	145.580000
396.866028	145.520000
396.959656	145.620000
397.053223	145.760000
397.146851	145.880000
397.240417	145.920000
397.334015	146.820000
397.427582	146.780000
397.521210	147.260000
397.614807	148.000000
397.708405	148.480000
397.802002	148.600000
397.895599	150.400000
397.989197	151.520000
398.082794	153.340000
398.176392	155.420000
398.269989	158.200000
398.363586	160.720000
398.457184	165.060000
398.550781	169.060000
398.644379	172.920000
398.737976	177.540000
398.831573	182.540000
398.925201	186.580000
399.018768	191.260000
399.112396	196.540000
399.205963	202.200000
399.299591	208.080000
399.393158	215.040000
399.486786	223.960000
399.580353	233.340000
399.673981	243.420000
399.767578	254.820000
399.861206	267.240000
399.954773	278.880000
400.048401	290.020000
400.141998	299.240000
400.235596	307.620000
400.329193	313.060000
400.422791	316.600000
400.516418	318.840000
400.610016	321.180000
400.703613	321.000000
400.797211	319.160000
400.890808	316.040000
400.984436	311.160000
401.078033	303.260000
401.171631	293.580000
401.265259	282.520000
401.358826	270.380000
401.452484	256.800000
401.546051	243.820000
401.639679	229.760000
401.733246	217.400000
401.826904	204.960000
401.920471	193.940000
402.014099	183.900000
402.107697	176.460000
402.201324	169.580000
402.294891	164.560000
402.388550	160.940000
402.482147	157.940000
402.575745	155.260000
402.669373	153.260000
402.762970	151.640000
402.856567	150.260000
402.950195	149.200000
403.043793	148.160000
403.137390	148.120000
403.231018	147.040000
403.324615	146.940000
403.418243	146.260000
403.511841	146.680000
403.605469	146.180000
403.699066	146.660000
403.792694	146.480000
403.886292	147.020000
403.979919	146.540000
404.073517	146.260000
404.167145	146.280000
404.260712	146.120000
404.354370	145.680000
404.447937	145.900000
404.541595	146.140000
404.635162	146.500000
404.728821	147.180000
404.822418	146.840000
404.916046	146.680000
405.009644	147.000000
405.103271	146.920000
405.196899	146.240000
405.290497	146.540000
405.384125	146.760000
405.477722	146.320000
405.571350	145.780000
405.664948	145.920000
405.758575	145.680000
405.852203	145.140000
405.945801	145.320000
406.039429	145.580000
406.133057	145.260000
406.226654	145.520000
406.320312	145.900000
406.413879	145.860000
406.507538	145.900000
406.601135	145.560000
406.694763	145.680000
406.788361	145.340000
406.882019	145.060000
406.975586	145.280000
407.069244	146.060000
407.162872	146.200000
407.256470	145.960000
407.350098	145.920000
407.443726	145.660000
407.537323	145.140000
407.630951	145.100000
407.724579	145.380000
407.818207	145.760000
407.911804	145.180000
408.005432	145.320000
408.099060	145.580000
408.192688	145.840000
408.286285	145.720000
408.379913	145.960000
408.473572	146.100000
408.567169	145.340000
408.660828	145.240000
408.754395	145.000000
408.848053	145.120000
408.941650	144.960000
409.035309	144.780000
409.128906	144.720000
409.222565	144.960000
409.316132	145.080000
409.409790	144.900000
409.503387	145.100000
409.597046	144.940000
409.690674	145.000000
409.784302	144.800000
409.877930	144.920000
409.971558	145.340000
410.065186	145.300000
410.158783	145.000000
410.252411	145.200000
410.346039	145.700000
410.439667	145.380000
410.533295	145.800000
410.626923	146.220000
410.720551	145.860000
410.814209	146.120000
410.907806	146.160000
411.001465	145.620000
411.095062	145.720000
411.188721	145.960000
411.282318	145.440000
411.375977	145.060000
411.469574	145.540000
411.563232	145.380000
411.656830	145.480000
411.750488	145.360000
411.844086	145.400000
411.937744	145.560000
412.031372	145.380000
412.125000	145.240000
412.218628	145.160000
412.312256	146.080000
412.405884	146.120000
412.499512	146.140000
412.593170	146.400000
412.686798	146.620000
412.780426	146.080000
412.874054	146.180000
412.967682	146.000000
413.061310	146.500000
413.154968	146.460000
413.248566	146.520000
413.342224	146.040000
413.435852	146.140000
413.529510	145.380000
413.623108	145.120000
413.716766	144.900000
413.810364	145.440000
413.904022	145.020000
413.997650	145.120000
414.091309	145.740000
414.184906	145.760000
414.278564	145.100000
414.372192	145.680000
414.465851	145.700000
414.559479	145.320000
414.653107	145.880000
414.746735	145.900000
414.840393	145.800000
414.934021	146.300000
415.027649	145.820000
415.121277	145.680000
415.214935	146.160000
415.308563	146.100000
415.402191	145.140000
415.495850	145.520000
415.589478	145.260000
415.683136	144.600000
415.776733	144.860000
415.870422	145.640000
415.964020	145.200000
416.057678	145.140000
416.151306	145.720000
416.244965	145.600000
416.338562	145.360000
416.432251	146.060000
416.525848	146.900000
416.619507	147.080000
416.713165	147.320000
416.806793	147.440000
416.900421	147.260000
416.994080	146.460000
417.087708	145.960000
417.181366	145.540000
417.274994	145.260000
417.368622	145.380000
417.462280	145.680000
417.555908	145.920000
417.649567	146.020000
417.743195	146.140000
417.836853	146.060000
417.930481	146.160000
418.024170	146.160000
418.117767	146.500000
418.211426	146.600000
418.305054	146.560000
418.398712	146.080000
418.492340	146.120000
418.585999	146.100000
418.679626	146.300000
418.773285	146.360000
418.866913	146.840000
418.960571	146.920000
419.054230	146.980000
419.147858	146.960000
419.241516	146.920000
419.335144	146.300000
419.428802	146.020000
419.522461	145.600000
419.616089	145.120000
419.709747	145.200000
419.803375	145.760000
419.897034	145.760000
419.990662	145.840000
420.084320	146.600000
420.177979	146.580000
420.271606	146.640000
420.365295	147.100000
420.458893	147.180000
420.552582	147.260000
420.646210	147.420000
420.739868	146.960000
420.833496	146.420000
420.927155	146.000000
421.020782	145.500000
421.114471	144.820000
421.208069	144.920000
421.301758	145.300000
421.395386	145.500000
421.489044	145.320000
421.582703	145.680000
421.676361	145.960000
421.769989	145.620000
421.863647	146.080000
421.957306	146.480000
422.050934	146.840000
422.144592	146.720000
422.238251	146.260000
422.331909	145.640000
422.425537	145.040000
422.519196	144.760000
422.612854	144.360000
422.706543	144.460000
422.800140	145.140000
422.893829	144.840000
422.987457	144.560000
423.081146	144.780000
423.174744	145.500000
423.268433	144.920000
423.362061	145.180000
423.455750	145.420000
423.549347	145.500000
423.643036	144.940000
423.736664	145.400000
423.830353	145.560000
423.924011	145.760000
424.017639	145.400000
424.111298	145.240000
424.204956	144.980000
424.298615	145.140000
424.392273	144.940000
424.485931	145.320000
424.579559	145.580000
424.673218	145.420000
424.766876	145.360000
424.860535	144.940000
424.954193	144.620000
425.047882	145.240000
425.141510	145.680000
425.235199	145.820000
425.328796	145.900000
425.422485	145.960000
425.516113	145.060000
425.609802	144.700000
425.703430	144.760000
425.797119	144.760000
425.890747	145.020000
425.984436	145.400000
426.078064	145.520000
426.171753	145.440000
426.265411	145.520000
426.359070	145.540000
426.452728	145.400000
426.546356	145.220000
426.640015	144.840000
426.733673	144.960000
426.827332	144.440000
426.920990	145.260000
427.014648	144.960000
427.108307	145.380000
427.201965	146.020000
427.295624	146.320000
427.389282	145.660000
427.482941	146.080000
427.576630	146.080000
427.670258	145.260000
427.763947	145.100000
427.857574	144.820000
427.951263	144.940000
428.044922	144.660000
428.138611	144.980000
428.232239	145.780000
428.325928	146.520000
428.419556	146.720000
428.513245	146.660000
428.606903	146.720000
428.700562	146.000000
428.794220	145.300000
428.887878	144.680000
428.981537	144.820000
429.075195	144.560000
429.168854	145.140000
429.262512	145.280000
429.356201	145.600000
429.449860	145.840000
429.543518	145.840000
429.637177	146.000000
429.730835	146.100000
429.824493	145.900000
429.918182	146.080000
430.011810	145.540000
430.105530	144.600000
430.199158	144.620000
430.292847	144.620000
430.386475	144.100000
430.480164	144.380000
430.573792	144.300000
430.667511	144.160000
430.761139	144.300000
430.854828	144.900000
430.948456	145.160000
431.042145	145.780000
431.135834	145.580000
431.229492	145.700000
431.323151	145.580000
431.416809	145.400000
431.510468	145.220000
431.604156	145.460000
431.697815	145.540000
431.791473	144.880000
431.885132	144.820000
431.978821	145.380000
432.072479	145.600000
432.166138	146.080000
432.259827	146.200000
432.353485	146.500000
432.447174	146.260000
432.540802	145.940000
432.634491	145.540000
432.728149	145.860000
432.821838	146.120000
432.915466	145.460000
433.009186	145.760000
433.102814	145.020000
433.196503	144.700000
433.290131	144.700000
433.383850	145.220000
433.477509	145.140000
433.571167	146.320000
433.664856	147.120000
433.758514	147.260000
433.852173	147.600000
433.945862	147.240000
434.039520	146.920000
434.133179	145.980000
434.226868	145.660000
434.320526	145.000000
434.414185	145.680000
434.507874	145.120000
434.601562	145.500000
434.695221	145.480000
434.788910	145.740000
434.882538	145.380000
434.976257	145.360000
435.069885	145.680000
435.163574	145.760000
435.257233	145.460000
435.350922	145.160000
435.444580	144.980000
435.538269	144.780000
435.631897	145.140000
435.725616	145.580000
435.819275	146.440000
435.912964	147.320000
436.006622	147.500000
436.100311	147.020000
436.193970	146.460000
436.287628	145.860000
436.381317	145.360000
436.474976	144.880000
436.568665	144.820000
436.662323	144.960000
436.756012	144.980000
436.849670	144.380000
436.943390	144.640000
437.037018	144.420000
437.130737	144.540000
437.224365	144.780000
437.318085	145.200000
437.411713	145.040000
437.505432	145.440000
437.599060	145.860000
437.692780	146.020000
437.786407	146.280000
437.880127	146.380000
437.973755	146.260000
438.067474	145.740000
438.161133	145.560000
438.254822	145.860000
438.348480	145.620000
438.442169	146.000000
438.535828	146.380000
438.629517	146.120000
438.723175	145.500000
438.816864	145.880000
438.910553	145.480000
439.004211	145.240000
439.097900	145.060000
439.191559	145.300000
439.285248	144.480000
439.378906	144.560000
439.472626	144.700000
439.566284	144.740000
439.659973	145.060000
439.753632	145.620000
439.847321	146.260000
439.940979	146.220000
440.034698	146.620000
440.128326	145.940000
440.222046	145.620000
440.315674	144.780000
440.409393	144.940000
440.503082	144.600000
440.596741	145.380000
440.690430	145.960000
440.784088	145.880000
440.877777	145.080000
440.971466	145.080000
441.065125	144.200000
441.158813	143.680000
441.252502	143.860000
441.346161	144.400000
441.439850	144.600000
441.533539	144.700000
441.627197	145.000000
441.720886	145.140000
441.814606	145.440000
441.908234	145.680000
442.001953	146.080000
442.095612	146.180000
442.189301	146.380000
442.282959	146.280000
442.376678	145.800000
442.470306	146.160000
442.564026	145.860000
442.657684	145.720000
442.751404	145.760000
442.845032	146.540000
442.938751	145.660000
443.032440	146.100000
443.126099	145.740000
443.219788	145.840000
443.313477	145.580000
443.407166	146.280000
443.500824	145.960000
443.594513	146.600000
443.688202	146.660000
443.781891	145.980000
443.875549	145.560000
443.969238	145.720000
444.062927	145.260000
444.156647	145.040000
444.250275	145.560000
444.343994	145.580000
444.437653	145.620000
444.531372	145.540000
444.625031	145.460000
444.718719	145.220000
444.812378	145.440000
444.906097	145.320000
444.999756	144.920000
445.093445	144.900000
445.187103	145.040000
445.280823	145.700000
445.374512	145.360000
445.468201	145.800000
445.561859	145.520000
445.655548	145.620000
445.749237	144.820000
445.842926	145.060000
445.936615	145.740000
446.030304	145.580000
446.123962	145.780000
446.217651	145.740000
446.311340	145.960000
446.405029	145.160000
446.498749	145.500000
446.592407	144.920000
446.686096	145.260000
446.779755	145.280000
446.873474	145.780000
446.967133	146.080000
447.060852	146.000000
447.154510	145.740000
447.248230	145.600000
447.341858	145.480000
447.435577	144.940000
447.529236	145.040000
447.622955	144.860000
447.716644	144.860000
447.810333	144.880000
447.904022	145.540000
447.997711	145.620000
448.091400	146.200000
448.185059	146.200000
448.278748	146.080000
448.372437	145.480000
448.466125	145.760000
448.559814	145.420000
448.653503	145.540000
448.747192	145.940000
448.840912	146.520000
448.934570	146.220000
449.028290	146.380000
449.121948	146.240000
449.215637	145.760000
449.309296	145.480000
449.403015	145.720000
449.496674	145.680000
449.590393	145.980000
449.684052	145.640000
449.777771	146.140000
449.871429	145.600000
449.965149	145.480000
450.058838	145.280000
450.152527	145.860000
450.246216	145.260000
450.339905	145.280000
450.433594	144.760000
450.527283	145.440000
450.620972	145.060000
450.714661	144.940000
450.808350	145.480000
450.902039	145.920000
450.995728	145.240000
451.089417	145.020000
451.183105	145.280000
451.276794	145.480000
451.370514	144.980000
451.464172	144.400000
451.557892	144.800000
451.651550	144.760000
451.745270	144.060000
451.838928	143.880000
451.932648	144.140000
452.026306	144.480000
452.120026	144.200000
452.213684	144.620000
452.307404	144.940000
452.401062	145.240000
452.494781	145.120000
452.588470	145.360000
452.682159	145.140000
452.775848	145.500000
452.869537	144.760000
452.963226	144.400000
453.056915	144.340000
453.150604	144.600000
453.244293	144.800000
453.337982	145.800000
453.431671	146.060000
453.525360	146.800000
453.619049	146.780000
453.712769	146.440000
453.806427	145.800000
453.900146	145.480000
453.993805	144.660000
454.087555	145.000000
454.181213	145.280000
454.274933	145.280000
454.368591	145.480000
454.462311	145.220000
454.555969	144.760000
454.649689	145.440000
454.743347	145.440000
454.837067	146.060000
454.930756	147.020000
455.024445	147.040000
455.118134	146.460000
455.211853	146.660000
455.305542	145.920000
455.399231	145.360000
455.492920	145.420000
455.586609	145.480000
455.680298	145.620000
455.773987	145.520000
455.867676	145.420000
455.961365	145.680000
456.055084	145.380000
456.148773	145.240000
456.242493	145.140000
456.336151	145.280000
456.429871	145.340000
456.523529	145.820000
456.617249	145.620000
456.710907	146.420000
456.804626	146.520000
456.898315	145.840000
456.992035	145.620000
457.085693	145.580000
457.179413	144.820000
457.273102	145.340000
457.366791	145.580000
457.460480	145.940000
457.554199	146.800000
457.647888	146.920000
457.741577	146.500000
457.835266	146.640000
457.928955	146.520000
458.022644	146.340000
458.116364	146.640000
458.210052	146.800000
458.303741	146.760000
458.397461	146.140000
458.491119	145.500000
458.584839	145.560000
458.678528	144.960000
458.772247	144.860000
458.865906	145.080000
458.959625	146.080000
459.053284	146.160000
459.147003	146.380000
459.240692	147.080000
459.334412	147.020000
459.428070	146.440000
459.521790	146.140000
459.615479	146.080000
459.709198	145.940000
459.802887	145.800000
459.896576	145.700000
459.990265	145.680000
460.083954	145.880000
460.177673	145.120000
460.271362	145.120000
460.365051	145.060000
460.458740	144.800000
460.552429	144.300000
460.646149	144.420000
460.739838	144.460000
460.833527	144.640000
460.927246	144.480000
461.020905	144.640000
461.114655	144.660000
461.208313	144.860000
461.302032	144.280000
461.395691	145.120000
461.489441	145.280000
461.583099	145.460000
461.676819	144.880000
461.770477	145.580000
461.864197	144.900000
461.957916	144.860000
462.051605	144.320000
462.145294	145.760000
462.238983	145.080000
462.332703	145.620000
462.426392	146.120000
462.520081	146.540000
462.613770	145.120000
462.707489	145.240000
462.801178	145.040000
462.894867	144.480000
462.988556	144.280000
463.082275	144.760000
463.175964	144.660000
463.269684	144.700000
463.363342	144.660000
463.457092	144.220000
463.550751	144.240000
463.644470	144.480000
463.738129	144.360000
463.831879	144.560000
463.925537	145.420000
464.019257	145.700000
464.112946	145.980000
464.206665	145.840000
464.300323	145.820000
464.394043	145.660000
464.487762	145.520000
464.581451	145.720000
464.675140	145.680000
464.768829	145.860000
464.862549	145.560000
464.956238	145.660000
465.049927	145.520000
465.143646	145.660000
465.237335	145.320000
465.331024	146.260000
465.424713	146.220000
465.518433	146.100000
465.612152	146.000000
465.705811	146.300000
465.799561	145.700000
465.893219	145.660000
465.986938	145.400000
466.080597	145.180000
466.174347	145.420000
466.268005	145.520000
466.361725	145.200000
466.455414	145.440000
466.549133	145.440000
466.642792	145.480000
466.736542	144.880000
466.830231	145.060000
466.923920	145.080000
467.017609	145.360000
467.111328	144.680000
467.205017	145.040000
467.298706	145.320000
467.392426	145.240000
467.486115	145.380000
467.579803	145.320000
467.673523	146.000000
467.767212	145.820000
467.860901	146.040000
467.954651	145.940000
468.048309	146.420000
468.142029	145.860000
468.235718	145.800000
468.329437	145.400000
468.423096	145.600000
468.516846	145.220000
468.610504	144.980000
468.704224	144.780000
468.797913	144.940000
468.891632	144.880000
468.985291	145.100000
469.079010	145.260000
469.172729	145.080000
469.266418	145.300000
469.360107	145.220000
469.453827	144.940000
469.547516	144.880000
469.641205	145.360000
469.734924	145.580000
469.828613	146.020000
469.922302	146.200000
470.016022	146.400000
470.109711	146.260000
470.203430	145.700000
470.297150	144.840000
470.390808	145.340000
470.484558	144.980000
470.578217	145.500000
470.671936	145.980000
470.765625	146.960000
470.859344	146.220000
470.953003	146.980000
471.046753	146.140000
471.140411	145.420000
471.234131	145.120000
471.327820	145.880000
471.421539	145.420000
471.515228	145.240000
471.608948	145.760000
471.702637	145.360000
471.796326	144.900000
471.890045	144.880000
471.983734	145.200000
472.077423	144.680000
472.171143	145.080000
472.264832	144.740000
472.358521	144.460000
472.452240	144.040000
472.545929	144.940000
472.639648	144.840000
472.733337	145.660000
472.827057	145.880000
472.920746	146.320000
473.014465	146.140000
473.108124	146.220000
473.201874	146.120000
473.295532	145.960000
473.389252	146.500000
473.482941	146.640000
473.576660	146.280000
473.670319	146.200000
473.764069	146.620000
473.857727	146.260000
473.951477	146.380000
474.045166	146.840000
474.138855	146.480000
474.232574	146.140000
474.326263	146.380000
474.419952	146.080000
474.513672	145.900000
474.607361	145.760000
474.701050	145.940000
474.794769	145.940000
474.888458	145.900000
474.982178	145.780000
475.075867	146.000000
475.169586	145.760000
475.263275	145.400000
475.356995	145.500000
475.450653	145.260000
475.544403	144.760000
475.638062	145.680000
475.731812	145.340000
475.825470	145.140000
475.919189	145.800000
476.012878	146.360000
476.106598	145.620000
476.200256	146.260000
476.294006	146.280000
476.387695	145.980000
476.481384	145.680000
476.575104	145.980000
476.668793	145.460000
476.762512	144.860000
476.856201	145.160000
476.949890	144.780000
477.043610	144.260000
477.137299	144.380000
477.230988	145.140000
477.324707	144.420000
477.418396	145.220000
477.512146	145.600000
477.605804	145.680000
477.699524	145.580000
477.793213	145.720000
477.886932	145.380000
477.980591	144.960000
478.074341	144.800000
478.167999	144.180000
478.261749	144.560000
478.355408	144.420000
478.449127	144.920000
478.542816	145.760000
478.636536	146.660000
478.730225	146.680000
478.823944	147.220000
478.917633	146.860000
479.011322	146.740000
479.105042	146.540000
479.198730	146.560000
479.292450	146.120000
479.386139	146.500000
479.479828	146.080000
479.573547	146.420000
479.667267	146.140000
479.760925	146.220000
479.854675	146.100000
479.948334	146.460000
480.042084	145.620000
480.135742	146.020000
480.229462	145.620000
480.323151	145.520000
480.416870	144.640000
480.510529	144.700000
480.604279	144.100000
480.697937	145.140000
480.791656	144.620000
480.885345	144.860000
480.979065	145.200000
481.072754	145.820000
481.166473	145.700000
481.260132	145.940000
481.353882	146.000000
481.447540	145.500000
481.541260	145.320000
481.635010	144.880000
481.728668	144.780000
481.822388	144.720000
481.916077	145.380000
482.009796	145.040000
482.103485	145.320000
482.197205	145.820000
482.290863	146.120000
482.384613	145.780000
482.478271	145.780000
482.571991	145.400000
482.665680	145.360000
482.759399	146.020000
482.853058	146.360000
482.946808	146.380000
483.040466	146.420000
483.134216	146.300000
483.227875	145.480000
483.321594	145.760000
483.415283	145.700000
483.509003	145.680000
483.602661	145.580000
483.696411	146.160000
483.790070	145.800000
483.883789	145.720000
483.977478	146.040000
484.071198	146.200000
484.164917	145.440000
484.258606	144.900000
484.352325	145.260000
484.445984	145.260000
484.539734	145.060000
484.633392	144.720000
484.727142	145.460000
484.820801	145.240000
484.914520	145.080000
485.008209	145.260000
485.101929	146.180000
485.195587	145.900000
485.289337	145.980000
485.382996	145.940000
485.476715	145.780000
485.570404	145.920000
485.664124	145.720000
485.757782	146.080000
485.851532	145.800000
485.945190	145.580000
486.038910	145.420000
486.132599	145.900000
486.226318	145.420000
486.319977	145.540000
486.413727	146.340000
486.507446	145.560000
486.601105	144.860000
486.694855	144.920000
486.788513	144.640000
486.882233	144.180000
486.975922	144.720000
487.069641	144.960000
487.163300	144.960000
487.257050	146.360000
487.350708	146.320000
487.444427	145.820000
487.538116	145.860000
487.631836	145.820000
487.725494	144.960000
487.819214	144.800000
487.912903	145.140000
488.006622	145.420000
488.100281	145.780000
488.194031	145.880000
488.287689	146.220000
488.381409	146.880000
488.475098	146.560000
488.568817	146.600000
488.662476	146.200000
488.756226	145.840000
488.849945	144.640000
488.943604	144.960000
489.037354	144.700000
489.131012	144.940000
489.224731	145.040000
489.318390	145.480000
489.412140	145.340000
489.505798	145.460000
489.599518	145.200000
489.693207	145.460000
489.786926	145.360000
489.880585	144.840000
489.974335	144.880000
490.067993	145.780000
490.161713	145.900000
490.255371	146.620000
490.349121	147.160000
490.442780	146.920000
490.536499	146.080000
490.630188	145.900000
490.723907	145.400000
490.817566	145.520000
490.911285	145.540000
491.004974	145.580000
491.098694	145.140000
491.192413	145.720000
491.286102	145.420000
491.379822	145.540000
491.473480	145.620000
491.567200	145.880000
491.660889	145.120000
491.754608	145.380000
491.848267	145.060000
491.941986	144.880000
492.035675	145.160000
492.129395	145.660000
492.223053	145.160000
492.316772	145.560000
492.410461	145.640000
492.504181	145.100000
492.597839	144.800000
492.691559	145.100000
492.785248	144.960000
492.878967	145.380000
492.972626	145.420000
493.066345	145.680000
493.160034	145.320000
493.253754	145.340000
493.347412	144.640000
493.441132	145.180000
493.534882	145.380000
493.628540	145.980000
493.722260	146.560000
493.815918	147.080000
493.909668	147.160000
494.003326	147.420000
494.097046	147.200000
494.190704	146.540000
494.284454	146.460000
494.378113	146.280000
494.471832	145.740000
494.565491	145.620000
494.659210	145.640000
494.752899	145.660000
494.846619	145.640000
494.940277	146.120000
495.033997	146.100000
495.127686	145.960000
495.221405	145.500000
495.315063	145.400000
495.408783	145.120000
495.502441	145.160000
495.596191	145.400000
495.689850	145.600000
495.783569	146.200000
495.877228	146.020000
495.970947	145.900000
496.064697	145.840000
496.158356	146.620000
496.252075	146.200000
496.345734	146.340000
496.439453	147.100000
496.533142	147.220000
496.626862	147.380000
496.720520	147.280000
496.814240	147.380000
496.907898	146.560000
497.001617	146.460000
497.095306	145.380000
497.189026	145.120000
497.282684	144.940000
497.376404	145.460000
497.470062	145.300000
497.563782	145.740000
497.657471	146.020000
497.751190	145.880000
497.844849	145.500000
497.938568	145.720000
498.032227	145.640000
498.125946	145.500000
498.219635	145.860000
498.313354	146.060000
498.407074	145.880000
498.500732	146.180000
498.594452	146.460000
498.688110	145.720000
498.781830	145.580000
498.875519	145.260000
498.969238	145.220000
499.062897	144.860000
499.156616	145.260000
499.250275	145.240000
499.343994	145.160000
499.437653	144.700000
499.531372	145.140000
499.625061	145.760000
499.718781	146.000000
499.812439	146.540000
499.906158	146.620000
499.999817	146.320000
500.093536	145.440000
500.187195	145.560000
500.280914	145.180000
500.374573	145.400000
500.468323	145.020000
500.561981	145.560000
500.655701	144.920000
500.749420	145.120000
500.843079	145.000000
500.936798	145.440000
501.030457	145.640000
501.124176	146.220000
501.217834	146.180000
501.311554	146.140000
501.405212	145.800000
501.498962	145.200000
501.592621	145.000000
501.686340	145.580000
501.779999	145.800000
501.873718	146.320000
501.967377	146.620000
502.061096	146.820000
502.154755	146.140000
502.248474	146.160000
502.342133	146.020000
502.435852	145.600000
502.529510	146.060000
502.623230	146.760000
502.716888	146.140000
502.810608	146.300000
502.904266	146.660000
502.997986	145.980000
503.091705	145.440000
503.185364	145.420000
503.279083	145.440000
503.372772	145.400000
503.466492	144.860000
503.560150	144.860000
503.653870	145.400000
503.747528	145.240000
503.841248	145.220000
503.934906	146.080000
504.028625	145.940000
504.122284	146.240000
504.216003	146.760000
504.309662	146.640000
504.403381	146.720000
504.497040	146.760000
504.590759	146.180000
504.684418	145.980000
504.778137	146.280000
504.871796	146.200000
504.965515	146.100000
505.059174	146.400000
505.152893	145.920000
505.246521	145.300000
505.340240	144.980000
505.433899	145.620000
505.527618	145.920000
505.621338	146.240000
505.714996	146.380000
505.808716	146.240000
505.902374	146.100000
505.996094	145.720000
506.089752	145.340000
506.183472	145.820000
506.277130	146.020000
506.370850	145.980000
506.464508	145.620000
506.558228	145.720000
506.651886	145.340000
506.745605	145.240000
506.839264	145.280000
506.932983	145.900000
507.026611	146.100000
507.120331	146.660000
507.213989	146.300000
507.307709	145.820000
507.401367	145.780000
507.495087	146.580000
507.588745	146.080000
507.682465	147.100000
507.776123	147.260000
507.869843	147.200000
507.963531	146.560000
508.057190	147.240000
508.150909	146.280000
508.244568	146.540000
508.338287	146.300000
508.431946	145.880000
508.525665	145.260000
508.619324	145.540000
508.713013	145.440000
508.806671	145.720000
508.900391	146.520000
508.994049	146.600000
509.087769	146.400000
509.181427	146.500000
509.275146	146.100000
509.368774	145.480000
509.462494	145.260000
509.556152	145.480000
509.649872	145.760000
509.743530	146.080000
509.837250	146.220000
509.930878	146.280000
510.024597	146.200000
510.118256	146.120000
510.211975	145.700000
510.305695	145.420000
510.399353	146.000000
510.493042	146.600000
510.586700	146.460000
510.680420	147.320000
510.774078	147.120000
510.867798	147.020000
510.961426	146.000000
511.055145	146.120000
511.148804	145.400000
511.242523	145.900000
511.336151	145.500000
511.429871	146.240000
511.523529	145.840000
511.617249	145.800000
511.710876	145.520000
511.804596	145.120000
511.898254	144.660000
511.991974	145.060000
512.085632	145.140000
512.179321	145.440000
512.272949	146.120000
512.366699	146.620000
512.460327	146.320000
512.554077	147.260000
512.647766	146.860000
512.741394	146.780000
512.835144	147.000000
512.928772	146.840000
513.022461	146.260000
513.116150	146.180000
513.209839	146.580000
513.303467	145.940000
513.397217	145.780000
513.490845	145.440000
513.584595	145.420000
513.678223	145.080000
513.771912	144.680000
513.865601	145.100000
513.959290	144.940000
514.052917	145.100000
514.146667	145.260000
514.240295	145.960000
514.333984	146.100000
514.427673	146.260000
514.521362	146.800000
514.614990	146.320000
514.708740	146.060000
514.802368	146.080000
514.896057	146.320000
514.989746	146.680000
515.083435	146.740000
515.177124	147.420000
515.270752	147.040000
515.364502	146.960000
515.458130	146.900000
515.551819	146.820000
515.645508	146.380000
515.739197	146.760000
515.832825	146.820000
515.926575	146.080000
516.020203	146.400000
516.113892	146.740000
516.207520	146.480000
516.301270	146.380000
516.394897	146.460000
516.488586	147.060000
516.582275	146.640000
516.675964	146.180000
516.769592	145.920000
516.863281	146.620000
516.956970	146.260000
517.050659	145.980000
517.144287	146.320000
517.238037	146.520000
517.331665	145.640000
517.425354	145.180000
517.519043	145.460000
517.612732	145.740000
517.706421	145.480000
517.800049	145.660000
517.893738	145.580000
517.987427	145.440000
518.081116	145.000000
518.174744	144.860000
518.268433	145.000000
518.362122	145.880000
518.455811	145.840000
518.549438	146.620000
518.643127	147.600000
518.736816	147.340000
518.830505	146.260000
518.924133	146.140000
519.017822	146.140000
519.111511	145.780000
519.205200	146.160000
519.298828	146.680000
519.392517	146.340000
519.486206	146.360000
519.579895	146.380000
519.673523	145.920000
519.767212	145.480000
519.860901	146.400000
519.954590	145.880000
520.048279	145.560000
520.141907	145.720000
520.235596	146.660000
520.329224	146.580000
520.422974	146.740000
520.516602	146.600000
520.610291	146.360000
520.703918	145.900000
520.797607	145.420000
520.891296	145.040000
520.984985	145.360000
521.078613	146.160000
521.172302	145.500000
521.265930	146.840000
521.359680	147.460000
521.453308	147.400000
521.546997	146.880000
521.640625	147.400000
521.734314	146.160000
521.827942	146.000000
521.921692	146.040000
522.015320	146.000000
522.109009	145.720000
522.202698	145.860000
522.296326	145.800000
522.390015	145.980000
522.483704	146.140000
522.577393	146.040000
522.671021	146.120000
522.764709	145.600000
522.858337	145.780000
522.952026	145.860000
523.045654	146.300000
523.139404	146.920000
523.233032	147.700000
523.326721	147.320000
523.420349	146.880000
523.514038	146.380000
523.607666	145.940000
523.701355	145.100000
523.795044	145.040000
523.888733	145.540000
523.982361	146.240000
524.076050	145.960000
524.169678	146.620000
524.263367	146.580000
524.356995	146.220000
524.450684	145.740000
524.544373	145.640000
524.638062	145.360000
524.731750	145.420000
524.825378	145.300000
524.919067	145.200000
525.012695	145.300000
525.106384	145.000000
525.200012	145.400000
525.293701	145.380000
525.387329	145.580000
525.481018	145.920000
525.574646	146.460000
525.668396	146.180000
525.762024	146.600000
525.855713	146.720000
525.949341	146.240000
526.043030	146.340000
526.136658	146.200000
526.230347	145.680000
526.323975	145.280000
526.417664	144.980000
526.511292	144.840000
526.604980	144.840000
526.698608	144.780000
526.792297	144.920000
526.885925	145.500000
526.979614	145.620000
527.073303	145.600000
527.166931	145.700000
527.260620	146.000000
527.354309	146.380000
527.447998	146.040000
527.541626	146.060000
527.635315	146.200000
527.728943	146.720000
527.822632	146.540000
527.916260	146.440000
528.009949	146.520000
528.103577	146.280000
528.197266	145.320000
528.290894	145.280000
528.384583	145.460000
528.478210	145.180000
528.571899	145.760000
528.665527	146.500000
528.759216	146.160000
528.852844	146.700000
528.946533	146.880000
529.040161	146.840000
529.133850	146.160000
529.227478	146.640000
529.321167	146.520000
529.414856	146.840000
529.508484	146.980000
529.602173	147.020000
529.695801	146.800000
529.789490	146.480000
529.883057	146.060000
529.976746	146.220000
530.070374	146.780000
530.164062	146.860000
530.257690	147.220000
530.351379	147.340000
530.445007	146.900000
530.538696	146.140000
530.632324	146.100000
530.726013	145.660000
530.819641	145.860000
530.913330	145.820000
531.006958	146.100000
531.100647	146.300000
531.194275	146.280000
531.287964	145.880000
531.381592	145.740000
531.475220	145.560000
531.568848	145.080000
531.662537	145.120000
531.756226	145.940000
531.849854	146.020000
531.943542	146.500000
532.037170	146.240000
532.130859	146.800000
532.224487	146.140000
532.318176	145.700000
532.411804	146.220000
532.505432	146.580000
532.599060	145.980000
532.692749	146.080000
532.786377	147.080000
532.880066	146.080000
532.973694	145.780000
533.067383	145.440000
533.161011	144.980000
533.254639	144.460000
533.348267	144.340000
533.441956	144.640000
533.535583	144.920000
533.629272	145.640000
533.722900	145.420000
533.816589	145.700000
533.910156	146.040000
534.003845	145.620000
534.097534	145.560000
534.191162	146.160000
534.284851	146.480000
534.378479	145.980000
534.472107	146.420000
534.565735	145.860000
534.659424	145.860000
534.753052	145.580000
534.846741	145.060000
534.940369	145.380000
535.033997	145.680000
535.127625	145.420000
535.221313	145.960000
535.314941	146.800000
535.408630	146.400000
535.502197	146.660000
535.595886	146.360000
535.689514	145.960000
535.783203	146.040000
535.876831	146.440000
535.970459	146.320000
536.064087	146.140000
536.157776	146.020000
536.251404	145.940000
536.345093	145.720000
536.438721	145.640000
536.532349	146.120000
536.626038	146.060000
536.719666	146.260000
536.813293	145.840000
536.906921	145.840000
537.000610	146.100000
537.094238	146.240000
537.187866	145.860000
537.281494	145.740000
537.375183	145.800000
537.468811	145.280000
537.562439	145.220000
537.656067	145.380000
537.749756	145.860000
537.843384	146.580000
537.937012	146.680000
538.030640	146.640000
538.124329	146.440000
538.217896	146.640000
538.311584	145.980000
538.405212	146.060000
538.498901	146.280000
538.592468	147.080000
538.686157	146.540000
538.779785	145.920000
538.873413	145.720000
538.967102	145.480000
539.060730	144.600000
539.154358	145.160000
539.247986	145.820000
539.341675	145.920000
539.435242	145.700000
539.528931	145.980000
539.622559	145.420000
539.716187	145.560000
539.809814	145.840000
539.903503	145.960000
539.997070	145.660000
540.090759	146.280000
540.184387	146.140000
540.278015	146.040000
540.371643	146.420000
540.465332	146.480000
540.558899	145.960000
540.652588	145.940000
540.746216	145.500000
540.839844	145.540000
540.933472	145.620000
541.027100	145.400000
541.120728	145.460000
541.214417	146.180000
541.308044	146.140000
541.401672	145.980000
541.495300	146.140000
541.588928	145.980000
541.682617	145.300000
541.776184	144.980000
541.869873	145.160000
541.963440	145.200000
542.057129	145.300000
542.150757	145.380000
542.244385	145.220000
542.338013	144.840000
542.431641	144.680000
542.525269	144.340000
542.618958	144.880000
542.712524	145.140000
542.806213	145.320000
542.899780	146.060000
542.993469	145.820000
543.087036	145.440000
543.180725	145.180000
543.274292	145.500000
543.367981	145.140000
543.461548	145.740000
543.555237	145.660000
543.648926	146.260000
543.742493	146.880000
543.836182	147.000000
543.929749	146.840000
544.023437	147.020000
544.117004	146.740000
544.210693	146.060000
544.304260	145.700000
544.397949	145.700000
544.491516	146.180000
544.585205	146.300000
544.678772	146.000000
544.772461	146.760000
544.866028	146.660000
544.959717	146.360000
545.053284	145.780000
545.146973	146.320000
545.240540	145.920000
545.334229	146.320000
545.427795	146.360000
545.521423	146.720000
545.615051	146.280000
545.708679	146.420000
545.802307	146.220000
545.895935	146.380000
545.989624	146.960000
546.083191	146.800000
546.176880	146.820000
546.270447	146.420000
546.364136	146.220000
546.457703	145.620000
546.551331	145.820000
546.644958	145.820000
546.738586	146.320000
546.832214	146.160000
546.925842	146.100000
547.019409	146.240000
547.113098	145.880000
547.206665	145.500000
547.300354	145.460000
547.393921	145.740000
547.487549	145.980000
547.581177	145.920000
547.674805	146.200000
547.768433	145.740000
547.862061	145.560000
547.955627	145.200000
548.049316	145.720000
548.142883	145.760000
548.236572	146.540000
548.330139	146.780000
548.423767	146.480000
548.517456	146.380000
548.611023	146.720000
548.704651	146.100000
548.798279	146.220000
548.891907	146.920000
548.985474	146.600000
549.079163	146.360000
549.172729	146.060000
549.266357	145.620000
549.359985	145.500000
549.453613	145.080000
549.547180	144.760000
549.640869	145.760000
549.734436	145.680000
549.828064	145.700000
549.921631	145.920000
550.015320	145.600000
550.108887	145.380000
550.202515	145.320000
550.296143	144.800000
550.389771	145.260000
550.483337	145.720000
550.576965	145.380000
550.670593	145.780000
550.764221	146.240000
550.857849	145.640000
550.951477	145.000000
551.045105	144.760000
551.138672	144.580000
551.232300	144.240000
551.325928	144.820000
551.419556	145.520000
551.513123	145.740000
551.606750	145.780000
551.700378	145.920000
551.794006	145.560000
551.887573	145.260000
551.981201	145.700000
552.074768	145.340000
552.168457	145.200000
552.262024	146.180000
552.355652	146.480000
552.449219	146.900000
552.542847	147.240000
552.636475	146.940000
552.730103	146.000000
552.823669	145.740000
552.917297	145.020000
553.010864	145.120000
553.104553	145.800000
553.198181	145.620000
553.291748	146.100000
553.385376	146.260000
553.478943	146.040000
553.572571	145.860000
553.666199	146.260000
553.759827	145.620000
553.853394	145.400000
553.947021	145.220000
554.040588	145.280000
554.134216	145.240000
554.227783	146.140000
554.321411	146.840000
554.415039	146.760000
554.508667	146.540000
554.602234	146.640000
554.695862	145.700000
554.789429	145.180000
554.883057	145.420000
554.976624	145.480000
555.070251	145.360000
555.163818	145.540000
555.257507	145.580000
555.351074	145.680000
555.444702	146.620000
555.538330	146.400000
555.631897	146.640000
555.725525	146.420000
555.819092	146.300000
555.912720	144.940000
556.006287	145.560000
556.099915	145.340000
556.193481	145.500000
556.287109	145.860000
556.380676	146.120000
556.474304	145.940000
556.567871	146.360000
556.661499	146.020000
556.755066	145.800000
556.848694	146.040000
556.942261	146.040000
557.035889	145.940000
557.129517	146.280000
557.223145	146.800000
557.316711	146.700000
557.410339	146.440000
557.503906	146.220000
557.597473	146.140000
557.691040	145.480000
557.784668	145.480000
557.878296	145.480000
557.971863	145.540000
558.065491	146.000000
558.159058	145.840000
558.252686	146.660000
558.346252	147.340000
558.439880	146.800000
558.533447	146.260000
558.627075	146.140000
558.720642	145.200000
558.814270	144.420000
558.907837	144.560000
559.001465	144.180000
559.095032	144.860000
559.188660	145.280000
559.282227	144.980000
559.375854	145.980000
559.469360	146.320000
559.562988	146.540000
559.656555	146.420000
559.750183	147.080000
559.843750	146.440000
559.937378	146.500000
560.030945	146.140000
560.124573	0.000000
560.218140	0.000000
560.311707	0.000000
560.405334	0.000000
560.498901	0.000000
560.592529	0.000000
560.686096	0.000000
560.779724	0.000000
560.873291	0.000000
560.966858	0.000000
561.060425	0.000000
561.154053	0.000000
561.247620	0.000000
561.341248	0.000000
561.434814	0.000000
561.528381	0.000000
561.621948	0.000000
561.715576	0.000000
561.809143	0.000000
561.902771	0.000000
561.996277	0.000000
562.089905	0.000000
562.183472	0.000000
562.277100	0.000000
