Model Number: SPM-002-B   
Serial Number: 70087108
Firmware Version: 004.15.4
Exposure Time: 100000.000000us
Data Taken on: 11-12-2020 18:51:37.869
Wavelength	Amplitude
221.570786	0.000000
221.663406	0.000000
221.756027	0.000000
221.848648	0.000000
221.941269	0.000000
222.033905	0.000000
222.126526	0.000000
222.219162	0.000000
222.311798	0.000000
222.404419	0.000000
222.497055	0.000000
222.589676	0.000000
222.682312	0.000000
222.774933	0.000000
222.867569	0.000000
222.960205	0.000000
223.052841	0.000000
223.145462	0.000000
223.238098	0.000000
223.330734	0.000000
223.423386	0.000000
223.516022	0.000000
223.608658	0.000000
223.701309	0.000000
223.793945	0.000000
223.886581	0.000000
223.979218	0.000000
224.071869	0.000000
224.164505	0.000000
224.257156	0.000000
224.349792	0.000000
224.442444	0.000000
224.535095	0.000000
224.627747	0.000000
224.720398	0.000000
224.813034	0.000000
224.905685	0.000000
224.998337	144.860000
225.090988	144.420000
225.183640	144.280000
225.276291	144.020000
225.368942	144.840000
225.461594	145.600000
225.554245	145.940000
225.646912	145.960000
225.739578	146.760000
225.832230	146.940000
225.924896	146.080000
226.017548	146.340000
226.110199	146.660000
226.202866	146.000000
226.295532	145.540000
226.388184	145.620000
226.480850	145.400000
226.573517	145.060000
226.666168	145.300000
226.758835	145.760000
226.851501	146.180000
226.944183	146.200000
227.036850	145.960000
227.129517	145.760000
227.222183	145.560000
227.314850	145.700000
227.407516	145.860000
227.500198	146.500000
227.592865	146.180000
227.685532	145.960000
227.778214	145.660000
227.870880	146.180000
227.963562	146.480000
228.056229	147.200000
228.148926	147.120000
228.241592	147.660000
228.334274	147.160000
228.426956	146.600000
228.519638	146.340000
228.612305	146.060000
228.704987	146.100000
228.797668	146.140000
228.890350	145.900000
228.983032	145.260000
229.075714	145.880000
229.168396	145.360000
229.261108	144.860000
229.353790	145.080000
229.446472	145.620000
229.539169	145.280000
229.631851	144.800000
229.724533	145.260000
229.817230	145.540000
229.909912	146.540000
230.002609	146.520000
230.095306	146.980000
230.187988	146.680000
230.280685	146.260000
230.373383	144.960000
230.466095	145.040000
230.558792	145.160000
230.651474	145.160000
230.744171	145.060000
230.836868	144.860000
230.929581	144.820000
231.022278	144.840000
231.114975	145.120000
231.207672	145.140000
231.300369	145.760000
231.393082	146.180000
231.485779	145.780000
231.578506	145.360000
231.671204	145.420000
231.763916	145.420000
231.856613	145.240000
231.949326	145.580000
232.042023	145.680000
232.134735	145.600000
232.227448	145.060000
232.320160	145.040000
232.412872	144.780000
232.505585	145.540000
232.598297	146.140000
232.691010	146.200000
232.783722	145.980000
232.876450	146.820000
232.969162	146.440000
233.061874	145.900000
233.154587	145.880000
233.247314	146.220000
233.340027	145.340000
233.432739	145.580000
233.525467	145.520000
233.618179	145.900000
233.710907	145.600000
233.803635	146.200000
233.896347	145.960000
233.989090	146.600000
234.081818	146.540000
234.174545	147.020000
234.267258	146.280000
234.359985	146.500000
234.452713	146.060000
234.545441	145.940000
234.638168	145.400000
234.730896	146.020000
234.823639	145.800000
234.916367	146.320000
235.009094	146.460000
235.101822	146.640000
235.194580	146.640000
235.287308	146.600000
235.380051	145.840000
235.472778	146.120000
235.565521	146.160000
235.658249	145.680000
235.750992	145.440000
235.843719	145.460000
235.936462	145.500000
236.029205	145.220000
236.121948	145.240000
236.214691	145.960000
236.307449	146.560000
236.400192	146.180000
236.492935	146.340000
236.585678	146.520000
236.678421	146.060000
236.771164	145.640000
236.863907	145.920000
236.956665	146.180000
237.049408	147.760000
237.142151	147.280000
237.234909	148.240000
237.327652	148.360000
237.420410	147.920000
237.513153	146.740000
237.605927	147.040000
237.698669	146.220000
237.791428	145.660000
237.884186	146.260000
237.976944	145.760000
238.069702	146.080000
238.162445	145.640000
238.255203	145.620000
238.347961	145.620000
238.440720	145.740000
238.533478	145.320000
238.626266	145.400000
238.719025	145.920000
238.811783	145.640000
238.904541	145.360000
238.997314	145.080000
239.090073	145.100000
239.182831	145.140000
239.275604	145.940000
239.368362	145.760000
239.461136	146.000000
239.553909	145.980000
239.646667	145.720000
239.739441	145.120000
239.832214	145.640000
239.925003	146.060000
240.017761	146.720000
240.110535	147.120000
240.203308	146.820000
240.296082	146.780000
240.388855	146.460000
240.481628	146.380000
240.574417	146.360000
240.667191	146.600000
240.759964	146.160000
240.852737	146.700000
240.945526	146.260000
241.038315	146.080000
241.131088	145.900000
241.223877	146.700000
241.316650	146.120000
241.409439	146.160000
241.502228	145.620000
241.595001	146.020000
241.687790	145.580000
241.780579	145.640000
241.873367	145.940000
241.966141	146.400000
242.058929	145.660000
242.151718	145.980000
242.244507	146.420000
242.337311	145.680000
242.430099	145.980000
242.522903	146.560000
242.615692	145.780000
242.708481	145.580000
242.801270	146.320000
242.894073	146.020000
242.986862	146.000000
243.079651	147.080000
243.172455	146.920000
243.265244	146.880000
243.358063	146.280000
243.450867	146.480000
243.543655	146.180000
243.636459	146.520000
243.729263	146.540000
243.822067	147.040000
243.914856	146.960000
244.007660	146.700000
244.100464	146.260000
244.193268	146.120000
244.286072	146.200000
244.378876	145.820000
244.471680	145.680000
244.564499	145.840000
244.657318	146.280000
244.750122	146.340000
244.842926	145.720000
244.935745	146.340000
245.028549	146.220000
245.121368	145.720000
245.214172	145.640000
245.306992	146.700000
245.399796	146.160000
245.492615	146.400000
245.585434	146.360000
245.678253	146.220000
245.771072	145.780000
245.863892	146.080000
245.956711	145.840000
246.049530	145.660000
246.142349	145.380000
246.235168	145.660000
246.327988	146.140000
246.420807	146.220000
246.513626	146.480000
246.606445	146.800000
246.699280	146.680000
246.792099	146.460000
246.884918	146.120000
246.977753	145.900000
247.070587	145.840000
247.163422	145.640000
247.256241	145.480000
247.349075	145.900000
247.441895	146.160000
247.534729	146.280000
247.627563	146.320000
247.720383	146.420000
247.813217	146.180000
247.906052	146.100000
247.998886	145.860000
248.091736	146.020000
248.184570	145.860000
248.277405	146.520000
248.370239	147.440000
248.463074	148.600000
248.555908	148.780000
248.648743	148.820000
248.741592	148.320000
248.834427	147.600000
248.927261	146.320000
249.020111	146.620000
249.112946	147.000000
249.205795	146.980000
249.298630	146.960000
249.391495	147.020000
249.484344	146.340000
249.577179	145.960000
249.670029	146.060000
249.762878	146.380000
249.855728	146.660000
249.948563	146.860000
250.041412	146.480000
250.134262	146.380000
250.227112	146.440000
250.319962	146.500000
250.412827	146.720000
250.505692	146.420000
250.598541	146.420000
250.691391	145.880000
250.784241	146.040000
250.877106	146.200000
250.969955	146.440000
251.062805	146.980000
251.155670	147.680000
251.248520	147.420000
251.341385	147.420000
251.434235	147.540000
251.527100	147.140000
251.619965	146.320000
251.712814	147.160000
251.805695	146.740000
251.898560	146.620000
251.991425	147.000000
252.084290	147.600000
252.177155	146.620000
252.270020	146.280000
252.362885	146.520000
252.455750	146.000000
252.548615	145.580000
252.641479	145.840000
252.734360	145.940000
252.827240	145.580000
252.920105	145.960000
253.012970	145.800000
253.105850	145.620000
253.198715	145.580000
253.291595	145.760000
253.384460	145.260000
253.477341	145.580000
253.570221	145.940000
253.663086	146.000000
253.755966	146.640000
253.848846	146.780000
253.941727	146.740000
254.034592	146.620000
254.127472	146.480000
254.220367	146.340000
254.313248	146.620000
254.406128	146.100000
254.499008	146.060000
254.591904	146.740000
254.684784	147.140000
254.777664	147.000000
254.870544	147.020000
254.963440	147.000000
255.056335	146.940000
255.149216	146.140000
255.242111	146.360000
255.334991	146.940000
255.427887	146.840000
255.520767	146.840000
255.613663	147.000000
255.706558	146.480000
255.799438	145.980000
255.892334	145.600000
255.985229	145.240000
256.078125	145.240000
256.171021	145.460000
256.263916	146.060000
256.356812	146.580000
256.449707	146.820000
256.542603	146.560000
256.635498	147.120000
256.728394	146.760000
256.821289	146.500000
256.914215	146.580000
257.007080	147.000000
257.100006	146.680000
257.192932	147.200000
257.285828	147.620000
257.378723	147.160000
257.471619	146.660000
257.564545	146.400000
257.657440	146.380000
257.750336	146.340000
257.843262	146.200000
257.936157	147.460000
258.029053	147.740000
258.121979	147.340000
258.214874	146.860000
258.307800	147.120000
258.400696	145.940000
258.493622	145.940000
258.586517	145.200000
258.679443	145.620000
258.772339	145.340000
258.865265	145.340000
258.958160	144.640000
259.051086	145.740000
259.144012	145.780000
259.236938	146.760000
259.329834	147.020000
259.422791	147.100000
259.515717	146.400000
259.608612	145.780000
259.701538	145.520000
259.794464	145.400000
259.887390	145.620000
259.980316	145.780000
260.073212	145.920000
260.166138	145.080000
260.259064	145.480000
260.351990	145.900000
260.444916	145.860000
260.537842	146.180000
260.630768	146.980000
260.723694	146.520000
260.816620	146.220000
260.909546	146.220000
261.002472	146.100000
261.095398	145.580000
261.188354	145.520000
261.281281	145.340000
261.374207	145.420000
261.467133	145.880000
261.560089	146.280000
261.653015	146.420000
261.745972	147.000000
261.838867	147.340000
261.931824	147.480000
262.024780	146.780000
262.117706	147.140000
262.210663	147.080000
262.303589	146.880000
262.396515	146.580000
262.489471	147.780000
262.582397	147.400000
262.675354	146.900000
262.768280	147.000000
262.861237	146.960000
262.954163	146.460000
263.047119	146.600000
263.140045	146.380000
263.233002	146.240000
263.325958	146.260000
263.418884	145.780000
263.511841	145.680000
263.604797	146.040000
263.697723	146.520000
263.790680	146.580000
263.883636	147.460000
263.976593	147.420000
264.069550	147.460000
264.162476	146.620000
264.255463	146.520000
264.348419	145.700000
264.441376	146.020000
264.534332	145.720000
264.627289	146.320000
264.720245	146.740000
264.813202	146.440000
264.906158	146.260000
264.999115	147.020000
265.092072	146.500000
265.185028	146.580000
265.277985	147.060000
265.370941	147.060000
265.463898	146.540000
265.556854	146.460000
265.649811	145.680000
265.742798	145.560000
265.835754	145.180000
265.928711	145.660000
266.021667	145.880000
266.114655	146.420000
266.207611	146.800000
266.300568	146.540000
266.393585	145.900000
266.486511	146.060000
266.579498	145.260000
266.672485	144.940000
266.765442	145.180000
266.858429	145.820000
266.951385	145.460000
267.044342	145.560000
267.137329	145.980000
267.230316	146.460000
267.323273	145.740000
267.416260	146.620000
267.509216	146.700000
267.602203	146.060000
267.695160	146.260000
267.788147	146.600000
267.881134	146.020000
267.974091	146.240000
268.067078	146.340000
268.160065	145.860000
268.253052	145.900000
268.346008	146.100000
268.438995	145.840000
268.531982	146.260000
268.624969	146.260000
268.717987	146.460000
268.810944	146.180000
268.903961	146.440000
268.996948	145.900000
269.089905	146.360000
269.182892	146.140000
269.275879	146.400000
269.368866	145.880000
269.461853	146.060000
269.554871	145.540000
269.647858	145.720000
269.740845	146.140000
269.833832	146.740000
269.926819	146.620000
270.019806	146.780000
270.112793	146.240000
270.205811	145.760000
270.298798	145.360000
270.391785	145.820000
270.484772	145.620000
270.577789	145.780000
270.670776	145.500000
270.763763	145.520000
270.856750	145.620000
270.949768	145.740000
271.042786	145.940000
271.135773	146.040000
271.228790	146.440000
271.321808	146.000000
271.414795	145.820000
271.507782	145.540000
271.600800	145.540000
271.693817	145.660000
271.786804	146.160000
271.879822	146.520000
271.972809	146.620000
272.065826	147.100000
272.158844	146.440000
272.251831	146.600000
272.344849	146.100000
272.437866	145.860000
272.530853	145.600000
272.623871	146.100000
272.716888	145.180000
272.809906	145.600000
272.902893	145.360000
272.995911	144.800000
273.088928	144.600000
273.181946	144.860000
273.274963	144.620000
273.367981	145.000000
273.460999	145.480000
273.554047	146.080000
273.647003	146.560000
273.740051	146.880000
273.833069	146.760000
273.926086	146.820000
274.019135	146.320000
274.112152	145.860000
274.205170	145.840000
274.298187	146.520000
274.391205	146.040000
274.484222	146.040000
274.577240	146.260000
274.670258	146.000000
274.763306	145.740000
274.856323	146.000000
274.949341	146.120000
275.042358	146.500000
275.135406	146.580000
275.228424	146.560000
275.321442	146.580000
275.414490	146.060000
275.507507	146.060000
275.600525	146.660000
275.693573	146.360000
275.786591	146.340000
275.879669	146.780000
275.972656	146.180000
276.065735	145.540000
276.158752	146.100000
276.251801	146.660000
276.344818	146.760000
276.437866	147.160000
276.530884	147.120000
276.623932	146.240000
276.716980	145.880000
276.809998	146.120000
276.903046	145.920000
276.996094	146.760000
277.089111	147.680000
277.182159	148.240000
277.275208	147.640000
277.368256	147.520000
277.461304	146.780000
277.554321	145.880000
277.647369	145.560000
277.740417	145.580000
277.833466	145.460000
277.926514	145.520000
278.019562	146.300000
278.112610	145.740000
278.205688	146.120000
278.298706	146.500000
278.391785	146.100000
278.484833	145.620000
278.577881	145.420000
278.670929	145.220000
278.763977	144.980000
278.857025	145.520000
278.950073	145.820000
279.043121	145.900000
279.136169	145.880000
279.229248	145.640000
279.322296	145.520000
279.415344	145.040000
279.508392	145.020000
279.601440	144.820000
279.694519	144.940000
279.787567	144.840000
279.880615	144.800000
279.973694	144.840000
280.066742	145.120000
280.159790	145.200000
280.252869	144.920000
280.345917	145.260000
280.438995	145.120000
280.532074	145.220000
280.625122	145.400000
280.718201	146.580000
280.811279	146.840000
280.904327	146.720000
280.997406	146.600000
281.090454	146.580000
281.183533	145.640000
281.276581	145.320000
281.369659	145.400000
281.462738	145.440000
281.555786	145.640000
281.648865	145.660000
281.741943	145.580000
281.835022	146.540000
281.928070	146.600000
282.021149	146.160000
282.114227	146.220000
282.207306	146.040000
282.300385	146.020000
282.393433	145.960000
282.486511	146.060000
282.579590	146.420000
282.672668	147.020000
282.765747	146.440000
282.858856	146.400000
282.951904	146.640000
283.045013	146.600000
283.138062	146.700000
283.231171	147.140000
283.324249	147.320000
283.417328	147.140000
283.510406	146.700000
283.603485	146.280000
283.696564	145.660000
283.789642	145.560000
283.882751	145.700000
283.975830	146.300000
284.068909	146.120000
284.161987	147.080000
284.255066	146.800000
284.348175	146.720000
284.441254	146.340000
284.534332	146.820000
284.627441	146.180000
284.720520	145.940000
284.813599	145.880000
284.906708	145.840000
284.999786	145.220000
285.092896	144.980000
285.185974	146.120000
285.279053	145.480000
285.372192	145.580000
285.465240	146.260000
285.558380	146.240000
285.651459	145.640000
285.744568	146.740000
285.837677	146.580000
285.930756	146.380000
286.023865	146.300000
286.116943	145.820000
286.210052	145.700000
286.303162	145.820000
286.396240	145.800000
286.489349	146.020000
286.582458	146.780000
286.675568	146.460000
286.768646	146.580000
286.861755	147.160000
286.954865	147.840000
287.047974	147.140000
287.141083	147.200000
287.234161	146.880000
287.327271	145.980000
287.420380	146.020000
287.513519	146.060000
287.606598	146.060000
287.699738	146.400000
287.792816	146.440000
287.885956	145.960000
287.979034	145.980000
288.072174	145.860000
288.165283	145.760000
288.258392	145.980000
288.351501	145.620000
288.444611	145.960000
288.537720	146.500000
288.630859	146.460000
288.723969	146.540000
288.817078	147.040000
288.910187	146.800000
289.003296	145.920000
289.096436	145.400000
289.189545	145.300000
289.282654	144.800000
289.375763	145.300000
289.468903	146.160000
289.562012	146.580000
289.655121	146.680000
289.748260	146.780000
289.841400	146.940000
289.934509	146.660000
290.027649	146.600000
290.120728	146.240000
290.213898	146.300000
290.306976	145.620000
290.400146	145.560000
290.493256	145.240000
290.586395	145.400000
290.679535	146.020000
290.772644	145.840000
290.865784	145.180000
290.958893	145.420000
291.052032	145.300000
291.145172	144.940000
291.238281	144.900000
291.331421	145.540000
291.424561	145.840000
291.517670	145.780000
291.610809	146.000000
291.703949	146.260000
291.797089	146.140000
291.890228	145.760000
291.983337	145.760000
292.076477	145.220000
292.169617	145.560000
292.262756	145.440000
292.355927	145.520000
292.449036	145.400000
292.542206	145.760000
292.635315	145.820000
292.728485	146.260000
292.821625	146.060000
292.914764	147.100000
293.007904	146.940000
293.101044	146.820000
293.194183	146.640000
293.287323	146.940000
293.380463	146.500000
293.473602	146.420000
293.566742	146.320000
293.659882	146.480000
293.753021	146.480000
293.846191	146.300000
293.939331	146.100000
294.032471	145.740000
294.125610	145.500000
294.218781	145.880000
294.311920	146.300000
294.405060	146.440000
294.498230	146.860000
294.591370	146.940000
294.684540	146.280000
294.777679	145.620000
294.870850	145.940000
294.963959	145.680000
295.057159	145.540000
295.150299	146.300000
295.243469	146.360000
295.336609	145.660000
295.429779	145.820000
295.522919	146.100000
295.616089	145.960000
295.709229	146.500000
295.802399	146.900000
295.895569	146.800000
295.988708	146.580000
296.081879	146.280000
296.175018	145.620000
296.268188	145.620000
296.361359	146.100000
296.454529	146.460000
296.547668	146.440000
296.640839	146.980000
296.734009	146.600000
296.827179	146.560000
296.920319	146.500000
297.013519	146.420000
297.106659	146.280000
297.199860	146.360000
297.292999	146.040000
297.386200	145.500000
297.479309	145.400000
297.572510	145.280000
297.665680	145.240000
297.758850	145.360000
297.852020	145.380000
297.945190	145.240000
298.038361	144.600000
298.131531	145.540000
298.224701	145.200000
298.317871	145.180000
298.411072	144.800000
298.504242	145.240000
298.597412	144.640000
298.690582	144.940000
298.783752	145.040000
298.876923	145.920000
298.970093	146.060000
299.063293	146.500000
299.156464	146.820000
299.249634	147.120000
299.342834	147.300000
299.436005	147.680000
299.529205	147.480000
299.622345	147.260000
299.715576	146.440000
299.808716	145.960000
299.901917	145.720000
299.995117	145.700000
300.088287	146.060000
300.181488	146.140000
300.274658	145.860000
300.367828	145.760000
300.461029	145.500000
300.554199	145.340000
300.647400	145.720000
300.740601	146.480000
300.833771	146.300000
300.926971	146.720000
301.020142	146.000000
301.113342	145.740000
301.206512	145.520000
301.299713	145.840000
301.392914	145.580000
301.486084	146.200000
301.579285	146.420000
301.672516	146.740000
301.765686	146.620000
301.858887	146.600000
301.952057	146.600000
302.045288	146.580000
302.138458	146.300000
302.231659	146.180000
302.324860	146.220000
302.418060	145.980000
302.511261	146.260000
302.604462	146.380000
302.697662	146.320000
302.790863	146.160000
302.884064	145.600000
302.977264	145.280000
303.070465	145.400000
303.163666	146.000000
303.256866	146.240000
303.350067	146.640000
303.443268	146.920000
303.536469	147.040000
303.629669	146.680000
303.722870	146.740000
303.816071	146.600000
303.909271	146.580000
304.002472	145.400000
304.095673	145.120000
304.188934	144.420000
304.282104	145.160000
304.375336	145.040000
304.468506	145.700000
304.561768	145.680000
304.654968	146.320000
304.748169	145.900000
304.841370	145.880000
304.934601	146.020000
305.027802	145.920000
305.121002	145.680000
305.214233	145.540000
305.307434	145.420000
305.400665	145.920000
305.493866	145.860000
305.587097	146.020000
305.680298	146.040000
305.773499	146.960000
305.866730	146.420000
305.959930	147.060000
306.053162	147.100000
306.146393	146.960000
306.239594	145.600000
306.332825	145.620000
306.426025	145.580000
306.519287	144.860000
306.612488	144.820000
306.705719	145.360000
306.798920	145.680000
306.892181	145.060000
306.985352	145.280000
307.078613	144.800000
307.171844	145.060000
307.265045	144.340000
307.358276	143.980000
307.451508	144.380000
307.544739	145.300000
307.637970	144.720000
307.731201	144.900000
307.824402	146.000000
307.917633	146.240000
308.010864	146.460000
308.104095	147.000000
308.197327	147.400000
308.290558	147.440000
308.383789	146.960000
308.477020	146.460000
308.570251	145.660000
308.663483	145.080000
308.756714	144.520000
308.849976	144.460000
308.943176	145.120000
309.036438	145.180000
309.129639	145.220000
309.222900	145.340000
309.316101	145.340000
309.409393	144.560000
309.502625	144.560000
309.595856	144.540000
309.689087	144.580000
309.782318	144.880000
309.875580	145.020000
309.968811	145.240000
310.062042	145.140000
310.155273	144.980000
310.248535	145.420000
310.341766	145.200000
310.434998	145.360000
310.528259	145.140000
310.621490	145.480000
310.714722	144.780000
310.807983	144.800000
310.901215	144.640000
310.994476	145.200000
311.087708	144.920000
311.181000	145.360000
311.274200	145.060000
311.367462	145.260000
311.460693	144.900000
311.553986	145.580000
311.647186	145.540000
311.740479	146.500000
311.833710	146.300000
311.926971	146.340000
312.020203	145.340000
312.113464	145.160000
312.206726	144.500000
312.299957	144.760000
312.393219	145.100000
312.486481	145.460000
312.579712	145.480000
312.672974	145.440000
312.766235	145.340000
312.859497	145.480000
312.952759	145.300000
313.045990	145.900000
313.139252	145.660000
313.232513	145.840000
313.325775	145.820000
313.419037	145.980000
313.512299	145.080000
313.605530	145.900000
313.698822	145.900000
313.792053	145.700000
313.885345	145.260000
313.978577	145.500000
314.071869	144.820000
314.165131	144.740000
314.258392	144.980000
314.351654	145.220000
314.444916	144.700000
314.538177	145.440000
314.631439	145.940000
314.724701	145.860000
314.817993	145.800000
314.911255	146.180000
315.004517	145.640000
315.097778	145.160000
315.191040	145.340000
315.284302	145.740000
315.377594	145.320000
315.470856	145.320000
315.564117	145.020000
315.657379	144.520000
315.750671	144.240000
315.843933	145.080000
315.937195	144.780000
316.030518	144.780000
316.123749	145.000000
316.217041	145.780000
316.310303	145.540000
316.403595	145.940000
316.496857	146.180000
316.590149	146.420000
316.683411	145.740000
316.776703	145.480000
316.869965	145.400000
316.963257	145.240000
317.056519	144.680000
317.149811	144.500000
317.243073	144.740000
317.336365	144.640000
317.429626	144.860000
317.522919	145.540000
317.616180	145.700000
317.709473	145.240000
317.802765	145.480000
317.896027	145.300000
317.989319	145.240000
318.082611	145.160000
318.175873	145.260000
318.269165	145.220000
318.362488	145.300000
318.455750	144.900000
318.549042	145.320000
318.642303	146.040000
318.735626	145.840000
318.828888	146.100000
318.922211	145.980000
319.015472	146.420000
319.108765	145.640000
319.202057	145.520000
319.295349	145.860000
319.388641	146.000000
319.481934	145.280000
319.575226	145.560000
319.668518	145.940000
319.761810	145.560000
319.855103	145.340000
319.948395	145.520000
320.041687	145.680000
320.134979	145.480000
320.228271	145.300000
320.321564	145.340000
320.414856	145.120000
320.508148	144.800000
320.601440	144.860000
320.694763	144.880000
320.788025	145.740000
320.881348	145.980000
320.974640	146.100000
321.067963	145.480000
321.161224	145.520000
321.254547	144.560000
321.347839	145.000000
321.441162	144.860000
321.534454	145.480000
321.627747	145.600000
321.721069	146.400000
321.814362	146.520000
321.907654	146.500000
322.000946	146.560000
322.094269	147.000000
322.187561	146.360000
322.280884	146.180000
322.374176	146.400000
322.467468	146.900000
322.560791	146.460000
322.654083	147.000000
322.747406	146.800000
322.840698	147.040000
322.934021	146.800000
323.027344	146.980000
323.120636	146.500000
323.213959	146.740000
323.307251	146.100000
323.400574	145.780000
323.493866	145.360000
323.587219	145.760000
323.680511	145.820000
323.773834	146.240000
323.867157	146.360000
323.960449	146.700000
324.053772	146.360000
324.147095	145.660000
324.240387	146.160000
324.333710	146.020000
324.427032	146.020000
324.520355	146.040000
324.613647	146.300000
324.706970	145.840000
324.800293	145.980000
324.893616	146.040000
324.986938	146.640000
325.080231	146.420000
325.173553	146.680000
325.266876	147.080000
325.360199	146.900000
325.453522	146.040000
325.546875	146.040000
325.640167	145.960000
325.733521	145.560000
325.826813	145.860000
325.920166	145.980000
326.013489	145.860000
326.106812	145.040000
326.200134	144.840000
326.293457	144.140000
326.386780	144.280000
326.480103	144.000000
326.573425	144.240000
326.666748	144.560000
326.760071	145.200000
326.853424	145.300000
326.946747	145.580000
327.040070	146.400000
327.133392	145.960000
327.226715	145.580000
327.320068	145.180000
327.413391	145.880000
327.506714	144.960000
327.600037	145.100000
327.693390	145.000000
327.786713	145.220000
327.880066	144.940000
327.973358	145.660000
328.066742	146.140000
328.160034	146.440000
328.253418	146.760000
328.346710	146.480000
328.440063	145.720000
328.533417	145.320000
328.626740	145.820000
328.720093	145.360000
328.813416	145.340000
328.906769	145.760000
329.000092	145.780000
329.093445	145.000000
329.186768	144.920000
329.280121	145.380000
329.373444	145.740000
329.466797	145.720000
329.560120	146.040000
329.653473	146.580000
329.746796	145.940000
329.840149	145.600000
329.933502	145.720000
330.026825	145.480000
330.120178	144.920000
330.213562	145.020000
330.306854	144.740000
330.400238	144.680000
330.493561	144.520000
330.586945	145.240000
330.680237	145.480000
330.773621	146.000000
330.866974	146.020000
330.960327	146.300000
331.053680	145.860000
331.147003	145.940000
331.240356	145.920000
331.333710	145.960000
331.427063	145.720000
331.520416	145.560000
331.613770	145.320000
331.707123	145.260000
331.800476	145.160000
331.893829	146.100000
331.987152	146.360000
332.080505	146.420000
332.173859	146.200000
332.267212	145.820000
332.360565	144.980000
332.453918	144.700000
332.547333	144.680000
332.640656	144.840000
332.734039	145.420000
332.827362	145.400000
332.920746	146.100000
333.014069	146.480000
333.107452	146.700000
333.200806	146.560000
333.294159	146.700000
333.387543	146.020000
333.480896	145.360000
333.574249	145.220000
333.667603	145.040000
333.760956	145.380000
333.854340	145.420000
333.947693	145.620000
334.041046	145.580000
334.134430	145.760000
334.227783	145.040000
334.321136	145.360000
334.414520	145.000000
334.507874	145.040000
334.601227	145.020000
334.694611	145.380000
334.787964	145.120000
334.881348	146.020000
334.974701	145.880000
335.068085	145.580000
335.161438	145.820000
335.254822	145.780000
335.348175	145.360000
335.441559	145.020000
335.534943	145.600000
335.628296	145.300000
335.721680	145.560000
335.815033	145.700000
335.908417	145.920000
336.001770	145.860000
336.095154	145.900000
336.188538	145.360000
336.281891	145.000000
336.375275	145.080000
336.468658	144.580000
336.562012	144.980000
336.655396	145.800000
336.748779	146.180000
336.842133	146.000000
336.935516	146.620000
337.028900	145.940000
337.122284	145.700000
337.215637	145.660000
337.309021	145.880000
337.402435	145.240000
337.495789	145.400000
337.589203	145.180000
337.682526	145.020000
337.775940	145.540000
337.869324	145.940000
337.962708	145.800000
338.056091	146.280000
338.149475	145.880000
338.242859	145.320000
338.336243	145.160000
338.429626	145.380000
338.523010	145.100000
338.616394	145.380000
338.709778	145.600000
338.803162	145.860000
338.896545	145.760000
338.989929	145.460000
339.083313	145.740000
339.176697	145.700000
339.270081	145.480000
339.363464	145.960000
339.456848	146.360000
339.550232	145.860000
339.643616	145.580000
339.737030	145.580000
339.830383	145.040000
339.923828	145.020000
340.017181	145.500000
340.110596	145.760000
340.203949	145.780000
340.297363	145.740000
340.390778	145.640000
340.484161	145.400000
340.577545	145.460000
340.670959	145.420000
340.764343	145.440000
340.857727	145.340000
340.951111	144.800000
341.044525	144.920000
341.137909	144.500000
341.231293	144.420000
341.324707	143.980000
341.418091	144.900000
341.511505	144.820000
341.604889	145.500000
341.698303	145.720000
341.791687	145.940000
341.885071	145.380000
341.978485	144.980000
342.071899	145.100000
342.165283	145.380000
342.258698	145.780000
342.352081	146.180000
342.445496	146.900000
342.538879	146.300000
342.632324	145.840000
342.725708	145.620000
342.819122	145.360000
342.912506	144.760000
343.005920	144.800000
343.099335	145.840000
343.192719	145.620000
343.286133	145.680000
343.379547	145.920000
343.472931	146.160000
343.566345	145.320000
343.659760	145.560000
343.753143	145.040000
343.846558	144.760000
343.939972	144.780000
344.033386	145.300000
344.126770	145.220000
344.220184	145.800000
344.313599	146.020000
344.407043	145.740000
344.500427	144.900000
344.593872	145.400000
344.687225	144.860000
344.780670	144.440000
344.874054	144.520000
344.967499	145.300000
345.060913	145.080000
345.154327	145.500000
345.247742	145.620000
345.341156	145.940000
345.434570	145.340000
345.527985	145.240000
345.621399	145.500000
345.714813	145.580000
345.808228	145.520000
345.901642	145.620000
345.995056	145.480000
346.088470	145.460000
346.181885	145.420000
346.275299	144.920000
346.368713	144.800000
346.462128	144.880000
346.555573	144.660000
346.648987	145.000000
346.742401	145.180000
346.835815	145.800000
346.929260	145.380000
347.022644	145.380000
347.116119	145.400000
347.209503	145.740000
347.302948	146.400000
347.396362	147.080000
347.489807	147.300000
347.583221	147.780000
347.676636	147.260000
347.770050	145.880000
347.863495	145.300000
347.956909	145.000000
348.050323	144.300000
348.143768	144.600000
348.237183	144.800000
348.330597	145.340000
348.424042	146.020000
348.517456	146.600000
348.610901	146.740000
348.704315	146.640000
348.797760	145.860000
348.891174	145.000000
348.984619	144.280000
349.078033	144.500000
349.171448	145.000000
349.264923	145.300000
349.358337	145.480000
349.451782	145.520000
349.545197	144.960000
349.638641	144.300000
349.732086	144.180000
349.825500	144.640000
349.918945	144.440000
350.012390	145.020000
350.105804	145.720000
350.199249	145.980000
350.292664	145.940000
350.386108	146.640000
350.479553	146.860000
350.572968	146.660000
350.666412	146.800000
350.759857	146.580000
350.853302	146.660000
350.946716	146.000000
351.040161	145.820000
351.133606	145.660000
351.227081	145.600000
351.320465	145.960000
351.413940	146.120000
351.507355	146.520000
351.600830	146.820000
351.694244	146.560000
351.787720	146.020000
351.881104	146.140000
351.974579	145.740000
352.067993	146.120000
352.161469	146.360000
352.254883	145.800000
352.348358	145.540000
352.441803	145.700000
352.535248	145.400000
352.628693	146.020000
352.722137	146.140000
352.815582	146.540000
352.909027	146.500000
353.002472	145.840000
353.095917	145.120000
353.189362	145.520000
353.282806	145.240000
353.376251	145.140000
353.469696	145.220000
353.563141	145.800000
353.656586	145.440000
353.750061	145.060000
353.843475	144.960000
353.936981	145.720000
354.030396	145.280000
354.123871	145.520000
354.217285	146.640000
354.310760	146.800000
354.404175	146.380000
354.497681	146.200000
354.591095	146.240000
354.684570	145.160000
354.777985	144.980000
354.871490	144.560000
354.964935	145.140000
355.058380	145.020000
355.151855	144.900000
355.245300	145.460000
355.338745	145.980000
355.432220	145.500000
355.525665	145.220000
355.619110	145.800000
355.712585	145.300000
355.806030	145.020000
355.899475	144.860000
355.992950	145.360000
356.086426	145.540000
356.179871	145.720000
356.273346	145.860000
356.366791	145.960000
356.460266	145.880000
356.553711	145.480000
356.647186	145.140000
356.740631	144.980000
356.834106	144.840000
356.927551	144.940000
357.021027	145.040000
357.114471	145.300000
357.207947	145.220000
357.301422	145.700000
357.394867	145.620000
357.488342	145.660000
357.581818	145.720000
357.675262	146.240000
357.768738	145.780000
357.862213	145.160000
357.955658	145.120000
358.049133	144.940000
358.142609	144.960000
358.236053	145.160000
358.329529	145.440000
358.423035	145.780000
358.516449	145.860000
358.609955	146.060000
358.703400	146.840000
358.796906	147.040000
358.890350	146.500000
358.983826	146.720000
359.077271	145.860000
359.170776	144.960000
359.264221	144.660000
359.357727	144.940000
359.451172	145.000000
359.544647	145.440000
359.638123	145.360000
359.731598	145.720000
359.825073	146.000000
359.918549	145.860000
360.012024	145.800000
360.105499	145.700000
360.198975	145.740000
360.292450	145.160000
360.385925	145.000000
360.479401	144.720000
360.572876	145.000000
360.666351	145.180000
360.759857	145.300000
360.853302	145.380000
360.946808	144.940000
361.040253	145.020000
361.133759	144.680000
361.227203	144.860000
361.320709	144.600000
361.414154	145.400000
361.507660	145.600000
361.601105	145.920000
361.694641	146.400000
361.788086	146.180000
361.881592	146.580000
361.975067	146.220000
362.068542	146.400000
362.162018	146.260000
362.255524	146.240000
362.348999	145.580000
362.442474	145.940000
362.535950	145.080000
362.629456	144.780000
362.722931	144.960000
362.816406	145.560000
362.909882	145.680000
363.003387	145.740000
363.096863	145.880000
363.190338	146.080000
363.283875	145.780000
363.377319	145.420000
363.470825	146.300000
363.564301	145.740000
363.657806	146.040000
363.751282	145.880000
363.844788	146.500000
363.938232	145.800000
364.031769	146.400000
364.125214	146.160000
364.218750	146.520000
364.312225	145.680000
364.405731	145.900000
364.499207	145.480000
364.592712	145.380000
364.686188	145.160000
364.779694	145.220000
364.873169	145.240000
364.966675	145.280000
365.060150	145.280000
365.153656	145.440000
365.247131	145.620000
365.340637	145.640000
365.434143	146.240000
365.527618	146.520000
365.621155	145.840000
365.714600	145.920000
365.808136	145.940000
365.901611	144.840000
365.995117	144.360000
366.088593	144.720000
366.182129	144.600000
366.275604	144.700000
366.369110	145.180000
366.462585	145.380000
366.556122	146.160000
366.649567	146.200000
366.743103	146.140000
366.836609	146.060000
366.930115	146.280000
367.023590	145.820000
367.117096	145.800000
367.210602	145.620000
367.304108	146.200000
367.397614	146.840000
367.491119	146.900000
367.584595	146.940000
367.678101	147.280000
367.771606	146.760000
367.865112	146.040000
367.958649	145.300000
368.052124	145.320000
368.145660	145.100000
368.239136	145.640000
368.332672	145.580000
368.426147	146.020000
368.519684	145.820000
368.613159	146.180000
368.706696	145.820000
368.800171	145.840000
368.893707	145.960000
368.987183	146.180000
369.080719	145.720000
369.174225	145.580000
369.267731	145.940000
369.361237	145.680000
369.454742	145.420000
369.548248	145.980000
369.641754	145.660000
369.735260	145.180000
369.828766	144.820000
369.922272	145.560000
370.015808	145.120000
370.109314	145.100000
370.202820	145.000000
370.296356	146.120000
370.389832	145.500000
370.483368	144.980000
370.576874	145.100000
370.670410	145.480000
370.763885	144.160000
370.857422	144.300000
370.950928	144.700000
371.044464	145.360000
371.137939	145.400000
371.231476	146.160000
371.324982	146.700000
371.418518	146.760000
371.512024	146.600000
371.605560	146.400000
371.699066	146.500000
371.792572	145.920000
371.886108	146.520000
371.979614	146.180000
372.073120	146.620000
372.166656	146.520000
372.260162	146.680000
372.353668	145.940000
372.447205	145.860000
372.540710	145.520000
372.634277	145.120000
372.727753	145.000000
372.821320	145.300000
372.914795	145.420000
373.008362	145.200000
373.101837	145.640000
373.195404	145.540000
373.288879	145.620000
373.382446	146.440000
373.475922	146.660000
373.569489	147.240000
373.662964	147.620000
373.756531	147.240000
373.850037	146.820000
373.943573	146.740000
374.037109	145.540000
374.130615	145.540000
374.224152	145.760000
374.317657	145.400000
374.411194	146.180000
374.504730	146.340000
374.598236	145.900000
374.691772	145.760000
374.785309	145.600000
374.878815	144.280000
374.972351	144.680000
375.065887	144.860000
375.159454	145.400000
375.252930	145.320000
375.346497	145.920000
375.440002	146.260000
375.533569	146.040000
375.627045	145.100000
375.720612	145.520000
375.814117	145.580000
375.907684	144.920000
376.001160	144.700000
376.094727	144.720000
376.188232	145.220000
376.281799	145.460000
376.375336	145.500000
376.468872	146.600000
376.562408	146.900000
376.655914	146.300000
376.749451	146.420000
376.842987	146.700000
376.936523	145.840000
377.030060	145.900000
377.123596	146.180000
377.217133	145.480000
377.310669	145.380000
377.404205	146.020000
377.497772	146.500000
377.591278	146.220000
377.684845	147.040000
377.778351	147.340000
377.871918	147.020000
377.965424	146.000000
378.058990	146.020000
378.152496	145.540000
378.246063	145.420000
378.339569	145.500000
378.433136	145.880000
378.526642	145.860000
378.620209	145.700000
378.713745	145.480000
378.807312	145.700000
378.900848	145.520000
378.994385	145.580000
379.087921	145.020000
379.181458	145.200000
379.274994	144.460000
379.368530	144.700000
379.462097	144.700000
379.555634	145.280000
379.649170	145.080000
379.742706	145.180000
379.836273	145.380000
379.929810	144.960000
380.023376	144.740000
380.116882	144.340000
380.210449	144.420000
380.303986	143.940000
380.397552	143.960000
380.491058	144.360000
380.584656	144.520000
380.678162	144.520000
380.771729	144.620000
380.865265	145.620000
380.958832	145.600000
381.052368	146.040000
381.145935	146.480000
381.239471	147.040000
381.333008	146.380000
381.426575	146.320000
381.520111	146.460000
381.613647	146.260000
381.707214	145.800000
381.800751	145.500000
381.894318	145.480000
381.987854	144.900000
382.081421	144.780000
382.174988	144.560000
382.268524	144.260000
382.362091	144.220000
382.455627	144.860000
382.549194	144.660000
382.642731	144.540000
382.736298	144.680000
382.829834	144.580000
382.923401	144.800000
383.016937	145.180000
383.110504	145.780000
383.204041	146.280000
383.297607	146.740000
383.391174	146.060000
383.484741	146.640000
383.578278	145.880000
383.671844	145.220000
383.765411	144.300000
383.858948	144.820000
383.952515	144.260000
384.046051	145.260000
384.139618	146.040000
384.233185	146.380000
384.326721	146.420000
384.420288	146.960000
384.513855	146.620000
384.607422	146.920000
384.700989	147.420000
384.794525	146.800000
384.888123	146.700000
384.981659	147.060000
385.075226	146.220000
385.168762	146.020000
385.262360	146.100000
385.355896	144.940000
385.449463	144.640000
385.542999	144.840000
385.636597	145.340000
385.730164	145.960000
385.823730	146.080000
385.917267	145.880000
386.010834	146.100000
386.104401	145.760000
386.197968	145.720000
386.291534	146.440000
386.385101	146.720000
386.478668	147.020000
386.572235	146.740000
386.665802	145.960000
386.759338	145.440000
386.852905	144.960000
386.946472	144.700000
387.040070	144.980000
387.133606	145.280000
387.227203	145.260000
387.320740	145.700000
387.414337	145.280000
387.507874	145.060000
387.601471	145.080000
387.695007	145.120000
387.788605	144.780000
387.882141	145.160000
387.975739	145.380000
388.069275	145.100000
388.162872	145.380000
388.256439	145.180000
388.350037	145.000000
388.443604	144.640000
388.537170	144.940000
388.630737	145.380000
388.724304	145.740000
388.817871	145.740000
388.911438	146.000000
389.005005	146.220000
389.098602	146.440000
389.192169	146.200000
389.285736	146.740000
389.379333	146.580000
389.472870	145.820000
389.566467	145.100000
389.660034	145.460000
389.753632	144.640000
389.847168	145.080000
389.940765	145.780000
390.034332	146.180000
390.127930	145.760000
390.221466	145.980000
390.315063	145.480000
390.408630	144.640000
390.502228	143.760000
390.595795	144.240000
390.689362	144.340000
390.782959	144.860000
390.876526	145.620000
390.970093	146.140000
391.063690	146.160000
391.157257	145.960000
391.250824	145.920000
391.344421	145.780000
391.437988	145.960000
391.531555	146.420000
391.625153	146.640000
391.718750	146.620000
391.812317	146.580000
391.905914	146.420000
391.999481	146.180000
392.093079	146.360000
392.186615	146.760000
392.280243	146.860000
392.373779	146.980000
392.467407	147.340000
392.560944	147.180000
392.654572	146.200000
392.748108	146.000000
392.841736	145.840000
392.935303	144.980000
393.028900	145.140000
393.122467	145.680000
393.216064	145.420000
393.309631	144.880000
393.403229	144.940000
393.496796	144.680000
393.590393	143.920000
393.683990	144.460000
393.777557	145.100000
393.871155	145.140000
393.964722	145.680000
394.058350	146.100000
394.151917	146.000000
394.245514	145.820000
394.339081	146.420000
394.432678	146.280000
394.526245	146.340000
394.619873	146.020000
394.713409	146.120000
394.807037	145.480000
394.900604	145.420000
394.994202	145.400000
395.087769	145.820000
395.181396	145.440000
395.274994	146.440000
395.368561	145.920000
395.462158	146.040000
395.555756	145.680000
395.649353	146.600000
395.742920	145.860000
395.836517	146.420000
395.930115	146.020000
396.023712	146.420000
396.117279	146.020000
396.210876	145.640000
396.304474	145.560000
396.398071	145.620000
396.491669	145.800000
396.585266	145.500000
396.678833	145.500000
396.772461	145.720000
396.866028	145.940000
396.959656	145.720000
397.053223	145.900000
397.146851	145.920000
397.240417	146.040000
397.334015	146.800000
397.427582	146.640000
397.521210	147.340000
397.614807	148.400000
397.708405	148.620000
397.802002	148.980000
397.895599	150.620000
397.989197	151.520000
398.082794	152.920000
398.176392	155.360000
398.269989	157.460000
398.363586	159.940000
398.457184	163.520000
398.550781	167.120000
398.644379	170.020000
398.737976	173.980000
398.831573	178.260000
398.925201	181.920000
399.018768	185.840000
399.112396	190.120000
399.205963	194.640000
399.299591	199.580000
399.393158	204.820000
399.486786	211.220000
399.580353	218.460000
399.673981	226.380000
399.767578	234.320000
399.861206	244.080000
399.954773	253.780000
400.048401	263.640000
400.141998	272.040000
400.235596	281.000000
400.329193	286.400000
400.422791	290.720000
400.516418	292.860000
400.610016	295.440000
400.703613	295.960000
400.797211	295.660000
400.890808	293.040000
400.984436	289.880000
401.078033	283.000000
401.171631	274.640000
401.265259	264.500000
401.358826	254.420000
401.452484	242.600000
401.546051	231.680000
401.639679	219.340000
401.733246	209.200000
401.826904	198.280000
401.920471	188.380000
402.014099	180.060000
402.107697	173.480000
402.201324	167.660000
402.294891	163.520000
402.388550	160.480000
402.482147	157.260000
402.575745	154.760000
402.669373	152.100000
402.762970	150.180000
402.856567	148.940000
402.950195	148.360000
403.043793	147.560000
403.137390	147.880000
403.231018	146.900000
403.324615	147.180000
403.418243	146.480000
403.511841	146.820000
403.605469	146.520000
403.699066	147.380000
403.792694	146.900000
403.886292	146.960000
403.979919	146.780000
404.073517	146.560000
404.167145	146.620000
404.260712	146.660000
404.354370	146.660000
404.447937	146.660000
404.541595	146.460000
404.635162	146.220000
404.728821	146.380000
404.822418	145.780000
404.916046	145.280000
405.009644	145.500000
405.103271	145.620000
405.196899	145.020000
405.290497	145.520000
405.384125	146.100000
405.477722	145.740000
405.571350	145.120000
405.664948	145.580000
405.758575	145.520000
405.852203	144.760000
405.945801	145.020000
406.039429	145.320000
406.133057	144.840000
406.226654	144.760000
406.320312	144.920000
406.413879	145.060000
406.507538	145.480000
406.601135	145.360000
406.694763	145.800000
406.788361	145.640000
406.882019	145.280000
406.975586	145.420000
407.069244	146.320000
407.162872	146.220000
407.256470	146.480000
407.350098	146.680000
407.443726	146.200000
407.537323	145.640000
407.630951	145.820000
407.724579	145.500000
407.818207	145.840000
407.911804	145.480000
408.005432	145.260000
408.099060	145.240000
408.192688	145.920000
408.286285	145.500000
408.379913	145.580000
408.473572	146.100000
408.567169	145.620000
408.660828	145.200000
408.754395	145.120000
408.848053	145.040000
408.941650	145.000000
409.035309	144.540000
409.128906	144.820000
409.222565	145.140000
409.316132	145.680000
409.409790	145.180000
409.503387	145.460000
409.597046	145.260000
409.690674	145.220000
409.784302	145.120000
409.877930	145.180000
409.971558	145.480000
410.065186	145.380000
410.158783	145.240000
410.252411	145.120000
410.346039	145.540000
410.439667	145.420000
410.533295	145.600000
410.626923	145.660000
410.720551	145.520000
410.814209	145.780000
410.907806	145.960000
411.001465	145.460000
411.095062	145.900000
411.188721	146.220000
411.282318	145.980000
411.375977	145.880000
411.469574	146.340000
411.563232	145.820000
411.656830	145.500000
411.750488	145.460000
411.844086	145.040000
411.937744	145.200000
412.031372	145.120000
412.125000	144.940000
412.218628	144.980000
412.312256	145.800000
412.405884	146.240000
412.499512	146.120000
412.593170	146.560000
412.686798	146.500000
412.780426	146.080000
412.874054	145.940000
412.967682	146.180000
413.061310	146.760000
413.154968	146.720000
413.248566	146.540000
413.342224	146.140000
413.435852	146.240000
413.529510	145.520000
413.623108	144.880000
413.716766	145.160000
413.810364	145.420000
413.904022	144.880000
413.997650	144.660000
414.091309	145.400000
414.184906	145.200000
414.278564	144.660000
414.372192	145.200000
414.465851	145.420000
414.559479	145.120000
414.653107	145.820000
414.746735	145.860000
414.840393	145.700000
414.934021	145.760000
415.027649	145.480000
415.121277	145.000000
415.214935	145.660000
415.308563	145.480000
415.402191	145.140000
415.495850	145.220000
415.589478	144.880000
415.683136	144.480000
415.776733	144.720000
415.870422	145.340000
415.964020	145.100000
416.057678	145.320000
416.151306	145.180000
416.244965	145.200000
416.338562	145.160000
416.432251	145.860000
416.525848	146.680000
416.619507	147.220000
416.713165	147.440000
416.806793	147.180000
416.900421	147.100000
416.994080	145.880000
417.087708	145.540000
417.181366	144.940000
417.274994	144.680000
417.368622	144.760000
417.462280	145.480000
417.555908	145.480000
417.649567	145.440000
417.743195	145.720000
417.836853	145.560000
417.930481	145.800000
418.024170	145.800000
418.117767	146.500000
418.211426	146.640000
418.305054	146.860000
418.398712	146.200000
418.492340	146.180000
418.585999	146.420000
418.679626	146.440000
418.773285	146.520000
418.866913	147.080000
418.960571	147.400000
419.054230	147.080000
419.147858	147.220000
419.241516	147.100000
419.335144	146.420000
419.428802	146.120000
419.522461	145.800000
419.616089	145.180000
419.709747	145.060000
419.803375	145.360000
419.897034	145.140000
419.990662	145.140000
420.084320	145.740000
420.177979	145.860000
420.271606	145.960000
420.365295	146.540000
420.458893	146.960000
420.552582	147.000000
420.646210	147.080000
420.739868	146.760000
420.833496	146.440000
420.927155	145.880000
421.020782	145.700000
421.114471	144.960000
421.208069	145.580000
421.301758	145.800000
421.395386	146.360000
421.489044	146.200000
421.582703	146.520000
421.676361	146.640000
421.769989	146.040000
421.863647	146.220000
421.957306	146.340000
422.050934	146.740000
422.144592	146.420000
422.238251	146.600000
422.331909	146.000000
422.425537	145.780000
422.519196	145.600000
422.612854	145.140000
422.706543	144.680000
422.800140	145.260000
422.893829	145.180000
422.987457	145.020000
423.081146	145.380000
423.174744	146.480000
423.268433	145.660000
423.362061	145.500000
423.455750	145.100000
423.549347	145.140000
423.643036	144.360000
423.736664	145.280000
423.830353	145.560000
423.924011	146.420000
424.017639	145.960000
424.111298	145.980000
424.204956	145.460000
424.298615	145.340000
424.392273	144.940000
424.485931	145.180000
424.579559	145.500000
424.673218	145.220000
424.766876	145.520000
424.860535	145.280000
424.954193	144.980000
425.047882	145.280000
425.141510	145.580000
425.235199	145.360000
425.328796	145.300000
425.422485	145.340000
425.516113	144.380000
425.609802	144.480000
425.703430	144.500000
425.797119	144.480000
425.890747	144.640000
425.984436	145.040000
426.078064	145.040000
426.171753	145.260000
426.265411	145.240000
426.359070	145.560000
426.452728	145.500000
426.546356	145.240000
426.640015	144.980000
426.733673	145.020000
426.827332	144.480000
426.920990	145.240000
427.014648	145.060000
427.108307	145.320000
427.201965	146.100000
427.295624	146.520000
427.389282	145.820000
427.482941	146.060000
427.576630	145.680000
427.670258	144.800000
427.763947	144.480000
427.857574	144.600000
427.951263	144.500000
428.044922	144.320000
428.138611	144.480000
428.232239	145.000000
428.325928	145.380000
428.419556	145.700000
428.513245	145.400000
428.606903	145.640000
428.700562	145.120000
428.794220	144.380000
428.887878	143.740000
428.981537	144.400000
429.075195	144.420000
429.168854	144.880000
429.262512	145.020000
429.356201	145.640000
429.449860	145.640000
429.543518	145.520000
429.637177	145.580000
429.730835	145.500000
429.824493	145.420000
429.918182	145.420000
430.011810	144.940000
430.105530	144.420000
430.199158	144.780000
430.292847	144.440000
430.386475	144.040000
430.480164	144.080000
430.573792	143.940000
430.667511	143.720000
430.761139	143.860000
430.854828	144.600000
430.948456	144.940000
431.042145	145.480000
431.135834	145.140000
431.229492	145.180000
431.323151	145.080000
431.416809	145.060000
431.510468	144.920000
431.604156	145.020000
431.697815	145.160000
431.791473	144.680000
431.885132	144.280000
431.978821	144.700000
432.072479	145.420000
432.166138	145.660000
432.259827	145.620000
432.353485	146.140000
432.447174	146.300000
432.540802	146.060000
432.634491	146.060000
432.728149	146.500000
432.821838	146.980000
432.915466	146.280000
433.009186	145.960000
433.102814	145.140000
433.196503	144.760000
433.290131	144.600000
433.383850	144.940000
433.477509	145.180000
433.571167	146.120000
433.664856	146.660000
433.758514	146.860000
433.852173	146.500000
433.945862	146.080000
434.039520	146.300000
434.133179	145.580000
434.226868	145.000000
434.320526	144.500000
434.414185	145.380000
434.507874	144.460000
434.601562	145.140000
434.695221	145.020000
434.788910	145.920000
434.882538	145.800000
434.976257	145.680000
435.069885	145.380000
435.163574	145.740000
435.257233	145.020000
435.350922	144.500000
435.444580	144.680000
435.538269	144.560000
435.631897	144.760000
435.725616	145.480000
435.819275	145.980000
435.912964	146.240000
436.006622	146.660000
436.100311	146.300000
436.193970	145.620000
436.287628	145.320000
436.381317	145.280000
436.474976	144.500000
436.568665	144.220000
436.662323	144.320000
436.756012	144.400000
436.849670	144.180000
436.943390	144.340000
437.037018	144.360000
437.130737	144.480000
437.224365	143.880000
437.318085	144.060000
437.411713	144.340000
437.505432	144.840000
437.599060	145.620000
437.692780	146.900000
437.786407	146.720000
437.880127	146.940000
437.973755	146.760000
438.067474	145.800000
438.161133	145.140000
438.254822	145.400000
438.348480	145.040000
438.442169	145.360000
438.535828	145.820000
438.629517	145.740000
438.723175	145.280000
438.816864	145.620000
438.910553	144.980000
439.004211	144.600000
439.097900	144.320000
439.191559	144.440000
439.285248	144.020000
439.378906	144.480000
439.472626	144.680000
439.566284	144.700000
439.659973	145.360000
439.753632	145.440000
439.847321	145.860000
439.940979	146.020000
440.034698	146.020000
440.128326	145.400000
440.222046	145.500000
440.315674	144.620000
440.409393	144.740000
440.503082	144.940000
440.596741	145.200000
440.690430	145.220000
440.784088	145.260000
440.877777	144.760000
440.971466	144.480000
441.065125	144.200000
441.158813	143.880000
441.252502	143.860000
441.346161	143.900000
441.439850	144.500000
441.533539	144.520000
441.627197	145.100000
441.720886	144.820000
441.814606	145.540000
441.908234	145.440000
442.001953	145.560000
442.095612	145.220000
442.189301	146.100000
442.282959	145.740000
442.376678	145.040000
442.470306	145.660000
442.564026	145.440000
442.657684	145.240000
442.751404	145.340000
442.845032	146.680000
442.938751	145.940000
443.032440	146.480000
443.126099	146.040000
443.219788	146.120000
443.313477	145.580000
443.407166	146.040000
443.500824	146.000000
443.594513	146.680000
443.688202	146.680000
443.781891	145.800000
443.875549	145.360000
443.969238	145.320000
444.062927	145.060000
444.156647	144.980000
444.250275	145.840000
444.343994	146.000000
444.437653	146.020000
444.531372	145.880000
444.625031	145.440000
444.718719	144.920000
444.812378	144.860000
444.906097	144.620000
444.999756	144.180000
445.093445	144.620000
445.187103	144.920000
445.280823	145.620000
445.374512	145.220000
445.468201	145.620000
445.561859	145.480000
445.655548	145.500000
445.749237	144.600000
445.842926	145.100000
445.936615	145.420000
446.030304	145.080000
446.123962	145.120000
446.217651	145.220000
446.311340	145.340000
446.405029	145.020000
446.498749	145.240000
446.592407	145.180000
446.686096	145.400000
446.779755	145.220000
446.873474	145.280000
446.967133	145.180000
447.060852	145.300000
447.154510	145.200000
447.248230	145.460000
447.341858	145.440000
447.435577	145.420000
447.529236	145.200000
447.622955	145.240000
447.716644	144.960000
447.810333	145.020000
447.904022	145.380000
447.997711	145.280000
448.091400	145.340000
448.185059	145.600000
448.278748	145.940000
448.372437	145.440000
448.466125	145.920000
448.559814	146.000000
448.653503	146.400000
448.747192	146.400000
448.840912	147.460000
448.934570	146.960000
449.028290	147.200000
449.121948	146.320000
449.215637	145.880000
449.309296	145.020000
449.403015	145.220000
449.496674	145.040000
449.590393	145.320000
449.684052	145.060000
449.777771	146.080000
449.871429	145.660000
449.965149	145.620000
450.058838	146.140000
450.152527	146.960000
450.246216	146.020000
450.339905	146.160000
450.433594	145.800000
450.527283	145.860000
450.620972	145.320000
450.714661	145.440000
450.808350	145.500000
450.902039	145.860000
450.995728	145.460000
451.089417	145.220000
451.183105	145.420000
451.276794	145.800000
451.370514	145.060000
451.464172	144.380000
451.557892	144.480000
451.651550	144.420000
451.745270	144.040000
451.838928	144.100000
451.932648	144.460000
452.026306	144.880000
452.120026	144.420000
452.213684	144.840000
452.307404	145.260000
452.401062	145.640000
452.494781	145.640000
452.588470	145.960000
452.682159	145.420000
452.775848	145.640000
452.869537	145.000000
452.963226	144.440000
453.056915	144.340000
453.150604	144.640000
453.244293	144.760000
453.337982	145.400000
453.431671	146.080000
453.525360	146.620000
453.619049	146.460000
453.712769	146.320000
453.806427	146.020000
453.900146	145.360000
453.993805	144.980000
454.087555	145.460000
454.181213	145.540000
454.274933	145.220000
454.368591	145.400000
454.462311	145.420000
454.555969	145.000000
454.649689	145.780000
454.743347	145.820000
454.837067	146.080000
454.930756	146.400000
455.024445	146.660000
455.118134	145.780000
455.211853	146.060000
455.305542	145.740000
455.399231	145.640000
455.492920	145.280000
455.586609	145.460000
455.680298	145.580000
455.773987	145.480000
455.867676	145.140000
455.961365	145.580000
456.055084	145.260000
456.148773	145.160000
456.242493	145.320000
456.336151	145.140000
456.429871	145.200000
456.523529	145.660000
456.617249	145.340000
456.710907	145.980000
456.804626	146.120000
456.898315	145.200000
456.992035	144.960000
457.085693	144.840000
457.179413	143.960000
457.273102	144.820000
457.366791	145.560000
457.460480	145.660000
457.554199	146.520000
457.647888	146.960000
457.741577	146.080000
457.835266	146.040000
457.928955	145.920000
458.022644	145.980000
458.116364	146.160000
458.210052	146.420000
458.303741	146.580000
458.397461	146.040000
458.491119	145.200000
458.584839	144.820000
458.678528	144.360000
458.772247	143.820000
458.865906	144.260000
458.959625	145.360000
459.053284	145.440000
459.147003	145.680000
459.240692	146.680000
459.334412	146.700000
459.428070	146.360000
459.521790	146.140000
459.615479	146.120000
459.709198	145.960000
459.802887	145.760000
459.896576	145.100000
459.990265	145.460000
460.083954	145.640000
460.177673	145.140000
460.271362	145.120000
460.365051	145.360000
460.458740	144.900000
460.552429	144.620000
460.646149	144.520000
460.739838	144.520000
460.833527	144.820000
460.927246	144.720000
461.020905	144.580000
461.114655	144.660000
461.208313	144.820000
461.302032	144.280000
461.395691	144.460000
461.489441	144.740000
461.583099	144.360000
461.676819	144.260000
461.770477	144.660000
461.864197	144.660000
461.957916	144.800000
462.051605	144.580000
462.145294	145.420000
462.238983	145.200000
462.332703	145.660000
462.426392	145.900000
462.520081	146.320000
462.613770	145.580000
462.707489	145.760000
462.801178	145.620000
462.894867	145.480000
462.988556	145.640000
463.082275	145.900000
463.175964	145.520000
463.269684	145.940000
463.363342	145.840000
463.457092	145.180000
463.550751	145.380000
463.644470	145.540000
463.738129	145.180000
463.831879	145.420000
463.925537	146.540000
464.019257	146.180000
464.112946	146.400000
464.206665	146.360000
464.300323	146.160000
464.394043	145.780000
464.487762	145.840000
464.581451	146.300000
464.675140	146.480000
464.768829	146.760000
464.862549	146.800000
464.956238	146.880000
465.049927	146.720000
465.143646	146.420000
465.237335	146.000000
465.331024	146.520000
465.424713	146.420000
465.518433	145.840000
465.612152	145.660000
465.705811	145.540000
465.799561	145.080000
465.893219	144.960000
465.986938	145.160000
466.080597	145.260000
466.174347	145.640000
466.268005	145.660000
466.361725	145.580000
466.455414	145.640000
466.549133	145.480000
466.642792	145.600000
466.736542	144.960000
466.830231	145.120000
466.923920	144.800000
467.017609	144.920000
467.111328	144.280000
467.205017	144.840000
467.298706	144.900000
467.392426	145.380000
467.486115	145.620000
467.579803	145.640000
467.673523	145.940000
467.767212	146.100000
467.860901	145.740000
467.954651	146.100000
468.048309	146.440000
468.142029	145.980000
468.235718	145.780000
468.329437	145.820000
468.423096	145.300000
468.516846	145.140000
468.610504	144.980000
468.704224	144.540000
468.797913	144.420000
468.891632	144.660000
468.985291	144.700000
469.079010	144.820000
469.172729	144.840000
469.266418	145.280000
469.360107	145.000000
469.453827	144.860000
469.547516	144.860000
469.641205	145.500000
469.734924	145.440000
469.828613	146.120000
469.922302	146.440000
470.016022	146.580000
470.109711	146.120000
470.203430	145.700000
470.297150	144.940000
470.390808	145.000000
470.484558	144.680000
470.578217	145.480000
470.671936	146.020000
470.765625	146.640000
470.859344	146.580000
470.953003	147.040000
471.046753	146.400000
471.140411	145.900000
471.234131	145.560000
471.327820	146.080000
471.421539	146.000000
471.515228	145.760000
471.608948	145.900000
471.702637	145.720000
471.796326	145.080000
471.890045	144.840000
471.983734	145.140000
472.077423	144.820000
472.171143	145.000000
472.264832	144.780000
472.358521	144.680000
472.452240	144.680000
472.545929	145.460000
472.639648	145.640000
472.733337	146.200000
472.827057	146.560000
472.920746	146.520000
473.014465	146.700000
473.108124	146.500000
473.201874	146.040000
473.295532	145.680000
473.389252	145.840000
473.482941	145.660000
473.576660	145.380000
473.670319	145.400000
473.764069	145.820000
473.857727	145.860000
473.951477	146.040000
474.045166	146.660000
474.138855	146.600000
474.232574	146.400000
474.326263	146.320000
474.419952	146.340000
474.513672	146.100000
474.607361	145.880000
474.701050	146.000000
474.794769	146.220000
474.888458	146.040000
474.982178	145.880000
475.075867	146.280000
475.169586	146.260000
475.263275	145.960000
475.356995	145.780000
475.450653	145.560000
475.544403	145.220000
475.638062	145.740000
475.731812	145.160000
475.825470	144.840000
475.919189	145.400000
476.012878	145.620000
476.106598	144.800000
476.200256	145.560000
476.294006	145.680000
476.387695	145.360000
476.481384	145.260000
476.575104	145.600000
476.668793	145.180000
476.762512	145.080000
476.856201	145.800000
476.949890	145.840000
477.043610	145.240000
477.137299	145.260000
477.230988	145.700000
477.324707	144.880000
477.418396	145.220000
477.512146	145.800000
477.605804	145.760000
477.699524	145.900000
477.793213	145.960000
477.886932	145.800000
477.980591	145.300000
478.074341	145.340000
478.167999	144.660000
478.261749	144.700000
478.355408	144.680000
478.449127	145.320000
478.542816	146.220000
478.636536	146.760000
478.730225	146.920000
478.823944	147.220000
478.917633	146.960000
479.011322	146.580000
479.105042	146.620000
479.198730	146.880000
479.292450	146.480000
479.386139	146.740000
479.479828	146.740000
479.573547	146.940000
479.667267	146.600000
479.760925	146.560000
479.854675	146.560000
479.948334	146.520000
480.042084	145.860000
480.135742	146.080000
480.229462	145.580000
480.323151	145.400000
480.416870	144.760000
480.510529	144.900000
480.604279	144.480000
480.697937	145.240000
480.791656	144.840000
480.885345	144.940000
480.979065	144.900000
481.072754	145.500000
481.166473	145.660000
481.260132	145.740000
481.353882	145.980000
481.447540	145.780000
481.541260	145.400000
481.635010	144.860000
481.728668	144.760000
481.822388	144.780000
481.916077	145.000000
482.009796	145.000000
482.103485	145.420000
482.197205	145.780000
482.290863	146.100000
482.384613	145.800000
482.478271	145.420000
482.571991	145.140000
482.665680	144.960000
482.759399	145.320000
482.853058	145.840000
482.946808	146.180000
483.040466	146.260000
483.134216	146.120000
483.227875	145.360000
483.321594	145.780000
483.415283	145.820000
483.509003	145.940000
483.602661	146.140000
483.696411	146.540000
483.790070	146.080000
483.883789	145.880000
483.977478	146.080000
484.071198	146.120000
484.164917	145.600000
484.258606	145.200000
484.352325	145.480000
484.445984	145.500000
484.539734	145.460000
484.633392	145.020000
484.727142	145.620000
484.820801	145.280000
484.914520	144.840000
485.008209	145.080000
485.101929	145.960000
485.195587	145.780000
485.289337	145.700000
485.382996	145.820000
485.476715	145.680000
485.570404	145.920000
485.664124	145.580000
485.757782	146.200000
485.851532	145.960000
485.945190	145.720000
486.038910	145.420000
486.132599	146.140000
486.226318	145.300000
486.319977	145.340000
486.413727	145.700000
486.507446	145.240000
486.601105	144.300000
486.694855	144.560000
486.788513	144.480000
486.882233	144.340000
486.975922	144.460000
487.069641	144.780000
487.163300	144.760000
487.257050	145.840000
487.350708	145.640000
487.444427	145.580000
487.538116	145.720000
487.631836	145.660000
487.725494	145.040000
487.819214	145.060000
487.912903	145.040000
488.006622	145.600000
488.100281	146.040000
488.194031	145.820000
488.287689	146.560000
488.381409	147.640000
488.475098	147.060000
488.568817	146.800000
488.662476	146.560000
488.756226	145.720000
488.849945	144.460000
488.943604	144.740000
489.037354	145.080000
489.131012	145.320000
489.224731	145.460000
489.318390	145.620000
489.412140	145.260000
489.505798	145.340000
489.599518	145.000000
489.693207	145.120000
489.786926	145.040000
489.880585	145.000000
489.974335	144.960000
490.067993	146.100000
490.161713	146.260000
490.255371	147.080000
490.349121	147.280000
490.442780	147.060000
490.536499	146.080000
490.630188	145.900000
490.723907	145.080000
490.817566	145.140000
490.911285	145.200000
491.004974	145.160000
491.098694	144.760000
491.192413	145.720000
491.286102	145.360000
491.379822	145.280000
491.473480	145.560000
491.567200	145.780000
491.660889	145.000000
491.754608	144.980000
491.848267	144.760000
491.941986	144.840000
492.035675	144.960000
492.129395	145.360000
492.223053	145.440000
492.316772	145.840000
492.410461	145.860000
492.504181	146.020000
492.597839	145.400000
492.691559	145.700000
492.785248	145.720000
492.878967	145.620000
492.972626	145.060000
493.066345	145.080000
493.160034	144.560000
493.253754	144.260000
493.347412	143.680000
493.441132	144.320000
493.534882	144.780000
493.628540	145.240000
493.722260	145.460000
493.815918	146.020000
493.909668	146.120000
494.003326	146.460000
494.097046	146.460000
494.190704	146.340000
494.284454	146.140000
494.378113	146.320000
494.471832	146.160000
494.565491	145.840000
494.659210	145.940000
494.752899	146.080000
494.846619	145.520000
494.940277	145.400000
495.033997	145.720000
495.127686	145.240000
495.221405	144.980000
495.315063	145.200000
495.408783	145.460000
495.502441	145.360000
495.596191	145.760000
495.689850	145.580000
495.783569	145.640000
495.877228	145.420000
495.970947	145.040000
496.064697	144.800000
496.158356	145.980000
496.252075	145.940000
496.345734	145.680000
496.439453	146.640000
496.533142	147.000000
496.626862	146.960000
496.720520	147.200000
496.814240	147.340000
496.907898	146.880000
497.001617	147.080000
497.095306	146.120000
497.189026	145.640000
497.282684	145.660000
497.376404	145.860000
497.470062	145.300000
497.563782	145.480000
497.657471	145.820000
497.751190	145.460000
497.844849	145.040000
497.938568	145.600000
498.032227	145.620000
498.125946	145.620000
498.219635	145.700000
498.313354	146.120000
498.407074	145.640000
498.500732	145.880000
498.594452	146.080000
498.688110	145.880000
498.781830	145.420000
498.875519	145.260000
498.969238	144.960000
499.062897	144.480000
499.156616	145.160000
499.250275	145.520000
499.343994	145.360000
499.437653	145.420000
499.531372	145.500000
499.625061	145.640000
499.718781	145.460000
499.812439	146.160000
499.906158	146.160000
499.999817	146.140000
500.093536	145.680000
500.187195	145.580000
500.280914	145.220000
500.374573	145.440000
500.468323	145.320000
500.561981	145.620000
500.655701	145.460000
500.749420	145.680000
500.843079	145.580000
500.936798	145.820000
501.030457	145.920000
501.124176	146.260000
501.217834	146.320000
501.311554	146.140000
501.405212	145.920000
501.498962	145.240000
501.592621	144.980000
501.686340	145.040000
501.779999	145.260000
501.873718	145.320000
501.967377	145.640000
502.061096	145.800000
502.154755	145.200000
502.248474	145.360000
502.342133	145.700000
502.435852	145.800000
502.529510	146.640000
502.623230	147.420000
502.716888	146.900000
502.810608	146.740000
502.904266	146.980000
502.997986	145.900000
503.091705	145.260000
503.185364	145.380000
503.279083	145.400000
503.372772	145.100000
503.466492	145.040000
503.560150	145.260000
503.653870	145.440000
503.747528	145.240000
503.841248	145.420000
503.934906	145.860000
504.028625	145.520000
504.122284	145.840000
504.216003	146.640000
504.309662	146.220000
504.403381	146.160000
504.497040	146.220000
504.590759	145.800000
504.684418	145.360000
504.778137	145.940000
504.871796	146.200000
504.965515	146.300000
505.059174	146.400000
505.152893	145.740000
505.246521	145.340000
505.340240	145.000000
505.433899	145.080000
505.527618	145.220000
505.621338	145.960000
505.714996	145.680000
505.808716	145.540000
505.902374	145.680000
505.996094	145.720000
506.089752	145.040000
506.183472	145.340000
506.277130	145.400000
506.370850	145.400000
506.464508	145.220000
506.558228	145.460000
506.651886	145.280000
506.745605	145.400000
506.839264	145.260000
506.932983	145.340000
507.026611	145.300000
507.120331	145.800000
507.213989	145.240000
507.307709	145.620000
507.401367	145.800000
507.495087	146.600000
507.588745	146.120000
507.682465	147.180000
507.776123	146.940000
507.869843	146.860000
507.963531	146.160000
508.057190	146.580000
508.150909	145.820000
508.244568	145.900000
508.338287	145.540000
508.431946	145.360000
508.525665	144.800000
508.619324	144.980000
508.713013	145.120000
508.806671	145.460000
508.900391	146.440000
508.994049	147.020000
509.087769	146.800000
509.181427	146.600000
509.275146	146.480000
509.368774	145.500000
509.462494	145.220000
509.556152	145.300000
509.649872	145.400000
509.743530	145.620000
509.837250	146.020000
509.930878	146.140000
510.024597	146.080000
510.118256	145.680000
510.211975	145.100000
510.305695	144.680000
510.399353	144.900000
510.493042	145.640000
510.586700	145.980000
510.680420	146.780000
510.774078	146.720000
510.867798	146.620000
510.961426	145.740000
511.055145	145.740000
511.148804	145.000000
511.242523	145.580000
511.336151	145.460000
511.429871	145.880000
511.523529	145.720000
511.617249	145.760000
511.710876	145.440000
511.804596	145.220000
511.898254	144.900000
511.991974	145.220000
512.085632	145.140000
512.179321	145.340000
512.272949	145.740000
512.366699	146.220000
512.460327	146.120000
512.554077	147.020000
512.647766	147.020000
512.741394	146.720000
512.835144	147.160000
512.928772	146.860000
513.022461	146.080000
513.116150	145.680000
513.209839	146.360000
513.303467	145.340000
513.397217	145.120000
513.490845	145.300000
513.584595	145.460000
513.678223	144.400000
513.771912	144.060000
513.865601	144.460000
513.959290	144.080000
514.052917	144.120000
514.146667	145.240000
514.240295	145.900000
514.333984	146.420000
514.427673	146.580000
514.521362	146.760000
514.614990	145.680000
514.708740	145.880000
514.802368	145.460000
514.896057	145.680000
514.989746	146.480000
515.083435	146.780000
515.177124	146.560000
515.270752	146.340000
515.364502	146.460000
515.458130	145.940000
515.551819	145.760000
515.645508	145.840000
515.739197	145.920000
515.832825	145.960000
515.926575	145.540000
516.020203	146.000000
516.113892	146.480000
516.207520	146.200000
516.301270	145.980000
516.394897	146.080000
516.488586	146.200000
516.582275	145.700000
516.675964	145.320000
516.769592	145.320000
516.863281	145.820000
516.956970	145.960000
517.050659	145.860000
517.144287	146.220000
517.238037	146.160000
517.331665	145.540000
517.425354	145.040000
517.519043	145.120000
517.612732	145.700000
517.706421	145.640000
517.800049	145.280000
517.893738	144.840000
517.987427	144.640000
518.081116	144.060000
518.174744	143.860000
518.268433	144.360000
518.362122	145.280000
518.455811	145.100000
518.549438	145.660000
518.643127	146.620000
518.736816	146.420000
518.830505	145.680000
518.924133	146.180000
519.017822	146.160000
519.111511	145.700000
519.205200	146.220000
519.298828	146.300000
519.392517	145.660000
519.486206	145.720000
519.579895	145.840000
519.673523	145.320000
519.767212	145.500000
519.860901	146.400000
519.954590	146.180000
520.048279	145.840000
520.141907	145.900000
520.235596	146.760000
520.329224	146.720000
520.422974	146.820000
520.516602	147.080000
520.610291	147.140000
520.703918	146.520000
520.797607	146.140000
520.891296	145.780000
520.984985	145.540000
521.078613	146.140000
521.172302	145.720000
521.265930	146.580000
521.359680	147.020000
521.453308	147.000000
521.546997	146.560000
521.640625	147.060000
521.734314	146.300000
521.827942	146.460000
521.921692	146.880000
522.015320	146.780000
522.109009	146.260000
522.202698	146.100000
522.296326	145.820000
522.390015	146.080000
522.483704	145.960000
522.577393	145.960000
522.671021	145.840000
522.764709	145.480000
522.858337	145.160000
522.952026	145.100000
523.045654	145.480000
523.139404	146.060000
523.233032	146.560000
523.326721	146.400000
523.420349	146.640000
523.514038	146.340000
523.607666	146.440000
523.701355	146.040000
523.795044	146.280000
523.888733	146.500000
523.982361	146.800000
524.076050	146.260000
524.169678	146.640000
524.263367	146.200000
524.356995	145.640000
524.450684	145.460000
524.544373	145.340000
524.638062	145.240000
524.731750	145.380000
524.825378	145.440000
524.919067	145.120000
525.012695	145.180000
525.106384	144.780000
525.200012	144.940000
525.293701	144.940000
525.387329	145.420000
525.481018	145.500000
525.574646	145.780000
525.668396	145.620000
525.762024	146.020000
525.855713	146.160000
525.949341	146.000000
526.043030	146.220000
526.136658	146.200000
526.230347	145.800000
526.323975	145.320000
526.417664	145.520000
526.511292	145.480000
526.604980	145.720000
526.698608	145.780000
526.792297	146.020000
526.885925	146.340000
526.979614	146.220000
527.073303	145.860000
527.166931	145.940000
527.260620	146.140000
527.354309	146.240000
527.447998	146.380000
527.541626	146.360000
527.635315	146.360000
527.728943	146.880000
527.822632	146.680000
527.916260	146.640000
528.009949	146.900000
528.103577	146.380000
528.197266	145.280000
528.290894	145.280000
528.384583	145.100000
528.478210	144.920000
528.571899	145.480000
528.665527	146.140000
528.759216	146.200000
528.852844	146.740000
528.946533	146.980000
529.040161	147.140000
529.133850	146.880000
529.227478	146.980000
529.321167	146.800000
529.414856	146.920000
529.508484	146.960000
529.602173	146.840000
529.695801	146.460000
529.789490	146.320000
529.883057	145.600000
529.976746	145.760000
530.070374	146.060000
530.164062	146.320000
530.257690	146.580000
530.351379	147.080000
530.445007	146.660000
530.538696	146.120000
530.632324	146.400000
530.726013	146.200000
530.819641	146.460000
530.913330	146.820000
531.006958	147.040000
531.100647	146.560000
531.194275	146.280000
531.287964	145.620000
531.381592	145.260000
531.475220	145.420000
531.568848	145.400000
531.662537	145.360000
531.756226	145.900000
531.849854	145.880000
531.943542	145.900000
532.037170	145.560000
532.130859	146.000000
532.224487	145.680000
532.318176	145.400000
532.411804	145.680000
532.505432	146.260000
532.599060	145.720000
532.692749	145.640000
532.786377	146.280000
532.880066	145.460000
532.973694	144.760000
533.067383	144.840000
533.161011	145.000000
533.254639	144.760000
533.348267	144.720000
533.441956	145.280000
533.535583	145.500000
533.629272	145.740000
533.722900	145.240000
533.816589	145.640000
533.910156	145.640000
534.003845	145.060000
534.097534	145.120000
534.191162	145.860000
534.284851	146.000000
534.378479	145.840000
534.472107	146.160000
534.565735	145.760000
534.659424	145.760000
534.753052	145.800000
534.846741	145.700000
534.940369	146.460000
535.033997	146.780000
535.127625	146.780000
535.221313	147.060000
535.314941	147.120000
535.408630	146.200000
535.502197	146.320000
535.595886	145.800000
535.689514	145.520000
535.783203	145.960000
535.876831	146.260000
535.970459	145.880000
536.064087	145.820000
536.157776	145.620000
536.251404	145.420000
536.345093	145.380000
536.438721	145.400000
536.532349	145.720000
536.626038	145.740000
536.719666	145.800000
536.813293	145.480000
536.906921	145.340000
537.000610	145.540000
537.094238	145.580000
537.187866	145.760000
537.281494	145.680000
537.375183	145.840000
537.468811	145.480000
537.562439	145.480000
537.656067	144.860000
537.749756	145.400000
537.843384	145.960000
537.937012	146.240000
538.030640	145.880000
538.124329	146.160000
538.217896	146.360000
538.311584	146.140000
538.405212	145.900000
538.498901	145.980000
538.592468	146.360000
538.686157	145.620000
538.779785	144.780000
538.873413	144.960000
538.967102	144.960000
539.060730	144.640000
539.154358	145.540000
539.247986	146.280000
539.341675	146.100000
539.435242	146.300000
539.528931	146.360000
539.622559	145.260000
539.716187	145.660000
539.809814	145.680000
539.903503	145.720000
539.997070	145.780000
540.090759	146.180000
540.184387	145.680000
540.278015	146.040000
540.371643	146.200000
540.465332	146.140000
540.558899	146.160000
540.652588	146.320000
540.746216	145.940000
540.839844	146.140000
540.933472	146.020000
541.027100	145.780000
541.120728	145.820000
541.214417	146.020000
541.308044	146.060000
541.401672	145.720000
541.495300	145.820000
541.588928	145.500000
541.682617	145.020000
541.776184	144.580000
541.869873	145.100000
541.963440	145.320000
542.057129	145.320000
542.150757	145.680000
542.244385	145.440000
542.338013	144.860000
542.431641	144.640000
542.525269	144.580000
542.618958	144.980000
542.712524	145.380000
542.806213	145.580000
542.899780	145.960000
542.993469	146.020000
543.087036	145.720000
543.180725	145.340000
543.274292	145.920000
543.367981	145.880000
543.461548	146.340000
543.555237	146.300000
543.648926	146.740000
543.742493	146.840000
543.836182	146.760000
543.929749	146.260000
544.023437	146.280000
544.117004	146.420000
544.210693	146.340000
544.304260	146.480000
544.397949	146.580000
544.491516	146.700000
544.585205	146.440000
544.678772	145.880000
544.772461	146.220000
544.866028	146.220000
544.959717	146.200000
545.053284	146.000000
545.146973	146.740000
545.240540	146.580000
545.334229	146.940000
545.427795	147.360000
545.521423	147.400000
545.615051	147.260000
545.708679	147.520000
545.802307	147.020000
545.895935	146.660000
545.989624	147.760000
546.083191	147.380000
546.176880	147.140000
546.270447	146.840000
546.364136	147.240000
546.457703	146.420000
546.551331	146.560000
546.644958	146.760000
546.738586	147.400000
546.832214	146.980000
546.925842	146.780000
547.019409	147.160000
547.113098	146.380000
547.206665	146.080000
547.300354	146.080000
547.393921	146.480000
547.487549	146.240000
547.581177	146.540000
547.674805	146.680000
547.768433	146.100000
547.862061	146.100000
547.955627	145.440000
548.049316	146.040000
548.142883	146.200000
548.236572	147.040000
548.330139	147.020000
548.423767	147.200000
548.517456	146.920000
548.611023	147.040000
548.704651	146.180000
548.798279	145.980000
548.891907	146.600000
548.985474	146.280000
549.079163	146.360000
549.172729	146.600000
549.266357	146.420000
549.359985	145.720000
549.453613	145.380000
549.547180	145.060000
549.640869	145.640000
549.734436	145.540000
549.828064	146.240000
549.921631	146.560000
550.015320	146.480000
550.108887	146.580000
550.202515	146.640000
550.296143	145.960000
550.389771	145.980000
550.483337	145.760000
550.576965	145.160000
550.670593	145.600000
550.764221	145.800000
550.857849	145.720000
550.951477	145.500000
551.045105	145.460000
551.138672	145.480000
551.232300	145.480000
551.325928	146.040000
551.419556	146.640000
551.513123	146.680000
551.606750	146.320000
551.700378	146.320000
551.794006	145.880000
551.887573	145.720000
551.981201	146.240000
552.074768	146.200000
552.168457	146.060000
552.262024	146.820000
552.355652	146.780000
552.449219	147.140000
552.542847	147.460000
552.636475	147.260000
552.730103	146.340000
552.823669	146.260000
552.917297	145.280000
553.010864	145.000000
553.104553	145.640000
553.198181	145.260000
553.291748	145.700000
553.385376	146.260000
553.478943	146.140000
553.572571	145.760000
553.666199	146.420000
553.759827	145.880000
553.853394	145.260000
553.947021	145.260000
554.040588	145.500000
554.134216	145.660000
554.227783	146.400000
554.321411	147.160000
554.415039	146.920000
554.508667	147.020000
554.602234	146.900000
554.695862	146.240000
554.789429	145.980000
554.883057	146.300000
554.976624	145.960000
555.070251	145.840000
555.163818	145.880000
555.257507	145.820000
555.351074	145.760000
555.444702	146.740000
555.538330	146.300000
555.631897	146.480000
555.725525	146.440000
555.819092	146.440000
555.912720	145.540000
556.006287	146.180000
556.099915	146.080000
556.193481	146.080000
556.287109	146.260000
556.380676	146.080000
556.474304	146.180000
556.567871	146.640000
556.661499	146.380000
556.755066	146.040000
556.848694	146.300000
556.942261	145.860000
557.035889	145.740000
557.129517	145.920000
557.223145	146.540000
557.316711	146.680000
557.410339	146.900000
557.503906	146.340000
557.597473	146.860000
557.691040	146.540000
557.784668	146.300000
557.878296	146.240000
557.971863	146.660000
558.065491	146.320000
558.159058	145.780000
558.252686	146.480000
558.346252	147.160000
558.439880	146.740000
558.533447	146.360000
558.627075	146.640000
558.720642	145.900000
558.814270	145.260000
558.907837	145.320000
559.001465	145.260000
559.095032	146.020000
559.188660	146.060000
559.282227	145.880000
559.375854	146.340000
559.469360	146.240000
559.562988	146.040000
559.656555	146.240000
559.750183	146.440000
559.843750	146.140000
559.937378	146.360000
560.030945	146.200000
560.124573	0.000000
560.218140	0.000000
560.311707	0.000000
560.405334	0.000000
560.498901	0.000000
560.592529	0.000000
560.686096	0.000000
560.779724	0.000000
560.873291	0.000000
560.966858	0.000000
561.060425	0.000000
561.154053	0.000000
561.247620	0.000000
561.341248	0.000000
561.434814	0.000000
561.528381	0.000000
561.621948	0.000000
561.715576	0.000000
561.809143	0.000000
561.902771	0.000000
561.996277	0.000000
562.089905	0.000000
562.183472	0.000000
562.277100	0.000000
