Model Number: SPM-002-B   
Serial Number: 70087108
Firmware Version: 004.15.4
Exposure Time: 100000.000000us
Data Taken on: 11-12-2020 18:51:42.754
Wavelength	Amplitude
221.570786	0.000000
221.663406	0.000000
221.756027	0.000000
221.848648	0.000000
221.941269	0.000000
222.033905	0.000000
222.126526	0.000000
222.219162	0.000000
222.311798	0.000000
222.404419	0.000000
222.497055	0.000000
222.589676	0.000000
222.682312	0.000000
222.774933	0.000000
222.867569	0.000000
222.960205	0.000000
223.052841	0.000000
223.145462	0.000000
223.238098	0.000000
223.330734	0.000000
223.423386	0.000000
223.516022	0.000000
223.608658	0.000000
223.701309	0.000000
223.793945	0.000000
223.886581	0.000000
223.979218	0.000000
224.071869	0.000000
224.164505	0.000000
224.257156	0.000000
224.349792	0.000000
224.442444	0.000000
224.535095	0.000000
224.627747	0.000000
224.720398	0.000000
224.813034	0.000000
224.905685	0.000000
224.998337	145.340000
225.090988	145.180000
225.183640	144.960000
225.276291	144.920000
225.368942	145.320000
225.461594	145.760000
225.554245	145.600000
225.646912	145.860000
225.739578	146.140000
225.832230	146.300000
225.924896	145.600000
226.017548	146.060000
226.110199	146.360000
226.202866	145.740000
226.295532	145.600000
226.388184	145.780000
226.480850	145.100000
226.573517	144.560000
226.666168	144.760000
226.758835	145.000000
226.851501	145.540000
226.944183	146.000000
227.036850	145.780000
227.129517	145.980000
227.222183	145.980000
227.314850	145.740000
227.407516	146.020000
227.500198	147.240000
227.592865	146.900000
227.685532	146.620000
227.778214	146.540000
227.870880	146.860000
227.963562	146.620000
228.056229	147.120000
228.148926	146.880000
228.241592	147.340000
228.334274	146.540000
228.426956	146.100000
228.519638	145.860000
228.612305	145.380000
228.704987	145.240000
228.797668	145.280000
228.890350	145.040000
228.983032	144.440000
229.075714	145.700000
229.168396	145.240000
229.261108	145.080000
229.353790	145.040000
229.446472	145.720000
229.539169	145.060000
229.631851	144.960000
229.724533	145.180000
229.817230	145.620000
229.909912	146.200000
230.002609	146.280000
230.095306	146.520000
230.187988	146.680000
230.280685	146.280000
230.373383	144.900000
230.466095	144.680000
230.558792	144.880000
230.651474	145.020000
230.744171	145.260000
230.836868	145.640000
230.929581	146.160000
231.022278	146.240000
231.114975	146.100000
231.207672	145.740000
231.300369	146.100000
231.393082	145.980000
231.485779	145.540000
231.578506	145.400000
231.671204	145.820000
231.763916	146.040000
231.856613	145.880000
231.949326	146.140000
232.042023	146.140000
232.134735	145.980000
232.227448	145.280000
232.320160	145.500000
232.412872	145.340000
232.505585	145.860000
232.598297	146.500000
232.691010	146.700000
232.783722	146.200000
232.876450	146.960000
232.969162	146.520000
233.061874	145.720000
233.154587	145.420000
233.247314	146.120000
233.340027	145.260000
233.432739	145.840000
233.525467	145.740000
233.618179	146.180000
233.710907	145.460000
233.803635	145.820000
233.896347	145.260000
233.989090	146.340000
234.081818	146.240000
234.174545	146.840000
234.267258	146.320000
234.359985	146.660000
234.452713	146.260000
234.545441	146.160000
234.638168	145.660000
234.730896	146.360000
234.823639	145.840000
234.916367	145.740000
235.009094	145.980000
235.101822	145.960000
235.194580	145.540000
235.287308	145.780000
235.380051	145.440000
235.472778	145.420000
235.565521	145.660000
235.658249	145.440000
235.750992	145.380000
235.843719	145.180000
235.936462	145.480000
236.029205	145.120000
236.121948	144.940000
236.214691	145.380000
236.307449	146.120000
236.400192	145.700000
236.492935	146.020000
236.585678	146.260000
236.678421	146.060000
236.771164	145.700000
236.863907	145.940000
236.956665	146.080000
237.049408	147.500000
237.142151	146.980000
237.234909	147.820000
237.327652	147.940000
237.420410	147.480000
237.513153	146.420000
237.605927	146.340000
237.698669	145.460000
237.791428	144.940000
237.884186	145.600000
237.976944	145.340000
238.069702	145.960000
238.162445	145.440000
238.255203	145.500000
238.347961	145.660000
238.440720	145.840000
238.533478	145.520000
238.626266	145.460000
238.719025	145.960000
238.811783	145.260000
238.904541	144.940000
238.997314	145.020000
239.090073	145.060000
239.182831	145.100000
239.275604	146.160000
239.368362	146.260000
239.461136	146.080000
239.553909	146.280000
239.646667	146.120000
239.739441	145.340000
239.832214	145.520000
239.925003	145.900000
240.017761	146.460000
240.110535	146.700000
240.203308	146.440000
240.296082	146.520000
240.388855	146.440000
240.481628	146.300000
240.574417	146.120000
240.667191	146.200000
240.759964	145.820000
240.852737	145.680000
240.945526	145.060000
241.038315	144.800000
241.131088	144.980000
241.223877	145.380000
241.316650	145.100000
241.409439	145.820000
241.502228	145.800000
241.595001	145.980000
241.687790	145.860000
241.780579	145.780000
241.873367	145.560000
241.966141	145.660000
242.058929	145.180000
242.151718	145.080000
242.244507	145.540000
242.337311	145.100000
242.430099	145.380000
242.522903	146.020000
242.615692	145.760000
242.708481	145.600000
242.801270	146.340000
242.894073	146.080000
242.986862	145.800000
243.079651	146.440000
243.172455	146.260000
243.265244	146.060000
243.358063	145.700000
243.450867	145.780000
243.543655	145.720000
243.636459	145.820000
243.729263	146.080000
243.822067	146.560000
243.914856	146.700000
244.007660	146.720000
244.100464	146.760000
244.193268	146.040000
244.286072	145.920000
244.378876	145.500000
244.471680	145.420000
244.564499	145.600000
244.657318	146.500000
244.750122	146.440000
244.842926	146.120000
244.935745	146.200000
245.028549	145.860000
245.121368	145.360000
245.214172	145.600000
245.306992	146.420000
245.399796	145.880000
245.492615	146.220000
245.585434	146.000000
245.678253	145.820000
245.771072	145.260000
245.863892	145.940000
245.956711	146.240000
246.049530	146.100000
246.142349	145.680000
246.235168	145.840000
246.327988	146.320000
246.420807	146.080000
246.513626	146.420000
246.606445	146.380000
246.699280	146.520000
246.792099	145.620000
246.884918	145.040000
246.977753	144.480000
247.070587	145.020000
247.163422	145.000000
247.256241	145.140000
247.349075	145.700000
247.441895	146.300000
247.534729	146.140000
247.627563	145.880000
247.720383	146.360000
247.813217	146.100000
247.906052	145.480000
247.998886	145.640000
248.091736	145.500000
248.184570	144.800000
248.277405	144.900000
248.370239	146.180000
248.463074	146.720000
248.555908	147.100000
248.648743	147.440000
248.741592	147.280000
248.834427	146.340000
248.927261	145.180000
249.020111	145.260000
249.112946	145.760000
249.205795	145.740000
249.298630	146.020000
249.391495	146.200000
249.484344	145.960000
249.577179	145.420000
249.670029	145.720000
249.762878	146.080000
249.855728	146.280000
249.948563	146.380000
250.041412	145.920000
250.134262	145.980000
250.227112	145.740000
250.319962	146.020000
250.412827	146.280000
250.505692	146.220000
250.598541	146.260000
250.691391	146.160000
250.784241	146.060000
250.877106	146.060000
250.969955	146.140000
251.062805	146.380000
251.155670	146.700000
251.248520	146.440000
251.341385	146.280000
251.434235	146.320000
251.527100	145.560000
251.619965	145.060000
251.712814	145.700000
251.805695	145.480000
251.898560	145.520000
251.991425	146.180000
252.084290	146.380000
252.177155	145.800000
252.270020	145.800000
252.362885	146.140000
252.455750	146.020000
252.548615	145.980000
252.641479	145.960000
252.734360	146.040000
252.827240	145.700000
252.920105	145.920000
253.012970	145.400000
253.105850	145.420000
253.198715	145.120000
253.291595	145.260000
253.384460	144.620000
253.477341	145.080000
253.570221	145.120000
253.663086	145.040000
253.755966	145.820000
253.848846	146.140000
253.941727	146.120000
254.034592	146.140000
254.127472	145.820000
254.220367	145.260000
254.313248	145.160000
254.406128	144.740000
254.499008	144.940000
254.591904	145.960000
254.684784	146.580000
254.777664	146.700000
254.870544	146.700000
254.963440	146.520000
255.056335	146.260000
255.149216	145.560000
255.242111	145.820000
255.334991	146.020000
255.427887	146.080000
255.520767	146.040000
255.613663	146.140000
255.706558	145.700000
255.799438	145.740000
255.892334	145.520000
255.985229	145.520000
256.078125	145.460000
256.171021	145.660000
256.263916	146.140000
256.356812	146.440000
256.449707	146.380000
256.542603	146.240000
256.635498	146.720000
256.728394	146.480000
256.821289	146.220000
256.914215	146.340000
257.007080	146.720000
257.100006	146.660000
257.192932	146.880000
257.285828	147.480000
257.378723	147.320000
257.471619	146.860000
257.564545	145.900000
257.657440	146.220000
257.750336	145.880000
257.843262	145.760000
257.936157	146.900000
258.029053	147.540000
258.121979	146.900000
258.214874	146.840000
258.307800	146.660000
258.400696	145.440000
258.493622	145.180000
258.586517	144.480000
258.679443	144.800000
258.772339	145.040000
258.865265	145.040000
258.958160	144.740000
259.051086	145.880000
259.144012	145.680000
259.236938	146.360000
259.329834	146.500000
259.422791	146.560000
259.515717	145.820000
259.608612	145.640000
259.701538	145.440000
259.794464	145.480000
259.887390	145.420000
259.980316	145.500000
260.073212	145.460000
260.166138	144.300000
260.259064	144.680000
260.351990	145.420000
260.444916	145.480000
260.537842	145.620000
260.630768	146.760000
260.723694	146.580000
260.816620	146.260000
260.909546	146.420000
261.002472	145.980000
261.095398	145.420000
261.188354	145.200000
261.281281	144.720000
261.374207	144.560000
261.467133	145.480000
261.560089	145.560000
261.653015	145.300000
261.745972	146.260000
261.838867	146.740000
261.931824	146.840000
262.024780	146.640000
262.117706	146.940000
262.210663	146.880000
262.303589	146.600000
262.396515	146.260000
262.489471	147.300000
262.582397	147.360000
262.675354	146.620000
262.768280	146.580000
262.861237	146.500000
262.954163	145.960000
263.047119	146.220000
263.140045	146.300000
263.233002	146.560000
263.325958	146.280000
263.418884	145.740000
263.511841	145.480000
263.604797	145.500000
263.697723	145.300000
263.790680	145.340000
263.883636	145.940000
263.976593	145.740000
264.069550	146.060000
264.162476	145.720000
264.255463	145.560000
264.348419	145.380000
264.441376	145.720000
264.534332	145.000000
264.627289	145.180000
264.720245	145.860000
264.813202	145.580000
264.906158	145.480000
264.999115	146.320000
265.092072	146.520000
265.185028	146.740000
265.277985	146.940000
265.370941	146.940000
265.463898	146.560000
265.556854	146.340000
265.649811	145.400000
265.742798	145.360000
265.835754	145.480000
265.928711	145.620000
266.021667	145.660000
266.114655	145.860000
266.207611	146.300000
266.300568	145.360000
266.393585	144.880000
266.486511	145.040000
266.579498	144.660000
266.672485	144.160000
266.765442	144.700000
266.858429	145.500000
266.951385	145.120000
267.044342	145.300000
267.137329	145.280000
267.230316	145.360000
267.323273	144.600000
267.416260	145.620000
267.509216	145.500000
267.602203	145.640000
267.695160	146.060000
267.788147	146.240000
267.881134	145.220000
267.974091	145.560000
268.067078	145.360000
268.160065	145.040000
268.253052	144.920000
268.346008	145.020000
268.438995	144.920000
268.531982	145.280000
268.624969	145.200000
268.717987	145.940000
268.810944	146.220000
268.903961	146.520000
268.996948	145.860000
269.089905	146.220000
269.182892	146.160000
269.275879	146.200000
269.368866	145.620000
269.461853	146.060000
269.554871	145.820000
269.647858	145.340000
269.740845	145.540000
269.833832	146.100000
269.926819	145.820000
270.019806	146.200000
270.112793	146.320000
270.205811	146.260000
270.298798	145.900000
270.391785	146.660000
270.484772	146.440000
270.577789	146.240000
270.670776	146.040000
270.763763	146.100000
270.856750	145.760000
270.949768	145.360000
271.042786	145.640000
271.135773	145.620000
271.228790	145.880000
271.321808	145.400000
271.414795	145.260000
271.507782	144.960000
271.600800	144.740000
271.693817	144.640000
271.786804	145.040000
271.879822	145.760000
271.972809	145.900000
272.065826	146.480000
272.158844	146.100000
272.251831	146.980000
272.344849	146.740000
272.437866	146.280000
272.530853	146.100000
272.623871	146.440000
272.716888	145.220000
272.809906	145.360000
272.902893	145.660000
272.995911	145.060000
273.088928	145.100000
273.181946	145.500000
273.274963	144.860000
273.367981	144.920000
273.460999	145.240000
273.554047	145.680000
273.647003	146.240000
273.740051	146.700000
273.833069	146.960000
273.926086	147.280000
274.019135	146.620000
274.112152	146.080000
274.205170	145.980000
274.298187	146.000000
274.391205	145.520000
274.484222	145.680000
274.577240	145.560000
274.670258	145.320000
274.763306	145.240000
274.856323	145.780000
274.949341	145.760000
275.042358	146.100000
275.135406	145.960000
275.228424	145.960000
275.321442	145.700000
275.414490	145.400000
275.507507	145.640000
275.600525	146.500000
275.693573	146.240000
275.786591	145.800000
275.879669	146.140000
275.972656	145.620000
276.065735	145.120000
276.158752	145.600000
276.251801	146.620000
276.344818	146.620000
276.437866	146.560000
276.530884	146.500000
276.623932	145.720000
276.716980	145.180000
276.809998	145.140000
276.903046	145.280000
276.996094	145.940000
277.089111	146.920000
277.182159	147.620000
277.275208	147.660000
277.368256	147.600000
277.461304	147.120000
277.554321	145.980000
277.647369	145.540000
277.740417	145.300000
277.833466	145.360000
277.926514	145.120000
278.019562	146.180000
278.112610	145.600000
278.205688	145.820000
278.298706	145.820000
278.391785	145.640000
278.484833	144.980000
278.577881	145.160000
278.670929	145.500000
278.763977	145.300000
278.857025	146.020000
278.950073	145.920000
279.043121	145.760000
279.136169	145.680000
279.229248	145.680000
279.322296	145.420000
279.415344	145.640000
279.508392	145.800000
279.601440	145.700000
279.694519	145.680000
279.787567	145.620000
279.880615	145.680000
279.973694	145.480000
280.066742	145.560000
280.159790	145.840000
280.252869	145.520000
280.345917	145.520000
280.438995	145.400000
280.532074	145.060000
280.625122	145.180000
280.718201	146.140000
280.811279	146.360000
280.904327	146.620000
280.997406	146.980000
281.090454	147.000000
281.183533	146.400000
281.276581	146.120000
281.369659	146.020000
281.462738	145.980000
281.555786	146.160000
281.648865	146.000000
281.741943	145.780000
281.835022	146.540000
281.928070	146.240000
282.021149	145.680000
282.114227	145.620000
282.207306	145.740000
282.300385	145.480000
282.393433	145.760000
282.486511	145.800000
282.579590	146.500000
282.672668	147.000000
282.765747	146.480000
282.858856	146.280000
282.951904	146.720000
283.045013	146.520000
283.138062	146.700000
283.231171	146.880000
283.324249	147.160000
283.417328	146.780000
283.510406	146.260000
283.603485	145.940000
283.696564	145.840000
283.789642	145.540000
283.882751	145.300000
283.975830	146.000000
284.068909	145.720000
284.161987	146.360000
284.255066	146.300000
284.348175	146.560000
284.441254	146.360000
284.534332	146.980000
284.627441	146.280000
284.720520	146.060000
284.813599	146.280000
284.906708	146.120000
284.999786	144.980000
285.092896	144.800000
285.185974	145.780000
285.279053	145.240000
285.372192	145.400000
285.465240	146.480000
285.558380	146.680000
285.651459	146.040000
285.744568	146.980000
285.837677	146.540000
285.930756	146.460000
286.023865	146.640000
286.116943	146.400000
286.210052	146.160000
286.303162	146.320000
286.396240	145.980000
286.489349	145.760000
286.582458	146.320000
286.675568	146.000000
286.768646	145.900000
286.861755	146.340000
286.954865	147.020000
287.047974	146.320000
287.141083	146.280000
287.234161	145.980000
287.327271	145.440000
287.420380	145.360000
287.513519	145.480000
287.606598	145.600000
287.699738	145.920000
287.792816	145.980000
287.885956	145.920000
287.979034	145.960000
288.072174	145.840000
288.165283	145.720000
288.258392	145.940000
288.351501	145.300000
288.444611	145.460000
288.537720	145.840000
288.630859	145.640000
288.723969	145.440000
288.817078	145.800000
288.910187	145.580000
289.003296	145.020000
289.096436	145.280000
289.189545	145.180000
289.282654	145.120000
289.375763	145.760000
289.468903	146.280000
289.562012	146.540000
289.655121	146.780000
289.748260	146.640000
289.841400	146.600000
289.934509	146.260000
290.027649	146.240000
290.120728	146.160000
290.213898	146.320000
290.306976	145.960000
290.400146	146.420000
290.493256	145.920000
290.586395	145.980000
290.679535	146.420000
290.772644	146.180000
290.865784	144.820000
290.958893	145.000000
291.052032	144.620000
291.145172	144.420000
291.238281	144.400000
291.331421	145.180000
291.424561	145.740000
291.517670	145.880000
291.610809	145.960000
291.703949	146.120000
291.797089	146.320000
291.890228	145.600000
291.983337	145.420000
292.076477	144.980000
292.169617	145.120000
292.262756	145.000000
292.355927	145.360000
292.449036	145.340000
292.542206	145.280000
292.635315	145.560000
292.728485	145.900000
292.821625	145.460000
292.914764	146.680000
293.007904	147.260000
293.101044	146.680000
293.194183	146.500000
293.287323	146.520000
293.380463	145.440000
293.473602	144.940000
293.566742	145.660000
293.659882	146.040000
293.753021	146.440000
293.846191	146.600000
293.939331	146.400000
294.032471	145.980000
294.125610	145.520000
294.218781	145.820000
294.311920	146.340000
294.405060	146.660000
294.498230	146.580000
294.591370	146.540000
294.684540	145.720000
294.777679	145.120000
294.870850	145.260000
294.963959	144.980000
295.057159	144.600000
295.150299	145.000000
295.243469	145.000000
295.336609	144.320000
295.429779	144.600000
295.522919	145.160000
295.616089	145.020000
295.709229	145.680000
295.802399	146.180000
295.895569	145.700000
295.988708	145.680000
296.081879	146.220000
296.175018	145.380000
296.268188	145.500000
296.361359	146.580000
296.454529	146.660000
296.547668	146.200000
296.640839	146.560000
296.734009	146.280000
296.827179	145.820000
296.920319	145.920000
297.013519	145.780000
297.106659	145.860000
297.199860	145.720000
297.292999	145.700000
297.386200	145.220000
297.479309	145.220000
297.572510	145.220000
297.665680	145.060000
297.758850	144.980000
297.852020	144.820000
297.945190	144.920000
298.038361	144.340000
298.131531	145.540000
298.224701	145.420000
298.317871	145.320000
298.411072	145.160000
298.504242	145.320000
298.597412	144.340000
298.690582	144.760000
298.783752	145.240000
298.876923	145.760000
298.970093	145.840000
299.063293	146.500000
299.156464	146.560000
299.249634	146.480000
299.342834	146.360000
299.436005	146.780000
299.529205	146.540000
299.622345	146.620000
299.715576	146.200000
299.808716	145.760000
299.901917	145.560000
299.995117	145.700000
300.088287	145.480000
300.181488	145.500000
300.274658	145.600000
300.367828	145.900000
300.461029	145.760000
300.554199	146.060000
300.647400	146.540000
300.740601	147.060000
300.833771	146.580000
300.926971	146.920000
301.020142	146.540000
301.113342	146.360000
301.206512	146.140000
301.299713	146.380000
301.392914	146.200000
301.486084	146.320000
301.579285	146.240000
301.672516	146.700000
301.765686	146.500000
301.858887	146.200000
301.952057	145.980000
302.045288	146.140000
302.138458	145.440000
302.231659	145.280000
302.324860	145.420000
302.418060	145.100000
302.511261	144.920000
302.604462	145.280000
302.697662	145.240000
302.790863	144.840000
302.884064	144.740000
302.977264	144.700000
303.070465	144.760000
303.163666	145.240000
303.256866	145.700000
303.350067	146.160000
303.443268	145.820000
303.536469	145.800000
303.629669	145.700000
303.722870	145.560000
303.816071	145.340000
303.909271	145.620000
304.002472	144.860000
304.095673	144.440000
304.188934	143.680000
304.282104	144.480000
304.375336	144.660000
304.468506	145.020000
304.561768	145.100000
304.654968	146.060000
304.748169	145.280000
304.841370	144.860000
304.934601	145.400000
305.027802	145.320000
305.121002	144.980000
305.214233	145.020000
305.307434	145.360000
305.400665	145.840000
305.493866	145.780000
305.587097	146.000000
305.680298	145.740000
305.773499	146.220000
305.866730	145.320000
305.959930	145.520000
306.053162	145.600000
306.146393	145.500000
306.239594	144.400000
306.332825	144.340000
306.426025	144.860000
306.519287	144.260000
306.612488	144.600000
306.705719	145.020000
306.798920	145.160000
306.892181	144.440000
306.985352	144.240000
307.078613	144.020000
307.171844	144.500000
307.265045	144.040000
307.358276	143.900000
307.451508	144.580000
307.544739	145.140000
307.637970	144.800000
307.731201	144.800000
307.824402	145.520000
307.917633	145.620000
308.010864	145.940000
308.104095	146.340000
308.197327	146.700000
308.290558	146.580000
308.383789	146.320000
308.477020	145.640000
308.570251	144.940000
308.663483	144.440000
308.756714	144.220000
308.849976	144.460000
308.943176	145.120000
309.036438	145.260000
309.129639	145.520000
309.222900	145.560000
309.316101	145.180000
309.409393	144.360000
309.502625	144.100000
309.595856	144.260000
309.689087	144.520000
309.782318	144.580000
309.875580	144.840000
309.968811	145.200000
310.062042	144.820000
310.155273	144.720000
310.248535	145.100000
310.341766	145.120000
310.434998	144.960000
310.528259	145.240000
310.621490	145.480000
310.714722	145.060000
310.807983	145.100000
310.901215	145.380000
310.994476	145.300000
311.087708	144.560000
311.181000	144.880000
311.274200	144.420000
311.367462	144.460000
311.460693	144.400000
311.553986	145.220000
311.647186	145.320000
311.740479	146.480000
311.833710	146.440000
311.926971	146.520000
312.020203	145.860000
312.113464	145.540000
312.206726	144.520000
312.299957	144.420000
312.393219	144.980000
312.486481	144.920000
312.579712	144.760000
312.672974	144.700000
312.766235	144.600000
312.859497	144.300000
312.952759	144.500000
313.045990	145.100000
313.139252	144.980000
313.232513	145.160000
313.325775	145.000000
313.419037	145.000000
313.512299	144.220000
313.605530	144.540000
313.698822	144.720000
313.792053	145.080000
313.885345	144.800000
313.978577	145.240000
314.071869	145.080000
314.165131	145.020000
314.258392	145.120000
314.351654	145.540000
314.444916	144.820000
314.538177	145.500000
314.631439	145.860000
314.724701	145.660000
314.817993	145.440000
314.911255	146.120000
315.004517	145.480000
315.097778	145.120000
315.191040	145.640000
315.284302	145.900000
315.377594	145.780000
315.470856	145.780000
315.564117	145.260000
315.657379	144.440000
315.750671	144.040000
315.843933	144.020000
315.937195	143.660000
316.030518	143.780000
316.123749	143.900000
316.217041	144.700000
316.310303	144.800000
316.403595	145.520000
316.496857	145.680000
316.590149	145.720000
316.683411	144.980000
316.776703	144.740000
316.869965	144.500000
316.963257	144.540000
317.056519	144.100000
317.149811	144.000000
317.243073	144.220000
317.336365	144.380000
317.429626	144.720000
317.522919	145.420000
317.616180	145.680000
317.709473	145.320000
317.802765	145.080000
317.896027	144.940000
317.989319	145.120000
318.082611	145.300000
318.175873	145.420000
318.269165	145.700000
318.362488	145.580000
318.455750	145.300000
318.549042	145.500000
318.642303	146.000000
318.735626	145.440000
318.828888	145.480000
318.922211	145.080000
319.015472	145.500000
319.108765	144.700000
319.202057	144.700000
319.295349	144.740000
319.388641	144.660000
319.481934	144.020000
319.575226	144.320000
319.668518	144.580000
319.761810	144.800000
319.855103	145.200000
319.948395	145.220000
320.041687	145.360000
320.134979	145.520000
320.228271	145.100000
320.321564	144.740000
320.414856	144.840000
320.508148	144.480000
320.601440	144.420000
320.694763	144.300000
320.788025	145.140000
320.881348	145.140000
320.974640	145.440000
321.067963	144.880000
321.161224	145.120000
321.254547	144.400000
321.347839	144.960000
321.441162	144.640000
321.534454	145.280000
321.627747	145.220000
321.721069	145.940000
321.814362	145.560000
321.907654	145.800000
322.000946	145.800000
322.094269	146.300000
322.187561	145.820000
322.280884	145.980000
322.374176	146.180000
322.467468	146.460000
322.560791	146.220000
322.654083	146.520000
322.747406	146.420000
322.840698	146.400000
322.934021	146.580000
323.027344	146.580000
323.120636	146.240000
323.213959	146.020000
323.307251	145.620000
323.400574	145.080000
323.493866	144.700000
323.587219	144.980000
323.680511	145.360000
323.773834	145.740000
323.867157	145.860000
323.960449	146.020000
324.053772	145.920000
324.147095	145.580000
324.240387	145.940000
324.333710	145.960000
324.427032	146.480000
324.520355	146.420000
324.613647	146.160000
324.706970	145.800000
324.800293	145.460000
324.893616	145.180000
324.986938	145.440000
325.080231	145.340000
325.173553	145.660000
325.266876	146.460000
325.360199	146.280000
325.453522	145.940000
325.546875	145.660000
325.640167	145.520000
325.733521	145.280000
325.826813	145.860000
325.920166	145.300000
326.013489	145.340000
326.106812	144.560000
326.200134	144.140000
326.293457	143.320000
326.386780	143.820000
326.480103	144.080000
326.573425	144.480000
326.666748	144.520000
326.760071	145.260000
326.853424	145.300000
326.946747	145.400000
327.040070	146.060000
327.133392	145.940000
327.226715	145.120000
327.320068	144.800000
327.413391	145.180000
327.506714	144.340000
327.600037	144.460000
327.693390	144.740000
327.786713	144.940000
327.880066	144.580000
327.973358	145.320000
328.066742	145.700000
328.160034	145.680000
328.253418	145.900000
328.346710	145.660000
328.440063	145.040000
328.533417	144.700000
328.626740	145.000000
328.720093	144.680000
328.813416	144.920000
328.906769	144.960000
329.000092	145.220000
329.093445	144.980000
329.186768	144.780000
329.280121	145.060000
329.373444	145.400000
329.466797	145.140000
329.560120	145.220000
329.653473	145.620000
329.746796	144.980000
329.840149	144.700000
329.933502	144.940000
330.026825	144.600000
330.120178	144.480000
330.213562	144.800000
330.306854	144.880000
330.400238	144.700000
330.493561	144.900000
330.586945	145.660000
330.680237	145.920000
330.773621	146.220000
330.866974	146.300000
330.960327	146.520000
331.053680	145.700000
331.147003	145.720000
331.240356	145.820000
331.333710	145.740000
331.427063	145.160000
331.520416	145.340000
331.613770	145.020000
331.707123	144.920000
331.800476	145.180000
331.893829	146.180000
331.987152	146.460000
332.080505	146.360000
332.173859	146.140000
332.267212	145.560000
332.360565	144.960000
332.453918	144.400000
332.547333	144.420000
332.640656	144.720000
332.734039	144.800000
332.827362	144.660000
332.920746	145.320000
333.014069	145.660000
333.107452	145.840000
333.200806	146.320000
333.294159	146.640000
333.387543	145.980000
333.480896	145.540000
333.574249	144.980000
333.667603	144.480000
333.760956	144.580000
333.854340	144.900000
333.947693	145.300000
334.041046	145.440000
334.134430	145.980000
334.227783	145.580000
334.321136	145.480000
334.414520	145.020000
334.507874	145.280000
334.601227	144.820000
334.694611	145.060000
334.787964	144.980000
334.881348	145.420000
334.974701	145.300000
335.068085	145.180000
335.161438	145.280000
335.254822	145.120000
335.348175	145.060000
335.441559	144.520000
335.534943	145.140000
335.628296	145.120000
335.721680	145.080000
335.815033	145.360000
335.908417	146.080000
336.001770	145.960000
336.095154	145.840000
336.188538	145.900000
336.281891	145.380000
336.375275	144.720000
336.468658	144.420000
336.562012	144.440000
336.655396	144.820000
336.748779	145.260000
336.842133	145.680000
336.935516	145.880000
337.028900	145.680000
337.122284	145.440000
337.215637	145.420000
337.309021	145.080000
337.402435	144.860000
337.495789	144.860000
337.589203	144.660000
337.682526	144.580000
337.775940	144.860000
337.869324	145.100000
337.962708	144.880000
338.056091	145.460000
338.149475	144.920000
338.242859	144.920000
338.336243	144.500000
338.429626	144.780000
338.523010	144.600000
338.616394	144.840000
338.709778	145.100000
338.803162	145.300000
338.896545	145.280000
338.989929	145.000000
339.083313	145.120000
339.176697	144.540000
339.270081	144.620000
339.363464	144.820000
339.456848	145.120000
339.550232	144.720000
339.643616	144.980000
339.737030	144.980000
339.830383	144.820000
339.923828	144.900000
340.017181	145.080000
340.110596	145.120000
340.203949	145.160000
340.297363	144.820000
340.390778	144.520000
340.484161	144.720000
340.577545	144.520000
340.670959	144.540000
340.764343	144.660000
340.857727	144.960000
340.951111	144.180000
341.044525	144.600000
341.137909	144.300000
341.231293	144.460000
341.324707	143.920000
341.418091	145.360000
341.511505	145.200000
341.604889	145.300000
341.698303	145.200000
341.791687	145.580000
341.885071	144.640000
341.978485	144.440000
342.071899	144.960000
342.165283	145.200000
342.258698	145.420000
342.352081	145.860000
342.445496	146.440000
342.538879	146.260000
342.632324	146.000000
342.725708	145.760000
342.819122	145.220000
342.912506	144.700000
343.005920	144.560000
343.099335	145.600000
343.192719	145.620000
343.286133	145.940000
343.379547	146.580000
343.472931	146.620000
343.566345	145.780000
343.659760	145.960000
343.753143	145.660000
343.846558	144.820000
343.939972	144.580000
344.033386	145.060000
344.126770	144.640000
344.220184	144.880000
344.313599	145.400000
344.407043	145.440000
344.500427	144.820000
344.593872	145.400000
344.687225	145.320000
344.780670	144.760000
344.874054	144.760000
344.967499	145.220000
345.060913	145.180000
345.154327	145.160000
345.247742	145.260000
345.341156	145.140000
345.434570	144.700000
345.527985	144.580000
345.621399	144.500000
345.714813	144.360000
345.808228	144.780000
345.901642	144.700000
345.995056	144.620000
346.088470	145.020000
346.181885	145.420000
346.275299	145.100000
346.368713	145.180000
346.462128	144.800000
346.555573	144.800000
346.648987	144.860000
346.742401	145.040000
346.835815	145.420000
346.929260	145.540000
347.022644	145.400000
347.116119	145.500000
347.209503	145.560000
347.302948	146.220000
347.396362	146.900000
347.489807	146.780000
347.583221	147.460000
347.676636	147.280000
347.770050	145.940000
347.863495	145.120000
347.956909	145.280000
348.050323	144.280000
348.143768	144.280000
348.237183	144.420000
348.330597	145.000000
348.424042	145.200000
348.517456	145.700000
348.610901	145.740000
348.704315	145.940000
348.797760	145.260000
348.891174	144.840000
348.984619	144.340000
349.078033	144.400000
349.171448	145.140000
349.264923	145.280000
349.358337	145.500000
349.451782	145.760000
349.545197	145.400000
349.638641	144.560000
349.732086	144.220000
349.825500	144.340000
349.918945	143.840000
350.012390	144.160000
350.105804	144.560000
350.199249	144.860000
350.292664	144.920000
350.386108	145.160000
350.479553	145.700000
350.572968	145.640000
350.666412	145.980000
350.759857	145.860000
350.853302	146.560000
350.946716	145.980000
351.040161	145.840000
351.133606	145.620000
351.227081	145.540000
351.320465	145.960000
351.413940	146.140000
351.507355	146.460000
351.600830	146.680000
351.694244	146.340000
351.787720	145.440000
351.881104	145.280000
351.974579	145.020000
352.067993	145.720000
352.161469	146.180000
352.254883	145.880000
352.348358	145.840000
352.441803	146.060000
352.535248	145.440000
352.628693	145.740000
352.722137	145.680000
352.815582	145.800000
352.909027	145.780000
353.002472	145.540000
353.095917	145.220000
353.189362	145.580000
353.282806	145.740000
353.376251	145.240000
353.469696	144.960000
353.563141	145.300000
353.656586	145.200000
353.750061	144.700000
353.843475	144.740000
353.936981	145.260000
354.030396	144.600000
354.123871	144.420000
354.217285	145.120000
354.310760	145.680000
354.404175	145.680000
354.497681	145.720000
354.591095	145.980000
354.684570	145.340000
354.777985	144.780000
354.871490	144.440000
354.964935	144.880000
355.058380	145.040000
355.151855	144.900000
355.245300	145.360000
355.338745	145.860000
355.432220	145.880000
355.525665	145.340000
355.619110	145.960000
355.712585	145.820000
355.806030	145.460000
355.899475	145.140000
355.992950	145.460000
356.086426	145.640000
356.179871	145.760000
356.273346	146.000000
356.366791	146.100000
356.460266	146.300000
356.553711	145.840000
356.647186	145.600000
356.740631	145.360000
356.834106	144.960000
356.927551	145.080000
357.021027	145.140000
357.114471	145.340000
357.207947	145.260000
357.301422	145.820000
357.394867	145.880000
357.488342	146.000000
357.581818	145.740000
357.675262	145.940000
357.768738	145.180000
357.862213	144.180000
357.955658	144.240000
358.049133	144.300000
358.142609	144.580000
358.236053	145.200000
358.329529	145.760000
358.423035	145.760000
358.516449	145.460000
358.609955	145.680000
358.703400	146.120000
358.796906	146.320000
358.890350	145.700000
358.983826	146.140000
359.077271	145.540000
359.170776	144.780000
359.264221	144.520000
359.357727	145.120000
359.451172	145.540000
359.544647	145.500000
359.638123	145.880000
359.731598	146.280000
359.825073	146.480000
359.918549	146.060000
360.012024	146.340000
360.105499	145.920000
360.198975	145.780000
360.292450	145.720000
360.385925	145.660000
360.479401	145.480000
360.572876	145.820000
360.666351	146.000000
360.759857	145.680000
360.853302	146.040000
360.946808	145.500000
361.040253	145.320000
361.133759	144.760000
361.227203	144.960000
361.320709	144.360000
361.414154	144.900000
361.507660	145.360000
361.601105	145.880000
361.694641	146.280000
361.788086	146.340000
361.881592	146.720000
361.975067	146.160000
362.068542	146.380000
362.162018	146.040000
362.255524	145.500000
362.348999	145.340000
362.442474	145.780000
362.535950	145.160000
362.629456	145.000000
362.722931	145.220000
362.816406	145.360000
362.909882	145.360000
363.003387	145.240000
363.096863	145.380000
363.190338	145.760000
363.283875	145.360000
363.377319	145.280000
363.470825	145.720000
363.564301	145.000000
363.657806	144.860000
363.751282	144.700000
363.844788	145.260000
363.938232	144.920000
364.031769	145.960000
364.125214	146.420000
364.218750	147.140000
364.312225	146.080000
364.405731	146.440000
364.499207	145.640000
364.592712	145.220000
364.686188	144.840000
364.779694	145.140000
364.873169	144.720000
364.966675	144.780000
365.060150	144.720000
365.153656	145.200000
365.247131	145.220000
365.340637	145.620000
365.434143	146.120000
365.527618	146.380000
365.621155	145.760000
365.714600	145.880000
365.808136	145.800000
365.901611	145.060000
365.995117	145.080000
366.088593	144.940000
366.182129	144.740000
366.275604	144.600000
366.369110	144.840000
366.462585	144.540000
366.556122	145.460000
366.649567	145.460000
366.743103	145.720000
366.836609	145.560000
366.930115	145.980000
367.023590	145.720000
367.117096	145.580000
367.210602	145.540000
367.304108	146.240000
367.397614	146.660000
367.491119	146.560000
367.584595	146.940000
367.678101	147.300000
367.771606	147.060000
367.865112	146.420000
367.958649	145.600000
368.052124	145.500000
368.145660	144.880000
368.239136	145.460000
368.332672	145.540000
368.426147	145.860000
368.519684	145.700000
368.613159	146.020000
368.706696	145.480000
368.800171	145.340000
368.893707	145.360000
368.987183	145.220000
369.080719	145.180000
369.174225	145.020000
369.267731	145.300000
369.361237	145.280000
369.454742	145.440000
369.548248	145.740000
369.641754	145.460000
369.735260	145.300000
369.828766	144.900000
369.922272	145.460000
370.015808	144.840000
370.109314	144.980000
370.202820	144.760000
370.296356	145.860000
370.389832	145.380000
370.483368	145.340000
370.576874	145.320000
370.670410	145.340000
370.763885	144.020000
370.857422	144.140000
370.950928	144.120000
371.044464	144.540000
371.137939	144.540000
371.231476	145.360000
371.324982	145.880000
371.418518	145.940000
371.512024	146.000000
371.605560	145.920000
371.699066	145.960000
371.792572	145.280000
371.886108	145.840000
371.979614	145.600000
372.073120	146.220000
372.166656	146.080000
372.260162	146.480000
372.353668	145.840000
372.447205	145.660000
372.540710	145.320000
372.634277	145.200000
372.727753	145.140000
372.821320	145.180000
372.914795	145.340000
373.008362	145.160000
373.101837	145.540000
373.195404	145.200000
373.288879	145.580000
373.382446	145.980000
373.475922	146.100000
373.569489	146.260000
373.662964	146.900000
373.756531	146.640000
373.850037	146.580000
373.943573	146.500000
374.037109	145.460000
374.130615	145.300000
374.224152	145.540000
374.317657	145.160000
374.411194	145.800000
374.504730	146.100000
374.598236	145.920000
374.691772	145.680000
374.785309	145.720000
374.878815	144.880000
374.972351	145.380000
375.065887	145.280000
375.159454	145.960000
375.252930	145.900000
375.346497	146.220000
375.440002	146.460000
375.533569	146.340000
375.627045	145.580000
375.720612	145.600000
375.814117	145.860000
375.907684	145.360000
376.001160	144.940000
376.094727	144.720000
376.188232	145.280000
376.281799	145.280000
376.375336	145.540000
376.468872	146.400000
376.562408	146.480000
376.655914	146.060000
376.749451	145.960000
376.842987	146.120000
376.936523	145.920000
377.030060	146.140000
377.123596	146.360000
377.217133	145.800000
377.310669	145.700000
377.404205	145.820000
377.497772	146.400000
377.591278	145.980000
377.684845	146.880000
377.778351	146.800000
377.871918	146.400000
377.965424	145.560000
378.058990	145.520000
378.152496	145.420000
378.246063	145.460000
378.339569	145.880000
378.433136	146.140000
378.526642	146.260000
378.620209	145.880000
378.713745	145.580000
378.807312	145.840000
378.900848	145.640000
378.994385	145.980000
379.087921	145.520000
379.181458	145.800000
379.274994	144.880000
379.368530	145.040000
379.462097	145.020000
379.555634	145.700000
379.649170	145.160000
379.742706	145.420000
379.836273	145.540000
379.929810	144.940000
380.023376	144.680000
380.116882	144.920000
380.210449	144.780000
380.303986	144.380000
380.397552	144.160000
380.491058	144.480000
380.584656	144.380000
380.678162	144.900000
380.771729	145.060000
380.865265	146.040000
380.958832	145.980000
381.052368	146.220000
381.145935	146.080000
381.239471	146.580000
381.333008	146.240000
381.426575	146.080000
381.520111	146.280000
381.613647	146.540000
381.707214	146.120000
381.800751	145.380000
381.894318	145.460000
381.987854	144.900000
382.081421	144.680000
382.174988	144.820000
382.268524	145.080000
382.362091	145.080000
382.455627	145.900000
382.549194	145.480000
382.642731	144.780000
382.736298	144.620000
382.829834	144.440000
382.923401	144.640000
383.016937	145.160000
383.110504	145.920000
383.204041	146.460000
383.297607	146.680000
383.391174	145.960000
383.484741	146.480000
383.578278	146.140000
383.671844	145.720000
383.765411	145.260000
383.858948	145.500000
383.952515	144.920000
384.046051	145.420000
384.139618	145.800000
384.233185	145.940000
384.326721	145.540000
384.420288	146.080000
384.513855	146.020000
384.607422	146.140000
384.700989	146.720000
384.794525	146.560000
384.888123	146.340000
384.981659	146.300000
385.075226	145.740000
385.168762	145.240000
385.262360	145.860000
385.355896	144.940000
385.449463	144.880000
385.542999	145.100000
385.636597	145.660000
385.730164	145.640000
385.823730	145.800000
385.917267	145.600000
386.010834	145.860000
386.104401	145.740000
386.197968	145.800000
386.291534	146.320000
386.385101	146.420000
386.478668	146.660000
386.572235	146.400000
386.665802	146.060000
386.759338	145.600000
386.852905	145.180000
386.946472	144.700000
387.040070	145.020000
387.133606	145.140000
387.227203	145.000000
387.320740	145.540000
387.414337	145.440000
387.507874	145.220000
387.601471	145.260000
387.695007	145.000000
387.788605	144.760000
387.882141	145.380000
387.975739	145.360000
388.069275	145.000000
388.162872	145.660000
388.256439	145.400000
388.350037	144.600000
388.443604	144.380000
388.537170	144.620000
388.630737	144.780000
388.724304	145.240000
388.817871	145.580000
388.911438	145.940000
389.005005	146.060000
389.098602	146.360000
389.192169	145.940000
389.285736	146.280000
389.379333	145.980000
389.472870	145.500000
389.566467	145.020000
389.660034	145.160000
389.753632	144.620000
389.847168	144.980000
389.940765	145.520000
390.034332	145.800000
390.127930	145.200000
390.221466	145.120000
390.315063	144.560000
390.408630	143.780000
390.502228	142.960000
390.595795	144.000000
390.689362	144.720000
390.782959	145.360000
390.876526	145.940000
390.970093	146.240000
391.063690	146.180000
391.157257	145.760000
391.250824	145.860000
391.344421	145.760000
391.437988	146.140000
391.531555	146.180000
391.625153	146.520000
391.718750	146.460000
391.812317	146.440000
391.905914	146.240000
391.999481	146.220000
392.093079	145.940000
392.186615	146.140000
392.280243	145.940000
392.373779	146.000000
392.467407	146.480000
392.560944	146.240000
392.654572	145.620000
392.748108	145.780000
392.841736	145.740000
392.935303	145.060000
393.028900	145.040000
393.122467	145.480000
393.216064	145.260000
393.309631	144.880000
393.403229	144.420000
393.496796	144.400000
393.590393	143.460000
393.683990	144.220000
393.777557	144.940000
393.871155	145.640000
393.964722	146.160000
394.058350	146.500000
394.151917	146.140000
394.245514	145.680000
394.339081	145.760000
394.432678	145.820000
394.526245	146.280000
394.619873	145.660000
394.713409	145.860000
394.807037	145.500000
394.900604	145.760000
394.994202	145.540000
395.087769	146.360000
395.181396	145.960000
395.274994	146.780000
395.368561	145.840000
395.462158	145.860000
395.555756	145.180000
395.649353	145.540000
395.742920	144.620000
395.836517	145.400000
395.930115	144.940000
396.023712	145.320000
396.117279	145.820000
396.210876	145.560000
396.304474	145.480000
396.398071	145.880000
396.491669	146.020000
396.585266	145.320000
396.678833	145.320000
396.772461	145.280000
396.866028	145.120000
396.959656	145.420000
397.053223	146.100000
397.146851	146.140000
397.240417	146.320000
397.334015	147.280000
397.427582	147.200000
397.521210	147.160000
397.614807	148.300000
397.708405	148.900000
397.802002	149.000000
397.895599	150.320000
397.989197	151.520000
398.082794	152.560000
398.176392	154.680000
398.269989	157.180000
398.363586	159.540000
398.457184	163.480000
398.550781	167.660000
398.644379	170.740000
398.737976	174.300000
398.831573	178.660000
398.925201	182.140000
399.018768	185.860000
399.112396	190.940000
399.205963	196.440000
399.299591	202.100000
399.393158	208.160000
399.486786	215.540000
399.580353	223.100000
399.673981	231.920000
399.767578	242.160000
399.861206	253.800000
399.954773	265.380000
400.048401	276.740000
400.141998	285.900000
400.235596	294.100000
400.329193	299.680000
400.422791	305.200000
400.516418	308.020000
400.610016	311.960000
400.703613	313.800000
400.797211	313.520000
400.890808	310.520000
400.984436	307.040000
401.078033	299.600000
401.171631	291.220000
401.265259	281.540000
401.358826	271.060000
401.452484	258.960000
401.546051	247.760000
401.639679	234.380000
401.733246	222.420000
401.826904	210.160000
401.920471	198.920000
402.014099	188.240000
402.107697	179.900000
402.201324	172.960000
402.294891	167.360000
402.388550	163.160000
402.482147	159.760000
402.575745	156.800000
402.669373	153.780000
402.762970	151.880000
402.856567	150.360000
402.950195	149.540000
403.043793	148.640000
403.137390	148.740000
403.231018	147.340000
403.324615	147.600000
403.418243	146.600000
403.511841	146.880000
403.605469	146.320000
403.699066	147.040000
403.792694	146.780000
403.886292	146.800000
403.979919	146.400000
404.073517	146.140000
404.167145	146.420000
404.260712	146.020000
404.354370	146.060000
404.447937	146.140000
404.541595	146.560000
404.635162	146.440000
404.728821	147.000000
404.822418	146.900000
404.916046	146.700000
405.009644	147.020000
405.103271	147.120000
405.196899	146.600000
405.290497	146.620000
405.384125	147.200000
405.477722	146.640000
405.571350	146.100000
405.664948	146.200000
405.758575	145.940000
405.852203	144.880000
405.945801	144.880000
406.039429	145.060000
406.133057	144.900000
406.226654	145.220000
406.320312	145.700000
406.413879	145.880000
406.507538	146.020000
406.601135	145.660000
406.694763	145.900000
406.788361	145.560000
406.882019	145.080000
406.975586	145.440000
407.069244	146.160000
407.162872	145.900000
407.256470	146.080000
407.350098	146.500000
407.443726	145.920000
407.537323	145.520000
407.630951	145.940000
407.724579	145.620000
407.818207	145.680000
407.911804	145.460000
408.005432	145.440000
408.099060	145.480000
408.192688	145.840000
408.286285	145.560000
408.379913	145.580000
408.473572	145.480000
408.567169	144.680000
408.660828	144.680000
408.754395	144.500000
408.848053	144.320000
408.941650	144.300000
409.035309	144.320000
409.128906	144.520000
409.222565	144.680000
409.316132	145.040000
409.409790	145.200000
409.503387	145.260000
409.597046	145.260000
409.690674	145.560000
409.784302	145.440000
409.877930	145.240000
409.971558	145.580000
410.065186	145.480000
410.158783	145.380000
410.252411	145.580000
410.346039	145.820000
410.439667	145.680000
410.533295	145.740000
410.626923	146.080000
410.720551	145.700000
410.814209	146.240000
410.907806	146.360000
411.001465	145.760000
411.095062	145.460000
411.188721	145.580000
411.282318	144.880000
411.375977	144.720000
411.469574	145.220000
411.563232	145.040000
411.656830	144.860000
411.750488	145.000000
411.844086	144.780000
411.937744	144.980000
412.031372	144.940000
412.125000	145.260000
412.218628	145.440000
412.312256	146.240000
412.405884	146.700000
412.499512	146.800000
412.593170	146.880000
412.686798	147.100000
412.780426	146.460000
412.874054	146.180000
412.967682	146.320000
413.061310	146.740000
413.154968	146.440000
413.248566	146.640000
413.342224	146.440000
413.435852	146.520000
413.529510	145.980000
413.623108	145.520000
413.716766	145.520000
413.810364	145.720000
413.904022	145.300000
413.997650	145.120000
414.091309	145.920000
414.184906	145.780000
414.278564	145.520000
414.372192	145.900000
414.465851	146.300000
414.559479	145.800000
414.653107	146.360000
414.746735	145.960000
414.840393	145.840000
414.934021	145.900000
415.027649	145.640000
415.121277	145.440000
415.214935	146.240000
415.308563	146.140000
415.402191	145.560000
415.495850	145.800000
415.589478	145.220000
415.683136	144.580000
415.776733	144.760000
415.870422	145.600000
415.964020	145.160000
416.057678	145.660000
416.151306	145.800000
416.244965	145.380000
416.338562	145.120000
416.432251	145.980000
416.525848	146.480000
416.619507	146.760000
416.713165	147.500000
416.806793	147.300000
416.900421	147.300000
416.994080	146.740000
417.087708	146.700000
417.181366	146.060000
417.274994	146.060000
417.368622	146.020000
417.462280	146.360000
417.555908	146.020000
417.649567	145.980000
417.743195	146.000000
417.836853	145.740000
417.930481	145.300000
418.024170	145.600000
418.117767	146.500000
418.211426	146.820000
418.305054	147.120000
418.398712	146.700000
418.492340	146.680000
418.585999	146.580000
418.679626	146.460000
418.773285	146.260000
418.866913	147.120000
418.960571	147.360000
419.054230	147.240000
419.147858	147.220000
419.241516	147.320000
419.335144	146.960000
419.428802	146.540000
419.522461	146.160000
419.616089	145.780000
419.709747	145.940000
419.803375	146.080000
419.897034	145.900000
419.990662	146.100000
420.084320	146.620000
420.177979	146.420000
420.271606	146.640000
420.365295	147.080000
420.458893	147.220000
420.552582	147.280000
420.646210	147.340000
420.739868	146.840000
420.833496	146.540000
420.927155	145.940000
421.020782	145.260000
421.114471	144.860000
421.208069	144.920000
421.301758	145.120000
421.395386	145.340000
421.489044	145.540000
421.582703	145.700000
421.676361	146.200000
421.769989	145.980000
421.863647	146.400000
421.957306	146.780000
422.050934	147.020000
422.144592	146.740000
422.238251	146.660000
422.331909	146.160000
422.425537	145.640000
422.519196	145.440000
422.612854	144.940000
422.706543	144.580000
422.800140	144.920000
422.893829	144.860000
422.987457	144.340000
423.081146	144.540000
423.174744	145.560000
423.268433	145.240000
423.362061	144.920000
423.455750	145.000000
423.549347	145.260000
423.643036	144.560000
423.736664	144.860000
423.830353	145.480000
423.924011	146.280000
424.017639	145.680000
424.111298	145.680000
424.204956	145.260000
424.298615	145.280000
424.392273	144.800000
424.485931	145.280000
424.579559	145.440000
424.673218	145.720000
424.766876	145.880000
424.860535	145.740000
424.954193	145.680000
425.047882	146.160000
425.141510	146.020000
425.235199	146.040000
425.328796	145.780000
425.422485	145.500000
425.516113	144.700000
425.609802	144.640000
425.703430	144.340000
425.797119	144.620000
425.890747	144.620000
425.984436	145.020000
426.078064	145.300000
426.171753	145.220000
426.265411	144.840000
426.359070	145.460000
426.452728	145.240000
426.546356	144.940000
426.640015	144.880000
426.733673	145.260000
426.827332	144.660000
426.920990	145.580000
427.014648	145.280000
427.108307	145.620000
427.201965	146.240000
427.295624	146.540000
427.389282	145.420000
427.482941	146.140000
427.576630	146.120000
427.670258	145.160000
427.763947	144.940000
427.857574	145.320000
427.951263	144.900000
428.044922	144.640000
428.138611	145.040000
428.232239	145.640000
428.325928	145.860000
428.419556	146.460000
428.513245	146.320000
428.606903	146.480000
428.700562	145.640000
428.794220	145.060000
428.887878	144.460000
428.981537	144.880000
429.075195	144.720000
429.168854	145.240000
429.262512	145.580000
429.356201	145.820000
429.449860	145.540000
429.543518	145.500000
429.637177	145.420000
429.730835	145.180000
429.824493	145.060000
429.918182	145.460000
430.011810	145.000000
430.105530	144.700000
430.199158	145.100000
430.292847	144.920000
430.386475	144.680000
430.480164	145.040000
430.573792	144.880000
430.667511	144.960000
430.761139	145.240000
430.854828	145.360000
430.948456	145.580000
431.042145	146.360000
431.135834	145.920000
431.229492	145.960000
431.323151	146.300000
431.416809	146.200000
431.510468	145.780000
431.604156	145.500000
431.697815	145.640000
431.791473	144.920000
431.885132	144.380000
431.978821	145.000000
432.072479	145.700000
432.166138	145.860000
432.259827	145.860000
432.353485	146.740000
432.447174	146.640000
432.540802	146.060000
432.634491	145.960000
432.728149	146.480000
432.821838	146.480000
432.915466	146.000000
433.009186	146.300000
433.102814	145.760000
433.196503	145.440000
433.290131	145.320000
433.383850	145.740000
433.477509	145.800000
433.571167	146.640000
433.664856	146.880000
433.758514	147.260000
433.852173	146.880000
433.945862	146.720000
434.039520	146.380000
434.133179	145.740000
434.226868	144.960000
434.320526	144.540000
434.414185	145.380000
434.507874	145.140000
434.601562	145.760000
434.695221	145.900000
434.788910	146.260000
434.882538	145.800000
434.976257	145.680000
435.069885	145.780000
435.163574	145.980000
435.257233	145.720000
435.350922	145.600000
435.444580	145.240000
435.538269	144.700000
435.631897	145.100000
435.725616	145.660000
435.819275	146.160000
435.912964	146.980000
436.006622	147.620000
436.100311	147.320000
436.193970	146.740000
436.287628	146.220000
436.381317	145.700000
436.474976	145.360000
436.568665	144.980000
436.662323	145.060000
436.756012	145.000000
436.849670	145.020000
436.943390	144.920000
437.037018	144.980000
437.130737	145.360000
437.224365	145.260000
437.318085	145.260000
437.411713	145.280000
437.505432	145.660000
437.599060	145.880000
437.692780	146.460000
437.786407	146.360000
437.880127	146.040000
437.973755	146.000000
438.067474	145.420000
438.161133	145.160000
438.254822	146.020000
438.348480	146.200000
438.442169	146.500000
438.535828	146.920000
438.629517	146.720000
438.723175	145.820000
438.816864	146.320000
438.910553	145.740000
439.004211	145.400000
439.097900	145.180000
439.191559	145.400000
439.285248	144.620000
439.378906	144.960000
439.472626	145.060000
439.566284	145.140000
439.659973	145.200000
439.753632	145.520000
439.847321	145.860000
439.940979	146.060000
440.034698	146.140000
440.128326	146.000000
440.222046	145.840000
440.315674	144.820000
440.409393	144.580000
440.503082	144.280000
440.596741	144.560000
440.690430	144.640000
440.784088	144.920000
440.877777	144.620000
440.971466	144.880000
441.065125	144.620000
441.158813	144.280000
441.252502	144.220000
441.346161	144.820000
441.439850	145.180000
441.533539	145.000000
441.627197	145.740000
441.720886	145.720000
441.814606	145.860000
441.908234	145.980000
442.001953	145.940000
442.095612	145.760000
442.189301	146.040000
442.282959	146.000000
442.376678	145.360000
442.470306	146.280000
442.564026	146.260000
442.657684	146.340000
442.751404	146.080000
442.845032	146.860000
442.938751	145.940000
443.032440	146.000000
443.126099	145.560000
443.219788	145.780000
443.313477	145.500000
443.407166	145.700000
443.500824	145.620000
443.594513	146.020000
443.688202	145.880000
443.781891	145.440000
443.875549	145.420000
443.969238	145.320000
444.062927	145.060000
444.156647	145.040000
444.250275	145.660000
444.343994	145.660000
444.437653	145.740000
444.531372	145.780000
444.625031	145.380000
444.718719	144.760000
444.812378	144.900000
444.906097	144.660000
444.999756	144.440000
445.093445	144.860000
445.187103	145.040000
445.280823	145.480000
445.374512	145.280000
445.468201	145.380000
445.561859	145.160000
445.655548	145.300000
445.749237	144.400000
445.842926	144.740000
445.936615	145.040000
446.030304	144.800000
446.123962	144.940000
446.217651	145.380000
446.311340	145.280000
446.405029	144.820000
446.498749	145.060000
446.592407	144.620000
446.686096	144.520000
446.779755	144.580000
446.873474	144.960000
446.967133	145.100000
447.060852	144.920000
447.154510	144.800000
447.248230	144.940000
447.341858	144.920000
447.435577	144.380000
447.529236	144.340000
447.622955	144.620000
447.716644	144.720000
447.810333	144.920000
447.904022	145.380000
447.997711	145.580000
448.091400	145.600000
448.185059	145.480000
448.278748	145.680000
448.372437	145.460000
448.466125	145.420000
448.559814	145.440000
448.653503	145.960000
448.747192	145.980000
448.840912	146.580000
448.934570	146.680000
449.028290	146.760000
449.121948	145.840000
449.215637	145.260000
449.309296	144.540000
449.403015	144.780000
449.496674	144.780000
449.590393	145.080000
449.684052	144.680000
449.777771	145.680000
449.871429	145.020000
449.965149	144.820000
450.058838	145.100000
450.152527	146.220000
450.246216	145.600000
450.339905	145.940000
450.433594	145.680000
450.527283	146.240000
450.620972	145.700000
450.714661	145.600000
450.808350	145.660000
450.902039	146.140000
450.995728	145.560000
451.089417	145.160000
451.183105	145.440000
451.276794	145.860000
451.370514	145.400000
451.464172	144.900000
451.557892	145.200000
451.651550	145.140000
451.745270	144.760000
451.838928	144.420000
451.932648	144.940000
452.026306	145.160000
452.120026	144.660000
452.213684	144.900000
452.307404	145.220000
452.401062	144.980000
452.494781	145.300000
452.588470	145.820000
452.682159	145.240000
452.775848	145.280000
452.869537	145.260000
452.963226	144.680000
453.056915	144.400000
453.150604	144.520000
453.244293	145.020000
453.337982	145.400000
453.431671	145.740000
453.525360	146.220000
453.619049	146.300000
453.712769	145.960000
453.806427	145.600000
453.900146	145.140000
453.993805	144.820000
454.087555	145.280000
454.181213	145.300000
454.274933	145.200000
454.368591	145.220000
454.462311	145.100000
454.555969	144.580000
454.649689	145.180000
454.743347	144.940000
454.837067	145.900000
454.930756	146.500000
455.024445	146.880000
455.118134	146.120000
455.211853	146.860000
455.305542	146.020000
455.399231	145.780000
455.492920	145.860000
455.586609	146.060000
455.680298	146.000000
455.773987	145.880000
455.867676	145.580000
455.961365	145.560000
456.055084	145.200000
456.148773	144.660000
456.242493	145.040000
456.336151	145.060000
456.429871	145.100000
456.523529	145.880000
456.617249	145.600000
456.710907	145.980000
456.804626	146.040000
456.898315	145.620000
456.992035	145.320000
457.085693	145.660000
457.179413	144.760000
457.273102	145.660000
457.366791	145.680000
457.460480	145.920000
457.554199	146.460000
457.647888	146.520000
457.741577	145.760000
457.835266	146.000000
457.928955	145.800000
458.022644	145.660000
458.116364	145.940000
458.210052	145.920000
458.303741	145.940000
458.397461	145.500000
458.491119	145.060000
458.584839	145.040000
458.678528	144.460000
458.772247	144.060000
458.865906	144.520000
458.959625	145.360000
459.053284	145.380000
459.147003	145.460000
459.240692	146.180000
459.334412	146.220000
459.428070	145.640000
459.521790	145.440000
459.615479	145.800000
459.709198	145.940000
459.802887	145.520000
459.896576	145.440000
459.990265	145.740000
460.083954	145.820000
460.177673	145.200000
460.271362	145.280000
460.365051	145.100000
460.458740	144.960000
460.552429	144.440000
460.646149	144.520000
460.739838	144.540000
460.833527	144.760000
460.927246	144.480000
461.020905	144.500000
461.114655	144.360000
461.208313	144.640000
461.302032	144.200000
461.395691	144.620000
461.489441	144.940000
461.583099	144.820000
461.676819	144.300000
461.770477	144.880000
461.864197	144.640000
461.957916	144.740000
462.051605	144.200000
462.145294	145.240000
462.238983	144.940000
462.332703	145.360000
462.426392	146.000000
462.520081	146.500000
462.613770	145.600000
462.707489	146.000000
462.801178	145.740000
462.894867	144.900000
462.988556	145.140000
463.082275	145.380000
463.175964	144.960000
463.269684	144.920000
463.363342	144.920000
463.457092	144.340000
463.550751	144.720000
463.644470	144.980000
463.738129	145.000000
463.831879	145.200000
463.925537	146.340000
464.019257	146.100000
464.112946	145.820000
464.206665	145.720000
464.300323	145.620000
464.394043	144.700000
464.487762	144.520000
464.581451	144.920000
464.675140	144.860000
464.768829	145.080000
464.862549	145.640000
464.956238	145.780000
465.049927	145.620000
465.143646	145.660000
465.237335	145.240000
465.331024	145.100000
465.424713	145.160000
465.518433	145.200000
465.612152	145.000000
465.705811	145.100000
465.799561	145.100000
465.893219	144.800000
465.986938	144.700000
466.080597	144.760000
466.174347	145.300000
466.268005	145.100000
466.361725	145.160000
466.455414	144.980000
466.549133	144.840000
466.642792	144.880000
466.736542	144.800000
466.830231	144.880000
466.923920	145.100000
467.017609	145.340000
467.111328	144.520000
467.205017	144.620000
467.298706	144.660000
467.392426	144.820000
467.486115	145.120000
467.579803	145.140000
467.673523	145.320000
467.767212	145.300000
467.860901	145.060000
467.954651	144.940000
468.048309	145.320000
468.142029	145.240000
468.235718	145.240000
468.329437	145.180000
468.423096	145.200000
468.516846	144.900000
468.610504	144.700000
468.704224	144.340000
468.797913	144.180000
468.891632	144.500000
468.985291	144.440000
469.079010	144.460000
469.172729	144.340000
469.266418	144.880000
469.360107	144.660000
469.453827	144.540000
469.547516	144.900000
469.641205	145.460000
469.734924	145.460000
469.828613	145.640000
469.922302	146.100000
470.016022	145.920000
470.109711	145.620000
470.203430	144.920000
470.297150	144.020000
470.390808	144.000000
470.484558	143.820000
470.578217	144.460000
470.671936	144.760000
470.765625	145.800000
470.859344	145.500000
470.953003	146.000000
471.046753	145.480000
471.140411	145.080000
471.234131	145.040000
471.327820	145.680000
471.421539	145.400000
471.515228	144.840000
471.608948	145.160000
471.702637	144.640000
471.796326	144.320000
471.890045	144.400000
471.983734	145.020000
472.077423	144.800000
472.171143	144.940000
472.264832	144.900000
472.358521	144.480000
472.452240	144.200000
472.545929	144.980000
472.639648	145.200000
472.733337	145.700000
472.827057	146.020000
472.920746	146.240000
473.014465	146.440000
473.108124	146.280000
473.201874	146.040000
473.295532	145.960000
473.389252	146.280000
473.482941	146.040000
473.576660	145.740000
473.670319	145.660000
473.764069	145.980000
473.857727	145.600000
473.951477	145.820000
474.045166	146.680000
474.138855	146.280000
474.232574	146.120000
474.326263	146.420000
474.419952	146.360000
474.513672	146.020000
474.607361	146.400000
474.701050	146.680000
474.794769	146.880000
474.888458	146.680000
474.982178	146.560000
475.075867	146.460000
475.169586	146.000000
475.263275	145.540000
475.356995	145.480000
475.450653	145.140000
475.544403	144.700000
475.638062	145.520000
475.731812	145.360000
475.825470	145.100000
475.919189	145.460000
476.012878	146.080000
476.106598	145.340000
476.200256	145.720000
476.294006	145.740000
476.387695	145.620000
476.481384	145.260000
476.575104	145.160000
476.668793	144.620000
476.762512	144.280000
476.856201	144.680000
476.949890	144.420000
477.043610	144.220000
477.137299	144.320000
477.230988	144.780000
477.324707	144.180000
477.418396	144.940000
477.512146	145.060000
477.605804	145.080000
477.699524	145.260000
477.793213	145.340000
477.886932	144.980000
477.980591	145.160000
478.074341	145.260000
478.167999	144.960000
478.261749	144.940000
478.355408	144.940000
478.449127	145.060000
478.542816	145.720000
478.636536	146.440000
478.730225	146.560000
478.823944	146.880000
478.917633	146.880000
479.011322	146.940000
479.105042	146.220000
479.198730	146.600000
479.292450	146.260000
479.386139	146.480000
479.479828	146.240000
479.573547	146.940000
479.667267	146.600000
479.760925	146.440000
479.854675	146.460000
479.948334	146.420000
480.042084	145.580000
480.135742	145.720000
480.229462	145.840000
480.323151	145.480000
480.416870	144.500000
480.510529	144.900000
480.604279	144.120000
480.697937	144.260000
480.791656	143.900000
480.885345	144.460000
480.979065	144.380000
481.072754	145.380000
481.166473	145.700000
481.260132	146.060000
481.353882	146.080000
481.447540	145.920000
481.541260	145.740000
481.635010	145.000000
481.728668	145.060000
481.822388	145.000000
481.916077	145.080000
482.009796	144.820000
482.103485	145.440000
482.197205	145.420000
482.290863	145.540000
482.384613	145.240000
482.478271	144.860000
482.571991	144.300000
482.665680	144.060000
482.759399	144.720000
482.853058	145.220000
482.946808	145.480000
483.040466	145.540000
483.134216	145.460000
483.227875	144.620000
483.321594	145.060000
483.415283	145.120000
483.509003	145.400000
483.602661	145.320000
483.696411	145.720000
483.790070	145.340000
483.883789	145.320000
483.977478	145.340000
484.071198	145.640000
484.164917	145.240000
484.258606	144.480000
484.352325	144.480000
484.445984	144.500000
484.539734	144.520000
484.633392	143.960000
484.727142	144.640000
484.820801	144.380000
484.914520	144.060000
485.008209	143.900000
485.101929	144.920000
485.195587	144.580000
485.289337	144.860000
485.382996	144.960000
485.476715	145.320000
485.570404	145.520000
485.664124	145.660000
485.757782	146.260000
485.851532	145.800000
485.945190	145.460000
486.038910	145.560000
486.132599	145.940000
486.226318	144.980000
486.319977	145.300000
486.413727	145.860000
486.507446	145.020000
486.601105	144.180000
486.694855	144.140000
486.788513	144.080000
486.882233	143.740000
486.975922	143.840000
487.069641	144.060000
487.163300	144.140000
487.257050	145.360000
487.350708	144.940000
487.444427	144.740000
487.538116	145.000000
487.631836	145.020000
487.725494	144.220000
487.819214	144.440000
487.912903	144.700000
488.006622	144.720000
488.100281	145.220000
488.194031	145.280000
488.287689	145.800000
488.381409	146.560000
488.475098	146.320000
488.568817	146.320000
488.662476	146.120000
488.756226	145.380000
488.849945	144.360000
488.943604	144.700000
489.037354	144.800000
489.131012	144.640000
489.224731	144.860000
489.318390	145.200000
489.412140	145.160000
489.505798	144.780000
489.599518	144.720000
489.693207	144.840000
489.786926	144.660000
489.880585	144.680000
489.974335	145.060000
490.067993	146.240000
490.161713	146.320000
490.255371	147.020000
490.349121	147.100000
490.442780	146.700000
490.536499	145.460000
490.630188	145.440000
490.723907	144.720000
490.817566	144.720000
490.911285	144.980000
491.004974	145.040000
491.098694	144.760000
491.192413	145.520000
491.286102	145.180000
491.379822	145.060000
491.473480	145.380000
491.567200	145.360000
491.660889	144.560000
491.754608	144.580000
491.848267	144.440000
491.941986	144.280000
492.035675	144.580000
492.129395	144.880000
492.223053	144.700000
492.316772	145.340000
492.410461	145.500000
492.504181	145.620000
492.597839	145.180000
492.691559	145.760000
492.785248	145.340000
492.878967	145.400000
492.972626	145.020000
493.066345	145.340000
493.160034	144.540000
493.253754	144.500000
493.347412	144.160000
493.441132	144.220000
493.534882	144.520000
493.628540	145.160000
493.722260	145.540000
493.815918	145.960000
493.909668	146.620000
494.003326	146.780000
494.097046	146.700000
494.190704	146.360000
494.284454	146.440000
494.378113	146.260000
494.471832	145.960000
494.565491	145.840000
494.659210	145.800000
494.752899	145.420000
494.846619	145.060000
494.940277	145.340000
495.033997	145.140000
495.127686	145.020000
495.221405	144.820000
495.315063	145.060000
495.408783	144.940000
495.502441	145.240000
495.596191	145.500000
495.689850	145.720000
495.783569	145.980000
495.877228	146.000000
495.970947	145.720000
496.064697	145.680000
496.158356	146.360000
496.252075	145.820000
496.345734	145.540000
496.439453	146.620000
496.533142	146.660000
496.626862	146.480000
496.720520	146.740000
496.814240	146.840000
496.907898	146.040000
497.001617	145.800000
497.095306	144.840000
497.189026	144.640000
497.282684	144.800000
497.376404	145.100000
497.470062	144.880000
497.563782	145.420000
497.657471	145.560000
497.751190	145.200000
497.844849	144.800000
497.938568	145.060000
498.032227	145.140000
498.125946	144.920000
498.219635	144.880000
498.313354	144.900000
498.407074	144.800000
498.500732	145.320000
498.594452	145.760000
498.688110	145.580000
498.781830	145.540000
498.875519	145.660000
498.969238	144.980000
499.062897	144.420000
499.156616	144.900000
499.250275	145.040000
499.343994	144.500000
499.437653	144.640000
499.531372	145.040000
499.625061	145.660000
499.718781	145.820000
499.812439	146.560000
499.906158	146.380000
499.999817	145.960000
500.093536	144.860000
500.187195	144.720000
500.280914	144.560000
500.374573	144.620000
500.468323	144.680000
500.561981	145.180000
500.655701	144.920000
500.749420	144.820000
500.843079	145.400000
500.936798	145.640000
501.030457	145.960000
501.124176	146.300000
501.217834	146.080000
501.311554	145.520000
501.405212	145.280000
501.498962	144.460000
501.592621	144.340000
501.686340	144.860000
501.779999	144.860000
501.873718	145.160000
501.967377	145.540000
502.061096	145.340000
502.154755	144.860000
502.248474	145.180000
502.342133	144.980000
502.435852	145.120000
502.529510	145.920000
502.623230	146.680000
502.716888	146.140000
502.810608	146.420000
502.904266	146.960000
502.997986	146.200000
503.091705	145.340000
503.185364	145.460000
503.279083	145.240000
503.372772	144.780000
503.466492	144.460000
503.560150	144.640000
503.653870	144.900000
503.747528	144.880000
503.841248	144.900000
503.934906	145.260000
504.028625	145.120000
504.122284	145.260000
504.216003	145.680000
504.309662	145.160000
504.403381	145.560000
504.497040	145.860000
504.590759	145.680000
504.684418	145.920000
504.778137	146.560000
504.871796	146.560000
504.965515	146.520000
505.059174	146.580000
505.152893	145.620000
505.246521	144.980000
505.340240	144.760000
505.433899	144.940000
505.527618	144.840000
505.621338	145.360000
505.714996	145.440000
505.808716	144.900000
505.902374	145.320000
505.996094	145.520000
506.089752	145.420000
506.183472	145.680000
506.277130	146.400000
506.370850	145.960000
506.464508	145.380000
506.558228	145.500000
506.651886	145.060000
506.745605	144.960000
506.839264	144.700000
506.932983	145.140000
507.026611	144.940000
507.120331	145.640000
507.213989	144.960000
507.307709	144.920000
507.401367	145.160000
507.495087	145.880000
507.588745	145.040000
507.682465	146.280000
507.776123	146.660000
507.869843	146.260000
507.963531	145.580000
508.057190	146.220000
508.150909	145.240000
508.244568	145.320000
508.338287	145.300000
508.431946	145.320000
508.525665	145.240000
508.619324	145.340000
508.713013	145.420000
508.806671	146.060000
508.900391	146.940000
508.994049	146.940000
509.087769	146.720000
509.181427	146.480000
509.275146	145.760000
509.368774	144.820000
509.462494	144.900000
509.556152	145.100000
509.649872	145.540000
509.743530	145.760000
509.837250	146.020000
509.930878	146.120000
510.024597	146.100000
510.118256	145.580000
510.211975	145.340000
510.305695	145.180000
510.399353	145.020000
510.493042	145.580000
510.586700	145.700000
510.680420	146.340000
510.774078	146.220000
510.867798	146.500000
510.961426	145.720000
511.055145	145.900000
511.148804	145.340000
511.242523	145.780000
511.336151	145.460000
511.429871	146.160000
511.523529	145.520000
511.617249	145.440000
511.710876	144.980000
511.804596	144.680000
511.898254	144.320000
511.991974	145.040000
512.085632	145.080000
512.179321	145.220000
512.272949	145.780000
512.366699	146.380000
512.460327	146.020000
512.554077	146.920000
512.647766	146.900000
512.741394	146.720000
512.835144	146.680000
512.928772	146.660000
513.022461	146.160000
513.116150	145.820000
513.209839	146.080000
513.303467	145.300000
513.397217	145.100000
513.490845	145.020000
513.584595	145.280000
513.678223	144.740000
513.771912	144.640000
513.865601	144.800000
513.959290	144.120000
514.052917	143.880000
514.146667	144.600000
514.240295	144.900000
514.333984	145.140000
514.427673	145.540000
514.521362	146.160000
514.614990	145.580000
514.708740	145.900000
514.802368	145.920000
514.896057	146.300000
514.989746	146.880000
515.083435	146.680000
515.177124	146.780000
515.270752	146.560000
515.364502	146.540000
515.458130	146.080000
515.551819	146.040000
515.645508	145.440000
515.739197	145.300000
515.832825	145.180000
515.926575	144.600000
516.020203	144.860000
516.113892	145.500000
516.207520	145.680000
516.301270	145.780000
516.394897	146.160000
516.488586	146.760000
516.582275	146.480000
516.675964	145.780000
516.769592	145.580000
516.863281	146.500000
516.956970	146.520000
517.050659	146.360000
517.144287	146.500000
517.238037	146.880000
517.331665	145.540000
517.425354	144.800000
517.519043	144.800000
517.612732	145.600000
517.706421	145.100000
517.800049	145.020000
517.893738	144.900000
517.987427	144.980000
518.081116	144.780000
518.174744	144.520000
518.268433	145.060000
518.362122	146.120000
518.455811	145.900000
518.549438	146.180000
518.643127	147.360000
518.736816	146.880000
518.830505	146.160000
518.924133	146.180000
519.017822	145.940000
519.111511	145.420000
519.205200	146.160000
519.298828	146.240000
519.392517	146.080000
519.486206	146.460000
519.579895	146.260000
519.673523	145.800000
519.767212	145.660000
519.860901	146.200000
519.954590	145.740000
520.048279	145.640000
520.141907	145.460000
520.235596	146.300000
520.329224	146.460000
520.422974	146.420000
520.516602	146.300000
520.610291	146.240000
520.703918	145.660000
520.797607	145.120000
520.891296	145.100000
520.984985	145.400000
521.078613	146.220000
521.172302	145.940000
521.265930	147.200000
521.359680	147.540000
521.453308	147.280000
521.546997	146.720000
521.640625	146.820000
521.734314	145.700000
521.827942	145.380000
521.921692	145.580000
522.015320	145.700000
522.109009	145.380000
522.202698	145.380000
522.296326	145.160000
522.390015	145.480000
522.483704	145.600000
522.577393	145.820000
522.671021	145.740000
522.764709	145.540000
522.858337	145.560000
522.952026	145.500000
523.045654	145.980000
523.139404	146.740000
523.233032	147.320000
523.326721	146.880000
523.420349	146.640000
523.514038	146.020000
523.607666	146.120000
523.701355	145.600000
523.795044	145.580000
523.888733	145.760000
523.982361	146.420000
524.076050	145.940000
524.169678	146.760000
524.263367	146.440000
524.356995	145.960000
524.450684	145.560000
524.544373	145.060000
524.638062	144.660000
524.731750	145.160000
524.825378	145.260000
524.919067	144.740000
525.012695	145.260000
525.106384	145.180000
525.200012	145.140000
525.293701	145.160000
525.387329	145.740000
525.481018	145.560000
525.574646	145.580000
525.668396	145.560000
525.762024	146.200000
525.855713	146.240000
525.949341	145.820000
526.043030	146.060000
526.136658	145.760000
526.230347	145.280000
526.323975	144.840000
526.417664	144.880000
526.511292	144.800000
526.604980	145.040000
526.698608	144.900000
526.792297	144.960000
526.885925	145.280000
526.979614	145.500000
527.073303	145.300000
527.166931	145.440000
527.260620	145.700000
527.354309	146.200000
527.447998	145.740000
527.541626	145.720000
527.635315	145.960000
527.728943	146.520000
527.822632	146.280000
527.916260	146.560000
528.009949	146.860000
528.103577	146.400000
528.197266	145.560000
528.290894	145.540000
528.384583	145.340000
528.478210	145.400000
528.571899	145.960000
528.665527	146.460000
528.759216	146.360000
528.852844	146.660000
528.946533	146.740000
529.040161	146.680000
529.133850	146.240000
529.227478	146.400000
529.321167	146.560000
529.414856	146.520000
529.508484	146.640000
529.602173	146.680000
529.695801	146.440000
529.789490	146.220000
529.883057	146.060000
529.976746	146.140000
530.070374	146.680000
530.164062	146.380000
530.257690	146.520000
530.351379	146.720000
530.445007	146.160000
530.538696	145.320000
530.632324	145.800000
530.726013	145.460000
530.819641	145.580000
530.913330	145.900000
531.006958	146.420000
531.100647	146.840000
531.194275	147.060000
531.287964	146.380000
531.381592	146.260000
531.475220	146.220000
531.568848	145.260000
531.662537	144.840000
531.756226	145.560000
531.849854	145.240000
531.943542	145.220000
532.037170	144.940000
532.130859	145.400000
532.224487	144.760000
532.318176	144.560000
532.411804	144.820000
532.505432	145.480000
532.599060	145.240000
532.692749	145.240000
532.786377	146.140000
532.880066	145.200000
532.973694	144.700000
533.067383	144.820000
533.161011	145.260000
533.254639	144.820000
533.348267	145.080000
533.441956	145.700000
533.535583	145.520000
533.629272	145.300000
533.722900	144.760000
533.816589	145.020000
533.910156	145.000000
534.003845	144.660000
534.097534	144.920000
534.191162	145.840000
534.284851	146.100000
534.378479	145.780000
534.472107	146.200000
534.565735	145.780000
534.659424	145.640000
534.753052	145.580000
534.846741	145.520000
534.940369	145.880000
535.033997	145.940000
535.127625	145.920000
535.221313	146.020000
535.314941	146.040000
535.408630	145.280000
535.502197	145.540000
535.595886	145.120000
535.689514	144.960000
535.783203	145.660000
535.876831	146.300000
535.970459	146.260000
536.064087	146.320000
536.157776	146.240000
536.251404	145.640000
536.345093	145.340000
536.438721	145.300000
536.532349	145.580000
536.626038	145.620000
536.719666	146.100000
536.813293	145.780000
536.906921	145.560000
537.000610	145.860000
537.094238	145.960000
537.187866	145.540000
537.281494	145.700000
537.375183	146.120000
537.468811	145.740000
537.562439	145.900000
537.656067	146.000000
537.749756	146.100000
537.843384	146.440000
537.937012	146.620000
538.030640	146.060000
538.124329	146.020000
538.217896	146.180000
538.311584	145.700000
538.405212	145.500000
538.498901	146.040000
538.592468	146.600000
538.686157	145.900000
538.779785	145.180000
538.873413	144.960000
538.967102	144.320000
539.060730	143.640000
539.154358	144.580000
539.247986	145.200000
539.341675	145.400000
539.435242	145.600000
539.528931	145.840000
539.622559	145.180000
539.716187	145.900000
539.809814	145.780000
539.903503	146.120000
539.997070	145.780000
540.090759	145.860000
540.184387	145.160000
540.278015	145.760000
540.371643	145.640000
540.465332	145.900000
540.558899	145.920000
540.652588	145.800000
540.746216	145.180000
540.839844	145.620000
540.933472	145.220000
541.027100	145.240000
541.120728	145.300000
541.214417	145.480000
541.308044	145.200000
541.401672	145.520000
541.495300	145.280000
541.588928	145.360000
541.682617	145.080000
541.776184	144.980000
541.869873	145.200000
541.963440	145.720000
542.057129	145.560000
542.150757	145.920000
542.244385	145.580000
542.338013	144.940000
542.431641	144.720000
542.525269	144.940000
542.618958	145.140000
542.712524	145.460000
542.806213	145.800000
542.899780	145.760000
542.993469	145.380000
543.087036	145.020000
543.180725	144.420000
543.274292	144.480000
543.367981	144.940000
543.461548	145.220000
543.555237	145.420000
543.648926	146.240000
543.742493	146.840000
543.836182	146.440000
543.929749	146.340000
544.023437	146.080000
544.117004	145.840000
544.210693	145.580000
544.304260	145.720000
544.397949	145.580000
544.491516	145.780000
544.585205	145.960000
544.678772	145.440000
544.772461	145.680000
544.866028	146.020000
544.959717	146.220000
545.053284	145.740000
545.146973	146.180000
545.240540	146.120000
545.334229	146.280000
545.427795	146.060000
545.521423	146.060000
545.615051	146.020000
545.708679	146.220000
545.802307	146.100000
545.895935	146.560000
545.989624	147.280000
546.083191	146.940000
546.176880	146.720000
546.270447	146.420000
546.364136	146.440000
546.457703	146.040000
546.551331	146.080000
546.644958	146.300000
546.738586	147.060000
546.832214	146.540000
546.925842	146.300000
547.019409	146.480000
547.113098	146.040000
547.206665	145.260000
547.300354	145.300000
547.393921	145.500000
547.487549	145.800000
547.581177	145.740000
547.674805	145.840000
547.768433	145.260000
547.862061	145.400000
547.955627	144.920000
548.049316	145.600000
548.142883	145.780000
548.236572	146.400000
548.330139	146.480000
548.423767	146.380000
548.517456	146.120000
548.611023	146.460000
548.704651	145.800000
548.798279	145.740000
548.891907	146.380000
548.985474	145.860000
549.079163	145.660000
549.172729	145.820000
549.266357	145.580000
549.359985	145.500000
549.453613	145.500000
549.547180	145.220000
549.640869	145.680000
549.734436	145.600000
549.828064	145.720000
549.921631	145.740000
550.015320	145.520000
550.108887	146.040000
550.202515	145.980000
550.296143	145.320000
550.389771	145.040000
550.483337	145.580000
550.576965	144.940000
550.670593	145.480000
550.764221	146.020000
550.857849	146.260000
550.951477	145.760000
551.045105	145.680000
551.138672	145.180000
551.232300	144.780000
551.325928	145.220000
551.419556	145.160000
551.513123	145.320000
551.606750	145.400000
551.700378	145.560000
551.794006	145.120000
551.887573	145.340000
551.981201	145.340000
552.074768	145.200000
552.168457	145.080000
552.262024	146.140000
552.355652	146.160000
552.449219	146.840000
552.542847	147.220000
552.636475	146.840000
552.730103	145.860000
552.823669	145.680000
552.917297	145.160000
553.010864	145.120000
553.104553	145.700000
553.198181	145.320000
553.291748	145.800000
553.385376	145.820000
553.478943	145.340000
553.572571	145.140000
553.666199	145.720000
553.759827	145.300000
553.853394	144.660000
553.947021	145.100000
554.040588	145.340000
554.134216	145.220000
554.227783	145.980000
554.321411	146.900000
554.415039	146.600000
554.508667	146.180000
554.602234	146.400000
554.695862	145.580000
554.789429	145.160000
554.883057	145.360000
554.976624	145.360000
555.070251	145.180000
555.163818	145.100000
555.257507	145.140000
555.351074	145.080000
555.444702	146.100000
555.538330	145.660000
555.631897	146.060000
555.725525	145.920000
555.819092	145.980000
555.912720	145.020000
556.006287	146.020000
556.099915	146.120000
556.193481	146.120000
556.287109	146.220000
556.380676	146.220000
556.474304	145.840000
556.567871	145.940000
556.661499	145.740000
556.755066	145.660000
556.848694	145.800000
556.942261	145.520000
557.035889	145.580000
557.129517	146.020000
557.223145	146.200000
557.316711	146.180000
557.410339	146.600000
557.503906	146.200000
557.597473	146.320000
557.691040	146.320000
557.784668	146.320000
557.878296	146.240000
557.971863	146.740000
558.065491	146.660000
558.159058	146.300000
558.252686	146.880000
558.346252	147.240000
558.439880	146.140000
558.533447	145.700000
558.627075	145.460000
558.720642	144.820000
558.814270	144.640000
558.907837	145.000000
559.001465	144.800000
559.095032	145.420000
559.188660	145.500000
559.282227	144.620000
559.375854	145.240000
559.469360	145.460000
559.562988	145.840000
559.656555	145.820000
559.750183	146.180000
559.843750	146.080000
559.937378	146.120000
560.030945	145.880000
560.124573	0.000000
560.218140	0.000000
560.311707	0.000000
560.405334	0.000000
560.498901	0.000000
560.592529	0.000000
560.686096	0.000000
560.779724	0.000000
560.873291	0.000000
560.966858	0.000000
561.060425	0.000000
561.154053	0.000000
561.247620	0.000000
561.341248	0.000000
561.434814	0.000000
561.528381	0.000000
561.621948	0.000000
561.715576	0.000000
561.809143	0.000000
561.902771	0.000000
561.996277	0.000000
562.089905	0.000000
562.183472	0.000000
562.277100	0.000000
