Model Number: SPM-002-B   
Serial Number: 70087108
Firmware Version: 004.15.4
Exposure Time: 100000.000000us
Data Taken on: 11-12-2020 18:51:54.968
Wavelength	Amplitude
221.570786	0.000000
221.663406	0.000000
221.756027	0.000000
221.848648	0.000000
221.941269	0.000000
222.033905	0.000000
222.126526	0.000000
222.219162	0.000000
222.311798	0.000000
222.404419	0.000000
222.497055	0.000000
222.589676	0.000000
222.682312	0.000000
222.774933	0.000000
222.867569	0.000000
222.960205	0.000000
223.052841	0.000000
223.145462	0.000000
223.238098	0.000000
223.330734	0.000000
223.423386	0.000000
223.516022	0.000000
223.608658	0.000000
223.701309	0.000000
223.793945	0.000000
223.886581	0.000000
223.979218	0.000000
224.071869	0.000000
224.164505	0.000000
224.257156	0.000000
224.349792	0.000000
224.442444	0.000000
224.535095	0.000000
224.627747	0.000000
224.720398	0.000000
224.813034	0.000000
224.905685	0.000000
224.998337	144.440000
225.090988	144.400000
225.183640	144.420000
225.276291	144.380000
225.368942	144.920000
225.461594	145.580000
225.554245	145.940000
225.646912	146.060000
225.739578	146.800000
225.832230	147.020000
225.924896	146.380000
226.017548	146.480000
226.110199	147.080000
226.202866	145.980000
226.295532	145.560000
226.388184	145.360000
226.480850	144.900000
226.573517	144.400000
226.666168	145.080000
226.758835	145.520000
226.851501	146.160000
226.944183	146.360000
227.036850	145.740000
227.129517	145.740000
227.222183	145.880000
227.314850	145.580000
227.407516	145.900000
227.500198	146.960000
227.592865	146.560000
227.685532	145.820000
227.778214	145.900000
227.870880	145.780000
227.963562	145.920000
228.056229	146.180000
228.148926	146.440000
228.241592	147.220000
228.334274	147.200000
228.426956	146.780000
228.519638	147.140000
228.612305	146.700000
228.704987	146.220000
228.797668	146.260000
228.890350	145.960000
228.983032	145.060000
229.075714	145.840000
229.168396	145.560000
229.261108	144.880000
229.353790	145.220000
229.446472	145.680000
229.539169	145.600000
229.631851	145.320000
229.724533	145.600000
229.817230	145.600000
229.909912	146.440000
230.002609	146.100000
230.095306	146.320000
230.187988	146.600000
230.280685	146.360000
230.373383	145.440000
230.466095	145.320000
230.558792	145.440000
230.651474	145.500000
230.744171	145.560000
230.836868	145.420000
230.929581	145.840000
231.022278	145.760000
231.114975	145.700000
231.207672	145.460000
231.300369	145.940000
231.393082	145.780000
231.485779	145.440000
231.578506	145.280000
231.671204	145.520000
231.763916	145.180000
231.856613	145.220000
231.949326	145.860000
232.042023	145.740000
232.134735	145.780000
232.227448	145.660000
232.320160	145.880000
232.412872	145.580000
232.505585	146.340000
232.598297	146.500000
232.691010	146.400000
232.783722	145.640000
232.876450	146.240000
232.969162	145.620000
233.061874	145.320000
233.154587	145.080000
233.247314	145.840000
233.340027	145.160000
233.432739	145.560000
233.525467	145.480000
233.618179	146.280000
233.710907	145.700000
233.803635	146.120000
233.896347	146.000000
233.989090	146.840000
234.081818	146.500000
234.174545	146.840000
234.267258	146.240000
234.359985	146.220000
234.452713	145.900000
234.545441	145.860000
234.638168	145.720000
234.730896	146.260000
234.823639	146.060000
234.916367	146.340000
235.009094	146.240000
235.101822	146.420000
235.194580	146.160000
235.287308	146.160000
235.380051	145.220000
235.472778	145.680000
235.565521	145.600000
235.658249	145.360000
235.750992	145.600000
235.843719	145.960000
235.936462	146.200000
236.029205	146.100000
236.121948	145.920000
236.214691	146.120000
236.307449	146.600000
236.400192	145.920000
236.492935	145.620000
236.585678	146.000000
236.678421	145.600000
236.771164	145.340000
236.863907	146.000000
236.956665	146.680000
237.049408	147.900000
237.142151	147.540000
237.234909	148.160000
237.327652	147.800000
237.420410	147.360000
237.513153	146.560000
237.605927	146.680000
237.698669	145.880000
237.791428	145.300000
237.884186	145.780000
237.976944	145.360000
238.069702	145.740000
238.162445	145.340000
238.255203	145.600000
238.347961	145.860000
238.440720	145.700000
238.533478	145.460000
238.626266	145.520000
238.719025	146.000000
238.811783	145.460000
238.904541	145.400000
238.997314	145.300000
239.090073	145.180000
239.182831	145.020000
239.275604	145.680000
239.368362	145.660000
239.461136	145.940000
239.553909	146.140000
239.646667	146.180000
239.739441	145.740000
239.832214	145.980000
239.925003	146.080000
240.017761	146.420000
240.110535	146.720000
240.203308	146.000000
240.296082	145.960000
240.388855	145.760000
240.481628	145.700000
240.574417	145.820000
240.667191	146.160000
240.759964	145.980000
240.852737	145.960000
240.945526	145.680000
241.038315	145.380000
241.131088	145.340000
241.223877	145.920000
241.316650	145.540000
241.409439	145.940000
241.502228	145.440000
241.595001	146.020000
241.687790	145.680000
241.780579	145.980000
241.873367	146.080000
241.966141	146.640000
242.058929	145.760000
242.151718	146.000000
242.244507	146.280000
242.337311	145.400000
242.430099	145.760000
242.522903	146.480000
242.615692	145.980000
242.708481	146.040000
242.801270	146.680000
242.894073	146.180000
242.986862	146.320000
243.079651	147.020000
243.172455	146.740000
243.265244	146.660000
243.358063	146.460000
243.450867	146.340000
243.543655	145.880000
243.636459	145.980000
243.729263	146.260000
243.822067	146.580000
243.914856	146.860000
244.007660	147.060000
244.100464	147.100000
244.193268	146.820000
244.286072	146.480000
244.378876	145.760000
244.471680	145.540000
244.564499	145.700000
244.657318	146.200000
244.750122	146.560000
244.842926	146.280000
244.935745	146.380000
245.028549	145.880000
245.121368	145.440000
245.214172	145.380000
245.306992	145.920000
245.399796	145.740000
245.492615	146.220000
245.585434	146.140000
245.678253	145.920000
245.771072	145.720000
245.863892	146.260000
245.956711	146.420000
246.049530	146.360000
246.142349	146.120000
246.235168	146.340000
246.327988	146.360000
246.420807	145.740000
246.513626	145.900000
246.606445	146.140000
246.699280	146.020000
246.792099	145.900000
246.884918	145.820000
246.977753	145.440000
247.070587	145.640000
247.163422	145.520000
247.256241	145.460000
247.349075	145.820000
247.441895	145.880000
247.534729	145.640000
247.627563	145.520000
247.720383	146.200000
247.813217	146.120000
247.906052	146.220000
247.998886	146.180000
248.091736	146.440000
248.184570	145.640000
248.277405	145.800000
248.370239	146.660000
248.463074	147.800000
248.555908	148.060000
248.648743	147.780000
248.741592	147.560000
248.834427	146.680000
248.927261	145.260000
249.020111	145.500000
249.112946	146.340000
249.205795	146.020000
249.298630	146.320000
249.391495	146.940000
249.484344	146.480000
249.577179	146.280000
249.670029	146.780000
249.762878	147.200000
249.855728	147.000000
249.948563	147.160000
250.041412	146.420000
250.134262	146.680000
250.227112	146.580000
250.319962	146.500000
250.412827	146.500000
250.505692	146.380000
250.598541	146.060000
250.691391	145.580000
250.784241	145.700000
250.877106	145.560000
250.969955	145.760000
251.062805	146.160000
251.155670	146.760000
251.248520	146.440000
251.341385	146.780000
251.434235	146.520000
251.527100	146.080000
251.619965	145.420000
251.712814	146.000000
251.805695	145.880000
251.898560	146.240000
251.991425	146.680000
252.084290	146.900000
252.177155	146.460000
252.270020	146.120000
252.362885	146.040000
252.455750	145.720000
252.548615	145.320000
252.641479	145.560000
252.734360	145.740000
252.827240	145.580000
252.920105	145.580000
253.012970	145.920000
253.105850	145.660000
253.198715	145.240000
253.291595	145.560000
253.384460	145.240000
253.477341	145.060000
253.570221	145.280000
253.663086	145.340000
253.755966	145.620000
253.848846	145.720000
253.941727	146.020000
254.034592	145.760000
254.127472	145.400000
254.220367	145.300000
254.313248	145.380000
254.406128	144.920000
254.499008	145.140000
254.591904	145.920000
254.684784	146.080000
254.777664	146.200000
254.870544	145.820000
254.963440	145.700000
255.056335	145.440000
255.149216	145.480000
255.242111	145.700000
255.334991	146.360000
255.427887	146.500000
255.520767	146.920000
255.613663	146.900000
255.706558	146.400000
255.799438	146.180000
255.892334	145.680000
255.985229	145.600000
256.078125	145.360000
256.171021	145.500000
256.263916	145.900000
256.356812	146.220000
256.449707	146.020000
256.542603	145.600000
256.635498	146.100000
256.728394	145.860000
256.821289	145.780000
256.914215	145.940000
257.007080	146.540000
257.100006	146.340000
257.192932	146.680000
257.285828	146.880000
257.378723	146.620000
257.471619	146.180000
257.564545	145.680000
257.657440	145.580000
257.750336	146.020000
257.843262	145.840000
257.936157	147.020000
258.029053	147.680000
258.121979	147.460000
258.214874	146.840000
258.307800	146.840000
258.400696	145.780000
258.493622	145.220000
258.586517	144.900000
258.679443	145.300000
258.772339	144.980000
258.865265	144.780000
258.958160	144.720000
259.051086	145.260000
259.144012	144.840000
259.236938	145.600000
259.329834	145.980000
259.422791	145.780000
259.515717	145.300000
259.608612	145.360000
259.701538	145.300000
259.794464	145.360000
259.887390	145.300000
259.980316	145.280000
260.073212	145.100000
260.166138	144.180000
260.259064	144.320000
260.351990	145.280000
260.444916	145.300000
260.537842	146.000000
260.630768	146.860000
260.723694	146.840000
260.816620	146.280000
260.909546	146.280000
261.002472	145.500000
261.095398	145.100000
261.188354	144.800000
261.281281	144.560000
261.374207	144.760000
261.467133	145.920000
261.560089	146.260000
261.653015	146.200000
261.745972	147.080000
261.838867	147.580000
261.931824	147.540000
262.024780	147.060000
262.117706	147.240000
262.210663	146.940000
262.303589	146.720000
262.396515	146.360000
262.489471	146.940000
262.582397	146.840000
262.675354	146.220000
262.768280	146.180000
262.861237	146.280000
262.954163	146.160000
263.047119	145.980000
263.140045	146.060000
263.233002	145.960000
263.325958	145.720000
263.418884	145.440000
263.511841	145.520000
263.604797	145.760000
263.697723	145.680000
263.790680	145.480000
263.883636	145.720000
263.976593	145.740000
264.069550	145.640000
264.162476	145.440000
264.255463	145.520000
264.348419	145.380000
264.441376	145.760000
264.534332	145.880000
264.627289	146.120000
264.720245	146.660000
264.813202	146.280000
264.906158	146.140000
264.999115	146.220000
265.092072	146.340000
265.185028	146.320000
265.277985	146.940000
265.370941	146.800000
265.463898	146.800000
265.556854	146.460000
265.649811	145.500000
265.742798	145.420000
265.835754	145.400000
265.928711	145.480000
266.021667	145.540000
266.114655	145.980000
266.207611	146.260000
266.300568	146.000000
266.393585	145.940000
266.486511	146.420000
266.579498	145.860000
266.672485	145.680000
266.765442	145.620000
266.858429	145.840000
266.951385	145.180000
267.044342	145.580000
267.137329	145.500000
267.230316	145.780000
267.323273	145.160000
267.416260	145.840000
267.509216	145.640000
267.602203	145.720000
267.695160	146.220000
267.788147	146.640000
267.881134	145.920000
267.974091	146.380000
268.067078	145.900000
268.160065	145.780000
268.253052	145.740000
268.346008	146.180000
268.438995	145.760000
268.531982	146.040000
268.624969	145.520000
268.717987	145.880000
268.810944	145.580000
268.903961	145.620000
268.996948	145.500000
269.089905	145.860000
269.182892	145.520000
269.275879	146.100000
269.368866	145.640000
269.461853	145.760000
269.554871	146.000000
269.647858	146.120000
269.740845	146.220000
269.833832	146.680000
269.926819	146.360000
270.019806	145.780000
270.112793	145.080000
270.205811	144.740000
270.298798	145.120000
270.391785	145.920000
270.484772	145.840000
270.577789	146.400000
270.670776	146.160000
270.763763	145.900000
270.856750	145.720000
270.949768	145.780000
271.042786	145.900000
271.135773	146.280000
271.228790	146.600000
271.321808	146.120000
271.414795	146.040000
271.507782	145.620000
271.600800	145.140000
271.693817	144.900000
271.786804	145.400000
271.879822	145.800000
271.972809	145.800000
272.065826	146.480000
272.158844	146.240000
272.251831	146.500000
272.344849	146.060000
272.437866	145.880000
272.530853	145.780000
272.623871	146.180000
272.716888	145.360000
272.809906	146.160000
272.902893	146.300000
272.995911	145.540000
273.088928	145.480000
273.181946	145.840000
273.274963	145.280000
273.367981	145.400000
273.460999	145.580000
273.554047	146.060000
273.647003	146.660000
273.740051	146.540000
273.833069	146.760000
273.926086	147.320000
274.019135	146.940000
274.112152	146.280000
274.205170	146.340000
274.298187	146.600000
274.391205	146.180000
274.484222	145.960000
274.577240	146.100000
274.670258	146.280000
274.763306	145.980000
274.856323	146.280000
274.949341	146.520000
275.042358	146.720000
275.135406	146.580000
275.228424	146.660000
275.321442	146.520000
275.414490	146.140000
275.507507	145.940000
275.600525	146.380000
275.693573	146.140000
275.786591	145.940000
275.879669	146.200000
275.972656	146.140000
276.065735	145.640000
276.158752	146.080000
276.251801	146.760000
276.344818	146.500000
276.437866	146.480000
276.530884	146.540000
276.623932	145.720000
276.716980	145.880000
276.809998	146.220000
276.903046	146.180000
276.996094	147.220000
277.089111	148.200000
277.182159	148.240000
277.275208	147.920000
277.368256	147.960000
277.461304	147.060000
277.554321	146.480000
277.647369	146.000000
277.740417	146.160000
277.833466	146.160000
277.926514	146.120000
278.019562	146.700000
278.112610	146.200000
278.205688	146.400000
278.298706	146.620000
278.391785	146.480000
278.484833	145.840000
278.577881	145.920000
278.670929	146.000000
278.763977	145.960000
278.857025	146.300000
278.950073	146.500000
279.043121	146.680000
279.136169	146.680000
279.229248	146.680000
279.322296	146.420000
279.415344	146.080000
279.508392	145.700000
279.601440	145.380000
279.694519	144.960000
279.787567	144.880000
279.880615	145.100000
279.973694	145.100000
280.066742	145.200000
280.159790	145.660000
280.252869	145.600000
280.345917	145.660000
280.438995	146.020000
280.532074	145.840000
280.625122	145.760000
280.718201	146.560000
280.811279	146.280000
280.904327	146.120000
280.997406	146.180000
281.090454	146.340000
281.183533	145.420000
281.276581	145.440000
281.369659	145.180000
281.462738	145.400000
281.555786	145.240000
281.648865	145.620000
281.741943	145.760000
281.835022	146.380000
281.928070	146.140000
282.021149	146.100000
282.114227	145.700000
282.207306	145.860000
282.300385	145.960000
282.393433	146.300000
282.486511	146.220000
282.579590	146.820000
282.672668	147.100000
282.765747	146.460000
282.858856	146.040000
282.951904	146.140000
283.045013	146.140000
283.138062	146.000000
283.231171	146.280000
283.324249	146.560000
283.417328	146.480000
283.510406	146.120000
283.603485	145.960000
283.696564	146.080000
283.789642	146.120000
283.882751	145.920000
283.975830	146.580000
284.068909	146.320000
284.161987	146.740000
284.255066	146.360000
284.348175	146.820000
284.441254	146.380000
284.534332	146.680000
284.627441	146.080000
284.720520	145.940000
284.813599	145.920000
284.906708	146.040000
284.999786	145.320000
285.092896	145.280000
285.185974	146.420000
285.279053	145.520000
285.372192	145.520000
285.465240	146.280000
285.558380	146.220000
285.651459	145.520000
285.744568	146.580000
285.837677	146.160000
285.930756	146.400000
286.023865	146.700000
286.116943	146.420000
286.210052	146.420000
286.303162	146.720000
286.396240	146.460000
286.489349	146.300000
286.582458	146.780000
286.675568	146.480000
286.768646	146.300000
286.861755	146.660000
286.954865	147.340000
287.047974	146.720000
287.141083	146.460000
287.234161	146.320000
287.327271	145.860000
287.420380	145.840000
287.513519	145.700000
287.606598	145.980000
287.699738	146.080000
287.792816	146.020000
287.885956	145.760000
287.979034	145.880000
288.072174	145.800000
288.165283	145.680000
288.258392	145.920000
288.351501	145.200000
288.444611	145.820000
288.537720	146.040000
288.630859	146.180000
288.723969	146.180000
288.817078	146.720000
288.910187	146.360000
289.003296	146.000000
289.096436	145.720000
289.189545	145.560000
289.282654	145.220000
289.375763	145.280000
289.468903	145.480000
289.562012	145.820000
289.655121	145.660000
289.748260	145.740000
289.841400	146.080000
289.934509	146.160000
290.027649	146.500000
290.120728	146.480000
290.213898	146.660000
290.306976	146.220000
290.400146	146.080000
290.493256	145.140000
290.586395	145.200000
290.679535	145.220000
290.772644	145.260000
290.865784	144.540000
290.958893	144.820000
291.052032	144.780000
291.145172	144.500000
291.238281	144.220000
291.331421	144.640000
291.424561	145.060000
291.517670	144.960000
291.610809	145.500000
291.703949	145.500000
291.797089	145.660000
291.890228	145.520000
291.983337	145.600000
292.076477	145.020000
292.169617	145.300000
292.262756	145.240000
292.355927	145.040000
292.449036	144.740000
292.542206	144.860000
292.635315	145.200000
292.728485	145.520000
292.821625	145.300000
292.914764	146.620000
293.007904	146.720000
293.101044	146.340000
293.194183	146.300000
293.287323	146.540000
293.380463	145.780000
293.473602	145.680000
293.566742	145.920000
293.659882	146.200000
293.753021	146.460000
293.846191	146.240000
293.939331	146.320000
294.032471	146.160000
294.125610	145.480000
294.218781	145.800000
294.311920	146.380000
294.405060	146.280000
294.498230	146.240000
294.591370	146.700000
294.684540	145.800000
294.777679	145.220000
294.870850	145.660000
294.963959	145.460000
295.057159	145.240000
295.150299	145.580000
295.243469	145.720000
295.336609	145.160000
295.429779	145.340000
295.522919	145.660000
295.616089	145.940000
295.709229	146.500000
295.802399	146.800000
295.895569	146.680000
295.988708	146.440000
296.081879	146.660000
296.175018	145.960000
296.268188	145.840000
296.361359	146.460000
296.454529	146.380000
296.547668	145.960000
296.640839	146.300000
296.734009	146.240000
296.827179	146.140000
296.920319	146.640000
297.013519	146.520000
297.106659	146.280000
297.199860	146.260000
297.292999	146.120000
297.386200	145.600000
297.479309	145.660000
297.572510	145.720000
297.665680	145.680000
297.758850	145.500000
297.852020	145.700000
297.945190	145.760000
298.038361	145.540000
298.131531	146.140000
298.224701	146.100000
298.317871	145.760000
298.411072	145.180000
298.504242	145.100000
298.597412	144.540000
298.690582	144.820000
298.783752	144.980000
298.876923	145.540000
298.970093	145.640000
299.063293	146.180000
299.156464	146.320000
299.249634	146.680000
299.342834	146.700000
299.436005	147.100000
299.529205	146.720000
299.622345	146.560000
299.715576	145.720000
299.808716	145.480000
299.901917	145.400000
299.995117	145.720000
300.088287	145.820000
300.181488	145.840000
300.274658	146.080000
300.367828	145.900000
300.461029	145.700000
300.554199	145.940000
300.647400	146.200000
300.740601	146.540000
300.833771	146.460000
300.926971	146.580000
301.020142	145.960000
301.113342	145.960000
301.206512	145.680000
301.299713	145.760000
301.392914	145.600000
301.486084	145.820000
301.579285	145.780000
301.672516	146.120000
301.765686	145.860000
301.858887	145.780000
301.952057	145.880000
302.045288	145.920000
302.138458	145.660000
302.231659	145.700000
302.324860	145.340000
302.418060	145.080000
302.511261	144.960000
302.604462	145.240000
302.697662	145.220000
302.790863	145.340000
302.884064	144.980000
302.977264	145.340000
303.070465	145.860000
303.163666	146.760000
303.256866	147.320000
303.350067	147.540000
303.443268	147.360000
303.536469	146.860000
303.629669	146.140000
303.722870	146.260000
303.816071	146.020000
303.909271	145.820000
304.002472	144.780000
304.095673	144.540000
304.188934	143.580000
304.282104	144.580000
304.375336	144.820000
304.468506	145.180000
304.561768	145.020000
304.654968	145.820000
304.748169	145.340000
304.841370	145.160000
304.934601	145.680000
305.027802	145.860000
305.121002	145.480000
305.214233	145.480000
305.307434	145.780000
305.400665	146.340000
305.493866	146.220000
305.587097	146.260000
305.680298	145.920000
305.773499	146.300000
305.866730	145.540000
305.959930	146.160000
306.053162	146.460000
306.146393	146.260000
306.239594	145.160000
306.332825	145.260000
306.426025	145.280000
306.519287	144.820000
306.612488	145.300000
306.705719	145.560000
306.798920	145.380000
306.892181	144.800000
306.985352	144.400000
307.078613	143.960000
307.171844	144.520000
307.265045	144.220000
307.358276	143.720000
307.451508	144.660000
307.544739	144.960000
307.637970	144.460000
307.731201	144.580000
307.824402	145.740000
307.917633	145.760000
308.010864	146.200000
308.104095	146.820000
308.197327	147.100000
308.290558	146.880000
308.383789	146.340000
308.477020	145.780000
308.570251	145.280000
308.663483	145.060000
308.756714	144.600000
308.849976	144.860000
308.943176	145.240000
309.036438	145.040000
309.129639	144.900000
309.222900	145.180000
309.316101	145.100000
309.409393	144.900000
309.502625	144.900000
309.595856	145.340000
309.689087	145.560000
309.782318	145.560000
309.875580	145.580000
309.968811	145.800000
310.062042	145.440000
310.155273	145.460000
310.248535	145.860000
310.341766	145.940000
310.434998	145.700000
310.528259	145.500000
310.621490	145.340000
310.714722	144.400000
310.807983	144.240000
310.901215	144.420000
310.994476	144.660000
311.087708	144.160000
311.181000	145.060000
311.274200	144.920000
311.367462	144.920000
311.460693	144.820000
311.553986	145.780000
311.647186	146.040000
311.740479	146.620000
311.833710	146.240000
311.926971	146.120000
312.020203	145.200000
312.113464	144.580000
312.206726	143.800000
312.299957	144.460000
312.393219	145.140000
312.486481	145.440000
312.579712	145.260000
312.672974	145.340000
312.766235	145.080000
312.859497	144.780000
312.952759	144.620000
313.045990	145.400000
313.139252	145.180000
313.232513	145.380000
313.325775	145.500000
313.419037	145.500000
313.512299	144.600000
313.605530	145.220000
313.698822	145.360000
313.792053	145.140000
313.885345	145.060000
313.978577	145.240000
314.071869	144.920000
314.165131	144.780000
314.258392	145.140000
314.351654	145.380000
314.444916	144.920000
314.538177	145.480000
314.631439	145.500000
314.724701	145.180000
314.817993	145.180000
314.911255	145.660000
315.004517	145.140000
315.097778	145.240000
315.191040	145.620000
315.284302	145.760000
315.377594	145.480000
315.470856	145.520000
315.564117	144.660000
315.657379	144.300000
315.750671	143.940000
315.843933	144.660000
315.937195	144.120000
316.030518	144.400000
316.123749	144.300000
316.217041	145.340000
316.310303	144.860000
316.403595	145.660000
316.496857	146.000000
316.590149	146.140000
316.683411	145.460000
316.776703	145.680000
316.869965	145.220000
316.963257	145.240000
317.056519	144.900000
317.149811	144.620000
317.243073	144.560000
317.336365	144.740000
317.429626	144.840000
317.522919	145.480000
317.616180	145.620000
317.709473	145.660000
317.802765	145.680000
317.896027	145.660000
317.989319	145.880000
318.082611	145.600000
318.175873	145.320000
318.269165	145.340000
318.362488	145.160000
318.455750	144.840000
318.549042	145.360000
318.642303	145.760000
318.735626	145.560000
318.828888	145.860000
318.922211	145.460000
319.015472	145.980000
319.108765	145.660000
319.202057	145.520000
319.295349	145.420000
319.388641	145.760000
319.481934	145.300000
319.575226	145.000000
319.668518	145.440000
319.761810	145.680000
319.855103	145.500000
319.948395	145.760000
320.041687	146.200000
320.134979	146.220000
320.228271	145.900000
320.321564	145.660000
320.414856	145.220000
320.508148	144.860000
320.601440	144.520000
320.694763	144.260000
320.788025	145.260000
320.881348	145.360000
320.974640	145.600000
321.067963	145.540000
321.161224	145.940000
321.254547	144.940000
321.347839	145.180000
321.441162	144.980000
321.534454	145.240000
321.627747	145.020000
321.721069	146.020000
321.814362	146.080000
321.907654	146.180000
322.000946	146.120000
322.094269	146.600000
322.187561	145.640000
322.280884	145.800000
322.374176	146.040000
322.467468	146.320000
322.560791	146.040000
322.654083	146.540000
322.747406	146.380000
322.840698	146.560000
322.934021	146.860000
323.027344	146.920000
323.120636	146.440000
323.213959	146.220000
323.307251	145.580000
323.400574	144.980000
323.493866	144.860000
323.587219	145.440000
323.680511	145.820000
323.773834	145.860000
323.867157	145.920000
323.960449	145.980000
324.053772	145.640000
324.147095	145.160000
324.240387	145.880000
324.333710	145.860000
324.427032	145.800000
324.520355	145.880000
324.613647	145.880000
324.706970	145.380000
324.800293	145.320000
324.893616	145.540000
324.986938	145.720000
325.080231	145.540000
325.173553	146.180000
325.266876	146.560000
325.360199	146.480000
325.453522	145.820000
325.546875	145.680000
325.640167	145.160000
325.733521	145.400000
325.826813	145.620000
325.920166	145.660000
326.013489	145.580000
326.106812	144.900000
326.200134	144.160000
326.293457	143.520000
326.386780	143.620000
326.480103	143.720000
326.573425	143.860000
326.666748	144.020000
326.760071	144.540000
326.853424	144.540000
326.946747	144.460000
327.040070	145.580000
327.133392	145.540000
327.226715	144.720000
327.320068	144.400000
327.413391	145.100000
327.506714	143.940000
327.600037	144.040000
327.693390	144.380000
327.786713	144.600000
327.880066	144.200000
327.973358	144.900000
328.066742	145.300000
328.160034	145.640000
328.253418	146.020000
328.346710	146.060000
328.440063	145.680000
328.533417	145.340000
328.626740	145.320000
328.720093	145.220000
328.813416	145.220000
328.906769	145.440000
329.000092	145.740000
329.093445	145.640000
329.186768	145.580000
329.280121	145.900000
329.373444	146.120000
329.466797	146.060000
329.560120	146.400000
329.653473	146.440000
329.746796	146.180000
329.840149	146.120000
329.933502	146.180000
330.026825	145.560000
330.120178	145.280000
330.213562	145.260000
330.306854	145.120000
330.400238	144.900000
330.493561	145.020000
330.586945	145.860000
330.680237	146.140000
330.773621	146.280000
330.866974	146.480000
330.960327	146.900000
331.053680	146.280000
331.147003	146.100000
331.240356	146.020000
331.333710	145.920000
331.427063	145.400000
331.520416	145.560000
331.613770	145.320000
331.707123	145.180000
331.800476	145.240000
331.893829	146.440000
331.987152	146.580000
332.080505	146.740000
332.173859	146.940000
332.267212	146.340000
332.360565	145.340000
332.453918	144.940000
332.547333	144.900000
332.640656	144.820000
332.734039	145.260000
332.827362	145.040000
332.920746	145.560000
333.014069	145.800000
333.107452	146.000000
333.200806	146.020000
333.294159	146.540000
333.387543	145.760000
333.480896	145.200000
333.574249	145.140000
333.667603	144.860000
333.760956	144.820000
333.854340	145.180000
333.947693	145.540000
334.041046	145.260000
334.134430	145.540000
334.227783	144.900000
334.321136	144.620000
334.414520	144.000000
334.507874	144.360000
334.601227	144.300000
334.694611	144.820000
334.787964	145.380000
334.881348	146.220000
334.974701	145.960000
335.068085	145.960000
335.161438	146.060000
335.254822	145.820000
335.348175	145.560000
335.441559	145.380000
335.534943	145.740000
335.628296	145.400000
335.721680	145.400000
335.815033	145.340000
335.908417	145.820000
336.001770	145.640000
336.095154	145.960000
336.188538	145.600000
336.281891	145.580000
336.375275	145.020000
336.468658	144.820000
336.562012	144.660000
336.655396	145.280000
336.748779	145.480000
336.842133	145.780000
336.935516	146.100000
337.028900	145.900000
337.122284	145.540000
337.215637	145.740000
337.309021	145.480000
337.402435	144.920000
337.495789	144.920000
337.589203	144.980000
337.682526	144.440000
337.775940	145.140000
337.869324	145.480000
337.962708	145.280000
338.056091	146.000000
338.149475	145.980000
338.242859	145.640000
338.336243	145.320000
338.429626	145.660000
338.523010	145.240000
338.616394	145.300000
338.709778	145.280000
338.803162	145.540000
338.896545	145.540000
338.989929	144.900000
339.083313	145.160000
339.176697	144.820000
339.270081	144.940000
339.363464	145.300000
339.456848	145.540000
339.550232	144.880000
339.643616	145.040000
339.737030	144.880000
339.830383	144.680000
339.923828	145.060000
340.017181	145.560000
340.110596	145.520000
340.203949	145.480000
340.297363	145.000000
340.390778	144.820000
340.484161	144.880000
340.577545	144.780000
340.670959	144.920000
340.764343	144.960000
340.857727	145.260000
340.951111	144.900000
341.044525	145.360000
341.137909	144.940000
341.231293	145.180000
341.324707	144.460000
341.418091	145.380000
341.511505	145.220000
341.604889	145.440000
341.698303	145.660000
341.791687	146.240000
341.885071	145.680000
341.978485	145.460000
342.071899	145.720000
342.165283	145.920000
342.258698	146.180000
342.352081	146.500000
342.445496	146.780000
342.538879	146.460000
342.632324	145.780000
342.725708	145.720000
342.819122	145.220000
342.912506	145.020000
343.005920	145.280000
343.099335	146.340000
343.192719	145.940000
343.286133	145.900000
343.379547	146.240000
343.472931	146.220000
343.566345	145.540000
343.659760	145.900000
343.753143	145.700000
343.846558	145.160000
343.939972	145.120000
344.033386	145.840000
344.126770	145.220000
344.220184	145.480000
344.313599	146.140000
344.407043	146.360000
344.500427	145.360000
344.593872	146.220000
344.687225	146.200000
344.780670	145.640000
344.874054	145.400000
344.967499	146.080000
345.060913	145.680000
345.154327	145.600000
345.247742	145.700000
345.341156	145.680000
345.434570	145.180000
345.527985	144.960000
345.621399	145.100000
345.714813	145.080000
345.808228	145.280000
345.901642	145.120000
345.995056	145.000000
346.088470	145.360000
346.181885	145.280000
346.275299	144.800000
346.368713	144.780000
346.462128	144.560000
346.555573	144.160000
346.648987	144.400000
346.742401	144.460000
346.835815	144.880000
346.929260	145.000000
347.022644	145.020000
347.116119	145.120000
347.209503	145.520000
347.302948	146.400000
347.396362	147.160000
347.489807	147.300000
347.583221	147.680000
347.676636	147.300000
347.770050	146.000000
347.863495	145.260000
347.956909	145.220000
348.050323	144.780000
348.143768	145.000000
348.237183	144.920000
348.330597	145.520000
348.424042	145.940000
348.517456	146.160000
348.610901	146.300000
348.704315	146.460000
348.797760	145.800000
348.891174	145.140000
348.984619	144.500000
349.078033	144.840000
349.171448	145.300000
349.264923	145.340000
349.358337	145.560000
349.451782	145.860000
349.545197	145.100000
349.638641	144.460000
349.732086	144.400000
349.825500	144.680000
349.918945	144.300000
350.012390	144.840000
350.105804	145.520000
350.199249	145.740000
350.292664	146.040000
350.386108	146.300000
350.479553	146.680000
350.572968	146.460000
350.666412	146.600000
350.759857	146.080000
350.853302	146.560000
350.946716	146.040000
351.040161	145.980000
351.133606	145.940000
351.227081	145.860000
351.320465	146.320000
351.413940	146.340000
351.507355	146.320000
351.600830	146.220000
351.694244	145.820000
351.787720	145.300000
351.881104	145.380000
351.974579	145.120000
352.067993	145.760000
352.161469	146.040000
352.254883	145.220000
352.348358	144.840000
352.441803	145.300000
352.535248	144.840000
352.628693	145.340000
352.722137	145.720000
352.815582	146.140000
352.909027	145.940000
353.002472	145.860000
353.095917	145.540000
353.189362	145.980000
353.282806	145.600000
353.376251	145.720000
353.469696	145.500000
353.563141	145.760000
353.656586	145.480000
353.750061	145.240000
353.843475	144.760000
353.936981	145.280000
354.030396	144.940000
354.123871	144.840000
354.217285	145.900000
354.310760	146.620000
354.404175	146.200000
354.497681	145.880000
354.591095	146.120000
354.684570	144.680000
354.777985	144.280000
354.871490	144.000000
354.964935	144.840000
355.058380	144.660000
355.151855	144.880000
355.245300	145.260000
355.338745	146.040000
355.432220	145.560000
355.525665	145.160000
355.619110	145.740000
355.712585	145.220000
355.806030	144.740000
355.899475	144.600000
355.992950	145.300000
356.086426	145.460000
356.179871	145.500000
356.273346	145.560000
356.366791	145.740000
356.460266	145.860000
356.553711	145.500000
356.647186	145.680000
356.740631	145.480000
356.834106	145.280000
356.927551	145.120000
357.021027	145.180000
357.114471	145.260000
357.207947	145.300000
357.301422	145.700000
357.394867	145.500000
357.488342	145.760000
357.581818	145.760000
357.675262	146.160000
357.768738	145.700000
357.862213	145.380000
357.955658	145.320000
358.049133	145.020000
358.142609	145.160000
358.236053	145.120000
358.329529	145.340000
358.423035	145.580000
358.516449	145.420000
358.609955	145.640000
358.703400	146.380000
358.796906	146.620000
358.890350	146.040000
358.983826	146.800000
359.077271	146.120000
359.170776	145.680000
359.264221	145.400000
359.357727	145.460000
359.451172	145.320000
359.544647	145.480000
359.638123	145.260000
359.731598	145.500000
359.825073	145.960000
359.918549	145.860000
360.012024	145.700000
360.105499	145.720000
360.198975	145.660000
360.292450	145.520000
360.385925	145.340000
360.479401	145.300000
360.572876	145.260000
360.666351	145.440000
360.759857	145.200000
360.853302	145.200000
360.946808	144.940000
361.040253	144.960000
361.133759	144.440000
361.227203	144.800000
361.320709	144.620000
361.414154	145.220000
361.507660	145.620000
361.601105	146.260000
361.694641	146.660000
361.788086	146.700000
361.881592	146.980000
361.975067	146.640000
362.068542	146.660000
362.162018	146.240000
362.255524	145.880000
362.348999	145.760000
362.442474	146.060000
362.535950	145.360000
362.629456	145.260000
362.722931	145.620000
362.816406	145.580000
362.909882	145.660000
363.003387	145.720000
363.096863	145.840000
363.190338	145.820000
363.283875	145.560000
363.377319	145.380000
363.470825	145.860000
363.564301	145.020000
363.657806	145.100000
363.751282	144.720000
363.844788	145.740000
363.938232	145.400000
364.031769	146.420000
364.125214	146.500000
364.218750	147.240000
364.312225	145.680000
364.405731	145.980000
364.499207	145.080000
364.592712	145.000000
364.686188	144.940000
364.779694	145.460000
364.873169	145.100000
364.966675	145.540000
365.060150	145.360000
365.153656	145.320000
365.247131	145.440000
365.340637	146.140000
365.434143	146.720000
365.527618	146.920000
365.621155	146.340000
365.714600	146.260000
365.808136	145.900000
365.901611	144.740000
365.995117	144.500000
366.088593	144.600000
366.182129	144.040000
366.275604	143.860000
366.369110	144.460000
366.462585	144.400000
366.556122	145.140000
366.649567	145.420000
366.743103	145.760000
366.836609	145.600000
366.930115	145.980000
367.023590	145.460000
367.117096	145.460000
367.210602	145.240000
367.304108	145.480000
367.397614	145.920000
367.491119	146.140000
367.584595	146.540000
367.678101	146.960000
367.771606	146.740000
367.865112	146.320000
367.958649	145.960000
368.052124	145.500000
368.145660	145.100000
368.239136	145.580000
368.332672	145.620000
368.426147	145.680000
368.519684	145.740000
368.613159	146.020000
368.706696	145.640000
368.800171	145.460000
368.893707	145.600000
368.987183	145.740000
369.080719	145.320000
369.174225	145.100000
369.267731	145.700000
369.361237	145.880000
369.454742	145.580000
369.548248	146.060000
369.641754	146.180000
369.735260	145.560000
369.828766	144.640000
369.922272	145.300000
370.015808	144.580000
370.109314	144.500000
370.202820	144.480000
370.296356	145.720000
370.389832	145.260000
370.483368	145.540000
370.576874	145.440000
370.670410	145.540000
370.763885	144.600000
370.857422	144.620000
370.950928	144.500000
371.044464	145.560000
371.137939	145.520000
371.231476	146.440000
371.324982	147.380000
371.418518	147.500000
371.512024	146.900000
371.605560	146.840000
371.699066	146.360000
371.792572	145.440000
371.886108	145.960000
371.979614	145.700000
372.073120	146.360000
372.166656	146.300000
372.260162	146.560000
372.353668	146.040000
372.447205	146.160000
372.540710	145.860000
372.634277	145.980000
372.727753	146.060000
372.821320	146.240000
372.914795	146.140000
373.008362	145.740000
373.101837	145.600000
373.195404	145.280000
373.288879	145.220000
373.382446	145.900000
373.475922	146.140000
373.569489	146.740000
373.662964	147.060000
373.756531	147.040000
373.850037	147.120000
373.943573	146.880000
374.037109	145.840000
374.130615	146.060000
374.224152	146.080000
374.317657	145.400000
374.411194	146.240000
374.504730	146.460000
374.598236	146.140000
374.691772	145.800000
374.785309	146.080000
374.878815	145.020000
374.972351	145.420000
375.065887	145.360000
375.159454	146.220000
375.252930	145.880000
375.346497	146.680000
375.440002	147.220000
375.533569	146.940000
375.627045	146.040000
375.720612	146.180000
375.814117	146.100000
375.907684	145.500000
376.001160	145.580000
376.094727	145.440000
376.188232	145.920000
376.281799	145.980000
376.375336	146.020000
376.468872	146.500000
376.562408	147.080000
376.655914	146.840000
376.749451	146.700000
376.842987	146.560000
376.936523	146.460000
377.030060	146.260000
377.123596	146.160000
377.217133	145.660000
377.310669	145.760000
377.404205	146.100000
377.497772	146.680000
377.591278	146.440000
377.684845	147.060000
377.778351	147.240000
377.871918	146.660000
377.965424	146.020000
378.058990	146.120000
378.152496	146.100000
378.246063	146.200000
378.339569	146.640000
378.433136	146.480000
378.526642	146.500000
378.620209	146.120000
378.713745	145.180000
378.807312	145.080000
378.900848	145.340000
378.994385	145.160000
379.087921	144.680000
379.181458	145.440000
379.274994	144.920000
379.368530	144.600000
379.462097	144.980000
379.555634	145.600000
379.649170	145.140000
379.742706	145.380000
379.836273	145.780000
379.929810	145.440000
380.023376	145.120000
380.116882	145.000000
380.210449	145.100000
380.303986	144.680000
380.397552	144.140000
380.491058	144.660000
380.584656	144.900000
380.678162	144.940000
380.771729	145.000000
380.865265	146.020000
380.958832	146.040000
381.052368	146.180000
381.145935	146.240000
381.239471	146.920000
381.333008	146.840000
381.426575	146.400000
381.520111	146.540000
381.613647	146.840000
381.707214	146.360000
381.800751	145.580000
381.894318	145.680000
381.987854	145.220000
382.081421	144.680000
382.174988	145.000000
382.268524	145.100000
382.362091	145.220000
382.455627	145.760000
382.549194	145.660000
382.642731	144.820000
382.736298	144.740000
382.829834	144.740000
382.923401	145.360000
383.016937	145.820000
383.110504	146.520000
383.204041	147.060000
383.297607	147.360000
383.391174	146.440000
383.484741	147.000000
383.578278	146.360000
383.671844	146.100000
383.765411	145.140000
383.858948	145.560000
383.952515	145.120000
384.046051	145.960000
384.139618	146.220000
384.233185	147.060000
384.326721	146.820000
384.420288	147.480000
384.513855	147.140000
384.607422	147.440000
384.700989	147.460000
384.794525	147.180000
384.888123	146.240000
384.981659	146.400000
385.075226	145.800000
385.168762	145.380000
385.262360	145.420000
385.355896	145.160000
385.449463	144.980000
385.542999	145.240000
385.636597	145.960000
385.730164	146.500000
385.823730	146.220000
385.917267	145.960000
386.010834	145.820000
386.104401	145.460000
386.197968	145.720000
386.291534	146.060000
386.385101	146.240000
386.478668	146.640000
386.572235	146.620000
386.665802	145.700000
386.759338	145.540000
386.852905	145.260000
386.946472	144.880000
387.040070	144.860000
387.133606	145.260000
387.227203	145.340000
387.320740	145.580000
387.414337	145.300000
387.507874	145.060000
387.601471	144.980000
387.695007	144.960000
387.788605	144.760000
387.882141	144.880000
387.975739	144.840000
388.069275	144.560000
388.162872	144.720000
388.256439	144.980000
388.350037	144.920000
388.443604	145.160000
388.537170	145.340000
388.630737	145.800000
388.724304	145.860000
388.817871	145.800000
388.911438	145.780000
389.005005	146.020000
389.098602	146.200000
389.192169	146.000000
389.285736	146.460000
389.379333	146.040000
389.472870	145.640000
389.566467	145.160000
389.660034	145.220000
389.753632	144.940000
389.847168	145.700000
389.940765	145.960000
390.034332	146.360000
390.127930	145.780000
390.221466	145.420000
390.315063	144.700000
390.408630	144.060000
390.502228	142.980000
390.595795	143.720000
390.689362	144.160000
390.782959	144.960000
390.876526	145.860000
390.970093	146.140000
391.063690	146.200000
391.157257	146.240000
391.250824	146.240000
391.344421	146.000000
391.437988	146.120000
391.531555	146.520000
391.625153	146.660000
391.718750	146.660000
391.812317	146.460000
391.905914	146.500000
391.999481	146.300000
392.093079	146.280000
392.186615	146.340000
392.280243	146.440000
392.373779	146.600000
392.467407	146.760000
392.560944	146.580000
392.654572	146.220000
392.748108	145.940000
392.841736	146.020000
392.935303	145.460000
393.028900	145.520000
393.122467	145.440000
393.216064	145.300000
393.309631	144.840000
393.403229	144.860000
393.496796	144.620000
393.590393	144.320000
393.683990	144.920000
393.777557	145.540000
393.871155	145.580000
393.964722	146.120000
394.058350	146.160000
394.151917	145.900000
394.245514	145.380000
394.339081	145.760000
394.432678	145.660000
394.526245	145.640000
394.619873	145.500000
394.713409	145.760000
394.807037	145.400000
394.900604	145.700000
394.994202	145.860000
395.087769	146.040000
395.181396	145.900000
395.274994	146.840000
395.368561	146.120000
395.462158	146.500000
395.555756	146.240000
395.649353	146.760000
395.742920	145.840000
395.836517	146.560000
395.930115	145.700000
396.023712	146.180000
396.117279	145.880000
396.210876	145.720000
396.304474	145.640000
396.398071	146.340000
396.491669	146.120000
396.585266	146.040000
396.678833	145.880000
396.772461	145.600000
396.866028	145.320000
396.959656	145.420000
397.053223	145.640000
397.146851	145.920000
397.240417	146.180000
397.334015	146.980000
397.427582	147.160000
397.521210	147.500000
397.614807	148.320000
397.708405	148.900000
397.802002	149.060000
397.895599	150.400000
397.989197	151.220000
398.082794	152.180000
398.176392	153.980000
398.269989	156.180000
398.363586	158.480000
398.457184	161.760000
398.550781	164.960000
398.644379	167.520000
398.737976	170.660000
398.831573	173.880000
398.925201	176.700000
399.018768	179.880000
399.112396	183.640000
399.205963	187.340000
399.299591	191.200000
399.393158	195.280000
399.486786	200.800000
399.580353	206.140000
399.673981	212.900000
399.767578	220.480000
399.861206	229.900000
399.954773	238.820000
400.048401	247.800000
400.141998	254.960000
400.235596	262.320000
400.329193	266.940000
400.422791	271.280000
400.516418	274.260000
400.610016	277.060000
400.703613	278.340000
400.797211	277.860000
400.890808	275.340000
400.984436	272.020000
401.078033	266.760000
401.171631	259.640000
401.265259	251.820000
401.358826	243.840000
401.452484	234.300000
401.546051	225.140000
401.639679	214.640000
401.733246	205.180000
401.826904	194.980000
401.920471	186.080000
402.014099	177.760000
402.107697	171.400000
402.201324	166.000000
402.294891	162.020000
402.388550	158.900000
402.482147	156.240000
402.575745	153.780000
402.669373	151.740000
402.762970	150.180000
402.856567	149.040000
402.950195	148.480000
403.043793	148.020000
403.137390	148.060000
403.231018	147.240000
403.324615	147.540000
403.418243	146.640000
403.511841	146.700000
403.605469	146.140000
403.699066	146.360000
403.792694	146.060000
403.886292	146.260000
403.979919	146.080000
404.073517	146.040000
404.167145	146.260000
404.260712	146.220000
404.354370	145.940000
404.447937	146.240000
404.541595	146.480000
404.635162	146.500000
404.728821	146.720000
404.822418	146.720000
404.916046	146.100000
405.009644	146.180000
405.103271	146.260000
405.196899	145.600000
405.290497	145.620000
405.384125	145.860000
405.477722	145.220000
405.571350	144.780000
405.664948	145.160000
405.758575	145.180000
405.852203	144.600000
405.945801	145.020000
406.039429	145.340000
406.133057	145.120000
406.226654	145.380000
406.320312	145.780000
406.413879	146.020000
406.507538	146.120000
406.601135	145.900000
406.694763	146.240000
406.788361	146.320000
406.882019	146.000000
406.975586	145.960000
407.069244	146.520000
407.162872	146.180000
407.256470	146.280000
407.350098	146.240000
407.443726	145.940000
407.537323	145.600000
407.630951	146.040000
407.724579	145.620000
407.818207	146.120000
407.911804	145.940000
408.005432	145.720000
408.099060	145.560000
408.192688	146.160000
408.286285	145.760000
408.379913	145.720000
408.473572	146.160000
408.567169	145.480000
408.660828	145.300000
408.754395	145.240000
408.848053	145.580000
408.941650	145.500000
409.035309	145.460000
409.128906	145.260000
409.222565	145.240000
409.316132	145.260000
409.409790	144.860000
409.503387	144.980000
409.597046	145.000000
409.690674	145.060000
409.784302	145.120000
409.877930	145.060000
409.971558	145.420000
410.065186	145.360000
410.158783	145.400000
410.252411	145.400000
410.346039	145.960000
410.439667	145.780000
410.533295	146.160000
410.626923	146.400000
410.720551	146.160000
410.814209	146.420000
410.907806	146.780000
411.001465	146.360000
411.095062	146.300000
411.188721	146.440000
411.282318	146.020000
411.375977	145.380000
411.469574	145.500000
411.563232	145.040000
411.656830	144.860000
411.750488	144.640000
411.844086	144.700000
411.937744	144.780000
412.031372	144.700000
412.125000	144.620000
412.218628	144.440000
412.312256	145.160000
412.405884	145.840000
412.499512	145.960000
412.593170	146.320000
412.686798	146.860000
412.780426	146.080000
412.874054	145.740000
412.967682	146.160000
413.061310	146.680000
413.154968	146.500000
413.248566	146.760000
413.342224	146.240000
413.435852	146.140000
413.529510	145.400000
413.623108	144.800000
413.716766	144.780000
413.810364	145.520000
413.904022	145.380000
413.997650	145.140000
414.091309	146.280000
414.184906	146.220000
414.278564	145.580000
414.372192	146.020000
414.465851	146.420000
414.559479	146.180000
414.653107	146.980000
414.746735	147.140000
414.840393	146.880000
414.934021	147.000000
415.027649	146.520000
415.121277	146.420000
415.214935	146.560000
415.308563	146.700000
415.402191	146.300000
415.495850	146.160000
415.589478	145.720000
415.683136	145.600000
415.776733	145.580000
415.870422	146.340000
415.964020	146.360000
416.057678	146.300000
416.151306	146.140000
416.244965	146.060000
416.338562	146.020000
416.432251	146.580000
416.525848	147.420000
416.619507	147.720000
416.713165	148.100000
416.806793	147.720000
416.900421	147.680000
416.994080	146.520000
417.087708	146.560000
417.181366	145.920000
417.274994	145.960000
417.368622	146.380000
417.462280	147.200000
417.555908	147.060000
417.649567	146.880000
417.743195	146.860000
417.836853	146.380000
417.930481	146.280000
418.024170	146.320000
418.117767	146.800000
418.211426	146.900000
418.305054	147.160000
418.398712	146.860000
418.492340	146.940000
418.585999	147.360000
418.679626	147.240000
418.773285	146.860000
418.866913	146.680000
418.960571	146.460000
419.054230	146.180000
419.147858	146.240000
419.241516	146.380000
419.335144	146.280000
419.428802	146.420000
419.522461	145.980000
419.616089	145.400000
419.709747	145.440000
419.803375	146.040000
419.897034	145.880000
419.990662	145.920000
420.084320	146.660000
420.177979	146.980000
420.271606	146.720000
420.365295	147.260000
420.458893	147.580000
420.552582	147.480000
420.646210	147.020000
420.739868	146.820000
420.833496	146.220000
420.927155	145.700000
421.020782	145.600000
421.114471	145.280000
421.208069	145.440000
421.301758	145.640000
421.395386	145.980000
421.489044	145.780000
421.582703	146.020000
421.676361	146.480000
421.769989	146.060000
421.863647	146.120000
421.957306	146.580000
422.050934	146.760000
422.144592	146.340000
422.238251	146.360000
422.331909	146.220000
422.425537	145.760000
422.519196	145.680000
422.612854	145.320000
422.706543	145.300000
422.800140	145.680000
422.893829	145.600000
422.987457	145.360000
423.081146	145.660000
423.174744	146.540000
423.268433	146.000000
423.362061	145.980000
423.455750	145.880000
423.549347	145.940000
423.643036	144.880000
423.736664	145.400000
423.830353	145.700000
423.924011	146.380000
424.017639	146.040000
424.111298	146.320000
424.204956	145.980000
424.298615	145.660000
424.392273	145.340000
424.485931	145.540000
424.579559	146.020000
424.673218	145.920000
424.766876	145.980000
424.860535	145.600000
424.954193	145.540000
425.047882	145.640000
425.141510	145.820000
425.235199	145.940000
425.328796	145.960000
425.422485	145.820000
425.516113	145.320000
425.609802	145.380000
425.703430	145.660000
425.797119	145.760000
425.890747	145.820000
425.984436	146.060000
426.078064	145.880000
426.171753	145.660000
426.265411	145.460000
426.359070	145.700000
426.452728	145.380000
426.546356	145.420000
426.640015	145.360000
426.733673	145.260000
426.827332	144.940000
426.920990	145.800000
427.014648	145.500000
427.108307	145.700000
427.201965	146.320000
427.295624	146.440000
427.389282	145.640000
427.482941	145.880000
427.576630	146.000000
427.670258	145.360000
427.763947	145.300000
427.857574	145.360000
427.951263	145.440000
428.044922	144.780000
428.138611	145.200000
428.232239	145.720000
428.325928	146.120000
428.419556	146.680000
428.513245	146.720000
428.606903	146.800000
428.700562	146.080000
428.794220	145.420000
428.887878	144.420000
428.981537	144.760000
429.075195	144.580000
429.168854	145.060000
429.262512	145.080000
429.356201	145.260000
429.449860	145.200000
429.543518	145.260000
429.637177	145.300000
429.730835	145.620000
429.824493	145.860000
429.918182	145.960000
430.011810	145.420000
430.105530	144.940000
430.199158	145.260000
430.292847	145.000000
430.386475	144.880000
430.480164	145.040000
430.573792	144.860000
430.667511	144.500000
430.761139	144.640000
430.854828	144.880000
430.948456	145.080000
431.042145	145.820000
431.135834	145.600000
431.229492	145.800000
431.323151	145.920000
431.416809	146.080000
431.510468	146.220000
431.604156	146.280000
431.697815	146.120000
431.791473	145.500000
431.885132	144.780000
431.978821	144.880000
432.072479	145.220000
432.166138	145.520000
432.259827	145.920000
432.353485	146.520000
432.447174	146.100000
432.540802	145.880000
432.634491	145.760000
432.728149	145.380000
432.821838	146.000000
432.915466	145.560000
433.009186	145.900000
433.102814	145.360000
433.196503	145.360000
433.290131	145.200000
433.383850	145.960000
433.477509	145.520000
433.571167	146.520000
433.664856	147.240000
433.758514	147.220000
433.852173	146.980000
433.945862	147.100000
434.039520	146.920000
434.133179	146.240000
434.226868	145.960000
434.320526	145.500000
434.414185	146.220000
434.507874	145.740000
434.601562	146.340000
434.695221	146.320000
434.788910	146.720000
434.882538	146.240000
434.976257	145.940000
435.069885	145.580000
435.163574	145.700000
435.257233	145.240000
435.350922	145.480000
435.444580	145.560000
435.538269	145.480000
435.631897	145.600000
435.725616	146.340000
435.819275	146.420000
435.912964	147.100000
436.006622	147.680000
436.100311	147.600000
436.193970	146.760000
436.287628	146.420000
436.381317	145.940000
436.474976	145.220000
436.568665	144.840000
436.662323	145.140000
436.756012	145.420000
436.849670	145.140000
436.943390	145.040000
437.037018	144.960000
437.130737	145.220000
437.224365	144.700000
437.318085	145.340000
437.411713	145.540000
437.505432	146.040000
437.599060	146.420000
437.692780	147.140000
437.786407	146.880000
437.880127	146.800000
437.973755	146.600000
438.067474	145.940000
438.161133	145.400000
438.254822	146.080000
438.348480	146.200000
438.442169	146.860000
438.535828	147.180000
438.629517	146.740000
438.723175	145.860000
438.816864	146.260000
438.910553	145.480000
439.004211	145.300000
439.097900	145.760000
439.191559	146.100000
439.285248	145.520000
439.378906	146.180000
439.472626	146.080000
439.566284	145.860000
439.659973	145.940000
439.753632	146.020000
439.847321	146.260000
439.940979	146.280000
440.034698	146.360000
440.128326	145.980000
440.222046	145.720000
440.315674	144.380000
440.409393	144.320000
440.503082	144.100000
440.596741	144.040000
440.690430	144.760000
440.784088	145.000000
440.877777	144.760000
440.971466	145.000000
441.065125	144.860000
441.158813	144.140000
441.252502	144.280000
441.346161	144.660000
441.439850	145.180000
441.533539	145.280000
441.627197	145.620000
441.720886	145.600000
441.814606	146.000000
441.908234	145.740000
442.001953	145.980000
442.095612	146.440000
442.189301	146.860000
442.282959	146.500000
442.376678	145.900000
442.470306	146.540000
442.564026	146.120000
442.657684	146.180000
442.751404	146.200000
442.845032	146.980000
442.938751	146.200000
443.032440	146.480000
443.126099	145.900000
443.219788	146.540000
443.313477	146.600000
443.407166	147.140000
443.500824	146.860000
443.594513	147.260000
443.688202	146.760000
443.781891	145.900000
443.875549	145.240000
443.969238	145.240000
444.062927	145.100000
444.156647	145.100000
444.250275	145.800000
444.343994	146.120000
444.437653	146.140000
444.531372	146.140000
444.625031	145.900000
444.718719	145.440000
444.812378	145.280000
444.906097	145.240000
444.999756	145.040000
445.093445	145.220000
445.187103	145.220000
445.280823	145.660000
445.374512	145.240000
445.468201	145.540000
445.561859	145.380000
445.655548	145.380000
445.749237	144.520000
445.842926	144.920000
445.936615	145.480000
446.030304	145.200000
446.123962	145.440000
446.217651	145.660000
446.311340	145.820000
446.405029	144.940000
446.498749	145.120000
446.592407	144.620000
446.686096	145.000000
446.779755	145.100000
446.873474	145.760000
446.967133	145.800000
447.060852	145.820000
447.154510	145.600000
447.248230	145.460000
447.341858	144.840000
447.435577	144.540000
447.529236	144.520000
447.622955	144.380000
447.716644	144.200000
447.810333	144.520000
447.904022	145.100000
447.997711	145.140000
448.091400	145.680000
448.185059	145.720000
448.278748	145.900000
448.372437	145.420000
448.466125	145.940000
448.559814	145.760000
448.653503	146.220000
448.747192	146.460000
448.840912	147.000000
448.934570	146.820000
449.028290	146.980000
449.121948	146.540000
449.215637	145.820000
449.309296	145.600000
449.403015	145.780000
449.496674	145.720000
449.590393	145.520000
449.684052	145.540000
449.777771	146.060000
449.871429	145.580000
449.965149	145.540000
450.058838	145.940000
450.152527	146.440000
450.246216	145.980000
450.339905	146.340000
450.433594	145.580000
450.527283	146.260000
450.620972	146.040000
450.714661	146.160000
450.808350	146.320000
450.902039	147.040000
450.995728	146.160000
451.089417	145.720000
451.183105	145.800000
451.276794	145.960000
451.370514	145.480000
451.464172	145.040000
451.557892	145.240000
451.651550	145.380000
451.745270	144.900000
451.838928	144.780000
451.932648	145.480000
452.026306	145.880000
452.120026	145.500000
452.213684	145.900000
452.307404	146.300000
452.401062	146.240000
452.494781	146.320000
452.588470	146.240000
452.682159	146.020000
452.775848	146.220000
452.869537	145.720000
452.963226	145.180000
453.056915	145.160000
453.150604	145.280000
453.244293	145.260000
453.337982	146.280000
453.431671	146.740000
453.525360	147.380000
453.619049	147.140000
453.712769	146.920000
453.806427	146.060000
453.900146	145.700000
453.993805	145.140000
454.087555	145.420000
454.181213	145.560000
454.274933	145.540000
454.368591	145.440000
454.462311	145.380000
454.555969	145.100000
454.649689	145.840000
454.743347	145.780000
454.837067	146.560000
454.930756	146.800000
455.024445	147.020000
455.118134	146.620000
455.211853	147.160000
455.305542	146.580000
455.399231	146.500000
455.492920	146.220000
455.586609	145.920000
455.680298	145.960000
455.773987	145.540000
455.867676	145.380000
455.961365	145.660000
456.055084	145.500000
456.148773	145.040000
456.242493	145.520000
456.336151	145.720000
456.429871	145.720000
456.523529	146.100000
456.617249	146.080000
456.710907	146.580000
456.804626	146.720000
456.898315	146.180000
456.992035	145.860000
457.085693	145.720000
457.179413	144.940000
457.273102	145.480000
457.366791	145.840000
457.460480	146.620000
457.554199	147.280000
457.647888	147.500000
457.741577	146.740000
457.835266	147.040000
457.928955	146.700000
458.022644	146.640000
458.116364	147.280000
458.210052	147.440000
458.303741	147.340000
458.397461	146.440000
458.491119	145.960000
458.584839	145.320000
458.678528	144.880000
458.772247	144.580000
458.865906	145.180000
458.959625	146.060000
459.053284	145.880000
459.147003	145.860000
459.240692	146.520000
459.334412	146.720000
459.428070	146.060000
459.521790	146.080000
459.615479	146.160000
459.709198	146.200000
459.802887	145.880000
459.896576	145.660000
459.990265	145.900000
460.083954	146.300000
460.177673	145.600000
460.271362	145.440000
460.365051	145.580000
460.458740	145.500000
460.552429	145.000000
460.646149	145.140000
460.739838	145.080000
460.833527	145.380000
460.927246	145.240000
461.020905	145.320000
461.114655	145.400000
461.208313	145.680000
461.302032	145.180000
461.395691	145.520000
461.489441	145.500000
461.583099	145.480000
461.676819	145.340000
461.770477	145.820000
461.864197	145.220000
461.957916	145.180000
462.051605	144.680000
462.145294	145.400000
462.238983	145.180000
462.332703	145.800000
462.426392	146.400000
462.520081	146.500000
462.613770	145.660000
462.707489	145.560000
462.801178	145.340000
462.894867	144.800000
462.988556	145.020000
463.082275	145.440000
463.175964	145.240000
463.269684	145.660000
463.363342	145.820000
463.457092	145.480000
463.550751	145.800000
463.644470	146.220000
463.738129	145.720000
463.831879	146.020000
463.925537	146.620000
464.019257	146.480000
464.112946	146.240000
464.206665	146.400000
464.300323	146.100000
464.394043	145.700000
464.487762	145.500000
464.581451	145.840000
464.675140	145.740000
464.768829	145.900000
464.862549	146.180000
464.956238	146.260000
465.049927	146.200000
465.143646	146.500000
465.237335	146.520000
465.331024	146.760000
465.424713	146.720000
465.518433	146.620000
465.612152	146.300000
465.705811	146.100000
465.799561	145.760000
465.893219	145.380000
465.986938	144.920000
466.080597	144.460000
466.174347	144.540000
466.268005	144.740000
466.361725	145.060000
466.455414	145.480000
466.549133	145.620000
466.642792	145.680000
466.736542	145.320000
466.830231	145.440000
466.923920	145.380000
467.017609	145.720000
467.111328	145.540000
467.205017	145.440000
467.298706	145.240000
467.392426	145.520000
467.486115	145.720000
467.579803	145.340000
467.673523	146.140000
467.767212	146.320000
467.860901	145.820000
467.954651	146.060000
468.048309	146.480000
468.142029	146.000000
468.235718	145.760000
468.329437	145.860000
468.423096	145.440000
468.516846	145.540000
468.610504	145.480000
468.704224	145.420000
468.797913	145.400000
468.891632	145.420000
468.985291	145.280000
469.079010	145.320000
469.172729	144.880000
469.266418	145.260000
469.360107	145.400000
469.453827	145.300000
469.547516	145.400000
469.641205	146.320000
469.734924	146.320000
469.828613	146.640000
469.922302	146.780000
470.016022	146.760000
470.109711	146.200000
470.203430	145.700000
470.297150	144.900000
470.390808	145.160000
470.484558	144.820000
470.578217	145.380000
470.671936	145.740000
470.765625	146.400000
470.859344	145.980000
470.953003	146.340000
471.046753	146.020000
471.140411	145.400000
471.234131	145.380000
471.327820	146.180000
471.421539	146.200000
471.515228	145.920000
471.608948	146.740000
471.702637	146.300000
471.796326	145.580000
471.890045	145.440000
471.983734	145.540000
472.077423	144.920000
472.171143	145.120000
472.264832	145.420000
472.358521	145.120000
472.452240	145.100000
472.545929	146.000000
472.639648	146.160000
472.733337	146.340000
472.827057	146.800000
472.920746	146.820000
473.014465	146.660000
473.108124	146.660000
473.201874	146.560000
473.295532	146.280000
473.389252	146.840000
473.482941	146.880000
473.576660	146.620000
473.670319	146.340000
473.764069	146.540000
473.857727	146.280000
473.951477	146.400000
474.045166	146.720000
474.138855	146.460000
474.232574	146.160000
474.326263	146.020000
474.419952	145.760000
474.513672	145.700000
474.607361	145.660000
474.701050	146.260000
474.794769	146.640000
474.888458	146.580000
474.982178	146.320000
475.075867	146.520000
475.169586	146.080000
475.263275	145.460000
475.356995	145.360000
475.450653	145.100000
475.544403	144.880000
475.638062	145.560000
475.731812	145.540000
475.825470	145.320000
475.919189	145.420000
476.012878	145.620000
476.106598	144.800000
476.200256	145.240000
476.294006	145.260000
476.387695	145.420000
476.481384	145.540000
476.575104	145.520000
476.668793	145.140000
476.762512	144.860000
476.856201	145.280000
476.949890	145.080000
477.043610	144.800000
477.137299	144.860000
477.230988	145.640000
477.324707	145.160000
477.418396	145.760000
477.512146	146.000000
477.605804	145.900000
477.699524	145.660000
477.793213	145.780000
477.886932	145.340000
477.980591	145.200000
478.074341	145.040000
478.167999	144.460000
478.261749	144.260000
478.355408	144.060000
478.449127	144.420000
478.542816	145.100000
478.636536	145.860000
478.730225	146.040000
478.823944	146.640000
478.917633	146.780000
479.011322	146.680000
479.105042	146.440000
479.198730	146.720000
479.292450	146.120000
479.386139	146.240000
479.479828	146.180000
479.573547	146.680000
479.667267	146.300000
479.760925	146.680000
479.854675	146.800000
479.948334	146.800000
480.042084	145.760000
480.135742	146.240000
480.229462	145.660000
480.323151	145.320000
480.416870	144.580000
480.510529	145.040000
480.604279	144.440000
480.697937	144.920000
480.791656	144.480000
480.885345	144.600000
480.979065	144.400000
481.072754	144.960000
481.166473	145.220000
481.260132	145.640000
481.353882	145.820000
481.447540	145.720000
481.541260	145.520000
481.635010	144.880000
481.728668	144.760000
481.822388	144.520000
481.916077	144.860000
482.009796	144.360000
482.103485	144.960000
482.197205	145.060000
482.290863	145.660000
482.384613	145.400000
482.478271	145.560000
482.571991	145.300000
482.665680	145.300000
482.759399	145.660000
482.853058	146.140000
482.946808	146.320000
483.040466	146.300000
483.134216	145.940000
483.227875	145.220000
483.321594	145.360000
483.415283	145.440000
483.509003	145.320000
483.602661	145.200000
483.696411	145.740000
483.790070	145.560000
483.883789	145.300000
483.977478	145.580000
484.071198	145.780000
484.164917	145.260000
484.258606	144.640000
484.352325	144.980000
484.445984	144.920000
484.539734	145.040000
484.633392	144.660000
484.727142	145.360000
484.820801	145.120000
484.914520	144.980000
485.008209	145.280000
485.101929	146.060000
485.195587	146.020000
485.289337	145.920000
485.382996	146.200000
485.476715	146.020000
485.570404	146.160000
485.664124	145.880000
485.757782	146.420000
485.851532	145.880000
485.945190	145.720000
486.038910	145.720000
486.132599	146.120000
486.226318	145.480000
486.319977	145.520000
486.413727	146.180000
486.507446	145.460000
486.601105	144.880000
486.694855	144.880000
486.788513	144.800000
486.882233	144.480000
486.975922	144.720000
487.069641	144.640000
487.163300	144.720000
487.257050	146.180000
487.350708	145.740000
487.444427	145.620000
487.538116	145.760000
487.631836	145.480000
487.725494	144.620000
487.819214	144.560000
487.912903	144.600000
488.006622	144.740000
488.100281	145.120000
488.194031	144.900000
488.287689	145.660000
488.381409	146.300000
488.475098	146.360000
488.568817	146.700000
488.662476	146.260000
488.756226	145.600000
488.849945	144.500000
488.943604	144.200000
489.037354	144.280000
489.131012	144.220000
489.224731	143.960000
489.318390	144.560000
489.412140	144.540000
489.505798	144.260000
489.599518	144.260000
489.693207	144.780000
489.786926	144.440000
489.880585	144.320000
489.974335	144.260000
490.067993	145.580000
490.161713	145.660000
490.255371	146.720000
490.349121	147.000000
490.442780	146.720000
490.536499	145.720000
490.630188	145.920000
490.723907	145.100000
490.817566	145.080000
490.911285	145.080000
491.004974	145.260000
491.098694	144.460000
491.192413	145.140000
491.286102	145.080000
491.379822	145.520000
491.473480	145.600000
491.567200	146.080000
491.660889	145.160000
491.754608	145.100000
491.848267	144.980000
491.941986	144.720000
492.035675	144.440000
492.129395	144.680000
492.223053	144.600000
492.316772	144.600000
492.410461	144.400000
492.504181	144.660000
492.597839	144.380000
492.691559	144.620000
492.785248	144.440000
492.878967	144.680000
492.972626	144.560000
493.066345	144.940000
493.160034	144.460000
493.253754	144.640000
493.347412	144.140000
493.441132	144.280000
493.534882	144.900000
493.628540	145.460000
493.722260	145.560000
493.815918	146.040000
493.909668	146.260000
494.003326	146.180000
494.097046	145.980000
494.190704	145.680000
494.284454	145.740000
494.378113	145.700000
494.471832	145.180000
494.565491	145.060000
494.659210	145.400000
494.752899	145.540000
494.846619	145.160000
494.940277	145.220000
495.033997	145.260000
495.127686	144.760000
495.221405	144.400000
495.315063	144.700000
495.408783	144.940000
495.502441	145.140000
495.596191	145.500000
495.689850	145.560000
495.783569	145.800000
495.877228	145.580000
495.970947	145.160000
496.064697	145.100000
496.158356	145.820000
496.252075	145.660000
496.345734	145.560000
496.439453	146.620000
496.533142	146.620000
496.626862	146.900000
496.720520	146.920000
496.814240	147.140000
496.907898	146.660000
497.001617	146.900000
497.095306	145.700000
497.189026	145.360000
497.282684	145.300000
497.376404	145.600000
497.470062	145.120000
497.563782	145.480000
497.657471	145.840000
497.751190	145.560000
497.844849	145.280000
497.938568	145.440000
498.032227	145.420000
498.125946	145.080000
498.219635	145.040000
498.313354	145.060000
498.407074	144.980000
498.500732	145.280000
498.594452	145.820000
498.688110	145.680000
498.781830	145.200000
498.875519	145.360000
498.969238	145.100000
499.062897	144.440000
499.156616	145.120000
499.250275	145.740000
499.343994	145.360000
499.437653	145.300000
499.531372	145.420000
499.625061	145.720000
499.718781	145.360000
499.812439	145.840000
499.906158	145.760000
499.999817	146.100000
500.093536	145.200000
500.187195	145.340000
500.280914	145.240000
500.374573	145.480000
500.468323	144.940000
500.561981	145.400000
500.655701	145.140000
500.749420	145.120000
500.843079	145.240000
500.936798	145.460000
501.030457	145.840000
501.124176	146.100000
501.217834	146.140000
501.311554	145.880000
501.405212	145.780000
501.498962	144.900000
501.592621	144.780000
501.686340	145.220000
501.779999	145.340000
501.873718	145.620000
501.967377	146.180000
502.061096	146.420000
502.154755	145.780000
502.248474	145.720000
502.342133	145.860000
502.435852	145.580000
502.529510	146.160000
502.623230	146.740000
502.716888	146.440000
502.810608	146.120000
502.904266	146.460000
502.997986	145.620000
503.091705	145.100000
503.185364	145.340000
503.279083	145.380000
503.372772	145.280000
503.466492	145.220000
503.560150	145.440000
503.653870	145.840000
503.747528	145.960000
503.841248	146.100000
503.934906	146.340000
504.028625	146.160000
504.122284	146.060000
504.216003	146.660000
504.309662	146.220000
504.403381	146.340000
504.497040	146.320000
504.590759	145.800000
504.684418	145.400000
504.778137	146.140000
504.871796	146.040000
504.965515	145.980000
505.059174	146.340000
505.152893	146.220000
505.246521	145.500000
505.340240	145.280000
505.433899	145.320000
505.527618	145.460000
505.621338	145.400000
505.714996	145.420000
505.808716	145.600000
505.902374	146.360000
505.996094	146.260000
506.089752	146.040000
506.183472	146.260000
506.277130	146.280000
506.370850	145.800000
506.464508	145.660000
506.558228	145.860000
506.651886	145.440000
506.745605	145.440000
506.839264	145.400000
506.932983	145.500000
507.026611	145.540000
507.120331	146.260000
507.213989	145.600000
507.307709	145.500000
507.401367	145.800000
507.495087	146.380000
507.588745	145.900000
507.682465	147.100000
507.776123	147.080000
507.869843	146.840000
507.963531	146.560000
508.057190	146.980000
508.150909	145.980000
508.244568	146.220000
508.338287	145.860000
508.431946	145.620000
508.525665	145.260000
508.619324	145.400000
508.713013	145.400000
508.806671	145.660000
508.900391	146.100000
508.994049	146.000000
509.087769	145.900000
509.181427	145.840000
509.275146	145.700000
509.368774	144.760000
509.462494	144.920000
509.556152	144.880000
509.649872	145.400000
509.743530	145.700000
509.837250	146.140000
509.930878	146.120000
510.024597	146.520000
510.118256	146.120000
510.211975	145.900000
510.305695	145.800000
510.399353	146.160000
510.493042	146.460000
510.586700	146.520000
510.680420	147.020000
510.774078	147.000000
510.867798	146.760000
510.961426	146.200000
511.055145	145.960000
511.148804	145.600000
511.242523	146.000000
511.336151	145.920000
511.429871	146.440000
511.523529	146.460000
511.617249	146.040000
511.710876	145.720000
511.804596	145.420000
511.898254	144.960000
511.991974	145.100000
512.085632	144.980000
512.179321	145.000000
512.272949	145.300000
512.366699	145.700000
512.460327	145.400000
512.554077	146.340000
512.647766	146.160000
512.741394	146.040000
512.835144	146.400000
512.928772	146.460000
513.022461	146.280000
513.116150	146.200000
513.209839	146.620000
513.303467	146.040000
513.397217	145.820000
513.490845	145.520000
513.584595	145.480000
513.678223	144.760000
513.771912	144.320000
513.865601	144.460000
513.959290	144.360000
514.052917	144.720000
514.146667	145.440000
514.240295	145.680000
514.333984	146.160000
514.427673	145.940000
514.521362	146.220000
514.614990	145.760000
514.708740	146.100000
514.802368	146.060000
514.896057	146.520000
514.989746	146.960000
515.083435	147.160000
515.177124	147.000000
515.270752	146.620000
515.364502	146.500000
515.458130	146.220000
515.551819	145.700000
515.645508	145.520000
515.739197	145.580000
515.832825	145.600000
515.926575	145.180000
516.020203	145.800000
516.113892	146.440000
516.207520	146.360000
516.301270	146.400000
516.394897	146.560000
516.488586	146.940000
516.582275	146.600000
516.675964	146.240000
516.769592	146.020000
516.863281	146.300000
516.956970	146.220000
517.050659	146.040000
517.144287	146.120000
517.238037	146.280000
517.331665	145.480000
517.425354	144.980000
517.519043	144.880000
517.612732	145.320000
517.706421	145.300000
517.800049	145.260000
517.893738	144.880000
517.987427	144.960000
518.081116	144.680000
518.174744	144.320000
518.268433	144.900000
518.362122	145.860000
518.455811	145.840000
518.549438	146.520000
518.643127	147.480000
518.736816	147.120000
518.830505	146.280000
518.924133	146.340000
519.017822	146.460000
519.111511	146.040000
519.205200	146.600000
519.298828	146.920000
519.392517	146.740000
519.486206	146.620000
519.579895	146.600000
519.673523	146.200000
519.767212	146.340000
519.860901	146.480000
519.954590	146.160000
520.048279	145.760000
520.141907	145.720000
520.235596	146.360000
520.329224	146.720000
520.422974	146.740000
520.516602	147.020000
520.610291	146.740000
520.703918	146.340000
520.797607	146.060000
520.891296	145.980000
520.984985	145.960000
521.078613	146.680000
521.172302	145.920000
521.265930	146.460000
521.359680	146.760000
521.453308	146.780000
521.546997	146.360000
521.640625	146.600000
521.734314	145.960000
521.827942	145.680000
521.921692	145.720000
522.015320	145.440000
522.109009	145.300000
522.202698	145.300000
522.296326	145.180000
522.390015	145.460000
522.483704	145.800000
522.577393	145.580000
522.671021	145.600000
522.764709	145.300000
522.858337	145.420000
522.952026	145.340000
523.045654	146.360000
523.139404	146.760000
523.233032	147.000000
523.326721	146.540000
523.420349	146.720000
523.514038	146.120000
523.607666	146.260000
523.701355	145.880000
523.795044	145.800000
523.888733	145.560000
523.982361	145.820000
524.076050	145.440000
524.169678	146.120000
524.263367	146.060000
524.356995	145.640000
524.450684	145.360000
524.544373	145.040000
524.638062	144.600000
524.731750	144.660000
524.825378	145.080000
524.919067	144.880000
525.012695	145.140000
525.106384	145.180000
525.200012	145.500000
525.293701	145.360000
525.387329	145.720000
525.481018	145.760000
525.574646	145.760000
525.668396	145.660000
525.762024	146.200000
525.855713	146.100000
525.949341	145.740000
526.043030	145.860000
526.136658	145.500000
526.230347	145.200000
526.323975	144.960000
526.417664	144.840000
526.511292	144.880000
526.604980	145.000000
526.698608	144.860000
526.792297	145.120000
526.885925	145.680000
526.979614	145.860000
527.073303	145.980000
527.166931	146.020000
527.260620	146.120000
527.354309	146.280000
527.447998	145.960000
527.541626	145.780000
527.635315	145.980000
527.728943	146.340000
527.822632	146.520000
527.916260	146.400000
528.009949	146.400000
528.103577	146.100000
528.197266	145.380000
528.290894	144.780000
528.384583	144.980000
528.478210	145.160000
528.571899	145.480000
528.665527	146.260000
528.759216	146.660000
528.852844	146.940000
528.946533	147.120000
529.040161	146.980000
529.133850	146.480000
529.227478	146.720000
529.321167	146.940000
529.414856	147.220000
529.508484	147.360000
529.602173	147.060000
529.695801	146.820000
529.789490	146.680000
529.883057	146.120000
529.976746	146.300000
530.070374	147.320000
530.164062	147.280000
530.257690	147.280000
530.351379	147.560000
530.445007	147.260000
530.538696	146.100000
530.632324	146.280000
530.726013	146.320000
530.819641	146.100000
530.913330	146.280000
531.006958	146.580000
531.100647	146.520000
531.194275	146.040000
531.287964	145.840000
531.381592	145.440000
531.475220	145.640000
531.568848	145.560000
531.662537	145.660000
531.756226	146.120000
531.849854	146.240000
531.943542	146.100000
532.037170	145.560000
532.130859	145.960000
532.224487	145.540000
532.318176	145.240000
532.411804	145.620000
532.505432	145.980000
532.599060	145.560000
532.692749	145.380000
532.786377	146.020000
532.880066	145.180000
532.973694	144.560000
533.067383	144.620000
533.161011	144.920000
533.254639	144.920000
533.348267	145.120000
533.441956	145.640000
533.535583	145.360000
533.629272	145.520000
533.722900	145.020000
533.816589	145.000000
533.910156	145.340000
534.003845	145.420000
534.097534	145.540000
534.191162	146.200000
534.284851	146.700000
534.378479	146.260000
534.472107	146.240000
534.565735	146.120000
534.659424	146.080000
534.753052	146.020000
534.846741	146.020000
534.940369	146.780000
535.033997	146.480000
535.127625	146.200000
535.221313	146.560000
535.314941	146.400000
535.408630	145.620000
535.502197	146.040000
535.595886	145.880000
535.689514	145.220000
535.783203	145.820000
535.876831	146.420000
535.970459	146.400000
536.064087	146.260000
536.157776	146.520000
536.251404	146.360000
536.345093	145.740000
536.438721	145.320000
536.532349	145.640000
536.626038	145.260000
536.719666	145.300000
536.813293	145.240000
536.906921	145.420000
537.000610	145.560000
537.094238	145.760000
537.187866	145.660000
537.281494	145.620000
537.375183	145.760000
537.468811	145.260000
537.562439	145.440000
537.656067	145.260000
537.749756	145.780000
537.843384	146.140000
537.937012	146.320000
538.030640	146.120000
538.124329	146.460000
538.217896	146.700000
538.311584	146.640000
538.405212	146.580000
538.498901	146.760000
538.592468	147.140000
538.686157	146.460000
538.779785	145.620000
538.873413	145.520000
538.967102	145.320000
539.060730	144.520000
539.154358	145.000000
539.247986	145.480000
539.341675	145.420000
539.435242	145.640000
539.528931	145.860000
539.622559	145.420000
539.716187	145.960000
539.809814	146.380000
539.903503	146.120000
539.997070	146.060000
540.090759	146.120000
540.184387	145.640000
540.278015	145.940000
540.371643	146.260000
540.465332	146.520000
540.558899	146.400000
540.652588	146.340000
540.746216	145.780000
540.839844	145.920000
540.933472	145.800000
541.027100	145.920000
541.120728	146.340000
541.214417	146.480000
541.308044	146.800000
541.401672	146.340000
541.495300	146.120000
541.588928	145.600000
541.682617	145.680000
541.776184	144.980000
541.869873	145.540000
541.963440	146.100000
542.057129	146.140000
542.150757	146.520000
542.244385	146.320000
542.338013	146.040000
542.431641	145.720000
542.525269	145.860000
542.618958	145.980000
542.712524	146.560000
542.806213	146.360000
542.899780	146.800000
542.993469	146.520000
543.087036	146.040000
543.180725	145.300000
543.274292	145.780000
543.367981	145.900000
543.461548	146.520000
543.555237	146.400000
543.648926	147.120000
543.742493	147.720000
543.836182	147.440000
543.929749	147.160000
544.023437	147.340000
544.117004	147.040000
544.210693	146.680000
544.304260	146.400000
544.397949	146.300000
544.491516	146.420000
544.585205	146.460000
544.678772	145.840000
544.772461	146.600000
544.866028	146.440000
544.959717	146.280000
545.053284	146.220000
545.146973	146.760000
545.240540	146.560000
545.334229	147.320000
545.427795	147.560000
545.521423	147.500000
545.615051	147.340000
545.708679	147.220000
545.802307	146.720000
545.895935	146.820000
545.989624	147.620000
546.083191	147.340000
546.176880	147.240000
546.270447	146.780000
546.364136	146.840000
546.457703	146.260000
546.551331	146.240000
546.644958	146.620000
546.738586	147.100000
546.832214	146.700000
546.925842	146.440000
547.019409	147.020000
547.113098	146.160000
547.206665	145.900000
547.300354	145.920000
547.393921	146.300000
547.487549	146.340000
547.581177	146.420000
547.674805	146.500000
547.768433	145.960000
547.862061	145.840000
547.955627	145.100000
548.049316	145.820000
548.142883	146.200000
548.236572	146.880000
548.330139	147.280000
548.423767	147.360000
548.517456	147.080000
548.611023	147.020000
548.704651	146.460000
548.798279	146.140000
548.891907	146.640000
548.985474	146.600000
549.079163	146.560000
549.172729	146.540000
549.266357	146.100000
549.359985	145.680000
549.453613	145.220000
549.547180	144.900000
549.640869	145.540000
549.734436	145.760000
549.828064	146.320000
549.921631	146.320000
550.015320	146.120000
550.108887	146.340000
550.202515	146.400000
550.296143	145.760000
550.389771	145.920000
550.483337	146.120000
550.576965	145.520000
550.670593	145.840000
550.764221	146.300000
550.857849	146.240000
550.951477	146.100000
551.045105	145.700000
551.138672	145.460000
551.232300	144.740000
551.325928	145.000000
551.419556	145.280000
551.513123	145.580000
551.606750	145.400000
551.700378	146.000000
551.794006	145.940000
551.887573	145.960000
551.981201	146.580000
552.074768	146.140000
552.168457	145.520000
552.262024	146.320000
552.355652	145.980000
552.449219	146.320000
552.542847	147.020000
552.636475	147.220000
552.730103	146.220000
552.823669	146.100000
552.917297	145.080000
553.010864	144.880000
553.104553	145.180000
553.198181	145.120000
553.291748	145.600000
553.385376	146.160000
553.478943	146.000000
553.572571	145.880000
553.666199	146.320000
553.759827	146.140000
553.853394	145.400000
553.947021	145.600000
554.040588	145.780000
554.134216	145.620000
554.227783	146.180000
554.321411	147.000000
554.415039	146.500000
554.508667	146.000000
554.602234	146.520000
554.695862	145.780000
554.789429	145.640000
554.883057	146.080000
554.976624	146.340000
555.070251	145.820000
555.163818	145.680000
555.257507	145.400000
555.351074	145.260000
555.444702	146.580000
555.538330	146.580000
555.631897	147.320000
555.725525	147.440000
555.819092	147.240000
555.912720	146.020000
556.006287	146.340000
556.099915	146.160000
556.193481	146.060000
556.287109	146.400000
556.380676	146.300000
556.474304	146.120000
556.567871	146.300000
556.661499	145.740000
556.755066	145.760000
556.848694	146.040000
556.942261	145.740000
557.035889	145.480000
557.129517	146.180000
557.223145	146.280000
557.316711	145.860000
557.410339	145.960000
557.503906	145.820000
557.597473	145.820000
557.691040	145.900000
557.784668	146.300000
557.878296	146.520000
557.971863	146.740000
558.065491	147.060000
558.159058	146.800000
558.252686	147.320000
558.346252	147.660000
558.439880	147.060000
558.533447	146.620000
558.627075	146.420000
558.720642	145.580000
558.814270	145.460000
558.907837	145.620000
559.001465	145.580000
559.095032	146.320000
559.188660	146.780000
559.282227	145.980000
559.375854	146.540000
559.469360	146.440000
559.562988	146.620000
559.656555	146.700000
559.750183	147.260000
559.843750	147.240000
559.937378	147.220000
560.030945	146.540000
560.124573	0.000000
560.218140	0.000000
560.311707	0.000000
560.405334	0.000000
560.498901	0.000000
560.592529	0.000000
560.686096	0.000000
560.779724	0.000000
560.873291	0.000000
560.966858	0.000000
561.060425	0.000000
561.154053	0.000000
561.247620	0.000000
561.341248	0.000000
561.434814	0.000000
561.528381	0.000000
561.621948	0.000000
561.715576	0.000000
561.809143	0.000000
561.902771	0.000000
561.996277	0.000000
562.089905	0.000000
562.183472	0.000000
562.277100	0.000000
