Model Number: SPM-002-B   
Serial Number: 70087108
Firmware Version: 004.15.4
Exposure Time: 100000.000000us
Data Taken on: 11-12-2020 18:52:00.328
Wavelength	Amplitude
221.570786	0.000000
221.663406	0.000000
221.756027	0.000000
221.848648	0.000000
221.941269	0.000000
222.033905	0.000000
222.126526	0.000000
222.219162	0.000000
222.311798	0.000000
222.404419	0.000000
222.497055	0.000000
222.589676	0.000000
222.682312	0.000000
222.774933	0.000000
222.867569	0.000000
222.960205	0.000000
223.052841	0.000000
223.145462	0.000000
223.238098	0.000000
223.330734	0.000000
223.423386	0.000000
223.516022	0.000000
223.608658	0.000000
223.701309	0.000000
223.793945	0.000000
223.886581	0.000000
223.979218	0.000000
224.071869	0.000000
224.164505	0.000000
224.257156	0.000000
224.349792	0.000000
224.442444	0.000000
224.535095	0.000000
224.627747	0.000000
224.720398	0.000000
224.813034	0.000000
224.905685	0.000000
224.998337	144.980000
225.090988	145.120000
225.183640	145.100000
225.276291	144.900000
225.368942	144.980000
225.461594	145.520000
225.554245	145.480000
225.646912	145.340000
225.739578	145.900000
225.832230	146.440000
225.924896	145.680000
226.017548	146.140000
226.110199	147.060000
226.202866	146.280000
226.295532	145.700000
226.388184	145.820000
226.480850	145.120000
226.573517	144.320000
226.666168	144.480000
226.758835	145.100000
226.851501	145.600000
226.944183	146.100000
227.036850	145.880000
227.129517	145.880000
227.222183	145.960000
227.314850	145.840000
227.407516	145.660000
227.500198	146.600000
227.592865	146.400000
227.685532	145.880000
227.778214	145.680000
227.870880	146.060000
227.963562	146.240000
228.056229	146.880000
228.148926	146.700000
228.241592	147.640000
228.334274	147.060000
228.426956	146.660000
228.519638	146.520000
228.612305	146.460000
228.704987	145.980000
228.797668	146.280000
228.890350	145.780000
228.983032	145.160000
229.075714	145.880000
229.168396	145.600000
229.261108	145.060000
229.353790	145.220000
229.446472	145.680000
229.539169	145.340000
229.631851	144.800000
229.724533	144.900000
229.817230	145.100000
229.909912	145.780000
230.002609	145.860000
230.095306	146.260000
230.187988	146.600000
230.280685	146.360000
230.373383	145.260000
230.466095	145.000000
230.558792	145.740000
230.651474	145.820000
230.744171	145.860000
230.836868	145.940000
230.929581	146.220000
231.022278	145.760000
231.114975	145.880000
231.207672	145.700000
231.300369	146.200000
231.393082	146.440000
231.485779	145.880000
231.578506	145.320000
231.671204	145.360000
231.763916	145.340000
231.856613	144.820000
231.949326	145.420000
232.042023	145.520000
232.134735	145.620000
232.227448	144.980000
232.320160	145.540000
232.412872	145.580000
232.505585	146.340000
232.598297	146.580000
232.691010	146.780000
232.783722	146.120000
232.876450	146.520000
232.969162	145.880000
233.061874	145.400000
233.154587	145.100000
233.247314	145.660000
233.340027	144.980000
233.432739	145.640000
233.525467	145.640000
233.618179	146.160000
233.710907	145.400000
233.803635	145.760000
233.896347	145.320000
233.989090	146.200000
234.081818	145.960000
234.174545	146.340000
234.267258	145.720000
234.359985	145.620000
234.452713	145.240000
234.545441	145.260000
234.638168	145.060000
234.730896	145.880000
234.823639	145.740000
234.916367	145.860000
235.009094	146.060000
235.101822	145.880000
235.194580	145.300000
235.287308	145.380000
235.380051	144.780000
235.472778	144.660000
235.565521	145.260000
235.658249	145.120000
235.750992	145.260000
235.843719	145.580000
235.936462	145.760000
236.029205	145.340000
236.121948	145.180000
236.214691	145.680000
236.307449	146.120000
236.400192	145.760000
236.492935	145.720000
236.585678	145.940000
236.678421	145.800000
236.771164	145.320000
236.863907	145.980000
236.956665	146.100000
237.049408	148.020000
237.142151	147.100000
237.234909	147.720000
237.327652	147.500000
237.420410	147.320000
237.513153	146.060000
237.605927	146.240000
237.698669	145.540000
237.791428	144.880000
237.884186	145.500000
237.976944	144.840000
238.069702	145.480000
238.162445	145.200000
238.255203	145.600000
238.347961	145.340000
238.440720	145.340000
238.533478	144.800000
238.626266	144.800000
238.719025	145.020000
238.811783	145.100000
238.904541	145.140000
238.997314	145.160000
239.090073	145.060000
239.182831	145.120000
239.275604	145.800000
239.368362	145.580000
239.461136	145.840000
239.553909	146.160000
239.646667	145.920000
239.739441	145.260000
239.832214	145.780000
239.925003	145.880000
240.017761	146.380000
240.110535	146.880000
240.203308	146.660000
240.296082	146.620000
240.388855	146.440000
240.481628	146.280000
240.574417	146.200000
240.667191	146.400000
240.759964	146.040000
240.852737	145.960000
240.945526	145.540000
241.038315	145.060000
241.131088	145.100000
241.223877	145.500000
241.316650	145.240000
241.409439	145.520000
241.502228	145.460000
241.595001	145.780000
241.687790	145.260000
241.780579	145.400000
241.873367	145.360000
241.966141	145.700000
242.058929	145.220000
242.151718	145.800000
242.244507	146.280000
242.337311	145.860000
242.430099	146.140000
242.522903	146.020000
242.615692	145.520000
242.708481	145.440000
242.801270	145.920000
242.894073	145.820000
242.986862	145.980000
243.079651	146.400000
243.172455	146.060000
243.265244	145.900000
243.358063	145.160000
243.450867	145.380000
243.543655	145.300000
243.636459	145.760000
243.729263	146.380000
243.822067	146.900000
243.914856	147.180000
244.007660	147.180000
244.100464	146.840000
244.193268	146.280000
244.286072	146.080000
244.378876	145.520000
244.471680	145.380000
244.564499	145.680000
244.657318	146.180000
244.750122	146.680000
244.842926	146.420000
244.935745	146.820000
245.028549	146.240000
245.121368	145.960000
245.214172	145.500000
245.306992	146.160000
245.399796	145.660000
245.492615	145.960000
245.585434	145.700000
245.678253	145.720000
245.771072	145.200000
245.863892	145.620000
245.956711	145.740000
246.049530	145.560000
246.142349	145.340000
246.235168	145.700000
246.327988	146.140000
246.420807	145.840000
246.513626	146.020000
246.606445	145.880000
246.699280	145.560000
246.792099	145.160000
246.884918	145.020000
246.977753	144.560000
247.070587	144.720000
247.163422	144.900000
247.256241	144.680000
247.349075	145.120000
247.441895	145.500000
247.534729	145.620000
247.627563	145.460000
247.720383	146.060000
247.813217	145.960000
247.906052	145.760000
247.998886	145.720000
248.091736	145.820000
248.184570	145.280000
248.277405	145.260000
248.370239	146.180000
248.463074	147.100000
248.555908	147.440000
248.648743	147.420000
248.741592	147.460000
248.834427	146.800000
248.927261	145.660000
249.020111	145.720000
249.112946	146.280000
249.205795	145.880000
249.298630	146.100000
249.391495	146.260000
249.484344	145.880000
249.577179	145.780000
249.670029	145.980000
249.762878	146.480000
249.855728	146.620000
249.948563	146.760000
250.041412	145.880000
250.134262	146.300000
250.227112	145.840000
250.319962	145.860000
250.412827	145.840000
250.505692	145.720000
250.598541	145.440000
250.691391	145.020000
250.784241	145.320000
250.877106	145.200000
250.969955	145.320000
251.062805	145.680000
251.155670	146.420000
251.248520	145.940000
251.341385	146.200000
251.434235	146.160000
251.527100	145.820000
251.619965	145.420000
251.712814	146.100000
251.805695	145.740000
251.898560	146.120000
251.991425	146.460000
252.084290	146.540000
252.177155	145.780000
252.270020	145.880000
252.362885	145.640000
252.455750	145.720000
252.548615	145.340000
252.641479	145.540000
252.734360	145.380000
252.827240	145.500000
252.920105	144.980000
253.012970	144.760000
253.105850	144.800000
253.198715	144.720000
253.291595	144.620000
253.384460	144.420000
253.477341	144.780000
253.570221	144.940000
253.663086	145.060000
253.755966	145.580000
253.848846	145.940000
253.941727	146.060000
254.034592	145.880000
254.127472	145.500000
254.220367	145.160000
254.313248	145.360000
254.406128	145.080000
254.499008	145.340000
254.591904	146.020000
254.684784	146.500000
254.777664	146.420000
254.870544	146.320000
254.963440	146.100000
255.056335	146.060000
255.149216	145.840000
255.242111	146.120000
255.334991	146.680000
255.427887	147.000000
255.520767	146.800000
255.613663	147.160000
255.706558	146.540000
255.799438	145.880000
255.892334	145.580000
255.985229	145.740000
256.078125	145.340000
256.171021	145.560000
256.263916	146.360000
256.356812	146.320000
256.449707	146.460000
256.542603	146.180000
256.635498	146.660000
256.728394	146.100000
256.821289	146.020000
256.914215	146.040000
257.007080	146.500000
257.100006	146.140000
257.192932	146.660000
257.285828	146.940000
257.378723	146.880000
257.471619	146.760000
257.564545	146.540000
257.657440	146.360000
257.750336	146.460000
257.843262	145.980000
257.936157	146.780000
258.029053	146.920000
258.121979	147.060000
258.214874	146.660000
258.307800	146.560000
258.400696	145.240000
258.493622	145.120000
258.586517	144.160000
258.679443	144.500000
258.772339	144.520000
258.865265	144.700000
258.958160	144.220000
259.051086	145.520000
259.144012	145.200000
259.236938	145.920000
259.329834	146.200000
259.422791	146.560000
259.515717	145.800000
259.608612	145.780000
259.701538	145.580000
259.794464	145.260000
259.887390	145.240000
259.980316	145.340000
260.073212	145.160000
260.166138	144.420000
260.259064	144.740000
260.351990	145.420000
260.444916	145.340000
260.537842	145.720000
260.630768	146.680000
260.723694	146.600000
260.816620	146.040000
260.909546	146.180000
261.002472	145.820000
261.095398	145.140000
261.188354	144.960000
261.281281	144.840000
261.374207	144.780000
261.467133	145.740000
261.560089	145.940000
261.653015	145.820000
261.745972	146.380000
261.838867	146.560000
261.931824	146.120000
262.024780	145.560000
262.117706	145.920000
262.210663	145.940000
262.303589	145.860000
262.396515	145.760000
262.489471	147.100000
262.582397	146.880000
262.675354	146.240000
262.768280	146.120000
262.861237	146.240000
262.954163	145.640000
263.047119	145.740000
263.140045	145.980000
263.233002	145.940000
263.325958	145.840000
263.418884	145.400000
263.511841	145.320000
263.604797	145.280000
263.697723	145.400000
263.790680	145.340000
263.883636	145.820000
263.976593	145.620000
264.069550	145.740000
264.162476	145.740000
264.255463	145.720000
264.348419	145.560000
264.441376	145.900000
264.534332	145.260000
264.627289	145.120000
264.720245	145.580000
264.813202	145.200000
264.906158	145.700000
264.999115	146.320000
265.092072	146.160000
265.185028	146.260000
265.277985	146.600000
265.370941	146.260000
265.463898	145.900000
265.556854	145.900000
265.649811	145.160000
265.742798	145.120000
265.835754	144.740000
265.928711	145.480000
266.021667	145.360000
266.114655	145.500000
266.207611	145.680000
266.300568	145.400000
266.393585	144.880000
266.486511	145.460000
266.579498	144.800000
266.672485	144.620000
266.765442	145.000000
266.858429	145.380000
266.951385	144.740000
267.044342	145.380000
267.137329	145.440000
267.230316	145.400000
267.323273	144.960000
267.416260	145.800000
267.509216	145.740000
267.602203	145.700000
267.695160	146.240000
267.788147	146.200000
267.881134	145.560000
267.974091	145.920000
268.067078	145.880000
268.160065	145.440000
268.253052	145.400000
268.346008	145.620000
268.438995	145.320000
268.531982	145.360000
268.624969	145.240000
268.717987	145.800000
268.810944	145.960000
268.903961	145.980000
268.996948	145.740000
269.089905	146.220000
269.182892	145.960000
269.275879	146.020000
269.368866	145.680000
269.461853	146.000000
269.554871	145.760000
269.647858	145.780000
269.740845	145.700000
269.833832	146.280000
269.926819	145.940000
270.019806	146.000000
270.112793	145.620000
270.205811	145.800000
270.298798	145.140000
270.391785	145.680000
270.484772	145.360000
270.577789	145.540000
270.670776	145.100000
270.763763	145.540000
270.856750	145.520000
270.949768	145.460000
271.042786	145.740000
271.135773	145.880000
271.228790	146.160000
271.321808	145.640000
271.414795	145.460000
271.507782	144.940000
271.600800	144.560000
271.693817	144.340000
271.786804	144.920000
271.879822	145.320000
271.972809	145.220000
272.065826	145.840000
272.158844	145.480000
272.251831	145.720000
272.344849	145.780000
272.437866	145.900000
272.530853	145.680000
272.623871	145.860000
272.716888	144.940000
272.809906	145.080000
272.902893	145.120000
272.995911	144.720000
273.088928	144.780000
273.181946	145.280000
273.274963	144.820000
273.367981	144.660000
273.460999	145.060000
273.554047	145.500000
273.647003	145.840000
273.740051	145.940000
273.833069	146.540000
273.926086	146.660000
274.019135	146.140000
274.112152	145.760000
274.205170	145.680000
274.298187	145.720000
274.391205	145.140000
274.484222	145.420000
274.577240	145.500000
274.670258	145.680000
274.763306	145.400000
274.856323	146.100000
274.949341	146.040000
275.042358	146.500000
275.135406	146.360000
275.228424	146.380000
275.321442	146.040000
275.414490	145.900000
275.507507	145.860000
275.600525	146.300000
275.693573	146.040000
275.786591	145.960000
275.879669	146.080000
275.972656	145.480000
276.065735	145.080000
276.158752	145.560000
276.251801	146.260000
276.344818	146.240000
276.437866	146.240000
276.530884	146.220000
276.623932	145.720000
276.716980	145.340000
276.809998	145.640000
276.903046	145.620000
276.996094	146.140000
277.089111	146.800000
277.182159	147.220000
277.275208	146.660000
277.368256	146.580000
277.461304	146.340000
277.554321	145.560000
277.647369	145.440000
277.740417	145.620000
277.833466	145.600000
277.926514	145.500000
278.019562	146.440000
278.112610	145.520000
278.205688	145.700000
278.298706	146.180000
278.391785	145.880000
278.484833	145.220000
278.577881	145.720000
278.670929	146.040000
278.763977	145.920000
278.857025	146.420000
278.950073	146.500000
279.043121	146.260000
279.136169	145.900000
279.229248	145.680000
279.322296	145.560000
279.415344	145.160000
279.508392	145.540000
279.601440	145.460000
279.694519	145.260000
279.787567	145.060000
279.880615	145.020000
279.973694	144.340000
280.066742	144.260000
280.159790	144.640000
280.252869	144.420000
280.345917	144.900000
280.438995	144.920000
280.532074	144.940000
280.625122	145.180000
280.718201	146.260000
280.811279	146.580000
280.904327	146.960000
280.997406	146.960000
281.090454	146.960000
281.183533	146.240000
281.276581	145.620000
281.369659	145.700000
281.462738	145.720000
281.555786	145.520000
281.648865	145.560000
281.741943	145.700000
281.835022	145.920000
281.928070	145.760000
282.021149	145.540000
282.114227	145.460000
282.207306	145.680000
282.300385	145.780000
282.393433	145.960000
282.486511	146.140000
282.579590	146.780000
282.672668	146.900000
282.765747	146.400000
282.858856	145.940000
282.951904	146.040000
283.045013	145.520000
283.138062	145.580000
283.231171	145.860000
283.324249	146.700000
283.417328	146.820000
283.510406	146.580000
283.603485	146.380000
283.696564	146.300000
283.789642	145.900000
283.882751	145.440000
283.975830	146.200000
284.068909	145.780000
284.161987	146.260000
284.255066	146.140000
284.348175	146.500000
284.441254	146.040000
284.534332	146.820000
284.627441	146.160000
284.720520	145.820000
284.813599	145.820000
284.906708	145.820000
284.999786	145.120000
285.092896	145.200000
285.185974	146.600000
285.279053	146.260000
285.372192	146.240000
285.465240	146.820000
285.558380	146.620000
285.651459	145.720000
285.744568	146.340000
285.837677	145.940000
285.930756	145.880000
286.023865	146.100000
286.116943	145.880000
286.210052	145.680000
286.303162	145.760000
286.396240	145.560000
286.489349	145.420000
286.582458	145.740000
286.675568	145.480000
286.768646	145.640000
286.861755	145.920000
286.954865	146.420000
287.047974	145.680000
287.141083	145.560000
287.234161	145.180000
287.327271	144.800000
287.420380	144.800000
287.513519	144.980000
287.606598	145.080000
287.699738	145.580000
287.792816	145.320000
287.885956	145.100000
287.979034	145.300000
288.072174	145.420000
288.165283	145.340000
288.258392	145.680000
288.351501	145.280000
288.444611	145.740000
288.537720	145.860000
288.630859	145.600000
288.723969	145.900000
288.817078	146.380000
288.910187	145.980000
289.003296	145.340000
289.096436	145.240000
289.189545	144.980000
289.282654	144.120000
289.375763	144.280000
289.468903	144.980000
289.562012	145.140000
289.655121	145.220000
289.748260	146.160000
289.841400	146.440000
289.934509	146.160000
290.027649	146.480000
290.120728	146.280000
290.213898	146.180000
290.306976	145.940000
290.400146	146.160000
290.493256	145.720000
290.586395	145.720000
290.679535	145.660000
290.772644	145.460000
290.865784	144.880000
290.958893	144.820000
291.052032	144.900000
291.145172	145.000000
291.238281	144.840000
291.331421	145.180000
291.424561	146.060000
291.517670	145.920000
291.610809	146.100000
291.703949	146.140000
291.797089	146.080000
291.890228	145.600000
291.983337	145.720000
292.076477	145.300000
292.169617	145.500000
292.262756	145.760000
292.355927	145.540000
292.449036	145.080000
292.542206	145.460000
292.635315	145.660000
292.728485	145.720000
292.821625	145.440000
292.914764	146.680000
293.007904	146.360000
293.101044	146.260000
293.194183	146.000000
293.287323	146.300000
293.380463	145.740000
293.473602	145.640000
293.566742	145.720000
293.659882	146.300000
293.753021	146.660000
293.846191	146.340000
293.939331	145.940000
294.032471	145.800000
294.125610	145.240000
294.218781	145.320000
294.311920	145.920000
294.405060	146.400000
294.498230	146.420000
294.591370	146.600000
294.684540	146.060000
294.777679	145.260000
294.870850	145.740000
294.963959	145.860000
295.057159	145.780000
295.150299	145.700000
295.243469	145.980000
295.336609	145.100000
295.429779	145.080000
295.522919	145.400000
295.616089	145.820000
295.709229	146.260000
295.802399	146.700000
295.895569	146.020000
295.988708	145.460000
296.081879	145.520000
296.175018	144.960000
296.268188	144.480000
296.361359	145.520000
296.454529	146.080000
296.547668	145.740000
296.640839	145.820000
296.734009	146.020000
296.827179	145.720000
296.920319	145.520000
297.013519	145.420000
297.106659	145.760000
297.199860	145.880000
297.292999	145.740000
297.386200	145.460000
297.479309	145.420000
297.572510	144.980000
297.665680	144.880000
297.758850	144.960000
297.852020	145.020000
297.945190	145.280000
298.038361	145.020000
298.131531	145.820000
298.224701	145.360000
298.317871	145.040000
298.411072	144.440000
298.504242	144.560000
298.597412	143.980000
298.690582	144.600000
298.783752	144.900000
298.876923	145.580000
298.970093	145.740000
299.063293	145.980000
299.156464	145.980000
299.249634	146.180000
299.342834	146.300000
299.436005	146.640000
299.529205	146.320000
299.622345	146.240000
299.715576	145.560000
299.808716	145.060000
299.901917	144.880000
299.995117	145.160000
300.088287	145.440000
300.181488	145.660000
300.274658	145.820000
300.367828	145.880000
300.461029	145.840000
300.554199	145.560000
300.647400	145.500000
300.740601	145.820000
300.833771	145.760000
300.926971	145.660000
301.020142	145.080000
301.113342	144.920000
301.206512	144.860000
301.299713	144.780000
301.392914	145.200000
301.486084	145.880000
301.579285	146.320000
301.672516	146.500000
301.765686	146.280000
301.858887	145.740000
301.952057	145.380000
302.045288	145.500000
302.138458	145.140000
302.231659	145.080000
302.324860	145.160000
302.418060	145.220000
302.511261	144.860000
302.604462	145.340000
302.697662	145.080000
302.790863	144.860000
302.884064	144.540000
302.977264	144.660000
303.070465	144.460000
303.163666	145.440000
303.256866	145.760000
303.350067	146.100000
303.443268	146.160000
303.536469	146.080000
303.629669	145.720000
303.722870	145.720000
303.816071	145.240000
303.909271	145.220000
304.002472	144.580000
304.095673	144.260000
304.188934	143.760000
304.282104	144.840000
304.375336	144.700000
304.468506	145.120000
304.561768	145.000000
304.654968	145.620000
304.748169	145.060000
304.841370	145.180000
304.934601	145.400000
305.027802	145.280000
305.121002	145.000000
305.214233	144.920000
305.307434	144.840000
305.400665	145.480000
305.493866	145.560000
305.587097	145.720000
305.680298	145.580000
305.773499	146.060000
305.866730	145.500000
305.959930	146.260000
306.053162	146.220000
306.146393	146.020000
306.239594	145.200000
306.332825	145.040000
306.426025	145.140000
306.519287	144.740000
306.612488	144.860000
306.705719	145.160000
306.798920	145.020000
306.892181	144.260000
306.985352	144.040000
307.078613	143.620000
307.171844	144.060000
307.265045	144.060000
307.358276	143.880000
307.451508	144.720000
307.544739	145.500000
307.637970	145.140000
307.731201	145.140000
307.824402	146.060000
307.917633	146.100000
308.010864	146.520000
308.104095	146.740000
308.197327	146.840000
308.290558	146.600000
308.383789	146.040000
308.477020	145.440000
308.570251	145.000000
308.663483	144.680000
308.756714	144.380000
308.849976	144.660000
308.943176	145.240000
309.036438	145.180000
309.129639	145.240000
309.222900	145.360000
309.316101	145.040000
309.409393	144.340000
309.502625	144.240000
309.595856	144.380000
309.689087	144.400000
309.782318	144.700000
309.875580	144.900000
309.968811	145.280000
310.062042	145.280000
310.155273	145.060000
310.248535	145.160000
310.341766	145.480000
310.434998	145.320000
310.528259	145.000000
310.621490	145.480000
310.714722	144.900000
310.807983	144.760000
310.901215	144.660000
310.994476	145.040000
311.087708	144.340000
311.181000	144.940000
311.274200	144.440000
311.367462	144.720000
311.460693	144.620000
311.553986	145.720000
311.647186	145.560000
311.740479	146.380000
311.833710	145.940000
311.926971	145.820000
312.020203	144.860000
312.113464	144.900000
312.206726	144.160000
312.299957	144.660000
312.393219	145.240000
312.486481	145.600000
312.579712	145.640000
312.672974	145.960000
312.766235	145.500000
312.859497	145.440000
312.952759	145.520000
313.045990	146.100000
313.139252	145.600000
313.232513	146.020000
313.325775	145.820000
313.419037	145.400000
313.512299	144.480000
313.605530	145.000000
313.698822	144.900000
313.792053	144.980000
313.885345	144.900000
313.978577	145.440000
314.071869	145.100000
314.165131	145.360000
314.258392	145.780000
314.351654	146.140000
314.444916	145.260000
314.538177	145.760000
314.631439	146.020000
314.724701	145.320000
314.817993	145.000000
314.911255	145.700000
315.004517	145.080000
315.097778	144.760000
315.191040	145.300000
315.284302	145.560000
315.377594	145.400000
315.470856	145.620000
315.564117	145.020000
315.657379	144.400000
315.750671	143.920000
315.843933	144.220000
315.937195	143.800000
316.030518	143.900000
316.123749	144.100000
316.217041	145.080000
316.310303	144.920000
316.403595	145.500000
316.496857	146.180000
316.590149	146.340000
316.683411	145.620000
316.776703	145.360000
316.869965	145.300000
316.963257	144.920000
317.056519	144.300000
317.149811	144.500000
317.243073	144.300000
317.336365	144.420000
317.429626	144.740000
317.522919	145.360000
317.616180	145.280000
317.709473	145.300000
317.802765	145.100000
317.896027	144.880000
317.989319	144.980000
318.082611	144.860000
318.175873	144.860000
318.269165	144.740000
318.362488	144.660000
318.455750	144.140000
318.549042	144.520000
318.642303	144.940000
318.735626	144.580000
318.828888	144.740000
318.922211	144.640000
319.015472	144.960000
319.108765	144.300000
319.202057	144.540000
319.295349	144.940000
319.388641	145.300000
319.481934	145.000000
319.575226	145.300000
319.668518	145.700000
319.761810	145.340000
319.855103	145.420000
319.948395	145.400000
320.041687	145.740000
320.134979	145.460000
320.228271	145.440000
320.321564	145.140000
320.414856	145.280000
320.508148	144.800000
320.601440	144.660000
320.694763	144.420000
320.788025	145.260000
320.881348	144.920000
320.974640	144.960000
321.067963	144.980000
321.161224	145.140000
321.254547	144.220000
321.347839	145.260000
321.441162	145.140000
321.534454	145.000000
321.627747	144.740000
321.721069	145.400000
321.814362	144.680000
321.907654	144.900000
322.000946	145.060000
322.094269	145.860000
322.187561	145.420000
322.280884	145.860000
322.374176	146.140000
322.467468	146.660000
322.560791	146.240000
322.654083	146.780000
322.747406	146.500000
322.840698	146.600000
322.934021	146.800000
323.027344	146.780000
323.120636	146.120000
323.213959	146.120000
323.307251	145.460000
323.400574	144.980000
323.493866	144.820000
323.587219	145.040000
323.680511	145.140000
323.773834	145.500000
323.867157	145.560000
323.960449	145.640000
324.053772	145.700000
324.147095	145.360000
324.240387	145.600000
324.333710	145.640000
324.427032	145.660000
324.520355	145.460000
324.613647	145.440000
324.706970	145.180000
324.800293	145.200000
324.893616	145.360000
324.986938	145.700000
325.080231	145.180000
325.173553	145.580000
325.266876	145.940000
325.360199	145.980000
325.453522	145.520000
325.546875	145.540000
325.640167	145.320000
325.733521	145.360000
325.826813	145.300000
325.920166	145.320000
326.013489	145.420000
326.106812	144.840000
326.200134	144.080000
326.293457	144.060000
326.386780	144.220000
326.480103	144.260000
326.573425	144.240000
326.666748	144.280000
326.760071	144.460000
326.853424	144.640000
326.946747	144.800000
327.040070	145.760000
327.133392	145.740000
327.226715	144.920000
327.320068	144.460000
327.413391	144.620000
327.506714	143.940000
327.600037	144.200000
327.693390	144.720000
327.786713	144.780000
327.880066	144.740000
327.973358	145.200000
328.066742	145.460000
328.160034	145.480000
328.253418	146.080000
328.346710	145.760000
328.440063	145.200000
328.533417	144.900000
328.626740	145.220000
328.720093	144.580000
328.813416	144.820000
328.906769	145.140000
329.000092	145.520000
329.093445	145.240000
329.186768	145.600000
329.280121	145.860000
329.373444	145.940000
329.466797	145.800000
329.560120	146.060000
329.653473	145.880000
329.746796	145.520000
329.840149	145.260000
329.933502	144.860000
330.026825	144.680000
330.120178	144.560000
330.213562	144.560000
330.306854	144.680000
330.400238	144.860000
330.493561	144.560000
330.586945	145.280000
330.680237	145.520000
330.773621	145.680000
330.866974	145.520000
330.960327	145.780000
331.053680	145.300000
331.147003	145.600000
331.240356	145.560000
331.333710	145.940000
331.427063	145.640000
331.520416	145.560000
331.613770	144.940000
331.707123	145.280000
331.800476	144.980000
331.893829	145.940000
331.987152	146.120000
332.080505	146.220000
332.173859	145.760000
332.267212	145.800000
332.360565	144.880000
332.453918	144.640000
332.547333	144.620000
332.640656	144.660000
332.734039	144.700000
332.827362	144.720000
332.920746	144.980000
333.014069	145.260000
333.107452	145.640000
333.200806	145.680000
333.294159	145.940000
333.387543	145.860000
333.480896	145.340000
333.574249	144.940000
333.667603	144.760000
333.760956	144.900000
333.854340	144.760000
333.947693	145.060000
334.041046	145.120000
334.134430	145.400000
334.227783	145.120000
334.321136	144.980000
334.414520	144.900000
334.507874	145.020000
334.601227	144.800000
334.694611	144.740000
334.787964	145.180000
334.881348	145.480000
334.974701	145.720000
335.068085	145.500000
335.161438	145.800000
335.254822	145.420000
335.348175	145.220000
335.441559	144.600000
335.534943	145.320000
335.628296	145.180000
335.721680	145.100000
335.815033	145.380000
335.908417	146.020000
336.001770	145.800000
336.095154	145.540000
336.188538	145.340000
336.281891	144.720000
336.375275	144.120000
336.468658	143.880000
336.562012	144.060000
336.655396	144.920000
336.748779	145.520000
336.842133	145.580000
336.935516	145.640000
337.028900	145.180000
337.122284	144.600000
337.215637	144.600000
337.309021	144.880000
337.402435	144.540000
337.495789	144.640000
337.589203	144.800000
337.682526	144.340000
337.775940	144.580000
337.869324	145.140000
337.962708	144.920000
338.056091	145.180000
338.149475	145.160000
338.242859	145.160000
338.336243	144.720000
338.429626	145.100000
338.523010	144.820000
338.616394	144.960000
338.709778	144.720000
338.803162	144.960000
338.896545	145.320000
338.989929	145.060000
339.083313	145.220000
339.176697	144.840000
339.270081	144.760000
339.363464	144.680000
339.456848	145.340000
339.550232	145.020000
339.643616	145.160000
339.737030	145.260000
339.830383	145.100000
339.923828	144.720000
340.017181	144.960000
340.110596	145.240000
340.203949	145.160000
340.297363	145.020000
340.390778	145.020000
340.484161	144.880000
340.577545	144.520000
340.670959	144.940000
340.764343	144.920000
340.857727	145.160000
340.951111	144.760000
341.044525	145.160000
341.137909	144.480000
341.231293	144.500000
341.324707	143.860000
341.418091	144.920000
341.511505	144.840000
341.604889	145.240000
341.698303	145.580000
341.791687	145.960000
341.885071	145.240000
341.978485	145.000000
342.071899	145.080000
342.165283	144.900000
342.258698	145.320000
342.352081	146.080000
342.445496	146.740000
342.538879	146.520000
342.632324	146.380000
342.725708	145.920000
342.819122	144.960000
342.912506	144.540000
343.005920	144.620000
343.099335	145.560000
343.192719	145.360000
343.286133	145.540000
343.379547	145.420000
343.472931	145.540000
343.566345	144.740000
343.659760	145.220000
343.753143	144.840000
343.846558	144.700000
343.939972	144.440000
344.033386	145.160000
344.126770	144.580000
344.220184	144.940000
344.313599	145.320000
344.407043	145.560000
344.500427	144.840000
344.593872	145.820000
344.687225	145.700000
344.780670	145.300000
344.874054	145.240000
344.967499	145.840000
345.060913	145.580000
345.154327	145.900000
345.247742	145.660000
345.341156	145.340000
345.434570	144.660000
345.527985	144.420000
345.621399	144.540000
345.714813	144.980000
345.808228	145.060000
345.901642	145.000000
345.995056	144.680000
346.088470	144.460000
346.181885	144.500000
346.275299	144.380000
346.368713	144.300000
346.462128	144.480000
346.555573	144.680000
346.648987	144.800000
346.742401	144.960000
346.835815	145.660000
346.929260	145.200000
347.022644	145.000000
347.116119	145.060000
347.209503	145.440000
347.302948	145.840000
347.396362	146.860000
347.489807	146.840000
347.583221	147.440000
347.676636	147.000000
347.770050	145.820000
347.863495	145.200000
347.956909	145.340000
348.050323	144.260000
348.143768	144.020000
348.237183	143.880000
348.330597	144.080000
348.424042	144.440000
348.517456	145.140000
348.610901	145.740000
348.704315	146.020000
348.797760	145.560000
348.891174	144.760000
348.984619	144.020000
349.078033	144.380000
349.171448	145.280000
349.264923	145.520000
349.358337	145.760000
349.451782	146.100000
349.545197	145.180000
349.638641	144.260000
349.732086	143.800000
349.825500	144.140000
349.918945	143.760000
350.012390	144.340000
350.105804	144.860000
350.199249	145.400000
350.292664	145.880000
350.386108	146.180000
350.479553	146.680000
350.572968	146.440000
350.666412	146.420000
350.759857	146.000000
350.853302	146.260000
350.946716	145.320000
351.040161	145.140000
351.133606	144.840000
351.227081	144.700000
351.320465	145.720000
351.413940	145.820000
351.507355	145.920000
351.600830	146.360000
351.694244	146.200000
351.787720	145.380000
351.881104	145.580000
351.974579	145.620000
352.067993	146.280000
352.161469	146.340000
352.254883	145.740000
352.348358	145.480000
352.441803	145.540000
352.535248	144.740000
352.628693	145.040000
352.722137	145.100000
352.815582	145.340000
352.909027	145.380000
353.002472	145.320000
353.095917	144.960000
353.189362	145.260000
353.282806	145.100000
353.376251	144.960000
353.469696	144.960000
353.563141	145.420000
353.656586	145.060000
353.750061	144.840000
353.843475	144.860000
353.936981	145.140000
354.030396	144.740000
354.123871	145.160000
354.217285	146.080000
354.310760	146.260000
354.404175	146.100000
354.497681	145.860000
354.591095	145.460000
354.684570	144.420000
354.777985	144.280000
354.871490	143.900000
354.964935	144.480000
355.058380	144.700000
355.151855	144.840000
355.245300	144.900000
355.338745	145.300000
355.432220	145.340000
355.525665	144.740000
355.619110	144.880000
355.712585	144.940000
355.806030	144.800000
355.899475	144.000000
355.992950	144.780000
356.086426	145.600000
356.179871	145.480000
356.273346	145.480000
356.366791	146.060000
356.460266	146.100000
356.553711	145.320000
356.647186	145.020000
356.740631	144.760000
356.834106	144.520000
356.927551	144.480000
357.021027	144.540000
357.114471	144.940000
357.207947	145.420000
357.301422	145.560000
357.394867	145.620000
357.488342	146.020000
357.581818	145.860000
357.675262	145.880000
357.768738	145.440000
357.862213	144.780000
357.955658	144.420000
358.049133	144.380000
358.142609	144.520000
358.236053	144.820000
358.329529	145.220000
358.423035	145.420000
358.516449	144.920000
358.609955	145.200000
358.703400	145.800000
358.796906	145.900000
358.890350	145.620000
358.983826	146.360000
359.077271	145.660000
359.170776	145.180000
359.264221	144.760000
359.357727	144.940000
359.451172	145.120000
359.544647	145.120000
359.638123	145.040000
359.731598	145.580000
359.825073	145.680000
359.918549	145.480000
360.012024	145.580000
360.105499	145.340000
360.198975	145.180000
360.292450	144.840000
360.385925	144.620000
360.479401	144.480000
360.572876	144.860000
360.666351	144.880000
360.759857	145.100000
360.853302	145.340000
360.946808	145.220000
361.040253	145.380000
361.133759	144.960000
361.227203	145.100000
361.320709	144.840000
361.414154	145.280000
361.507660	145.340000
361.601105	146.060000
361.694641	146.560000
361.788086	146.160000
361.881592	146.520000
361.975067	146.200000
362.068542	146.220000
362.162018	145.740000
362.255524	145.720000
362.348999	145.220000
362.442474	145.580000
362.535950	145.200000
362.629456	144.940000
362.722931	145.160000
362.816406	145.420000
362.909882	145.360000
363.003387	145.120000
363.096863	145.760000
363.190338	146.160000
363.283875	145.980000
363.377319	146.060000
363.470825	146.500000
363.564301	145.620000
363.657806	145.620000
363.751282	145.280000
363.844788	145.960000
363.938232	145.540000
364.031769	146.440000
364.125214	146.540000
364.218750	147.420000
364.312225	146.140000
364.405731	146.240000
364.499207	145.480000
364.592712	145.160000
364.686188	144.600000
364.779694	145.020000
364.873169	144.900000
364.966675	144.860000
365.060150	144.780000
365.153656	145.100000
365.247131	145.040000
365.340637	145.540000
365.434143	146.460000
365.527618	146.560000
365.621155	145.880000
365.714600	145.820000
365.808136	145.680000
365.901611	144.600000
365.995117	144.540000
366.088593	144.940000
366.182129	144.660000
366.275604	144.920000
366.369110	145.380000
366.462585	145.280000
366.556122	145.840000
366.649567	145.900000
366.743103	145.540000
366.836609	145.140000
366.930115	145.880000
367.023590	145.720000
367.117096	145.840000
367.210602	145.620000
367.304108	146.300000
367.397614	146.420000
367.491119	146.140000
367.584595	146.260000
367.678101	146.900000
367.771606	146.580000
367.865112	145.820000
367.958649	145.440000
368.052124	145.180000
368.145660	144.900000
368.239136	145.540000
368.332672	145.560000
368.426147	145.720000
368.519684	145.720000
368.613159	146.000000
368.706696	145.520000
368.800171	145.760000
368.893707	145.940000
368.987183	146.240000
369.080719	146.340000
369.174225	146.080000
369.267731	146.180000
369.361237	145.940000
369.454742	145.700000
369.548248	145.740000
369.641754	145.680000
369.735260	145.660000
369.828766	145.100000
369.922272	145.880000
370.015808	145.420000
370.109314	145.160000
370.202820	144.540000
370.296356	145.740000
370.389832	145.040000
370.483368	144.780000
370.576874	144.740000
370.670410	145.340000
370.763885	144.120000
370.857422	144.040000
370.950928	144.280000
371.044464	145.040000
371.137939	145.100000
371.231476	145.920000
371.324982	146.660000
371.418518	146.520000
371.512024	146.080000
371.605560	145.540000
371.699066	145.560000
371.792572	144.740000
371.886108	145.240000
371.979614	145.560000
372.073120	146.240000
372.166656	145.780000
372.260162	146.460000
372.353668	146.300000
372.447205	145.940000
372.540710	145.700000
372.634277	146.080000
372.727753	145.700000
372.821320	145.640000
372.914795	145.660000
373.008362	145.520000
373.101837	145.160000
373.195404	144.880000
373.288879	144.620000
373.382446	145.300000
373.475922	145.140000
373.569489	145.880000
373.662964	146.380000
373.756531	146.560000
373.850037	146.220000
373.943573	146.280000
374.037109	145.460000
374.130615	145.380000
374.224152	145.240000
374.317657	144.840000
374.411194	145.740000
374.504730	145.760000
374.598236	145.540000
374.691772	145.460000
374.785309	145.900000
374.878815	144.660000
374.972351	145.020000
375.065887	144.960000
375.159454	145.640000
375.252930	145.220000
375.346497	145.780000
375.440002	146.280000
375.533569	146.380000
375.627045	145.380000
375.720612	145.700000
375.814117	145.880000
375.907684	145.360000
376.001160	145.020000
376.094727	145.160000
376.188232	145.640000
376.281799	145.660000
376.375336	145.620000
376.468872	146.360000
376.562408	146.660000
376.655914	146.160000
376.749451	146.000000
376.842987	146.420000
376.936523	146.020000
377.030060	145.880000
377.123596	145.940000
377.217133	145.500000
377.310669	145.240000
377.404205	145.560000
377.497772	145.900000
377.591278	145.600000
377.684845	146.460000
377.778351	146.460000
377.871918	146.260000
377.965424	145.780000
378.058990	145.640000
378.152496	145.340000
378.246063	145.580000
378.339569	145.740000
378.433136	145.680000
378.526642	146.100000
378.620209	145.720000
378.713745	145.380000
378.807312	145.760000
378.900848	146.000000
378.994385	146.160000
379.087921	145.620000
379.181458	145.800000
379.274994	144.940000
379.368530	144.900000
379.462097	144.900000
379.555634	145.920000
379.649170	145.340000
379.742706	145.520000
379.836273	145.380000
379.929810	145.000000
380.023376	144.360000
380.116882	144.500000
380.210449	144.420000
380.303986	144.240000
380.397552	143.900000
380.491058	144.420000
380.584656	144.300000
380.678162	144.700000
380.771729	144.880000
380.865265	145.960000
380.958832	145.780000
381.052368	146.000000
381.145935	146.040000
381.239471	146.440000
381.333008	145.920000
381.426575	145.900000
381.520111	146.220000
381.613647	146.560000
381.707214	146.100000
381.800751	145.460000
381.894318	145.740000
381.987854	145.240000
382.081421	144.680000
382.174988	145.080000
382.268524	144.980000
382.362091	145.000000
382.455627	145.560000
382.549194	145.380000
382.642731	144.940000
382.736298	145.380000
382.829834	145.040000
382.923401	145.700000
383.016937	146.080000
383.110504	146.540000
383.204041	146.560000
383.297607	146.420000
383.391174	145.380000
383.484741	145.880000
383.578278	145.320000
383.671844	145.180000
383.765411	144.840000
383.858948	145.420000
383.952515	144.860000
384.046051	145.480000
384.139618	145.980000
384.233185	146.380000
384.326721	146.260000
384.420288	146.660000
384.513855	146.440000
384.607422	146.500000
384.700989	146.540000
384.794525	146.060000
384.888123	145.940000
384.981659	145.920000
385.075226	145.360000
385.168762	145.400000
385.262360	145.600000
385.355896	144.680000
385.449463	144.660000
385.542999	144.860000
385.636597	145.280000
385.730164	145.420000
385.823730	145.740000
385.917267	145.320000
386.010834	145.520000
386.104401	145.480000
386.197968	145.640000
386.291534	145.780000
386.385101	146.240000
386.478668	146.400000
386.572235	146.040000
386.665802	145.480000
386.759338	145.220000
386.852905	144.900000
386.946472	144.140000
387.040070	144.380000
387.133606	144.620000
387.227203	144.440000
387.320740	144.580000
387.414337	144.760000
387.507874	144.540000
387.601471	144.420000
387.695007	144.440000
387.788605	144.340000
387.882141	144.820000
387.975739	145.020000
388.069275	145.080000
388.162872	145.500000
388.256439	145.660000
388.350037	145.040000
388.443604	144.720000
388.537170	144.800000
388.630737	145.500000
388.724304	145.760000
388.817871	146.040000
388.911438	146.320000
389.005005	146.420000
389.098602	146.080000
389.192169	145.460000
389.285736	145.780000
389.379333	145.760000
389.472870	145.520000
389.566467	145.220000
389.660034	145.520000
389.753632	144.940000
389.847168	145.280000
389.940765	145.400000
390.034332	145.560000
390.127930	145.420000
390.221466	145.440000
390.315063	144.860000
390.408630	144.440000
390.502228	143.900000
390.595795	144.080000
390.689362	144.420000
390.782959	144.780000
390.876526	145.380000
390.970093	145.660000
391.063690	146.220000
391.157257	146.400000
391.250824	146.360000
391.344421	146.020000
391.437988	146.100000
391.531555	145.760000
391.625153	145.500000
391.718750	145.920000
391.812317	145.620000
391.905914	145.520000
391.999481	145.660000
392.093079	145.660000
392.186615	145.760000
392.280243	146.200000
392.373779	146.140000
392.467407	146.600000
392.560944	146.700000
392.654572	145.720000
392.748108	145.540000
392.841736	145.960000
392.935303	145.360000
393.028900	145.220000
393.122467	145.420000
393.216064	145.320000
393.309631	144.740000
393.403229	144.400000
393.496796	144.320000
393.590393	143.900000
393.683990	144.440000
393.777557	144.860000
393.871155	145.100000
393.964722	145.420000
394.058350	146.040000
394.151917	145.700000
394.245514	145.460000
394.339081	145.700000
394.432678	146.000000
394.526245	145.700000
394.619873	145.420000
394.713409	145.520000
394.807037	145.260000
394.900604	145.080000
394.994202	145.400000
395.087769	145.760000
395.181396	145.400000
395.274994	146.200000
395.368561	145.480000
395.462158	145.640000
395.555756	145.600000
395.649353	146.220000
395.742920	145.660000
395.836517	146.600000
395.930115	145.820000
396.023712	145.980000
396.117279	146.100000
396.210876	145.680000
396.304474	145.260000
396.398071	145.880000
396.491669	145.980000
396.585266	145.620000
396.678833	145.640000
396.772461	146.200000
396.866028	146.040000
396.959656	146.300000
397.053223	146.580000
397.146851	146.600000
397.240417	146.260000
397.334015	147.160000
397.427582	146.740000
397.521210	147.140000
397.614807	147.800000
397.708405	148.440000
397.802002	148.580000
397.895599	150.120000
397.989197	150.900000
398.082794	152.280000
398.176392	153.980000
398.269989	155.460000
398.363586	157.500000
398.457184	160.780000
398.550781	164.120000
398.644379	166.920000
398.737976	170.620000
398.831573	174.060000
398.925201	176.800000
399.018768	179.860000
399.112396	183.700000
399.205963	187.440000
399.299591	191.460000
399.393158	196.020000
399.486786	201.580000
399.580353	206.580000
399.673981	213.580000
399.767578	221.380000
399.861206	231.020000
399.954773	240.600000
400.048401	251.680000
400.141998	259.660000
400.235596	267.680000
400.329193	273.180000
400.422791	278.420000
400.516418	281.260000
400.610016	285.160000
400.703613	287.320000
400.797211	287.320000
400.890808	285.300000
400.984436	282.720000
401.078033	276.520000
401.171631	269.220000
401.265259	261.380000
401.358826	252.500000
401.452484	242.440000
401.546051	233.300000
401.639679	222.020000
401.733246	211.680000
401.826904	200.700000
401.920471	190.420000
402.014099	181.440000
402.107697	174.640000
402.201324	168.360000
402.294891	164.140000
402.388550	160.740000
402.482147	157.860000
402.575745	155.340000
402.669373	153.120000
402.762970	151.160000
402.856567	149.760000
402.950195	148.860000
403.043793	147.800000
403.137390	147.920000
403.231018	147.020000
403.324615	147.420000
403.418243	146.480000
403.511841	146.780000
403.605469	146.180000
403.699066	146.940000
403.792694	146.500000
403.886292	147.020000
403.979919	146.740000
404.073517	146.540000
404.167145	146.420000
404.260712	146.280000
404.354370	145.940000
404.447937	145.980000
404.541595	146.240000
404.635162	146.400000
404.728821	146.600000
404.822418	146.320000
404.916046	146.240000
405.009644	146.440000
405.103271	146.220000
405.196899	145.880000
405.290497	145.980000
405.384125	146.400000
405.477722	145.840000
405.571350	145.320000
405.664948	145.600000
405.758575	145.540000
405.852203	144.940000
405.945801	145.240000
406.039429	145.760000
406.133057	145.300000
406.226654	145.160000
406.320312	145.380000
406.413879	145.420000
406.507538	145.680000
406.601135	145.480000
406.694763	146.420000
406.788361	146.080000
406.882019	145.740000
406.975586	145.780000
407.069244	146.520000
407.162872	146.200000
407.256470	146.060000
407.350098	146.200000
407.443726	145.600000
407.537323	145.140000
407.630951	145.000000
407.724579	144.740000
407.818207	145.260000
407.911804	145.380000
408.005432	145.540000
408.099060	145.620000
408.192688	146.460000
408.286285	146.180000
408.379913	145.840000
408.473572	145.940000
408.567169	145.620000
408.660828	145.640000
408.754395	145.500000
408.848053	145.560000
408.941650	145.420000
409.035309	145.220000
409.128906	145.000000
409.222565	144.940000
409.316132	145.440000
409.409790	145.340000
409.503387	145.520000
409.597046	145.520000
409.690674	145.560000
409.784302	145.440000
409.877930	145.300000
409.971558	145.540000
410.065186	145.440000
410.158783	145.440000
410.252411	145.340000
410.346039	145.820000
410.439667	145.760000
410.533295	146.060000
410.626923	146.140000
410.720551	145.900000
410.814209	145.900000
410.907806	145.840000
411.001465	145.200000
411.095062	145.360000
411.188721	145.560000
411.282318	145.260000
411.375977	145.080000
411.469574	145.440000
411.563232	145.200000
411.656830	144.860000
411.750488	144.780000
411.844086	144.960000
411.937744	145.040000
412.031372	144.980000
412.125000	145.440000
412.218628	145.800000
412.312256	146.140000
412.405884	146.500000
412.499512	146.680000
412.593170	146.760000
412.686798	146.740000
412.780426	146.240000
412.874054	145.960000
412.967682	145.760000
413.061310	146.080000
413.154968	146.120000
413.248566	146.380000
413.342224	146.280000
413.435852	146.500000
413.529510	145.980000
413.623108	145.480000
413.716766	145.080000
413.810364	145.200000
413.904022	144.620000
413.997650	144.480000
414.091309	145.240000
414.184906	145.480000
414.278564	145.220000
414.372192	146.100000
414.465851	146.580000
414.559479	146.080000
414.653107	146.820000
414.746735	146.920000
414.840393	146.600000
414.934021	146.600000
415.027649	146.140000
415.121277	145.640000
415.214935	146.180000
415.308563	146.220000
415.402191	145.360000
415.495850	145.440000
415.589478	145.120000
415.683136	144.620000
415.776733	144.720000
415.870422	145.740000
415.964020	145.720000
416.057678	146.040000
416.151306	146.060000
416.244965	145.820000
416.338562	145.400000
416.432251	146.060000
416.525848	146.480000
416.619507	146.740000
416.713165	147.140000
416.806793	147.120000
416.900421	147.300000
416.994080	146.540000
417.087708	146.280000
417.181366	145.520000
417.274994	145.420000
417.368622	145.420000
417.462280	146.180000
417.555908	146.160000
417.649567	146.340000
417.743195	146.440000
417.836853	146.140000
417.930481	145.840000
418.024170	146.120000
418.117767	146.660000
418.211426	146.940000
418.305054	147.040000
418.398712	146.360000
418.492340	146.220000
418.585999	146.240000
418.679626	145.960000
418.773285	146.020000
418.866913	146.740000
418.960571	146.980000
419.054230	146.820000
419.147858	147.160000
419.241516	146.920000
419.335144	146.480000
419.428802	146.280000
419.522461	145.880000
419.616089	145.360000
419.709747	145.660000
419.803375	146.180000
419.897034	145.960000
419.990662	146.220000
420.084320	146.780000
420.177979	146.540000
420.271606	146.380000
420.365295	146.800000
420.458893	146.720000
420.552582	146.600000
420.646210	146.680000
420.739868	146.480000
420.833496	146.080000
420.927155	145.920000
421.020782	145.460000
421.114471	144.880000
421.208069	144.720000
421.301758	144.860000
421.395386	145.000000
421.489044	144.900000
421.582703	145.140000
421.676361	146.060000
421.769989	145.600000
421.863647	145.940000
421.957306	146.180000
422.050934	146.500000
422.144592	145.740000
422.238251	145.780000
422.331909	145.460000
422.425537	145.480000
422.519196	145.360000
422.612854	145.300000
422.706543	145.200000
422.800140	145.580000
422.893829	145.020000
422.987457	144.720000
423.081146	144.640000
423.174744	145.280000
423.268433	144.580000
423.362061	144.920000
423.455750	144.880000
423.549347	145.000000
423.643036	144.440000
423.736664	145.180000
423.830353	145.240000
423.924011	145.960000
424.017639	145.400000
424.111298	145.400000
424.204956	144.960000
424.298615	145.020000
424.392273	144.720000
424.485931	145.340000
424.579559	145.700000
424.673218	145.660000
424.766876	145.940000
424.860535	145.640000
424.954193	145.520000
425.047882	145.840000
425.141510	146.200000
425.235199	145.920000
425.328796	145.520000
425.422485	145.340000
425.516113	144.600000
425.609802	144.400000
425.703430	144.420000
425.797119	144.700000
425.890747	144.900000
425.984436	145.220000
426.078064	145.160000
426.171753	145.520000
426.265411	145.560000
426.359070	145.600000
426.452728	145.300000
426.546356	145.080000
426.640015	144.820000
426.733673	144.720000
426.827332	144.300000
426.920990	145.160000
427.014648	144.840000
427.108307	145.080000
427.201965	145.660000
427.295624	146.360000
427.389282	145.460000
427.482941	146.380000
427.576630	146.160000
427.670258	145.380000
427.763947	144.880000
427.857574	145.340000
427.951263	144.840000
428.044922	144.620000
428.138611	144.820000
428.232239	145.180000
428.325928	145.140000
428.419556	145.480000
428.513245	145.320000
428.606903	145.380000
428.700562	145.000000
428.794220	144.840000
428.887878	144.300000
428.981537	144.720000
429.075195	144.720000
429.168854	144.940000
429.262512	144.820000
429.356201	144.880000
429.449860	144.540000
429.543518	144.600000
429.637177	144.740000
429.730835	144.560000
429.824493	144.580000
429.918182	144.920000
430.011810	144.880000
430.105530	144.160000
430.199158	144.700000
430.292847	144.580000
430.386475	144.240000
430.480164	143.980000
430.573792	144.060000
430.667511	144.040000
430.761139	144.380000
430.854828	144.840000
430.948456	145.040000
431.042145	145.520000
431.135834	144.920000
431.229492	144.780000
431.323151	144.820000
431.416809	144.640000
431.510468	144.740000
431.604156	144.840000
431.697815	144.940000
431.791473	144.380000
431.885132	144.460000
431.978821	144.720000
432.072479	145.440000
432.166138	145.820000
432.259827	145.920000
432.353485	146.340000
432.447174	146.540000
432.540802	146.160000
432.634491	146.040000
432.728149	146.300000
432.821838	146.280000
432.915466	145.720000
433.009186	145.720000
433.102814	145.340000
433.196503	145.100000
433.290131	145.200000
433.383850	145.080000
433.477509	145.080000
433.571167	145.880000
433.664856	146.300000
433.758514	146.620000
433.852173	146.860000
433.945862	146.680000
434.039520	146.360000
434.133179	145.740000
434.226868	144.920000
434.320526	144.140000
434.414185	145.080000
434.507874	144.740000
434.601562	145.380000
434.695221	145.420000
434.788910	146.120000
434.882538	145.460000
434.976257	144.860000
435.069885	144.400000
435.163574	144.740000
435.257233	144.220000
435.350922	144.300000
435.444580	144.420000
435.538269	144.740000
435.631897	144.900000
435.725616	145.660000
435.819275	145.900000
435.912964	146.360000
436.006622	146.660000
436.100311	146.580000
436.193970	145.940000
436.287628	145.500000
436.381317	145.200000
436.474976	144.460000
436.568665	143.820000
436.662323	144.120000
436.756012	144.380000
436.849670	144.520000
436.943390	144.420000
437.037018	144.560000
437.130737	144.460000
437.224365	144.180000
437.318085	144.160000
437.411713	144.620000
437.505432	145.420000
437.599060	145.880000
437.692780	146.680000
437.786407	146.940000
437.880127	146.940000
437.973755	146.320000
438.067474	145.920000
438.161133	145.360000
438.254822	145.600000
438.348480	145.360000
438.442169	146.060000
438.535828	146.340000
438.629517	146.160000
438.723175	145.520000
438.816864	145.940000
438.910553	145.300000
439.004211	145.000000
439.097900	144.900000
439.191559	145.320000
439.285248	144.440000
439.378906	144.860000
439.472626	144.820000
439.566284	144.600000
439.659973	144.740000
439.753632	145.000000
439.847321	145.120000
439.940979	145.300000
440.034698	145.520000
440.128326	144.840000
440.222046	144.880000
440.315674	144.220000
440.409393	144.360000
440.503082	144.400000
440.596741	145.240000
440.690430	145.640000
440.784088	145.860000
440.877777	145.120000
440.971466	145.140000
441.065125	144.680000
441.158813	144.160000
441.252502	144.140000
441.346161	144.700000
441.439850	144.840000
441.533539	144.540000
441.627197	144.980000
441.720886	144.880000
441.814606	145.080000
441.908234	145.660000
442.001953	145.780000
442.095612	145.920000
442.189301	146.240000
442.282959	146.240000
442.376678	145.320000
442.470306	146.040000
442.564026	145.800000
442.657684	145.860000
442.751404	145.760000
442.845032	146.400000
442.938751	145.660000
443.032440	145.560000
443.126099	145.080000
443.219788	145.600000
443.313477	145.540000
443.407166	145.880000
443.500824	145.960000
443.594513	146.200000
443.688202	145.780000
443.781891	145.160000
443.875549	144.800000
443.969238	145.160000
444.062927	145.120000
444.156647	144.780000
444.250275	145.380000
444.343994	145.780000
444.437653	145.620000
444.531372	145.760000
444.625031	145.620000
444.718719	145.020000
444.812378	145.000000
444.906097	144.680000
444.999756	144.100000
445.093445	144.280000
445.187103	144.480000
445.280823	144.860000
445.374512	144.640000
445.468201	144.840000
445.561859	145.020000
445.655548	145.180000
445.749237	144.600000
445.842926	144.900000
445.936615	145.360000
446.030304	144.920000
446.123962	145.120000
446.217651	145.020000
446.311340	145.240000
446.405029	144.740000
446.498749	144.940000
446.592407	144.680000
446.686096	145.120000
446.779755	145.140000
446.873474	145.500000
446.967133	145.740000
447.060852	145.580000
447.154510	145.140000
447.248230	144.780000
447.341858	144.620000
447.435577	144.240000
447.529236	144.020000
447.622955	143.900000
447.716644	144.160000
447.810333	144.280000
447.904022	144.820000
447.997711	144.580000
448.091400	144.940000
448.185059	144.960000
448.278748	145.120000
448.372437	144.700000
448.466125	145.420000
448.559814	145.100000
448.653503	145.620000
448.747192	145.800000
448.840912	146.100000
448.934570	145.900000
449.028290	146.300000
449.121948	145.700000
449.215637	145.280000
449.309296	145.100000
449.403015	145.240000
449.496674	145.200000
449.590393	145.220000
449.684052	144.980000
449.777771	145.560000
449.871429	144.860000
449.965149	144.740000
450.058838	144.920000
450.152527	145.460000
450.246216	144.660000
450.339905	145.180000
450.433594	144.960000
450.527283	145.380000
450.620972	144.940000
450.714661	145.200000
450.808350	145.260000
450.902039	145.680000
450.995728	145.240000
451.089417	145.240000
451.183105	145.680000
451.276794	145.920000
451.370514	145.340000
451.464172	144.900000
451.557892	145.020000
451.651550	145.180000
451.745270	144.600000
451.838928	144.480000
451.932648	144.880000
452.026306	145.340000
452.120026	144.520000
452.213684	145.340000
452.307404	145.620000
452.401062	145.880000
452.494781	145.540000
452.588470	145.860000
452.682159	145.160000
452.775848	145.420000
452.869537	144.620000
452.963226	144.420000
453.056915	144.200000
453.150604	144.380000
453.244293	144.500000
453.337982	145.300000
453.431671	145.660000
453.525360	146.200000
453.619049	146.240000
453.712769	145.880000
453.806427	145.280000
453.900146	144.820000
453.993805	144.520000
454.087555	144.800000
454.181213	144.960000
454.274933	144.980000
454.368591	145.020000
454.462311	144.880000
454.555969	144.540000
454.649689	145.260000
454.743347	145.240000
454.837067	145.780000
454.930756	146.420000
455.024445	146.700000
455.118134	145.900000
455.211853	146.240000
455.305542	145.780000
455.399231	145.260000
455.492920	144.840000
455.586609	144.940000
455.680298	145.100000
455.773987	145.200000
455.867676	145.140000
455.961365	145.500000
456.055084	145.380000
456.148773	144.860000
456.242493	144.700000
456.336151	144.760000
456.429871	144.940000
456.523529	145.480000
456.617249	145.280000
456.710907	146.000000
456.804626	145.880000
456.898315	145.400000
456.992035	145.120000
457.085693	145.340000
457.179413	144.320000
457.273102	145.320000
457.366791	145.580000
457.460480	145.700000
457.554199	146.320000
457.647888	146.680000
457.741577	146.080000
457.835266	145.800000
457.928955	145.700000
458.022644	145.580000
458.116364	146.000000
458.210052	145.720000
458.303741	145.800000
458.397461	145.360000
458.491119	144.580000
458.584839	144.360000
458.678528	144.340000
458.772247	144.160000
458.865906	144.480000
458.959625	145.720000
459.053284	145.860000
459.147003	145.580000
459.240692	146.240000
459.334412	146.180000
459.428070	145.380000
459.521790	145.060000
459.615479	144.940000
459.709198	144.880000
459.802887	144.640000
459.896576	144.600000
459.990265	144.760000
460.083954	145.420000
460.177673	145.200000
460.271362	145.680000
460.365051	145.680000
460.458740	145.440000
460.552429	144.940000
460.646149	144.780000
460.739838	144.240000
460.833527	144.560000
460.927246	144.540000
461.020905	144.480000
461.114655	144.560000
461.208313	144.820000
461.302032	144.200000
461.395691	144.300000
461.489441	144.400000
461.583099	144.380000
461.676819	144.300000
461.770477	144.860000
461.864197	144.840000
461.957916	144.740000
462.051605	144.100000
462.145294	145.140000
462.238983	144.780000
462.332703	145.340000
462.426392	146.060000
462.520081	146.280000
462.613770	145.360000
462.707489	145.720000
462.801178	145.360000
462.894867	144.980000
462.988556	145.360000
463.082275	145.780000
463.175964	145.240000
463.269684	145.360000
463.363342	145.240000
463.457092	145.060000
463.550751	145.260000
463.644470	145.880000
463.738129	145.620000
463.831879	145.840000
463.925537	146.500000
464.019257	146.160000
464.112946	145.840000
464.206665	145.680000
464.300323	145.640000
464.394043	145.300000
464.487762	145.360000
464.581451	145.740000
464.675140	145.820000
464.768829	145.880000
464.862549	145.900000
464.956238	145.800000
465.049927	145.800000
465.143646	146.060000
465.237335	145.920000
465.331024	146.260000
465.424713	145.980000
465.518433	145.560000
465.612152	145.440000
465.705811	145.180000
465.799561	144.660000
465.893219	144.840000
465.986938	144.980000
466.080597	144.740000
466.174347	145.340000
466.268005	145.440000
466.361725	145.180000
466.455414	145.120000
466.549133	144.880000
466.642792	144.840000
466.736542	144.320000
466.830231	144.560000
466.923920	144.560000
467.017609	145.020000
467.111328	144.380000
467.205017	144.720000
467.298706	144.880000
467.392426	144.940000
467.486115	144.900000
467.579803	144.860000
467.673523	145.160000
467.767212	144.980000
467.860901	144.920000
467.954651	145.000000
468.048309	145.340000
468.142029	145.040000
468.235718	145.200000
468.329437	145.080000
468.423096	145.160000
468.516846	144.920000
468.610504	144.760000
468.704224	144.240000
468.797913	144.100000
468.891632	144.120000
468.985291	144.080000
469.079010	144.440000
469.172729	144.400000
469.266418	145.020000
469.360107	145.060000
469.453827	145.120000
469.547516	145.220000
469.641205	145.780000
469.734924	145.760000
469.828613	146.300000
469.922302	146.520000
470.016022	146.280000
470.109711	146.140000
470.203430	145.300000
470.297150	144.120000
470.390808	144.300000
470.484558	143.900000
470.578217	144.100000
470.671936	144.940000
470.765625	145.900000
470.859344	145.540000
470.953003	146.380000
471.046753	145.820000
471.140411	145.080000
471.234131	144.800000
471.327820	145.560000
471.421539	145.320000
471.515228	145.120000
471.608948	145.540000
471.702637	145.200000
471.796326	144.500000
471.890045	144.620000
471.983734	145.000000
472.077423	144.860000
472.171143	145.260000
472.264832	145.400000
472.358521	145.100000
472.452240	144.940000
472.545929	145.580000
472.639648	145.580000
472.733337	145.820000
472.827057	146.200000
472.920746	146.340000
473.014465	146.500000
473.108124	146.280000
473.201874	146.300000
473.295532	145.820000
473.389252	146.180000
473.482941	145.720000
473.576660	145.580000
473.670319	145.220000
473.764069	145.720000
473.857727	145.620000
473.951477	146.000000
474.045166	146.300000
474.138855	146.300000
474.232574	145.720000
474.326263	145.980000
474.419952	145.780000
474.513672	145.680000
474.607361	145.520000
474.701050	146.120000
474.794769	145.960000
474.888458	146.260000
474.982178	146.500000
475.075867	146.940000
475.169586	146.360000
475.263275	145.960000
475.356995	145.480000
475.450653	144.960000
475.544403	144.580000
475.638062	145.720000
475.731812	145.680000
475.825470	145.520000
475.919189	145.880000
476.012878	146.180000
476.106598	145.320000
476.200256	145.740000
476.294006	145.860000
476.387695	145.780000
476.481384	145.700000
476.575104	145.620000
476.668793	145.200000
476.762512	144.840000
476.856201	145.460000
476.949890	145.000000
477.043610	144.460000
477.137299	144.600000
477.230988	145.080000
477.324707	144.500000
477.418396	145.080000
477.512146	145.540000
477.605804	145.300000
477.699524	145.460000
477.793213	145.320000
477.886932	145.260000
477.980591	145.180000
478.074341	145.340000
478.167999	144.820000
478.261749	144.840000
478.355408	144.640000
478.449127	145.220000
478.542816	146.180000
478.636536	146.840000
478.730225	146.960000
478.823944	147.420000
478.917633	147.080000
479.011322	146.820000
479.105042	146.580000
479.198730	146.960000
479.292450	146.440000
479.386139	146.660000
479.479828	146.360000
479.573547	146.520000
479.667267	146.220000
479.760925	146.480000
479.854675	146.420000
479.948334	146.540000
480.042084	145.740000
480.135742	145.840000
480.229462	145.400000
480.323151	145.320000
480.416870	144.580000
480.510529	145.020000
480.604279	144.480000
480.697937	145.360000
480.791656	145.080000
480.885345	145.120000
480.979065	145.060000
481.072754	145.800000
481.166473	145.800000
481.260132	145.760000
481.353882	146.060000
481.447540	146.040000
481.541260	145.740000
481.635010	144.880000
481.728668	144.640000
481.822388	144.440000
481.916077	144.800000
482.009796	144.780000
482.103485	145.200000
482.197205	145.840000
482.290863	146.100000
482.384613	145.820000
482.478271	145.260000
482.571991	145.240000
482.665680	144.920000
482.759399	145.580000
482.853058	145.860000
482.946808	146.240000
483.040466	146.000000
483.134216	145.820000
483.227875	145.080000
483.321594	145.600000
483.415283	145.400000
483.509003	145.320000
483.602661	145.320000
483.696411	145.800000
483.790070	145.000000
483.883789	145.400000
483.977478	145.780000
484.071198	145.900000
484.164917	145.480000
484.258606	145.200000
484.352325	145.360000
484.445984	145.260000
484.539734	145.180000
484.633392	144.680000
484.727142	145.280000
484.820801	145.120000
484.914520	145.120000
485.008209	145.540000
485.101929	146.440000
485.195587	145.740000
485.289337	145.520000
485.382996	145.360000
485.476715	145.380000
485.570404	145.580000
485.664124	145.720000
485.757782	146.040000
485.851532	146.000000
485.945190	145.680000
486.038910	145.100000
486.132599	145.920000
486.226318	145.060000
486.319977	145.260000
486.413727	145.800000
486.507446	145.760000
486.601105	144.600000
486.694855	144.940000
486.788513	144.600000
486.882233	144.220000
486.975922	144.240000
487.069641	144.740000
487.163300	144.840000
487.257050	146.080000
487.350708	146.200000
487.444427	146.040000
487.538116	146.060000
487.631836	146.240000
487.725494	145.540000
487.819214	145.340000
487.912903	145.180000
488.006622	145.420000
488.100281	145.600000
488.194031	145.440000
488.287689	145.780000
488.381409	146.580000
488.475098	146.460000
488.568817	146.400000
488.662476	146.100000
488.756226	145.480000
488.849945	144.680000
488.943604	144.680000
489.037354	144.780000
489.131012	144.840000
489.224731	145.040000
489.318390	145.240000
489.412140	145.020000
489.505798	144.980000
489.599518	144.980000
489.693207	145.380000
489.786926	145.320000
489.880585	145.360000
489.974335	145.680000
490.067993	146.480000
490.161713	146.440000
490.255371	147.180000
490.349121	147.420000
490.442780	147.080000
490.536499	146.300000
490.630188	146.300000
490.723907	145.720000
490.817566	145.600000
490.911285	145.740000
491.004974	145.540000
491.098694	145.260000
491.192413	145.960000
491.286102	145.780000
491.379822	145.680000
491.473480	146.160000
491.567200	146.000000
491.660889	145.200000
491.754608	145.380000
491.848267	145.220000
491.941986	144.840000
492.035675	144.880000
492.129395	145.100000
492.223053	144.960000
492.316772	145.000000
492.410461	145.260000
492.504181	145.260000
492.597839	145.040000
492.691559	145.280000
492.785248	145.500000
492.878967	145.620000
492.972626	145.680000
493.066345	145.940000
493.160034	145.440000
493.253754	145.220000
493.347412	144.640000
493.441132	144.700000
493.534882	144.900000
493.628540	145.560000
493.722260	145.720000
493.815918	146.260000
493.909668	146.520000
494.003326	146.580000
494.097046	146.180000
494.190704	145.740000
494.284454	145.920000
494.378113	146.000000
494.471832	145.860000
494.565491	145.820000
494.659210	146.040000
494.752899	145.480000
494.846619	145.140000
494.940277	145.140000
495.033997	145.200000
495.127686	144.900000
495.221405	144.860000
495.315063	145.040000
495.408783	144.960000
495.502441	144.840000
495.596191	144.980000
495.689850	145.080000
495.783569	145.140000
495.877228	145.560000
495.970947	145.660000
496.064697	145.900000
496.158356	146.840000
496.252075	146.780000
496.345734	146.100000
496.439453	146.680000
496.533142	146.660000
496.626862	146.460000
496.720520	146.600000
496.814240	146.840000
496.907898	146.360000
497.001617	146.300000
497.095306	145.480000
497.189026	145.300000
497.282684	145.640000
497.376404	145.800000
497.470062	145.680000
497.563782	146.080000
497.657471	146.000000
497.751190	145.340000
497.844849	145.420000
497.938568	145.840000
498.032227	145.600000
498.125946	145.780000
498.219635	145.760000
498.313354	145.900000
498.407074	145.380000
498.500732	145.720000
498.594452	145.660000
498.688110	145.420000
498.781830	144.900000
498.875519	144.840000
498.969238	144.480000
499.062897	144.380000
499.156616	145.080000
499.250275	145.360000
499.343994	145.160000
499.437653	145.160000
499.531372	145.020000
499.625061	145.120000
499.718781	145.280000
499.812439	145.820000
499.906158	146.040000
499.999817	146.000000
500.093536	145.500000
500.187195	145.320000
500.280914	145.100000
500.374573	145.080000
500.468323	144.860000
500.561981	145.080000
500.655701	144.540000
500.749420	144.600000
500.843079	144.600000
500.936798	145.260000
501.030457	145.640000
501.124176	146.080000
501.217834	145.980000
501.311554	145.740000
501.405212	144.940000
501.498962	144.240000
501.592621	144.320000
501.686340	144.700000
501.779999	145.100000
501.873718	145.760000
501.967377	146.040000
502.061096	146.180000
502.154755	145.700000
502.248474	145.620000
502.342133	145.560000
502.435852	145.500000
502.529510	145.920000
502.623230	146.720000
502.716888	146.120000
502.810608	146.300000
502.904266	146.780000
502.997986	146.280000
503.091705	145.560000
503.185364	145.960000
503.279083	145.460000
503.372772	145.140000
503.466492	144.680000
503.560150	144.820000
503.653870	144.920000
503.747528	145.020000
503.841248	144.900000
503.934906	145.140000
504.028625	144.620000
504.122284	144.840000
504.216003	145.560000
504.309662	145.240000
504.403381	145.560000
504.497040	145.880000
504.590759	145.420000
504.684418	145.400000
504.778137	146.120000
504.871796	146.320000
504.965515	146.380000
505.059174	146.680000
505.152893	145.780000
505.246521	145.220000
505.340240	144.640000
505.433899	145.000000
505.527618	145.120000
505.621338	145.620000
505.714996	145.660000
505.808716	145.760000
505.902374	145.920000
505.996094	145.840000
506.089752	145.720000
506.183472	146.100000
506.277130	146.100000
506.370850	145.900000
506.464508	145.620000
506.558228	145.600000
506.651886	145.180000
506.745605	145.380000
506.839264	145.360000
506.932983	145.560000
507.026611	145.420000
507.120331	145.960000
507.213989	145.560000
507.307709	145.480000
507.401367	145.780000
507.495087	146.840000
507.588745	146.260000
507.682465	147.000000
507.776123	146.940000
507.869843	146.560000
507.963531	145.720000
508.057190	146.320000
508.150909	145.560000
508.244568	145.820000
508.338287	145.640000
508.431946	145.400000
508.525665	144.800000
508.619324	145.000000
508.713013	145.060000
508.806671	145.320000
508.900391	146.440000
508.994049	146.980000
509.087769	146.580000
509.181427	146.720000
509.275146	146.360000
509.368774	145.260000
509.462494	144.960000
509.556152	145.080000
509.649872	145.000000
509.743530	145.100000
509.837250	145.320000
509.930878	145.320000
510.024597	145.660000
510.118256	145.400000
510.211975	145.600000
510.305695	145.180000
510.399353	145.260000
510.493042	145.420000
510.586700	145.500000
510.680420	146.200000
510.774078	146.320000
510.867798	146.440000
510.961426	146.040000
511.055145	145.920000
511.148804	145.100000
511.242523	145.740000
511.336151	145.800000
511.429871	145.940000
511.523529	145.720000
511.617249	145.580000
511.710876	145.200000
511.804596	144.700000
511.898254	144.640000
511.991974	145.080000
512.085632	145.020000
512.179321	144.920000
512.272949	145.380000
512.366699	145.880000
512.460327	145.520000
512.554077	146.780000
512.647766	146.780000
512.741394	146.440000
512.835144	146.520000
512.928772	146.500000
513.022461	145.840000
513.116150	145.680000
513.209839	146.060000
513.303467	145.280000
513.397217	145.000000
513.490845	144.740000
513.584595	144.800000
513.678223	144.340000
513.771912	144.080000
513.865601	144.480000
513.959290	144.120000
514.052917	144.180000
514.146667	145.180000
514.240295	145.780000
514.333984	146.060000
514.427673	146.100000
514.521362	146.400000
514.614990	145.340000
514.708740	145.420000
514.802368	145.300000
514.896057	145.700000
514.989746	146.320000
515.083435	146.480000
515.177124	146.440000
515.270752	146.260000
515.364502	146.300000
515.458130	146.020000
515.551819	145.860000
515.645508	145.880000
515.739197	145.980000
515.832825	145.820000
515.926575	145.440000
516.020203	145.840000
516.113892	146.240000
516.207520	145.920000
516.301270	146.080000
516.394897	146.080000
516.488586	146.280000
516.582275	145.880000
516.675964	145.740000
516.769592	145.600000
516.863281	146.000000
516.956970	146.060000
517.050659	145.860000
517.144287	146.100000
517.238037	146.160000
517.331665	145.780000
517.425354	145.140000
517.519043	145.300000
517.612732	145.720000
517.706421	145.460000
517.800049	145.320000
517.893738	145.380000
517.987427	145.380000
518.081116	144.820000
518.174744	144.760000
518.268433	144.820000
518.362122	145.620000
518.455811	145.460000
518.549438	146.360000
518.643127	147.080000
518.736816	147.080000
518.830505	146.340000
518.924133	146.360000
519.017822	146.060000
519.111511	145.800000
519.205200	146.160000
519.298828	146.380000
519.392517	146.160000
519.486206	146.340000
519.579895	146.340000
519.673523	145.980000
519.767212	145.660000
519.860901	146.280000
519.954590	145.580000
520.048279	145.260000
520.141907	145.220000
520.235596	146.200000
520.329224	146.500000
520.422974	146.760000
520.516602	146.600000
520.610291	146.200000
520.703918	145.880000
520.797607	145.460000
520.891296	145.160000
520.984985	145.480000
521.078613	146.420000
521.172302	145.740000
521.265930	146.340000
521.359680	146.920000
521.453308	146.620000
521.546997	146.180000
521.640625	146.360000
521.734314	145.620000
521.827942	145.500000
521.921692	145.960000
522.015320	146.020000
522.109009	146.040000
522.202698	145.800000
522.296326	145.740000
522.390015	145.960000
522.483704	145.680000
522.577393	145.720000
522.671021	145.720000
522.764709	145.180000
522.858337	145.180000
522.952026	145.580000
523.045654	146.120000
523.139404	146.940000
523.233032	147.500000
523.326721	147.040000
523.420349	146.940000
523.514038	146.360000
523.607666	146.540000
523.701355	145.960000
523.795044	146.120000
523.888733	146.200000
523.982361	146.560000
524.076050	145.760000
524.169678	146.380000
524.263367	146.000000
524.356995	145.680000
524.450684	145.300000
524.544373	145.400000
524.638062	145.100000
524.731750	145.340000
524.825378	145.320000
524.919067	144.860000
525.012695	144.720000
525.106384	144.400000
525.200012	144.300000
525.293701	144.060000
525.387329	144.740000
525.481018	145.280000
525.574646	145.600000
525.668396	145.380000
525.762024	146.020000
525.855713	145.900000
525.949341	145.020000
526.043030	145.220000
526.136658	145.040000
526.230347	144.700000
526.323975	144.440000
526.417664	144.680000
526.511292	144.580000
526.604980	145.220000
526.698608	145.080000
526.792297	144.960000
526.885925	145.200000
526.979614	145.420000
527.073303	145.200000
527.166931	145.260000
527.260620	145.600000
527.354309	146.100000
527.447998	145.940000
527.541626	145.760000
527.635315	145.920000
527.728943	146.420000
527.822632	146.220000
527.916260	146.040000
528.009949	146.520000
528.103577	146.420000
528.197266	145.600000
528.290894	145.560000
528.384583	145.720000
528.478210	145.560000
528.571899	145.660000
528.665527	146.140000
528.759216	146.160000
528.852844	146.320000
528.946533	146.380000
529.040161	146.240000
529.133850	145.900000
529.227478	145.720000
529.321167	145.520000
529.414856	145.780000
529.508484	146.020000
529.602173	145.960000
529.695801	145.940000
529.789490	146.040000
529.883057	145.520000
529.976746	145.800000
530.070374	146.220000
530.164062	146.380000
530.257690	146.600000
530.351379	146.680000
530.445007	146.220000
530.538696	145.500000
530.632324	145.560000
530.726013	145.440000
530.819641	145.560000
530.913330	145.660000
531.006958	146.100000
531.100647	146.060000
531.194275	145.960000
531.287964	145.880000
531.381592	145.800000
531.475220	145.740000
531.568848	145.460000
531.662537	145.480000
531.756226	145.640000
531.849854	145.420000
531.943542	145.380000
532.037170	144.980000
532.130859	145.080000
532.224487	144.860000
532.318176	144.620000
532.411804	145.440000
532.505432	145.960000
532.599060	145.740000
532.692749	145.660000
532.786377	146.080000
532.880066	145.080000
532.973694	144.340000
533.067383	144.180000
533.161011	144.000000
533.254639	143.820000
533.348267	143.780000
533.441956	144.300000
533.535583	144.160000
533.629272	144.480000
533.722900	144.300000
533.816589	144.500000
533.910156	144.740000
534.003845	144.500000
534.097534	145.040000
534.191162	145.920000
534.284851	146.240000
534.378479	146.140000
534.472107	146.740000
534.565735	146.200000
534.659424	145.840000
534.753052	145.820000
534.846741	145.680000
534.940369	146.000000
535.033997	146.020000
535.127625	145.920000
535.221313	146.340000
535.314941	146.260000
535.408630	145.520000
535.502197	145.800000
535.595886	145.820000
535.689514	145.040000
535.783203	145.140000
535.876831	145.900000
535.970459	145.760000
536.064087	145.400000
536.157776	145.540000
536.251404	145.660000
536.345093	145.260000
536.438721	145.180000
536.532349	145.260000
536.626038	145.280000
536.719666	145.460000
536.813293	145.240000
536.906921	145.140000
537.000610	145.680000
537.094238	145.760000
537.187866	145.440000
537.281494	145.380000
537.375183	145.540000
537.468811	145.120000
537.562439	145.040000
537.656067	145.120000
537.749756	145.520000
537.843384	145.820000
537.937012	146.280000
538.030640	146.240000
538.124329	146.160000
538.217896	146.360000
538.311584	146.260000
538.405212	146.040000
538.498901	146.180000
538.592468	146.940000
538.686157	146.100000
538.779785	145.460000
538.873413	145.260000
538.967102	145.060000
539.060730	144.280000
539.154358	145.060000
539.247986	145.280000
539.341675	145.540000
539.435242	145.500000
539.528931	145.720000
539.622559	145.120000
539.716187	145.880000
539.809814	145.640000
539.903503	145.680000
539.997070	145.520000
540.090759	145.980000
540.184387	145.400000
540.278015	145.780000
540.371643	146.180000
540.465332	146.180000
540.558899	145.780000
540.652588	145.980000
540.746216	145.540000
540.839844	145.780000
540.933472	145.960000
541.027100	145.980000
541.120728	145.900000
541.214417	146.340000
541.308044	146.060000
541.401672	145.820000
541.495300	145.780000
541.588928	145.740000
541.682617	145.500000
541.776184	145.400000
541.869873	145.420000
541.963440	145.560000
542.057129	145.500000
542.150757	145.300000
542.244385	144.860000
542.338013	144.740000
542.431641	144.580000
542.525269	144.280000
542.618958	144.860000
542.712524	145.480000
542.806213	145.380000
542.899780	145.660000
542.993469	145.540000
543.087036	145.060000
543.180725	144.320000
543.274292	144.860000
543.367981	144.880000
543.461548	145.940000
543.555237	145.920000
543.648926	146.500000
543.742493	146.860000
543.836182	146.860000
543.929749	146.140000
544.023437	146.080000
544.117004	146.180000
544.210693	145.900000
544.304260	146.120000
544.397949	146.100000
544.491516	146.540000
544.585205	146.500000
544.678772	146.000000
544.772461	146.180000
544.866028	145.920000
544.959717	145.840000
545.053284	145.200000
545.146973	145.500000
545.240540	145.180000
545.334229	146.040000
545.427795	146.100000
545.521423	146.440000
545.615051	146.560000
545.708679	147.080000
545.802307	146.740000
545.895935	146.860000
545.989624	147.500000
546.083191	147.260000
546.176880	146.880000
546.270447	146.480000
546.364136	146.620000
546.457703	145.900000
546.551331	145.860000
546.644958	145.860000
546.738586	146.220000
546.832214	145.580000
546.925842	145.760000
547.019409	146.240000
547.113098	145.660000
547.206665	145.460000
547.300354	145.800000
547.393921	146.120000
547.487549	146.160000
547.581177	146.280000
547.674805	146.400000
547.768433	145.700000
547.862061	145.500000
547.955627	144.780000
548.049316	145.300000
548.142883	145.420000
548.236572	146.200000
548.330139	146.420000
548.423767	146.240000
548.517456	146.320000
548.611023	146.640000
548.704651	145.860000
548.798279	145.680000
548.891907	146.460000
548.985474	146.000000
549.079163	145.840000
549.172729	145.960000
549.266357	145.580000
549.359985	145.300000
549.453613	144.900000
549.547180	144.740000
549.640869	145.600000
549.734436	145.640000
549.828064	145.960000
549.921631	146.320000
550.015320	145.720000
550.108887	145.480000
550.202515	145.580000
550.296143	145.140000
550.389771	145.300000
550.483337	145.780000
550.576965	145.520000
550.670593	145.760000
550.764221	146.200000
550.857849	145.960000
550.951477	145.880000
551.045105	145.380000
551.138672	145.420000
551.232300	144.940000
551.325928	145.540000
551.419556	145.780000
551.513123	146.300000
551.606750	146.020000
551.700378	146.100000
551.794006	145.680000
551.887573	145.300000
551.981201	145.440000
552.074768	145.420000
552.168457	145.160000
552.262024	146.100000
552.355652	146.200000
552.449219	146.780000
552.542847	146.920000
552.636475	146.800000
552.730103	145.400000
552.823669	145.200000
552.917297	144.260000
553.010864	144.180000
553.104553	144.660000
553.198181	144.760000
553.291748	145.200000
553.385376	145.860000
553.478943	145.520000
553.572571	145.760000
553.666199	145.940000
553.759827	145.640000
553.853394	144.880000
553.947021	145.500000
554.040588	145.120000
554.134216	145.320000
554.227783	145.920000
554.321411	146.820000
554.415039	146.280000
554.508667	146.200000
554.602234	146.380000
554.695862	145.740000
554.789429	145.380000
554.883057	145.620000
554.976624	145.680000
555.070251	145.420000
555.163818	145.320000
555.257507	145.160000
555.351074	145.420000
555.444702	146.420000
555.538330	146.160000
555.631897	146.420000
555.725525	146.360000
555.819092	146.040000
555.912720	144.900000
556.006287	145.740000
556.099915	145.320000
556.193481	145.220000
556.287109	145.740000
556.380676	145.800000
556.474304	145.680000
556.567871	146.260000
556.661499	145.900000
556.755066	145.620000
556.848694	145.780000
556.942261	145.180000
557.035889	145.160000
557.129517	145.680000
557.223145	145.980000
557.316711	146.100000
557.410339	146.400000
557.503906	145.980000
557.597473	145.880000
557.691040	145.420000
557.784668	145.220000
557.878296	145.200000
557.971863	145.540000
558.065491	145.720000
558.159058	145.520000
558.252686	146.280000
558.346252	146.580000
558.439880	146.200000
558.533447	145.900000
558.627075	145.740000
558.720642	145.240000
558.814270	145.020000
558.907837	145.340000
559.001465	144.940000
559.095032	145.800000
559.188660	145.640000
559.282227	144.920000
559.375854	145.500000
559.469360	145.500000
559.562988	145.580000
559.656555	145.760000
559.750183	146.700000
559.843750	146.240000
559.937378	146.640000
560.030945	146.140000
560.124573	0.000000
560.218140	0.000000
560.311707	0.000000
560.405334	0.000000
560.498901	0.000000
560.592529	0.000000
560.686096	0.000000
560.779724	0.000000
560.873291	0.000000
560.966858	0.000000
561.060425	0.000000
561.154053	0.000000
561.247620	0.000000
561.341248	0.000000
561.434814	0.000000
561.528381	0.000000
561.621948	0.000000
561.715576	0.000000
561.809143	0.000000
561.902771	0.000000
561.996277	0.000000
562.089905	0.000000
562.183472	0.000000
562.277100	0.000000
