Model Number: SPM-002-B   
Serial Number: 70087108
Firmware Version: 004.15.4
Exposure Time: 100000.000000us
Data Taken on: 11-12-2020 18:52:05.550
Wavelength	Amplitude
221.570786	0.000000
221.663406	0.000000
221.756027	0.000000
221.848648	0.000000
221.941269	0.000000
222.033905	0.000000
222.126526	0.000000
222.219162	0.000000
222.311798	0.000000
222.404419	0.000000
222.497055	0.000000
222.589676	0.000000
222.682312	0.000000
222.774933	0.000000
222.867569	0.000000
222.960205	0.000000
223.052841	0.000000
223.145462	0.000000
223.238098	0.000000
223.330734	0.000000
223.423386	0.000000
223.516022	0.000000
223.608658	0.000000
223.701309	0.000000
223.793945	0.000000
223.886581	0.000000
223.979218	0.000000
224.071869	0.000000
224.164505	0.000000
224.257156	0.000000
224.349792	0.000000
224.442444	0.000000
224.535095	0.000000
224.627747	0.000000
224.720398	0.000000
224.813034	0.000000
224.905685	0.000000
224.998337	144.860000
225.090988	144.880000
225.183640	145.080000
225.276291	144.920000
225.368942	145.080000
225.461594	146.040000
225.554245	146.080000
225.646912	145.940000
225.739578	146.360000
225.832230	146.600000
225.924896	145.580000
226.017548	146.060000
226.110199	146.720000
226.202866	146.100000
226.295532	146.060000
226.388184	146.280000
226.480850	145.660000
226.573517	145.040000
226.666168	145.240000
226.758835	145.420000
226.851501	145.680000
226.944183	145.980000
227.036850	145.620000
227.129517	145.740000
227.222183	145.700000
227.314850	145.860000
227.407516	146.040000
227.500198	146.720000
227.592865	146.300000
227.685532	145.740000
227.778214	145.340000
227.870880	145.700000
227.963562	146.000000
228.056229	146.440000
228.148926	146.780000
228.241592	147.400000
228.334274	146.880000
228.426956	146.320000
228.519638	146.580000
228.612305	146.200000
228.704987	146.200000
228.797668	146.280000
228.890350	146.460000
228.983032	145.540000
229.075714	146.460000
229.168396	145.900000
229.261108	145.460000
229.353790	145.360000
229.446472	145.720000
229.539169	145.080000
229.631851	144.940000
229.724533	145.300000
229.817230	145.560000
229.909912	146.560000
230.002609	146.760000
230.095306	146.900000
230.187988	147.300000
230.280685	147.000000
230.373383	145.740000
230.466095	145.600000
230.558792	145.920000
230.651474	145.560000
230.744171	145.440000
230.836868	145.500000
230.929581	145.820000
231.022278	145.380000
231.114975	145.400000
231.207672	145.180000
231.300369	145.740000
231.393082	145.800000
231.485779	146.100000
231.578506	146.140000
231.671204	146.560000
231.763916	146.480000
231.856613	146.420000
231.949326	146.580000
232.042023	146.440000
232.134735	146.300000
232.227448	145.740000
232.320160	145.940000
232.412872	145.800000
232.505585	146.340000
232.598297	146.740000
232.691010	146.960000
232.783722	146.140000
232.876450	146.400000
232.969162	145.740000
233.061874	144.820000
233.154587	144.640000
233.247314	145.200000
233.340027	144.480000
233.432739	144.980000
233.525467	145.240000
233.618179	145.540000
233.710907	145.340000
233.803635	146.100000
233.896347	145.880000
233.989090	146.840000
234.081818	146.760000
234.174545	147.000000
234.267258	146.340000
234.359985	146.500000
234.452713	145.960000
234.545441	145.680000
234.638168	145.380000
234.730896	146.060000
234.823639	145.800000
234.916367	146.160000
235.009094	146.620000
235.101822	146.700000
235.194580	146.380000
235.287308	146.320000
235.380051	145.720000
235.472778	145.880000
235.565521	146.200000
235.658249	145.820000
235.750992	145.860000
235.843719	145.880000
235.936462	145.800000
236.029205	145.220000
236.121948	145.200000
236.214691	145.760000
236.307449	146.460000
236.400192	146.080000
236.492935	146.040000
236.585678	146.240000
236.678421	145.700000
236.771164	145.220000
236.863907	145.640000
236.956665	145.880000
237.049408	147.460000
237.142151	147.160000
237.234909	147.700000
237.327652	147.860000
237.420410	147.740000
237.513153	146.480000
237.605927	146.420000
237.698669	145.800000
237.791428	145.280000
237.884186	145.740000
237.976944	145.500000
238.069702	146.180000
238.162445	146.060000
238.255203	146.200000
238.347961	146.420000
238.440720	146.280000
238.533478	145.920000
238.626266	145.760000
238.719025	145.880000
238.811783	145.460000
238.904541	145.400000
238.997314	145.320000
239.090073	145.280000
239.182831	145.260000
239.275604	146.100000
239.368362	146.200000
239.461136	146.100000
239.553909	146.340000
239.646667	146.200000
239.739441	145.760000
239.832214	146.080000
239.925003	146.500000
240.017761	146.820000
240.110535	147.560000
240.203308	146.780000
240.296082	146.820000
240.388855	146.740000
240.481628	146.760000
240.574417	146.440000
240.667191	146.740000
240.759964	146.300000
240.852737	145.880000
240.945526	145.560000
241.038315	145.420000
241.131088	145.380000
241.223877	145.840000
241.316650	145.680000
241.409439	146.080000
241.502228	145.540000
241.595001	146.120000
241.687790	145.980000
241.780579	146.400000
241.873367	146.280000
241.966141	146.720000
242.058929	145.900000
242.151718	146.000000
242.244507	146.420000
242.337311	145.940000
242.430099	146.320000
242.522903	146.780000
242.615692	146.100000
242.708481	145.880000
242.801270	146.040000
242.894073	145.960000
242.986862	146.100000
243.079651	146.700000
243.172455	146.320000
243.265244	146.780000
243.358063	146.200000
243.450867	146.420000
243.543655	146.400000
243.636459	146.760000
243.729263	146.920000
243.822067	147.060000
243.914856	146.940000
244.007660	147.300000
244.100464	147.220000
244.193268	146.620000
244.286072	146.720000
244.378876	146.340000
244.471680	145.760000
244.564499	146.000000
244.657318	146.640000
244.750122	146.860000
244.842926	146.400000
244.935745	146.940000
245.028549	146.340000
245.121368	145.720000
245.214172	145.600000
245.306992	146.000000
245.399796	145.640000
245.492615	146.180000
245.585434	146.000000
245.678253	145.980000
245.771072	146.140000
245.863892	146.300000
245.956711	146.160000
246.049530	146.360000
246.142349	146.200000
246.235168	146.080000
246.327988	146.860000
246.420807	146.700000
246.513626	146.520000
246.606445	146.200000
246.699280	146.140000
246.792099	145.500000
246.884918	145.180000
246.977753	145.120000
247.070587	145.480000
247.163422	145.500000
247.256241	145.220000
247.349075	145.700000
247.441895	145.840000
247.534729	145.740000
247.627563	145.600000
247.720383	146.300000
247.813217	146.360000
247.906052	146.440000
247.998886	146.620000
248.091736	146.460000
248.184570	145.720000
248.277405	145.300000
248.370239	145.900000
248.463074	146.740000
248.555908	147.360000
248.648743	147.240000
248.741592	147.480000
248.834427	146.640000
248.927261	145.300000
249.020111	145.300000
249.112946	145.960000
249.205795	145.740000
249.298630	146.240000
249.391495	146.640000
249.484344	146.480000
249.577179	146.480000
249.670029	146.860000
249.762878	147.260000
249.855728	147.400000
249.948563	147.280000
250.041412	146.180000
250.134262	146.380000
250.227112	146.200000
250.319962	146.080000
250.412827	146.100000
250.505692	146.180000
250.598541	145.760000
250.691391	145.360000
250.784241	145.340000
250.877106	145.480000
250.969955	145.620000
251.062805	146.000000
251.155670	146.460000
251.248520	146.100000
251.341385	146.180000
251.434235	146.120000
251.527100	145.760000
251.619965	145.060000
251.712814	146.020000
251.805695	145.840000
251.898560	146.140000
251.991425	146.560000
252.084290	146.880000
252.177155	145.880000
252.270020	145.720000
252.362885	145.540000
252.455750	145.320000
252.548615	144.920000
252.641479	145.080000
252.734360	145.100000
252.827240	145.300000
252.920105	145.320000
253.012970	145.580000
253.105850	145.840000
253.198715	145.660000
253.291595	145.620000
253.384460	144.920000
253.477341	145.140000
253.570221	145.280000
253.663086	145.140000
253.755966	145.900000
253.848846	146.220000
253.941727	146.200000
254.034592	145.900000
254.127472	145.760000
254.220367	145.240000
254.313248	145.260000
254.406128	144.880000
254.499008	145.040000
254.591904	146.160000
254.684784	146.460000
254.777664	146.620000
254.870544	146.360000
254.963440	146.220000
255.056335	145.800000
255.149216	145.360000
255.242111	145.800000
255.334991	146.040000
255.427887	146.480000
255.520767	146.500000
255.613663	146.800000
255.706558	146.200000
255.799438	146.180000
255.892334	145.620000
255.985229	145.540000
256.078125	145.460000
256.171021	145.420000
256.263916	145.620000
256.356812	145.840000
256.449707	145.600000
256.542603	145.280000
256.635498	146.060000
256.728394	146.060000
256.821289	145.940000
256.914215	146.480000
257.007080	146.940000
257.100006	146.640000
257.192932	147.020000
257.285828	147.200000
257.378723	146.880000
257.471619	146.300000
257.564545	145.600000
257.657440	145.300000
257.750336	145.740000
257.843262	145.200000
257.936157	146.540000
258.029053	147.160000
258.121979	147.180000
258.214874	146.740000
258.307800	146.840000
258.400696	145.520000
258.493622	145.460000
258.586517	144.840000
258.679443	145.160000
258.772339	144.820000
258.865265	144.940000
258.958160	144.500000
259.051086	145.560000
259.144012	145.240000
259.236938	146.360000
259.329834	146.600000
259.422791	146.540000
259.515717	145.660000
259.608612	145.460000
259.701538	145.320000
259.794464	144.940000
259.887390	144.960000
259.980316	144.820000
260.073212	144.640000
260.166138	143.600000
260.259064	144.200000
260.351990	145.040000
260.444916	145.580000
260.537842	145.940000
260.630768	146.800000
260.723694	146.380000
260.816620	146.100000
260.909546	145.720000
261.002472	145.440000
261.095398	144.960000
261.188354	144.920000
261.281281	144.260000
261.374207	144.600000
261.467133	145.500000
261.560089	145.680000
261.653015	145.680000
261.745972	146.580000
261.838867	147.000000
261.931824	146.840000
262.024780	146.460000
262.117706	146.740000
262.210663	146.660000
262.303589	146.140000
262.396515	146.000000
262.489471	147.000000
262.582397	146.560000
262.675354	146.080000
262.768280	146.360000
262.861237	146.240000
262.954163	145.960000
263.047119	146.460000
263.140045	146.120000
263.233002	145.880000
263.325958	146.020000
263.418884	145.540000
263.511841	145.300000
263.604797	145.680000
263.697723	145.520000
263.790680	145.320000
263.883636	146.260000
263.976593	145.880000
264.069550	146.020000
264.162476	146.100000
264.255463	146.060000
264.348419	145.280000
264.441376	145.680000
264.534332	145.300000
264.627289	145.540000
264.720245	145.820000
264.813202	145.700000
264.906158	146.060000
264.999115	146.680000
265.092072	146.620000
265.185028	147.040000
265.277985	147.220000
265.370941	146.800000
265.463898	146.120000
265.556854	145.900000
265.649811	144.800000
265.742798	144.880000
265.835754	145.320000
265.928711	145.980000
266.021667	145.940000
266.114655	146.620000
266.207611	146.700000
266.300568	145.900000
266.393585	145.500000
266.486511	146.140000
266.579498	145.340000
266.672485	145.260000
266.765442	145.300000
266.858429	145.720000
266.951385	144.900000
267.044342	145.240000
267.137329	145.140000
267.230316	145.600000
267.323273	145.280000
267.416260	146.060000
267.509216	145.860000
267.602203	145.980000
267.695160	146.300000
267.788147	146.380000
267.881134	145.560000
267.974091	145.940000
268.067078	145.500000
268.160065	144.880000
268.253052	144.660000
268.346008	144.900000
268.438995	144.420000
268.531982	144.900000
268.624969	145.000000
268.717987	145.580000
268.810944	145.560000
268.903961	145.820000
268.996948	145.700000
269.089905	145.800000
269.182892	145.760000
269.275879	146.300000
269.368866	146.120000
269.461853	146.000000
269.554871	146.000000
269.647858	145.680000
269.740845	145.640000
269.833832	146.080000
269.926819	145.820000
270.019806	145.860000
270.112793	145.380000
270.205811	145.520000
270.298798	145.260000
270.391785	146.120000
270.484772	146.000000
270.577789	146.340000
270.670776	145.520000
270.763763	145.520000
270.856750	144.960000
270.949768	144.760000
271.042786	144.780000
271.135773	145.200000
271.228790	145.420000
271.321808	145.260000
271.414795	144.960000
271.507782	144.840000
271.600800	144.260000
271.693817	144.540000
271.786804	144.940000
271.879822	145.560000
271.972809	145.520000
272.065826	146.380000
272.158844	145.620000
272.251831	146.300000
272.344849	145.820000
272.437866	145.640000
272.530853	145.380000
272.623871	145.740000
272.716888	144.540000
272.809906	145.400000
272.902893	145.620000
272.995911	145.080000
273.088928	144.900000
273.181946	144.900000
273.274963	144.260000
273.367981	144.420000
273.460999	144.820000
273.554047	145.300000
273.647003	146.320000
273.740051	146.380000
273.833069	146.480000
273.926086	146.600000
274.019135	146.320000
274.112152	145.900000
274.205170	146.040000
274.298187	146.140000
274.391205	145.800000
274.484222	145.800000
274.577240	145.620000
274.670258	145.540000
274.763306	145.340000
274.856323	146.000000
274.949341	146.200000
275.042358	146.740000
275.135406	146.400000
275.228424	146.460000
275.321442	146.180000
275.414490	145.940000
275.507507	145.840000
275.600525	146.440000
275.693573	146.180000
275.786591	145.900000
275.879669	146.140000
275.972656	145.680000
276.065735	145.240000
276.158752	145.720000
276.251801	146.140000
276.344818	146.160000
276.437866	146.220000
276.530884	146.160000
276.623932	145.440000
276.716980	145.700000
276.809998	145.820000
276.903046	145.720000
276.996094	146.700000
277.089111	147.600000
277.182159	147.980000
277.275208	147.460000
277.368256	147.500000
277.461304	146.900000
277.554321	146.320000
277.647369	146.060000
277.740417	146.220000
277.833466	146.140000
277.926514	146.040000
278.019562	146.400000
278.112610	145.560000
278.205688	145.780000
278.298706	146.160000
278.391785	145.940000
278.484833	145.440000
278.577881	145.580000
278.670929	145.640000
278.763977	145.760000
278.857025	146.400000
278.950073	146.500000
279.043121	146.380000
279.136169	146.340000
279.229248	145.920000
279.322296	145.660000
279.415344	145.400000
279.508392	145.560000
279.601440	145.260000
279.694519	145.500000
279.787567	145.320000
279.880615	145.600000
279.973694	145.480000
280.066742	145.660000
280.159790	145.740000
280.252869	145.820000
280.345917	145.920000
280.438995	145.980000
280.532074	145.660000
280.625122	145.840000
280.718201	146.620000
280.811279	146.540000
280.904327	146.640000
280.997406	147.260000
281.090454	146.940000
281.183533	146.160000
281.276581	146.180000
281.369659	146.180000
281.462738	146.020000
281.555786	146.240000
281.648865	146.360000
281.741943	146.400000
281.835022	146.700000
281.928070	146.460000
282.021149	146.200000
282.114227	146.020000
282.207306	145.900000
282.300385	146.180000
282.393433	146.300000
282.486511	146.260000
282.579590	146.500000
282.672668	146.840000
282.765747	145.940000
282.858856	145.680000
282.951904	145.800000
283.045013	145.860000
283.138062	145.960000
283.231171	146.400000
283.324249	146.760000
283.417328	146.720000
283.510406	146.680000
283.603485	146.300000
283.696564	146.280000
283.789642	146.460000
283.882751	146.200000
283.975830	146.640000
284.068909	146.600000
284.161987	147.040000
284.255066	146.320000
284.348175	146.740000
284.441254	146.320000
284.534332	146.600000
284.627441	146.100000
284.720520	146.160000
284.813599	146.160000
284.906708	146.320000
284.999786	145.620000
285.092896	145.380000
285.185974	146.300000
285.279053	145.680000
285.372192	145.520000
285.465240	146.520000
285.558380	146.300000
285.651459	145.640000
285.744568	146.800000
285.837677	146.380000
285.930756	145.840000
286.023865	146.060000
286.116943	146.100000
286.210052	145.480000
286.303162	145.520000
286.396240	145.560000
286.489349	145.660000
286.582458	145.940000
286.675568	145.880000
286.768646	145.960000
286.861755	146.280000
286.954865	146.800000
287.047974	146.120000
287.141083	145.980000
287.234161	145.700000
287.327271	145.460000
287.420380	145.700000
287.513519	145.940000
287.606598	146.000000
287.699738	146.360000
287.792816	146.200000
287.885956	145.860000
287.979034	145.700000
288.072174	145.660000
288.165283	145.540000
288.258392	145.700000
288.351501	144.980000
288.444611	145.080000
288.537720	145.280000
288.630859	145.240000
288.723969	145.280000
288.817078	145.740000
288.910187	146.140000
289.003296	145.780000
289.096436	145.540000
289.189545	145.440000
289.282654	145.020000
289.375763	145.160000
289.468903	145.860000
289.562012	146.340000
289.655121	146.520000
289.748260	147.080000
289.841400	147.120000
289.934509	146.720000
290.027649	146.840000
290.120728	146.380000
290.213898	146.220000
290.306976	145.800000
290.400146	146.180000
290.493256	145.620000
290.586395	145.980000
290.679535	146.240000
290.772644	146.140000
290.865784	145.200000
290.958893	145.320000
291.052032	145.340000
291.145172	144.900000
291.238281	144.860000
291.331421	144.740000
291.424561	145.200000
291.517670	144.700000
291.610809	145.140000
291.703949	145.120000
291.797089	145.920000
291.890228	145.520000
291.983337	145.740000
292.076477	145.540000
292.169617	145.680000
292.262756	145.640000
292.355927	145.640000
292.449036	145.520000
292.542206	145.800000
292.635315	146.100000
292.728485	146.160000
292.821625	146.100000
292.914764	147.220000
293.007904	147.160000
293.101044	146.940000
293.194183	146.760000
293.287323	146.940000
293.380463	146.260000
293.473602	146.040000
293.566742	146.080000
293.659882	146.480000
293.753021	146.400000
293.846191	146.400000
293.939331	146.120000
294.032471	146.140000
294.125610	145.620000
294.218781	146.120000
294.311920	146.400000
294.405060	146.340000
294.498230	146.200000
294.591370	146.260000
294.684540	145.540000
294.777679	144.900000
294.870850	145.180000
294.963959	145.140000
295.057159	144.940000
295.150299	145.340000
295.243469	145.240000
295.336609	145.020000
295.429779	145.240000
295.522919	145.800000
295.616089	145.900000
295.709229	146.800000
295.802399	147.100000
295.895569	146.700000
295.988708	146.380000
296.081879	146.160000
296.175018	145.540000
296.268188	145.180000
296.361359	145.580000
296.454529	145.660000
296.547668	145.660000
296.640839	145.920000
296.734009	146.040000
296.827179	146.000000
296.920319	145.900000
297.013519	145.860000
297.106659	145.920000
297.199860	145.640000
297.292999	145.720000
297.386200	145.820000
297.479309	145.580000
297.572510	145.240000
297.665680	145.180000
297.758850	145.160000
297.852020	145.180000
297.945190	145.080000
298.038361	144.900000
298.131531	146.120000
298.224701	146.060000
298.317871	145.620000
298.411072	145.280000
298.504242	145.140000
298.597412	144.280000
298.690582	144.480000
298.783752	144.660000
298.876923	145.520000
298.970093	146.060000
299.063293	146.640000
299.156464	146.700000
299.249634	147.080000
299.342834	146.880000
299.436005	147.020000
299.529205	146.660000
299.622345	146.320000
299.715576	145.720000
299.808716	145.760000
299.901917	145.700000
299.995117	146.080000
300.088287	146.300000
300.181488	146.200000
300.274658	146.020000
300.367828	145.680000
300.461029	145.480000
300.554199	145.360000
300.647400	145.340000
300.740601	145.700000
300.833771	145.520000
300.926971	145.500000
301.020142	145.500000
301.113342	145.800000
301.206512	145.900000
301.299713	146.240000
301.392914	146.220000
301.486084	146.460000
301.579285	146.420000
301.672516	146.620000
301.765686	146.500000
301.858887	146.100000
301.952057	145.860000
302.045288	145.700000
302.138458	145.300000
302.231659	145.240000
302.324860	145.660000
302.418060	145.460000
302.511261	145.700000
302.604462	145.920000
302.697662	145.880000
302.790863	145.560000
302.884064	145.360000
302.977264	145.300000
303.070465	145.620000
303.163666	146.220000
303.256866	146.540000
303.350067	146.600000
303.443268	146.580000
303.536469	146.420000
303.629669	145.800000
303.722870	145.960000
303.816071	145.860000
303.909271	145.820000
304.002472	145.220000
304.095673	145.300000
304.188934	144.200000
304.282104	145.260000
304.375336	145.560000
304.468506	145.640000
304.561768	145.580000
304.654968	146.340000
304.748169	145.480000
304.841370	145.280000
304.934601	145.720000
305.027802	145.420000
305.121002	145.200000
305.214233	145.420000
305.307434	145.320000
305.400665	145.500000
305.493866	145.820000
305.587097	146.060000
305.680298	145.940000
305.773499	146.320000
305.866730	145.780000
305.959930	146.140000
306.053162	146.320000
306.146393	146.280000
306.239594	145.880000
306.332825	145.820000
306.426025	145.980000
306.519287	145.320000
306.612488	145.240000
306.705719	145.200000
306.798920	145.320000
306.892181	144.720000
306.985352	144.720000
307.078613	144.640000
307.171844	144.820000
307.265045	144.540000
307.358276	144.200000
307.451508	144.960000
307.544739	145.480000
307.637970	145.260000
307.731201	145.460000
307.824402	146.260000
307.917633	146.340000
308.010864	146.640000
308.104095	146.720000
308.197327	147.020000
308.290558	146.840000
308.383789	146.100000
308.477020	145.400000
308.570251	145.240000
308.663483	144.600000
308.756714	144.720000
308.849976	144.920000
308.943176	145.340000
309.036438	145.180000
309.129639	145.400000
309.222900	144.900000
309.316101	144.680000
309.409393	144.240000
309.502625	144.320000
309.595856	144.260000
309.689087	144.820000
309.782318	145.420000
309.875580	145.640000
309.968811	145.760000
310.062042	145.580000
310.155273	145.300000
310.248535	145.280000
310.341766	145.400000
310.434998	145.320000
310.528259	145.280000
310.621490	145.840000
310.714722	145.440000
310.807983	145.320000
310.901215	145.620000
310.994476	146.160000
311.087708	145.400000
311.181000	145.660000
311.274200	145.160000
311.367462	145.060000
311.460693	144.580000
311.553986	145.400000
311.647186	145.340000
311.740479	146.500000
311.833710	146.040000
311.926971	146.160000
312.020203	145.480000
312.113464	145.700000
312.206726	144.660000
312.299957	145.320000
312.393219	146.040000
312.486481	146.220000
312.579712	145.980000
312.672974	146.180000
312.766235	145.920000
312.859497	145.300000
312.952759	145.160000
313.045990	145.860000
313.139252	145.500000
313.232513	145.680000
313.325775	145.920000
313.419037	145.440000
313.512299	144.800000
313.605530	145.720000
313.698822	145.640000
313.792053	145.700000
313.885345	145.640000
313.978577	145.640000
314.071869	144.760000
314.165131	144.900000
314.258392	145.080000
314.351654	145.640000
314.444916	145.020000
314.538177	145.540000
314.631439	145.840000
314.724701	145.480000
314.817993	145.100000
314.911255	145.600000
315.004517	145.400000
315.097778	144.780000
315.191040	145.260000
315.284302	145.820000
315.377594	145.580000
315.470856	145.660000
315.564117	145.620000
315.657379	144.780000
315.750671	143.960000
315.843933	144.300000
315.937195	143.960000
316.030518	143.860000
316.123749	144.300000
316.217041	145.440000
316.310303	145.340000
316.403595	145.680000
316.496857	146.240000
316.590149	146.400000
316.683411	145.780000
316.776703	145.620000
316.869965	145.640000
316.963257	145.220000
317.056519	144.660000
317.149811	144.620000
317.243073	144.900000
317.336365	145.000000
317.429626	145.660000
317.522919	146.280000
317.616180	146.460000
317.709473	145.840000
317.802765	145.860000
317.896027	145.320000
317.989319	145.500000
318.082611	145.320000
318.175873	145.440000
318.269165	145.460000
318.362488	145.320000
318.455750	144.880000
318.549042	145.380000
318.642303	146.080000
318.735626	145.720000
318.828888	145.860000
318.922211	145.400000
319.015472	145.700000
319.108765	145.080000
319.202057	145.020000
319.295349	145.180000
319.388641	145.720000
319.481934	145.080000
319.575226	144.780000
319.668518	144.840000
319.761810	144.840000
319.855103	144.800000
319.948395	145.040000
320.041687	145.600000
320.134979	145.600000
320.228271	145.500000
320.321564	145.180000
320.414856	144.940000
320.508148	144.500000
320.601440	144.380000
320.694763	144.280000
320.788025	145.280000
320.881348	145.500000
320.974640	145.700000
321.067963	145.440000
321.161224	145.560000
321.254547	144.480000
321.347839	145.000000
321.441162	144.940000
321.534454	145.720000
321.627747	145.780000
321.721069	146.560000
321.814362	146.100000
321.907654	146.300000
322.000946	145.780000
322.094269	146.240000
322.187561	145.800000
322.280884	145.880000
322.374176	145.740000
322.467468	146.260000
322.560791	145.800000
322.654083	146.420000
322.747406	146.480000
322.840698	146.960000
322.934021	147.300000
323.027344	147.620000
323.120636	147.100000
323.213959	147.040000
323.307251	146.660000
323.400574	145.980000
323.493866	145.700000
323.587219	145.860000
323.680511	146.080000
323.773834	146.280000
323.867157	146.700000
323.960449	146.760000
324.053772	146.500000
324.147095	146.080000
324.240387	146.520000
324.333710	146.140000
324.427032	146.300000
324.520355	146.220000
324.613647	145.940000
324.706970	145.500000
324.800293	145.500000
324.893616	145.500000
324.986938	146.180000
325.080231	146.300000
325.173553	146.840000
325.266876	147.640000
325.360199	147.360000
325.453522	146.540000
325.546875	146.480000
325.640167	146.100000
325.733521	145.980000
325.826813	146.620000
325.920166	146.460000
326.013489	146.260000
326.106812	145.480000
326.200134	144.840000
326.293457	144.040000
326.386780	144.320000
326.480103	144.560000
326.573425	144.520000
326.666748	144.600000
326.760071	144.960000
326.853424	145.080000
326.946747	145.000000
327.040070	146.220000
327.133392	145.920000
327.226715	145.540000
327.320068	145.100000
327.413391	145.620000
327.506714	144.580000
327.600037	144.660000
327.693390	144.800000
327.786713	145.200000
327.880066	145.120000
327.973358	145.500000
328.066742	146.040000
328.160034	146.060000
328.253418	146.240000
328.346710	145.740000
328.440063	145.440000
328.533417	145.000000
328.626740	145.560000
328.720093	145.600000
328.813416	145.640000
328.906769	146.000000
329.000092	146.400000
329.093445	145.960000
329.186768	145.880000
329.280121	146.600000
329.373444	146.780000
329.466797	146.660000
329.560120	146.760000
329.653473	146.840000
329.746796	146.400000
329.840149	146.060000
329.933502	145.720000
330.026825	145.700000
330.120178	145.480000
330.213562	145.240000
330.306854	145.680000
330.400238	145.820000
330.493561	145.560000
330.586945	146.340000
330.680237	146.600000
330.773621	146.200000
330.866974	146.280000
330.960327	146.580000
331.053680	145.900000
331.147003	146.040000
331.240356	146.360000
331.333710	146.300000
331.427063	146.060000
331.520416	146.060000
331.613770	145.620000
331.707123	145.680000
331.800476	146.000000
331.893829	146.860000
331.987152	146.700000
332.080505	146.780000
332.173859	146.500000
332.267212	145.900000
332.360565	145.080000
332.453918	144.960000
332.547333	145.060000
332.640656	145.040000
332.734039	145.480000
332.827362	145.660000
332.920746	146.160000
333.014069	146.480000
333.107452	146.700000
333.200806	146.720000
333.294159	146.760000
333.387543	146.260000
333.480896	145.620000
333.574249	145.320000
333.667603	144.860000
333.760956	145.000000
333.854340	145.080000
333.947693	145.420000
334.041046	145.980000
334.134430	146.600000
334.227783	146.320000
334.321136	146.260000
334.414520	145.880000
334.507874	145.420000
334.601227	145.160000
334.694611	144.900000
334.787964	145.180000
334.881348	145.900000
334.974701	145.960000
335.068085	145.800000
335.161438	146.300000
335.254822	146.000000
335.348175	146.040000
335.441559	145.840000
335.534943	146.300000
335.628296	146.020000
335.721680	146.220000
335.815033	146.120000
335.908417	146.400000
336.001770	146.180000
336.095154	145.840000
336.188538	145.640000
336.281891	145.040000
336.375275	144.560000
336.468658	144.260000
336.562012	144.640000
336.655396	144.800000
336.748779	145.280000
336.842133	145.580000
336.935516	145.820000
337.028900	145.180000
337.122284	145.080000
337.215637	144.940000
337.309021	144.860000
337.402435	144.500000
337.495789	144.660000
337.589203	144.580000
337.682526	144.500000
337.775940	144.640000
337.869324	145.080000
337.962708	145.060000
338.056091	145.880000
338.149475	145.580000
338.242859	145.580000
338.336243	145.400000
338.429626	145.920000
338.523010	145.400000
338.616394	145.340000
338.709778	145.740000
338.803162	146.060000
338.896545	145.920000
338.989929	145.460000
339.083313	145.900000
339.176697	145.200000
339.270081	144.920000
339.363464	145.260000
339.456848	145.700000
339.550232	145.320000
339.643616	145.320000
339.737030	145.320000
339.830383	145.020000
339.923828	145.340000
340.017181	145.480000
340.110596	145.720000
340.203949	145.560000
340.297363	144.980000
340.390778	144.640000
340.484161	144.540000
340.577545	144.560000
340.670959	144.680000
340.764343	144.940000
340.857727	144.920000
340.951111	144.520000
341.044525	144.580000
341.137909	144.040000
341.231293	144.200000
341.324707	143.940000
341.418091	145.020000
341.511505	144.940000
341.604889	145.640000
341.698303	145.740000
341.791687	145.940000
341.885071	145.600000
341.978485	145.520000
342.071899	145.600000
342.165283	145.740000
342.258698	145.960000
342.352081	146.160000
342.445496	146.720000
342.538879	146.340000
342.632324	146.020000
342.725708	145.840000
342.819122	145.120000
342.912506	144.800000
343.005920	145.020000
343.099335	145.940000
343.192719	146.040000
343.286133	146.360000
343.379547	146.140000
343.472931	146.100000
343.566345	145.380000
343.659760	145.260000
343.753143	145.220000
343.846558	145.120000
343.939972	144.960000
344.033386	145.380000
344.126770	145.220000
344.220184	145.040000
344.313599	145.660000
344.407043	145.820000
344.500427	145.260000
344.593872	145.840000
344.687225	145.920000
344.780670	145.120000
344.874054	145.080000
344.967499	145.620000
345.060913	145.180000
345.154327	145.120000
345.247742	145.160000
345.341156	144.940000
345.434570	144.380000
345.527985	144.200000
345.621399	144.320000
345.714813	144.380000
345.808228	144.520000
345.901642	144.480000
345.995056	144.620000
346.088470	144.560000
346.181885	144.480000
346.275299	144.220000
346.368713	144.140000
346.462128	143.760000
346.555573	143.720000
346.648987	144.220000
346.742401	144.320000
346.835815	144.940000
346.929260	145.200000
347.022644	145.340000
347.116119	145.200000
347.209503	145.720000
347.302948	146.240000
347.396362	146.880000
347.489807	146.960000
347.583221	147.280000
347.676636	146.980000
347.770050	145.740000
347.863495	144.980000
347.956909	145.060000
348.050323	144.660000
348.143768	144.400000
348.237183	144.420000
348.330597	145.080000
348.424042	145.360000
348.517456	145.560000
348.610901	145.800000
348.704315	145.980000
348.797760	145.300000
348.891174	144.360000
348.984619	143.700000
349.078033	144.080000
349.171448	144.460000
349.264923	144.760000
349.358337	145.080000
349.451782	145.640000
349.545197	144.620000
349.638641	144.160000
349.732086	143.620000
349.825500	144.080000
349.918945	143.580000
350.012390	144.640000
350.105804	145.060000
350.199249	145.640000
350.292664	146.020000
350.386108	146.200000
350.479553	146.200000
350.572968	146.300000
350.666412	146.300000
350.759857	145.980000
350.853302	146.540000
350.946716	145.860000
351.040161	145.640000
351.133606	145.520000
351.227081	145.180000
351.320465	145.720000
351.413940	146.040000
351.507355	146.340000
351.600830	146.080000
351.694244	145.920000
351.787720	145.420000
351.881104	145.180000
351.974579	144.900000
352.067993	146.040000
352.161469	146.240000
352.254883	145.960000
352.348358	145.920000
352.441803	146.020000
352.535248	145.160000
352.628693	145.640000
352.722137	145.440000
352.815582	145.820000
352.909027	145.860000
353.002472	145.600000
353.095917	144.920000
353.189362	145.220000
353.282806	144.940000
353.376251	144.620000
353.469696	144.480000
353.563141	145.360000
353.656586	145.100000
353.750061	144.820000
353.843475	144.820000
353.936981	145.320000
354.030396	144.340000
354.123871	144.600000
354.217285	145.560000
354.310760	146.000000
354.404175	146.080000
354.497681	146.040000
354.591095	145.940000
354.684570	144.840000
354.777985	144.480000
354.871490	144.100000
354.964935	145.060000
355.058380	145.060000
355.151855	145.020000
355.245300	145.360000
355.338745	145.840000
355.432220	145.320000
355.525665	144.880000
355.619110	145.920000
355.712585	145.900000
355.806030	145.820000
355.899475	145.580000
355.992950	146.080000
356.086426	145.760000
356.179871	145.660000
356.273346	145.500000
356.366791	145.880000
356.460266	145.860000
356.553711	145.420000
356.647186	145.400000
356.740631	145.260000
356.834106	145.240000
356.927551	145.500000
357.021027	145.580000
357.114471	145.760000
357.207947	145.880000
357.301422	145.840000
357.394867	145.600000
357.488342	146.280000
357.581818	145.940000
357.675262	146.120000
357.768738	146.020000
357.862213	145.500000
357.955658	145.360000
358.049133	145.340000
358.142609	145.680000
358.236053	145.520000
358.329529	146.040000
358.423035	146.000000
358.516449	145.580000
358.609955	145.440000
358.703400	146.120000
358.796906	145.980000
358.890350	145.660000
358.983826	146.280000
359.077271	145.840000
359.170776	145.200000
359.264221	144.980000
359.357727	145.140000
359.451172	145.380000
359.544647	145.140000
359.638123	144.800000
359.731598	145.520000
359.825073	145.640000
359.918549	145.260000
360.012024	145.640000
360.105499	145.800000
360.198975	145.560000
360.292450	145.620000
360.385925	145.760000
360.479401	145.640000
360.572876	145.920000
360.666351	146.020000
360.759857	145.880000
360.853302	145.860000
360.946808	145.380000
361.040253	145.340000
361.133759	144.920000
361.227203	144.940000
361.320709	144.540000
361.414154	145.180000
361.507660	145.640000
361.601105	145.920000
361.694641	146.220000
361.788086	146.120000
361.881592	146.280000
361.975067	145.780000
362.068542	146.020000
362.162018	145.660000
362.255524	145.700000
362.348999	145.560000
362.442474	145.720000
362.535950	145.080000
362.629456	145.080000
362.722931	145.160000
362.816406	145.400000
362.909882	145.580000
363.003387	145.580000
363.096863	145.920000
363.190338	146.000000
363.283875	145.560000
363.377319	145.480000
363.470825	145.760000
363.564301	144.860000
363.657806	144.960000
363.751282	145.040000
363.844788	145.580000
363.938232	145.200000
364.031769	146.240000
364.125214	146.420000
364.218750	146.940000
364.312225	145.680000
364.405731	146.000000
364.499207	145.300000
364.592712	145.000000
364.686188	144.660000
364.779694	145.220000
364.873169	145.060000
364.966675	144.980000
365.060150	144.840000
365.153656	145.200000
365.247131	145.040000
365.340637	145.600000
365.434143	146.260000
365.527618	146.420000
365.621155	145.420000
365.714600	145.780000
365.808136	145.800000
365.901611	145.000000
365.995117	144.940000
366.088593	145.080000
366.182129	144.940000
366.275604	144.720000
366.369110	144.980000
366.462585	145.020000
366.556122	145.720000
366.649567	145.580000
366.743103	145.700000
366.836609	145.540000
366.930115	145.800000
367.023590	145.840000
367.117096	145.580000
367.210602	145.240000
367.304108	146.160000
367.397614	146.420000
367.491119	146.360000
367.584595	146.780000
367.678101	147.180000
367.771606	146.260000
367.865112	145.980000
367.958649	145.340000
368.052124	145.000000
368.145660	144.460000
368.239136	145.020000
368.332672	144.880000
368.426147	145.140000
368.519684	145.060000
368.613159	145.440000
368.706696	144.840000
368.800171	144.900000
368.893707	144.800000
368.987183	144.920000
369.080719	145.160000
369.174225	145.260000
369.267731	145.360000
369.361237	145.560000
369.454742	145.540000
369.548248	145.600000
369.641754	145.480000
369.735260	145.360000
369.828766	144.760000
369.922272	145.500000
370.015808	144.980000
370.109314	145.100000
370.202820	144.860000
370.296356	145.800000
370.389832	145.180000
370.483368	145.200000
370.576874	144.800000
370.670410	145.300000
370.763885	144.320000
370.857422	144.400000
370.950928	144.200000
371.044464	145.300000
371.137939	145.060000
371.231476	145.660000
371.324982	146.200000
371.418518	146.360000
371.512024	145.800000
371.605560	145.640000
371.699066	145.800000
371.792572	145.060000
371.886108	145.400000
371.979614	145.280000
372.073120	145.780000
372.166656	145.600000
372.260162	146.080000
372.353668	145.900000
372.447205	145.880000
372.540710	145.620000
372.634277	145.560000
372.727753	145.440000
372.821320	145.320000
372.914795	145.360000
373.008362	145.200000
373.101837	145.120000
373.195404	144.920000
373.288879	145.040000
373.382446	145.700000
373.475922	146.040000
373.569489	146.760000
373.662964	147.400000
373.756531	147.660000
373.850037	147.400000
373.943573	146.980000
374.037109	145.820000
374.130615	145.360000
374.224152	145.200000
374.317657	144.960000
374.411194	145.500000
374.504730	145.820000
374.598236	145.760000
374.691772	145.360000
374.785309	145.320000
374.878815	144.600000
374.972351	145.040000
375.065887	145.000000
375.159454	145.840000
375.252930	145.820000
375.346497	146.320000
375.440002	146.700000
375.533569	146.480000
375.627045	145.700000
375.720612	145.820000
375.814117	145.660000
375.907684	145.020000
376.001160	144.960000
376.094727	144.700000
376.188232	145.120000
376.281799	145.620000
376.375336	145.880000
376.468872	146.560000
376.562408	146.900000
376.655914	146.440000
376.749451	146.000000
376.842987	146.160000
376.936523	145.940000
377.030060	146.000000
377.123596	146.080000
377.217133	145.660000
377.310669	145.380000
377.404205	145.500000
377.497772	145.700000
377.591278	145.760000
377.684845	146.760000
377.778351	147.160000
377.871918	146.640000
377.965424	146.080000
378.058990	145.660000
378.152496	145.220000
378.246063	145.060000
378.339569	145.620000
378.433136	145.820000
378.526642	146.320000
378.620209	146.200000
378.713745	145.740000
378.807312	146.100000
378.900848	146.020000
378.994385	146.300000
379.087921	145.800000
379.181458	146.060000
379.274994	145.100000
379.368530	145.200000
379.462097	144.820000
379.555634	145.160000
379.649170	144.800000
379.742706	144.880000
379.836273	144.880000
379.929810	144.660000
380.023376	144.440000
380.116882	144.500000
380.210449	144.740000
380.303986	144.720000
380.397552	144.360000
380.491058	144.580000
380.584656	144.520000
380.678162	144.780000
380.771729	144.880000
380.865265	145.780000
380.958832	146.040000
381.052368	146.180000
381.145935	146.140000
381.239471	146.240000
381.333008	146.060000
381.426575	146.160000
381.520111	146.480000
381.613647	146.620000
381.707214	146.640000
381.800751	146.040000
381.894318	146.220000
381.987854	145.800000
382.081421	145.400000
382.174988	145.380000
382.268524	145.240000
382.362091	144.960000
382.455627	145.640000
382.549194	145.580000
382.642731	144.960000
382.736298	145.000000
382.829834	144.680000
382.923401	145.000000
383.016937	145.360000
383.110504	145.980000
383.204041	146.160000
383.297607	146.680000
383.391174	145.820000
383.484741	146.300000
383.578278	146.060000
383.671844	146.020000
383.765411	145.360000
383.858948	145.760000
383.952515	145.480000
384.046051	145.760000
384.139618	146.100000
384.233185	146.800000
384.326721	146.600000
384.420288	147.120000
384.513855	147.180000
384.607422	147.480000
384.700989	147.400000
384.794525	147.200000
384.888123	146.740000
384.981659	146.600000
385.075226	145.940000
385.168762	145.580000
385.262360	145.640000
385.355896	144.560000
385.449463	144.480000
385.542999	144.620000
385.636597	145.200000
385.730164	145.580000
385.823730	145.780000
385.917267	145.460000
386.010834	145.440000
386.104401	145.420000
386.197968	145.480000
386.291534	145.780000
386.385101	146.180000
386.478668	146.760000
386.572235	146.140000
386.665802	145.620000
386.759338	145.480000
386.852905	145.080000
386.946472	144.300000
387.040070	144.560000
387.133606	144.620000
387.227203	144.340000
387.320740	144.920000
387.414337	144.960000
387.507874	144.820000
387.601471	144.880000
387.695007	145.160000
387.788605	144.640000
387.882141	144.860000
387.975739	144.820000
388.069275	144.780000
388.162872	144.980000
388.256439	144.900000
388.350037	144.760000
388.443604	144.680000
388.537170	144.560000
388.630737	144.820000
388.724304	144.900000
388.817871	144.760000
388.911438	145.040000
389.005005	145.280000
389.098602	145.360000
389.192169	145.120000
389.285736	145.800000
389.379333	145.580000
389.472870	145.160000
389.566467	145.060000
389.660034	145.360000
389.753632	144.740000
389.847168	145.040000
389.940765	145.380000
390.034332	145.420000
390.127930	145.380000
390.221466	145.320000
390.315063	145.060000
390.408630	144.440000
390.502228	143.920000
390.595795	144.260000
390.689362	144.600000
390.782959	144.620000
390.876526	145.340000
390.970093	145.400000
391.063690	145.640000
391.157257	145.540000
391.250824	146.240000
391.344421	145.720000
391.437988	145.920000
391.531555	145.780000
391.625153	146.040000
391.718750	145.740000
391.812317	145.900000
391.905914	145.600000
391.999481	145.600000
392.093079	145.600000
392.186615	145.680000
392.280243	145.840000
392.373779	146.140000
392.467407	146.480000
392.560944	146.220000
392.654572	145.840000
392.748108	145.740000
392.841736	145.740000
392.935303	144.900000
393.028900	144.660000
393.122467	144.800000
393.216064	144.660000
393.309631	144.040000
393.403229	144.120000
393.496796	144.220000
393.590393	143.580000
393.683990	144.080000
393.777557	144.900000
393.871155	145.080000
393.964722	145.660000
394.058350	146.200000
394.151917	145.680000
394.245514	145.460000
394.339081	145.880000
394.432678	145.660000
394.526245	145.260000
394.619873	145.000000
394.713409	144.900000
394.807037	144.540000
394.900604	144.680000
394.994202	144.860000
395.087769	145.800000
395.181396	145.540000
395.274994	146.300000
395.368561	145.500000
395.462158	145.720000
395.555756	144.980000
395.649353	145.620000
395.742920	145.000000
395.836517	145.960000
395.930115	145.100000
396.023712	145.440000
396.117279	145.280000
396.210876	144.720000
396.304474	144.320000
396.398071	145.140000
396.491669	145.420000
396.585266	145.280000
396.678833	145.500000
396.772461	145.800000
396.866028	145.560000
396.959656	145.480000
397.053223	145.520000
397.146851	145.560000
397.240417	145.520000
397.334015	146.180000
397.427582	145.980000
397.521210	146.460000
397.614807	147.280000
397.708405	148.080000
397.802002	148.420000
397.895599	150.020000
397.989197	150.760000
398.082794	151.740000
398.176392	153.180000
398.269989	154.940000
398.363586	156.900000
398.457184	159.940000
398.550781	163.040000
398.644379	165.420000
398.737976	168.420000
398.831573	171.440000
398.925201	173.900000
399.018768	176.380000
399.112396	179.760000
399.205963	182.920000
399.299591	186.620000
399.393158	190.700000
399.486786	196.140000
399.580353	201.600000
399.673981	207.920000
399.767578	214.960000
399.861206	223.540000
399.954773	232.060000
400.048401	240.700000
400.141998	248.280000
400.235596	256.520000
400.329193	262.220000
400.422791	267.600000
400.516418	271.840000
400.610016	277.040000
400.703613	279.660000
400.797211	280.720000
400.890808	279.480000
400.984436	277.460000
401.078033	271.740000
401.171631	264.480000
401.265259	256.680000
401.358826	248.220000
401.452484	237.780000
401.546051	228.760000
401.639679	217.660000
401.733246	208.200000
401.826904	198.100000
401.920471	189.060000
402.014099	180.720000
402.107697	174.800000
402.201324	169.200000
402.294891	164.780000
402.388550	161.540000
402.482147	158.320000
402.575745	155.680000
402.669373	152.680000
402.762970	151.280000
402.856567	149.980000
402.950195	149.240000
403.043793	147.980000
403.137390	148.120000
403.231018	146.900000
403.324615	146.900000
403.418243	145.840000
403.511841	146.480000
403.605469	146.360000
403.699066	146.860000
403.792694	146.700000
403.886292	146.940000
403.979919	146.380000
404.073517	145.980000
404.167145	146.120000
404.260712	146.120000
404.354370	145.980000
404.447937	146.360000
404.541595	146.920000
404.635162	147.000000
404.728821	147.100000
404.822418	146.940000
404.916046	146.540000
405.009644	146.160000
405.103271	146.180000
405.196899	145.840000
405.290497	146.160000
405.384125	146.460000
405.477722	146.000000
405.571350	145.460000
405.664948	145.380000
405.758575	145.180000
405.852203	144.740000
405.945801	144.920000
406.039429	145.000000
406.133057	145.060000
406.226654	144.940000
406.320312	145.100000
406.413879	145.460000
406.507538	145.700000
406.601135	145.360000
406.694763	145.760000
406.788361	145.440000
406.882019	144.900000
406.975586	145.140000
407.069244	145.640000
407.162872	145.520000
407.256470	145.500000
407.350098	145.700000
407.443726	145.180000
407.537323	144.600000
407.630951	144.900000
407.724579	144.900000
407.818207	145.420000
407.911804	145.360000
408.005432	145.680000
408.099060	145.820000
408.192688	146.100000
408.286285	145.760000
408.379913	145.760000
408.473572	145.620000
408.567169	144.840000
408.660828	145.000000
408.754395	144.720000
408.848053	144.600000
408.941650	145.000000
409.035309	144.760000
409.128906	144.660000
409.222565	145.040000
409.316132	145.420000
409.409790	144.960000
409.503387	145.460000
409.597046	145.460000
409.690674	145.540000
409.784302	145.500000
409.877930	145.580000
409.971558	145.700000
410.065186	145.980000
410.158783	145.640000
410.252411	145.920000
410.346039	146.260000
410.439667	146.020000
410.533295	145.940000
410.626923	146.240000
410.720551	146.040000
410.814209	146.460000
410.907806	146.520000
411.001465	146.020000
411.095062	146.260000
411.188721	146.280000
411.282318	145.460000
411.375977	145.240000
411.469574	145.660000
411.563232	145.180000
411.656830	144.900000
411.750488	144.940000
411.844086	144.640000
411.937744	144.580000
412.031372	144.620000
412.125000	144.740000
412.218628	144.860000
412.312256	146.020000
412.405884	146.380000
412.499512	146.320000
412.593170	146.280000
412.686798	146.680000
412.780426	146.140000
412.874054	146.080000
412.967682	145.940000
413.061310	146.640000
413.154968	146.780000
413.248566	146.680000
413.342224	146.260000
413.435852	146.880000
413.529510	146.300000
413.623108	145.520000
413.716766	145.720000
413.810364	146.200000
413.904022	145.540000
413.997650	145.140000
414.091309	145.680000
414.184906	145.560000
414.278564	144.940000
414.372192	145.520000
414.465851	145.800000
414.559479	145.580000
414.653107	146.120000
414.746735	146.080000
414.840393	145.860000
414.934021	146.320000
415.027649	145.920000
415.121277	145.600000
415.214935	146.120000
415.308563	145.860000
415.402191	145.180000
415.495850	145.420000
415.589478	145.120000
415.683136	144.520000
415.776733	144.720000
415.870422	145.300000
415.964020	144.900000
416.057678	144.960000
416.151306	145.280000
416.244965	145.060000
416.338562	144.780000
416.432251	145.400000
416.525848	145.980000
416.619507	146.000000
416.713165	146.400000
416.806793	146.180000
416.900421	146.120000
416.994080	145.400000
417.087708	145.260000
417.181366	144.680000
417.274994	144.980000
417.368622	145.260000
417.462280	145.700000
417.555908	145.800000
417.649567	145.800000
417.743195	145.600000
417.836853	145.480000
417.930481	145.640000
418.024170	145.620000
418.117767	146.340000
418.211426	146.940000
418.305054	146.980000
418.398712	146.160000
418.492340	146.300000
418.585999	146.280000
418.679626	146.040000
418.773285	145.880000
418.866913	146.480000
418.960571	146.760000
419.054230	146.860000
419.147858	146.980000
419.241516	147.280000
419.335144	147.320000
419.428802	146.880000
419.522461	146.400000
419.616089	145.700000
419.709747	145.280000
419.803375	145.080000
419.897034	145.100000
419.990662	145.040000
420.084320	145.760000
420.177979	146.540000
420.271606	146.680000
420.365295	147.280000
420.458893	147.560000
420.552582	147.620000
420.646210	147.080000
420.739868	146.800000
420.833496	146.080000
420.927155	145.820000
421.020782	145.240000
421.114471	144.800000
421.208069	144.880000
421.301758	145.180000
421.395386	145.280000
421.489044	145.520000
421.582703	145.780000
421.676361	146.360000
421.769989	146.100000
421.863647	146.260000
421.957306	146.240000
422.050934	146.560000
422.144592	146.280000
422.238251	146.100000
422.331909	145.940000
422.425537	145.840000
422.519196	145.720000
422.612854	145.420000
422.706543	145.420000
422.800140	145.600000
422.893829	145.320000
422.987457	144.800000
423.081146	144.920000
423.174744	145.800000
423.268433	145.320000
423.362061	145.360000
423.455750	145.660000
423.549347	145.480000
423.643036	144.520000
423.736664	145.160000
423.830353	145.080000
423.924011	145.380000
424.017639	145.140000
424.111298	145.300000
424.204956	144.980000
424.298615	145.340000
424.392273	144.960000
424.485931	145.140000
424.579559	145.260000
424.673218	145.160000
424.766876	144.960000
424.860535	144.740000
424.954193	144.720000
425.047882	145.200000
425.141510	145.260000
425.235199	145.340000
425.328796	145.400000
425.422485	145.560000
425.516113	144.640000
425.609802	144.760000
425.703430	144.800000
425.797119	144.800000
425.890747	144.660000
425.984436	145.000000
426.078064	144.980000
426.171753	144.840000
426.265411	145.140000
426.359070	145.500000
426.452728	145.660000
426.546356	145.760000
426.640015	145.420000
426.733673	145.140000
426.827332	144.660000
426.920990	145.360000
427.014648	144.520000
427.108307	145.020000
427.201965	145.540000
427.295624	145.800000
427.389282	144.940000
427.482941	145.660000
427.576630	145.600000
427.670258	145.020000
427.763947	144.900000
427.857574	145.120000
427.951263	145.440000
428.044922	145.220000
428.138611	145.340000
428.232239	145.900000
428.325928	146.200000
428.419556	146.060000
428.513245	146.180000
428.606903	146.120000
428.700562	145.400000
428.794220	144.680000
428.887878	144.200000
428.981537	144.180000
429.075195	144.500000
429.168854	145.020000
429.262512	145.020000
429.356201	145.540000
429.449860	145.840000
429.543518	145.560000
429.637177	145.860000
429.730835	146.040000
429.824493	145.540000
429.918182	145.580000
430.011810	145.060000
430.105530	143.880000
430.199158	144.080000
430.292847	144.240000
430.386475	143.860000
430.480164	143.940000
430.573792	144.200000
430.667511	144.200000
430.761139	144.400000
430.854828	144.900000
430.948456	145.120000
431.042145	145.600000
431.135834	145.260000
431.229492	145.140000
431.323151	145.180000
431.416809	145.440000
431.510468	145.560000
431.604156	145.800000
431.697815	145.860000
431.791473	145.440000
431.885132	145.340000
431.978821	145.520000
432.072479	145.740000
432.166138	146.120000
432.259827	146.160000
432.353485	146.580000
432.447174	146.340000
432.540802	145.880000
432.634491	145.680000
432.728149	145.820000
432.821838	146.220000
432.915466	146.060000
433.009186	146.420000
433.102814	145.700000
433.196503	145.660000
433.290131	145.180000
433.383850	145.460000
433.477509	145.480000
433.571167	146.440000
433.664856	146.420000
433.758514	146.720000
433.852173	146.320000
433.945862	146.300000
434.039520	145.980000
434.133179	145.800000
434.226868	145.500000
434.320526	145.220000
434.414185	145.960000
434.507874	145.520000
434.601562	145.640000
434.695221	145.200000
434.788910	145.620000
434.882538	145.040000
434.976257	144.840000
435.069885	145.100000
435.163574	145.300000
435.257233	144.900000
435.350922	144.760000
435.444580	144.780000
435.538269	144.320000
435.631897	144.460000
435.725616	145.280000
435.819275	145.480000
435.912964	146.100000
436.006622	146.640000
436.100311	147.000000
436.193970	146.100000
436.287628	145.600000
436.381317	145.340000
436.474976	144.920000
436.568665	144.060000
436.662323	144.500000
436.756012	144.760000
436.849670	144.260000
436.943390	143.900000
437.037018	144.080000
437.130737	143.900000
437.224365	143.620000
437.318085	144.160000
437.411713	144.460000
437.505432	145.040000
437.599060	145.560000
437.692780	146.380000
437.786407	146.360000
437.880127	146.540000
437.973755	146.080000
438.067474	145.780000
438.161133	145.540000
438.254822	146.120000
438.348480	145.720000
438.442169	146.320000
438.535828	146.460000
438.629517	146.240000
438.723175	145.360000
438.816864	146.020000
438.910553	145.400000
439.004211	144.920000
439.097900	144.700000
439.191559	145.020000
439.285248	144.540000
439.378906	144.840000
439.472626	145.120000
439.566284	145.040000
439.659973	145.400000
439.753632	145.420000
439.847321	145.920000
439.940979	146.000000
440.034698	146.340000
440.128326	145.480000
440.222046	145.400000
440.315674	144.400000
440.409393	144.340000
440.503082	144.040000
440.596741	144.520000
440.690430	144.760000
440.784088	144.600000
440.877777	144.320000
440.971466	144.360000
441.065125	144.220000
441.158813	143.980000
441.252502	144.600000
441.346161	144.800000
441.439850	145.040000
441.533539	144.740000
441.627197	145.040000
441.720886	144.760000
441.814606	145.140000
441.908234	145.400000
442.001953	145.440000
442.095612	145.420000
442.189301	145.740000
442.282959	145.620000
442.376678	144.880000
442.470306	145.960000
442.564026	145.620000
442.657684	145.740000
442.751404	145.760000
442.845032	146.700000
442.938751	145.720000
443.032440	146.220000
443.126099	145.760000
443.219788	145.920000
443.313477	145.580000
443.407166	146.140000
443.500824	145.980000
443.594513	146.080000
443.688202	146.060000
443.781891	145.480000
443.875549	144.900000
443.969238	145.180000
444.062927	145.300000
444.156647	144.940000
444.250275	145.700000
444.343994	146.140000
444.437653	145.800000
444.531372	145.840000
444.625031	145.980000
444.718719	145.320000
444.812378	145.000000
444.906097	145.100000
444.999756	144.800000
445.093445	144.680000
445.187103	144.880000
445.280823	145.540000
445.374512	145.180000
445.468201	145.240000
445.561859	145.060000
445.655548	144.980000
445.749237	144.280000
445.842926	144.480000
445.936615	145.300000
446.030304	145.420000
446.123962	145.740000
446.217651	145.820000
446.311340	145.980000
446.405029	145.000000
446.498749	144.860000
446.592407	144.540000
446.686096	144.760000
446.779755	144.900000
446.873474	145.160000
446.967133	145.360000
447.060852	144.960000
447.154510	144.560000
447.248230	144.240000
447.341858	144.500000
447.435577	144.260000
447.529236	144.520000
447.622955	144.740000
447.716644	145.020000
447.810333	144.920000
447.904022	145.740000
447.997711	145.780000
448.091400	146.140000
448.185059	146.120000
448.278748	146.400000
448.372437	145.880000
448.466125	146.140000
448.559814	145.860000
448.653503	145.980000
448.747192	145.940000
448.840912	145.940000
448.934570	145.580000
449.028290	145.960000
449.121948	145.440000
449.215637	144.880000
449.309296	144.840000
449.403015	145.060000
449.496674	144.920000
449.590393	145.020000
449.684052	145.320000
449.777771	146.140000
449.871429	145.860000
449.965149	145.640000
450.058838	145.800000
450.152527	146.220000
450.246216	145.480000
450.339905	145.580000
450.433594	145.460000
450.527283	146.240000
450.620972	145.600000
450.714661	145.620000
450.808350	145.860000
450.902039	146.140000
450.995728	145.540000
451.089417	145.060000
451.183105	145.080000
451.276794	145.700000
451.370514	145.340000
451.464172	144.620000
451.557892	145.000000
451.651550	145.120000
451.745270	144.400000
451.838928	143.980000
451.932648	144.500000
452.026306	144.900000
452.120026	144.460000
452.213684	144.600000
452.307404	145.120000
452.401062	145.300000
452.494781	145.320000
452.588470	145.260000
452.682159	145.280000
452.775848	145.440000
452.869537	144.780000
452.963226	144.540000
453.056915	144.600000
453.150604	144.560000
453.244293	144.400000
453.337982	145.240000
453.431671	145.400000
453.525360	146.200000
453.619049	145.940000
453.712769	145.840000
453.806427	145.100000
453.900146	145.140000
453.993805	144.380000
454.087555	145.180000
454.181213	145.320000
454.274933	145.540000
454.368591	145.280000
454.462311	145.500000
454.555969	144.660000
454.649689	145.340000
454.743347	145.340000
454.837067	145.960000
454.930756	146.300000
455.024445	146.740000
455.118134	146.120000
455.211853	146.460000
455.305542	146.260000
455.399231	145.900000
455.492920	145.720000
455.586609	145.740000
455.680298	145.700000
455.773987	145.200000
455.867676	145.200000
455.961365	145.580000
456.055084	145.480000
456.148773	145.220000
456.242493	145.360000
456.336151	145.440000
456.429871	145.360000
456.523529	145.780000
456.617249	145.540000
456.710907	145.940000
456.804626	145.900000
456.898315	145.320000
456.992035	144.980000
457.085693	144.820000
457.179413	144.240000
457.273102	144.840000
457.366791	145.080000
457.460480	145.660000
457.554199	146.600000
457.647888	146.840000
457.741577	146.320000
457.835266	146.680000
457.928955	146.420000
458.022644	146.180000
458.116364	146.300000
458.210052	146.220000
458.303741	146.040000
458.397461	145.560000
458.491119	144.840000
458.584839	144.720000
458.678528	144.600000
458.772247	144.320000
458.865906	144.480000
458.959625	145.540000
459.053284	145.560000
459.147003	145.340000
459.240692	146.020000
459.334412	146.000000
459.428070	145.520000
459.521790	145.440000
459.615479	145.660000
459.709198	146.000000
459.802887	145.640000
459.896576	145.460000
459.990265	145.660000
460.083954	145.760000
460.177673	144.800000
460.271362	145.180000
460.365051	145.180000
460.458740	144.780000
460.552429	144.440000
460.646149	144.340000
460.739838	143.980000
460.833527	144.300000
460.927246	144.380000
461.020905	144.420000
461.114655	144.640000
461.208313	145.020000
461.302032	144.340000
461.395691	144.580000
461.489441	144.720000
461.583099	144.580000
461.676819	144.320000
461.770477	144.840000
461.864197	144.220000
461.957916	144.160000
462.051605	143.960000
462.145294	144.920000
462.238983	144.560000
462.332703	145.360000
462.426392	146.120000
462.520081	146.180000
462.613770	145.400000
462.707489	145.880000
462.801178	145.720000
462.894867	144.940000
462.988556	145.040000
463.082275	145.280000
463.175964	144.840000
463.269684	145.080000
463.363342	145.180000
463.457092	144.900000
463.550751	145.280000
463.644470	145.600000
463.738129	145.260000
463.831879	145.320000
463.925537	145.900000
464.019257	145.840000
464.112946	145.700000
464.206665	145.800000
464.300323	145.720000
464.394043	145.160000
464.487762	144.660000
464.581451	145.000000
464.675140	144.960000
464.768829	145.240000
464.862549	145.520000
464.956238	145.800000
465.049927	145.780000
465.143646	145.900000
465.237335	145.460000
465.331024	145.780000
465.424713	145.760000
465.518433	145.140000
465.612152	144.680000
465.705811	144.760000
465.799561	144.500000
465.893219	144.260000
465.986938	144.780000
466.080597	144.780000
466.174347	145.180000
466.268005	145.300000
466.361725	145.240000
466.455414	145.060000
466.549133	145.040000
466.642792	145.200000
466.736542	144.760000
466.830231	144.700000
466.923920	144.460000
467.017609	144.680000
467.111328	144.000000
467.205017	144.320000
467.298706	144.420000
467.392426	144.580000
467.486115	144.820000
467.579803	144.860000
467.673523	145.060000
467.767212	145.220000
467.860901	145.360000
467.954651	145.440000
468.048309	146.100000
468.142029	146.180000
468.235718	146.140000
468.329437	145.960000
468.423096	146.140000
468.516846	145.560000
468.610504	145.340000
468.704224	145.080000
468.797913	145.040000
468.891632	144.540000
468.985291	144.620000
469.079010	144.600000
469.172729	144.140000
469.266418	144.900000
469.360107	145.260000
469.453827	145.140000
469.547516	145.380000
469.641205	146.020000
469.734924	145.760000
469.828613	146.020000
469.922302	146.320000
470.016022	146.260000
470.109711	146.260000
470.203430	145.740000
470.297150	144.720000
470.390808	144.960000
470.484558	144.240000
470.578217	144.720000
470.671936	145.360000
470.765625	146.220000
470.859344	145.860000
470.953003	146.740000
471.046753	146.540000
471.140411	145.540000
471.234131	145.620000
471.327820	146.080000
471.421539	145.840000
471.515228	145.220000
471.608948	145.860000
471.702637	145.200000
471.796326	144.600000
471.890045	144.760000
471.983734	145.120000
472.077423	144.680000
472.171143	145.080000
472.264832	145.500000
472.358521	145.220000
472.452240	145.160000
472.545929	145.840000
472.639648	146.020000
472.733337	146.260000
472.827057	146.400000
472.920746	146.460000
473.014465	146.600000
473.108124	146.520000
473.201874	146.400000
473.295532	146.400000
473.389252	146.460000
473.482941	146.540000
473.576660	146.140000
473.670319	145.540000
473.764069	145.640000
473.857727	145.760000
473.951477	145.820000
474.045166	146.320000
474.138855	146.520000
474.232574	146.300000
474.326263	146.400000
474.419952	146.480000
474.513672	146.220000
474.607361	146.260000
474.701050	146.600000
474.794769	146.700000
474.888458	146.660000
474.982178	146.720000
475.075867	146.600000
475.169586	146.560000
475.263275	146.380000
475.356995	145.740000
475.450653	145.560000
475.544403	145.600000
475.638062	146.240000
475.731812	145.840000
475.825470	146.000000
475.919189	145.940000
476.012878	146.100000
476.106598	145.220000
476.200256	145.320000
476.294006	145.300000
476.387695	145.500000
476.481384	145.360000
476.575104	145.540000
476.668793	145.160000
476.762512	144.880000
476.856201	145.400000
476.949890	145.460000
477.043610	144.880000
477.137299	145.480000
477.230988	145.900000
477.324707	145.280000
477.418396	145.640000
477.512146	145.800000
477.605804	145.420000
477.699524	145.620000
477.793213	145.600000
477.886932	145.360000
477.980591	145.340000
478.074341	145.500000
478.167999	144.920000
478.261749	145.100000
478.355408	144.860000
478.449127	145.400000
478.542816	146.160000
478.636536	147.000000
478.730225	147.000000
478.823944	147.440000
478.917633	147.380000
479.011322	147.160000
479.105042	146.840000
479.198730	147.020000
479.292450	146.660000
479.386139	146.720000
479.479828	146.660000
479.573547	146.820000
479.667267	146.520000
479.760925	146.540000
479.854675	146.260000
479.948334	146.100000
480.042084	145.480000
480.135742	145.800000
480.229462	145.700000
480.323151	146.040000
480.416870	145.280000
480.510529	145.580000
480.604279	144.920000
480.697937	145.440000
480.791656	144.860000
480.885345	145.180000
480.979065	144.840000
481.072754	145.420000
481.166473	145.500000
481.260132	145.640000
481.353882	145.840000
481.447540	146.280000
481.541260	146.320000
481.635010	145.520000
481.728668	145.600000
481.822388	145.520000
481.916077	145.380000
482.009796	145.060000
482.103485	145.520000
482.197205	145.780000
482.290863	146.080000
482.384613	145.620000
482.478271	145.420000
482.571991	145.240000
482.665680	144.680000
482.759399	145.060000
482.853058	145.800000
482.946808	145.800000
483.040466	145.820000
483.134216	145.980000
483.227875	145.180000
483.321594	145.180000
483.415283	145.020000
483.509003	144.660000
483.602661	144.400000
483.696411	144.620000
483.790070	144.280000
483.883789	144.600000
483.977478	144.940000
484.071198	145.020000
484.164917	144.760000
484.258606	144.460000
484.352325	144.840000
484.445984	145.220000
484.539734	145.480000
484.633392	145.180000
484.727142	145.820000
484.820801	145.300000
484.914520	145.160000
485.008209	145.600000
485.101929	146.320000
485.195587	145.540000
485.289337	145.620000
485.382996	145.300000
485.476715	144.960000
485.570404	145.240000
485.664124	145.460000
485.757782	145.980000
485.851532	146.060000
485.945190	145.700000
486.038910	145.680000
486.132599	146.200000
486.226318	145.300000
486.319977	144.920000
486.413727	145.680000
486.507446	144.940000
486.601105	144.140000
486.694855	144.300000
486.788513	144.340000
486.882233	143.840000
486.975922	144.220000
487.069641	144.480000
487.163300	144.280000
487.257050	145.560000
487.350708	145.340000
487.444427	145.000000
487.538116	145.140000
487.631836	145.440000
487.725494	144.880000
487.819214	145.200000
487.912903	145.160000
488.006622	145.360000
488.100281	145.720000
488.194031	145.600000
488.287689	145.840000
488.381409	146.600000
488.475098	146.420000
488.568817	146.500000
488.662476	146.180000
488.756226	145.600000
488.849945	144.680000
488.943604	144.860000
489.037354	145.000000
489.131012	145.100000
489.224731	145.340000
489.318390	145.440000
489.412140	145.180000
489.505798	144.940000
489.599518	144.440000
489.693207	144.320000
489.786926	144.440000
489.880585	144.460000
489.974335	144.540000
490.067993	146.040000
490.161713	146.440000
490.255371	147.200000
490.349121	147.520000
490.442780	147.060000
490.536499	145.920000
490.630188	145.620000
490.723907	144.980000
490.817566	144.880000
490.911285	145.020000
491.004974	145.060000
491.098694	144.800000
491.192413	145.440000
491.286102	145.520000
491.379822	145.700000
491.473480	145.840000
491.567200	146.100000
491.660889	145.340000
491.754608	145.080000
491.848267	144.960000
491.941986	144.780000
492.035675	144.580000
492.129395	145.100000
492.223053	144.820000
492.316772	145.140000
492.410461	145.160000
492.504181	145.520000
492.597839	145.040000
492.691559	145.620000
492.785248	145.500000
492.878967	145.660000
492.972626	145.300000
493.066345	145.580000
493.160034	144.880000
493.253754	144.540000
493.347412	144.140000
493.441132	144.480000
493.534882	144.840000
493.628540	145.220000
493.722260	145.760000
493.815918	146.120000
493.909668	146.360000
494.003326	146.660000
494.097046	146.540000
494.190704	146.120000
494.284454	146.320000
494.378113	146.280000
494.471832	145.420000
494.565491	145.340000
494.659210	145.640000
494.752899	145.260000
494.846619	144.860000
494.940277	145.400000
495.033997	145.540000
495.127686	145.200000
495.221405	145.060000
495.315063	145.320000
495.408783	145.040000
495.502441	145.060000
495.596191	145.100000
495.689850	145.080000
495.783569	145.340000
495.877228	145.460000
495.970947	145.440000
496.064697	145.400000
496.158356	146.540000
496.252075	146.340000
496.345734	146.260000
496.439453	146.860000
496.533142	147.360000
496.626862	147.220000
496.720520	147.300000
496.814240	147.600000
496.907898	147.140000
497.001617	146.900000
497.095306	146.300000
497.189026	145.900000
497.282684	145.840000
497.376404	146.160000
497.470062	145.500000
497.563782	145.380000
497.657471	145.600000
497.751190	144.880000
497.844849	144.640000
497.938568	145.380000
498.032227	145.480000
498.125946	145.340000
498.219635	145.440000
498.313354	145.800000
498.407074	145.200000
498.500732	145.560000
498.594452	145.940000
498.688110	145.880000
498.781830	145.180000
498.875519	145.240000
498.969238	145.000000
499.062897	144.600000
499.156616	145.100000
499.250275	145.280000
499.343994	145.280000
499.437653	145.160000
499.531372	145.320000
499.625061	145.480000
499.718781	145.880000
499.812439	146.300000
499.906158	146.260000
499.999817	145.940000
500.093536	145.320000
500.187195	145.220000
500.280914	145.340000
500.374573	145.400000
500.468323	145.360000
500.561981	146.020000
500.655701	145.360000
500.749420	145.240000
500.843079	145.500000
500.936798	145.680000
501.030457	145.740000
501.124176	146.300000
501.217834	146.240000
501.311554	145.800000
501.405212	145.760000
501.498962	144.840000
501.592621	144.680000
501.686340	145.040000
501.779999	145.440000
501.873718	145.600000
501.967377	146.060000
502.061096	146.180000
502.154755	145.520000
502.248474	145.360000
502.342133	145.380000
502.435852	145.520000
502.529510	146.180000
502.623230	146.920000
502.716888	146.200000
502.810608	146.220000
502.904266	146.520000
502.997986	145.780000
503.091705	145.200000
503.185364	145.580000
503.279083	145.780000
503.372772	145.320000
503.466492	144.860000
503.560150	144.940000
503.653870	145.040000
503.747528	144.800000
503.841248	144.800000
503.934906	145.540000
504.028625	145.320000
504.122284	145.900000
504.216003	146.540000
504.309662	146.220000
504.403381	146.420000
504.497040	146.620000
504.590759	145.940000
504.684418	145.560000
504.778137	146.380000
504.871796	146.300000
504.965515	146.040000
505.059174	145.920000
505.152893	145.620000
505.246521	145.120000
505.340240	144.540000
505.433899	144.680000
505.527618	145.060000
505.621338	145.380000
505.714996	145.320000
505.808716	145.280000
505.902374	145.900000
505.996094	145.960000
506.089752	145.600000
506.183472	145.740000
506.277130	145.860000
506.370850	145.700000
506.464508	145.580000
506.558228	145.840000
506.651886	145.640000
506.745605	145.820000
506.839264	145.420000
506.932983	145.640000
507.026611	145.640000
507.120331	145.980000
507.213989	145.660000
507.307709	145.860000
507.401367	145.680000
507.495087	146.280000
507.588745	145.920000
507.682465	146.740000
507.776123	146.600000
507.869843	146.420000
507.963531	145.820000
508.057190	146.360000
508.150909	145.440000
508.244568	145.520000
508.338287	145.560000
508.431946	145.300000
508.525665	144.960000
508.619324	145.200000
508.713013	145.280000
508.806671	145.580000
508.900391	146.520000
508.994049	146.560000
509.087769	146.560000
509.181427	146.740000
509.275146	146.480000
509.368774	145.500000
509.462494	145.500000
509.556152	145.660000
509.649872	145.780000
509.743530	145.860000
509.837250	146.060000
509.930878	145.980000
510.024597	145.520000
510.118256	145.280000
510.211975	145.400000
510.305695	145.480000
510.399353	145.720000
510.493042	146.400000
510.586700	146.460000
510.680420	146.940000
510.774078	146.500000
510.867798	146.480000
510.961426	145.760000
511.055145	145.580000
511.148804	144.880000
511.242523	145.260000
511.336151	145.440000
511.429871	146.140000
511.523529	146.120000
511.617249	146.000000
511.710876	145.820000
511.804596	144.900000
511.898254	144.480000
511.991974	144.520000
512.085632	144.600000
512.179321	144.820000
512.272949	145.600000
512.366699	145.940000
512.460327	145.880000
512.554077	146.620000
512.647766	146.440000
512.741394	146.160000
512.835144	146.560000
512.928772	146.220000
513.022461	146.000000
513.116150	146.000000
513.209839	146.280000
513.303467	145.440000
513.397217	145.420000
513.490845	144.920000
513.584595	144.800000
513.678223	144.180000
513.771912	143.740000
513.865601	143.920000
513.959290	143.860000
514.052917	143.920000
514.146667	144.960000
514.240295	145.680000
514.333984	146.080000
514.427673	145.940000
514.521362	146.340000
514.614990	145.500000
514.708740	145.460000
514.802368	145.320000
514.896057	145.700000
514.989746	145.980000
515.083435	145.880000
515.177124	146.180000
515.270752	146.000000
515.364502	146.000000
515.458130	145.820000
515.551819	145.900000
515.645508	145.300000
515.739197	145.300000
515.832825	145.200000
515.926575	144.960000
516.020203	145.240000
516.113892	145.940000
516.207520	145.840000
516.301270	145.840000
516.394897	146.060000
516.488586	146.400000
516.582275	146.420000
516.675964	146.140000
516.769592	146.360000
516.863281	146.760000
516.956970	146.940000
517.050659	146.300000
517.144287	146.520000
517.238037	146.260000
517.331665	145.280000
517.425354	144.580000
517.519043	144.680000
517.612732	145.140000
517.706421	145.100000
517.800049	145.080000
517.893738	144.920000
517.987427	144.880000
518.081116	144.540000
518.174744	144.360000
518.268433	145.000000
518.362122	145.620000
518.455811	145.600000
518.549438	146.160000
518.643127	146.960000
518.736816	146.400000
518.830505	146.080000
518.924133	145.900000
519.017822	145.700000
519.111511	145.440000
519.205200	145.840000
519.298828	145.700000
519.392517	145.460000
519.486206	145.580000
519.579895	145.600000
519.673523	145.400000
519.767212	145.180000
519.860901	145.860000
519.954590	145.440000
520.048279	144.960000
520.141907	145.000000
520.235596	146.280000
520.329224	146.540000
520.422974	146.580000
520.516602	146.480000
520.610291	145.980000
520.703918	145.300000
520.797607	144.840000
520.891296	144.820000
520.984985	145.540000
521.078613	146.180000
521.172302	145.660000
521.265930	146.560000
521.359680	146.980000
521.453308	146.460000
521.546997	146.400000
521.640625	146.660000
521.734314	145.740000
521.827942	145.600000
521.921692	145.840000
522.015320	145.940000
522.109009	145.860000
522.202698	145.960000
522.296326	145.680000
522.390015	145.660000
522.483704	145.500000
522.577393	145.420000
522.671021	145.340000
522.764709	145.180000
522.858337	145.580000
522.952026	145.620000
523.045654	146.100000
523.139404	146.780000
523.233032	147.280000
523.326721	146.760000
523.420349	146.640000
523.514038	146.300000
523.607666	146.140000
523.701355	145.320000
523.795044	145.240000
523.888733	145.360000
523.982361	145.620000
524.076050	145.120000
524.169678	145.960000
524.263367	145.860000
524.356995	145.780000
524.450684	145.560000
524.544373	145.440000
524.638062	145.340000
524.731750	145.640000
524.825378	145.520000
524.919067	145.080000
525.012695	145.240000
525.106384	144.580000
525.200012	144.680000
525.293701	144.660000
525.387329	144.960000
525.481018	145.000000
525.574646	145.780000
525.668396	145.580000
525.762024	145.940000
525.855713	146.300000
525.949341	145.660000
526.043030	145.300000
526.136658	145.020000
526.230347	144.760000
526.323975	144.500000
526.417664	145.000000
526.511292	145.140000
526.604980	145.480000
526.698608	145.480000
526.792297	145.660000
526.885925	145.820000
526.979614	145.960000
527.073303	145.780000
527.166931	145.860000
527.260620	146.000000
527.354309	146.300000
527.447998	146.100000
527.541626	145.900000
527.635315	145.620000
527.728943	145.860000
527.822632	145.960000
527.916260	146.000000
528.009949	146.480000
528.103577	146.440000
528.197266	145.480000
528.290894	145.420000
528.384583	145.380000
528.478210	145.160000
528.571899	145.640000
528.665527	146.220000
528.759216	146.220000
528.852844	146.460000
528.946533	146.520000
529.040161	146.320000
529.133850	145.860000
529.227478	145.820000
529.321167	145.660000
529.414856	146.000000
529.508484	146.380000
529.602173	146.540000
529.695801	146.200000
529.789490	146.160000
529.883057	145.600000
529.976746	145.720000
530.070374	146.120000
530.164062	146.260000
530.257690	146.280000
530.351379	146.540000
530.445007	146.180000
530.538696	145.540000
530.632324	145.660000
530.726013	145.340000
530.819641	145.240000
530.913330	145.100000
531.006958	145.020000
531.100647	145.180000
531.194275	145.500000
531.287964	145.320000
531.381592	145.080000
531.475220	145.480000
531.568848	145.240000
531.662537	145.080000
531.756226	145.620000
531.849854	145.760000
531.943542	145.720000
532.037170	145.160000
532.130859	145.680000
532.224487	144.980000
532.318176	144.700000
532.411804	145.220000
532.505432	145.720000
532.599060	145.060000
532.692749	145.220000
532.786377	145.900000
532.880066	144.800000
532.973694	144.360000
533.067383	144.600000
533.161011	144.780000
533.254639	144.240000
533.348267	144.440000
533.441956	144.940000
533.535583	144.720000
533.629272	144.820000
533.722900	144.580000
533.816589	144.640000
533.910156	145.120000
534.003845	144.900000
534.097534	145.080000
534.191162	145.800000
534.284851	146.060000
534.378479	145.420000
534.472107	145.860000
534.565735	145.620000
534.659424	145.580000
534.753052	145.900000
534.846741	145.460000
534.940369	145.820000
535.033997	145.800000
535.127625	145.560000
535.221313	145.820000
535.314941	146.080000
535.408630	145.120000
535.502197	145.520000
535.595886	145.380000
535.689514	144.960000
535.783203	145.220000
535.876831	146.080000
535.970459	145.800000
536.064087	145.540000
536.157776	145.720000
536.251404	145.780000
536.345093	145.400000
536.438721	145.400000
536.532349	146.080000
536.626038	145.700000
536.719666	145.920000
536.813293	145.960000
536.906921	145.700000
537.000610	145.760000
537.094238	146.120000
537.187866	146.000000
537.281494	145.840000
537.375183	146.420000
537.468811	146.100000
537.562439	145.760000
537.656067	145.660000
537.749756	145.900000
537.843384	146.260000
537.937012	146.400000
538.030640	146.360000
538.124329	146.460000
538.217896	146.880000
538.311584	146.300000
538.405212	146.180000
538.498901	146.540000
538.592468	147.040000
538.686157	146.480000
538.779785	145.920000
538.873413	145.620000
538.967102	145.140000
539.060730	144.640000
539.154358	144.700000
539.247986	145.300000
539.341675	145.740000
539.435242	146.040000
539.528931	145.940000
539.622559	145.960000
539.716187	146.180000
539.809814	145.840000
539.903503	145.680000
539.997070	145.760000
540.090759	145.500000
540.184387	145.080000
540.278015	145.600000
540.371643	145.720000
540.465332	145.600000
540.558899	145.720000
540.652588	145.960000
540.746216	145.600000
540.839844	145.620000
540.933472	145.620000
541.027100	145.500000
541.120728	145.420000
541.214417	145.740000
541.308044	145.940000
541.401672	145.700000
541.495300	145.640000
541.588928	145.640000
541.682617	145.160000
541.776184	144.940000
541.869873	145.440000
541.963440	145.700000
542.057129	145.480000
542.150757	145.520000
542.244385	145.040000
542.338013	144.400000
542.431641	144.260000
542.525269	144.360000
542.618958	144.920000
542.712524	145.380000
542.806213	145.340000
542.899780	145.560000
542.993469	145.220000
543.087036	144.580000
543.180725	144.520000
543.274292	145.120000
543.367981	145.100000
543.461548	145.800000
543.555237	146.260000
543.648926	146.780000
543.742493	147.420000
543.836182	147.500000
543.929749	146.980000
544.023437	146.620000
544.117004	146.320000
544.210693	145.520000
544.304260	145.480000
544.397949	145.620000
544.491516	145.920000
544.585205	145.780000
544.678772	145.760000
544.772461	146.100000
544.866028	145.800000
544.959717	145.840000
545.053284	145.580000
545.146973	145.740000
545.240540	145.400000
545.334229	145.920000
545.427795	145.740000
545.521423	146.020000
545.615051	145.960000
545.708679	146.280000
545.802307	146.040000
545.895935	146.040000
545.989624	146.720000
546.083191	146.220000
546.176880	145.920000
546.270447	145.780000
546.364136	146.220000
546.457703	145.360000
546.551331	145.680000
546.644958	146.140000
546.738586	146.320000
546.832214	145.900000
546.925842	145.860000
547.019409	146.160000
547.113098	145.460000
547.206665	145.480000
547.300354	145.280000
547.393921	145.660000
547.487549	145.700000
547.581177	145.820000
547.674805	145.800000
547.768433	145.220000
547.862061	145.060000
547.955627	144.560000
548.049316	144.920000
548.142883	145.240000
548.236572	145.920000
548.330139	146.040000
548.423767	146.080000
548.517456	145.980000
548.611023	146.020000
548.704651	145.960000
548.798279	146.080000
548.891907	147.000000
548.985474	146.840000
549.079163	146.820000
549.172729	146.620000
549.266357	146.140000
549.359985	145.560000
549.453613	144.980000
549.547180	144.740000
549.640869	145.360000
549.734436	145.640000
549.828064	146.060000
549.921631	146.380000
550.015320	145.860000
550.108887	146.080000
550.202515	145.880000
550.296143	144.800000
550.389771	145.240000
550.483337	145.600000
550.576965	145.140000
550.670593	145.560000
550.764221	146.160000
550.857849	145.800000
550.951477	145.440000
551.045105	145.100000
551.138672	144.920000
551.232300	144.560000
551.325928	144.900000
551.419556	145.200000
551.513123	145.440000
551.606750	145.160000
551.700378	145.540000
551.794006	145.400000
551.887573	145.080000
551.981201	145.600000
552.074768	145.480000
552.168457	145.120000
552.262024	145.900000
552.355652	146.020000
552.449219	146.120000
552.542847	146.420000
552.636475	146.220000
552.730103	145.020000
552.823669	145.160000
552.917297	144.520000
553.010864	144.740000
553.104553	145.180000
553.198181	145.220000
553.291748	145.440000
553.385376	145.760000
553.478943	145.340000
553.572571	145.460000
553.666199	145.920000
553.759827	145.620000
553.853394	145.120000
553.947021	145.340000
554.040588	145.360000
554.134216	145.220000
554.227783	145.960000
554.321411	146.760000
554.415039	146.560000
554.508667	146.300000
554.602234	146.380000
554.695862	145.360000
554.789429	145.080000
554.883057	145.240000
554.976624	145.240000
555.070251	145.200000
555.163818	145.440000
555.257507	145.340000
555.351074	145.180000
555.444702	146.340000
555.538330	146.140000
555.631897	146.720000
555.725525	146.460000
555.819092	146.320000
555.912720	145.180000
556.006287	145.780000
556.099915	145.240000
556.193481	145.400000
556.287109	145.640000
556.380676	145.480000
556.474304	145.180000
556.567871	145.660000
556.661499	145.340000
556.755066	145.420000
556.848694	145.580000
556.942261	145.220000
557.035889	145.180000
557.129517	145.540000
557.223145	145.880000
557.316711	146.140000
557.410339	146.480000
557.503906	146.100000
557.597473	146.140000
557.691040	145.620000
557.784668	145.360000
557.878296	145.080000
557.971863	145.440000
558.065491	145.320000
558.159058	145.160000
558.252686	145.780000
558.346252	146.840000
558.439880	146.300000
558.533447	146.120000
558.627075	146.040000
558.720642	145.380000
558.814270	144.920000
558.907837	145.060000
559.001465	144.980000
559.095032	145.900000
559.188660	146.340000
559.282227	145.560000
559.375854	145.980000
559.469360	146.040000
559.562988	145.700000
559.656555	145.360000
559.750183	145.960000
559.843750	145.740000
559.937378	145.820000
560.030945	145.660000
560.124573	0.000000
560.218140	0.000000
560.311707	0.000000
560.405334	0.000000
560.498901	0.000000
560.592529	0.000000
560.686096	0.000000
560.779724	0.000000
560.873291	0.000000
560.966858	0.000000
561.060425	0.000000
561.154053	0.000000
561.247620	0.000000
561.341248	0.000000
561.434814	0.000000
561.528381	0.000000
561.621948	0.000000
561.715576	0.000000
561.809143	0.000000
561.902771	0.000000
561.996277	0.000000
562.089905	0.000000
562.183472	0.000000
562.277100	0.000000
