Model Number: SPM-002-B   
Serial Number: 70087108
Firmware Version: 004.15.4
Exposure Time: 100000.000000us
Data Taken on: 11-12-2020 18:52:20.542
Wavelength	Amplitude
221.570786	0.000000
221.663406	0.000000
221.756027	0.000000
221.848648	0.000000
221.941269	0.000000
222.033905	0.000000
222.126526	0.000000
222.219162	0.000000
222.311798	0.000000
222.404419	0.000000
222.497055	0.000000
222.589676	0.000000
222.682312	0.000000
222.774933	0.000000
222.867569	0.000000
222.960205	0.000000
223.052841	0.000000
223.145462	0.000000
223.238098	0.000000
223.330734	0.000000
223.423386	0.000000
223.516022	0.000000
223.608658	0.000000
223.701309	0.000000
223.793945	0.000000
223.886581	0.000000
223.979218	0.000000
224.071869	0.000000
224.164505	0.000000
224.257156	0.000000
224.349792	0.000000
224.442444	0.000000
224.535095	0.000000
224.627747	0.000000
224.720398	0.000000
224.813034	0.000000
224.905685	0.000000
224.998337	146.040000
225.090988	145.420000
225.183640	145.120000
225.276291	144.640000
225.368942	145.420000
225.461594	145.640000
225.554245	145.940000
225.646912	146.360000
225.739578	147.400000
225.832230	147.240000
225.924896	146.460000
226.017548	146.900000
226.110199	147.280000
226.202866	146.360000
226.295532	146.280000
226.388184	146.240000
226.480850	145.500000
226.573517	144.840000
226.666168	145.220000
226.758835	145.740000
226.851501	146.500000
226.944183	146.840000
227.036850	146.720000
227.129517	146.760000
227.222183	146.900000
227.314850	146.660000
227.407516	146.760000
227.500198	147.520000
227.592865	147.300000
227.685532	146.620000
227.778214	146.300000
227.870880	146.620000
227.963562	146.920000
228.056229	147.300000
228.148926	147.100000
228.241592	147.980000
228.334274	147.440000
228.426956	146.860000
228.519638	147.060000
228.612305	146.960000
228.704987	146.740000
228.797668	146.980000
228.890350	146.740000
228.983032	146.160000
229.075714	146.920000
229.168396	146.400000
229.261108	146.000000
229.353790	146.000000
229.446472	146.580000
229.539169	146.120000
229.631851	145.940000
229.724533	146.240000
229.817230	146.780000
229.909912	147.080000
230.002609	147.260000
230.095306	147.420000
230.187988	147.400000
230.280685	146.800000
230.373383	146.080000
230.466095	146.180000
230.558792	146.320000
230.651474	146.340000
230.744171	146.420000
230.836868	146.000000
230.929581	146.060000
231.022278	146.080000
231.114975	145.900000
231.207672	145.960000
231.300369	146.640000
231.393082	146.820000
231.485779	146.760000
231.578506	147.080000
231.671204	147.380000
231.763916	147.280000
231.856613	146.820000
231.949326	146.980000
232.042023	146.640000
232.134735	146.380000
232.227448	145.880000
232.320160	146.220000
232.412872	146.160000
232.505585	147.320000
232.598297	147.660000
232.691010	147.780000
232.783722	147.560000
232.876450	148.140000
232.969162	147.200000
233.061874	146.700000
233.154587	146.400000
233.247314	146.300000
233.340027	145.660000
233.432739	145.920000
233.525467	146.000000
233.618179	146.460000
233.710907	146.340000
233.803635	146.460000
233.896347	146.200000
233.989090	146.820000
234.081818	146.560000
234.174545	146.940000
234.267258	146.400000
234.359985	146.660000
234.452713	146.360000
234.545441	146.560000
234.638168	146.140000
234.730896	146.760000
234.823639	146.620000
234.916367	146.380000
235.009094	146.380000
235.101822	146.560000
235.194580	146.460000
235.287308	146.240000
235.380051	146.100000
235.472778	146.300000
235.565521	146.460000
235.658249	146.140000
235.750992	146.080000
235.843719	145.960000
235.936462	145.920000
236.029205	145.480000
236.121948	145.260000
236.214691	145.760000
236.307449	146.480000
236.400192	146.340000
236.492935	146.180000
236.585678	146.380000
236.678421	146.240000
236.771164	145.880000
236.863907	146.200000
236.956665	146.580000
237.049408	148.340000
237.142151	147.660000
237.234909	148.460000
237.327652	148.280000
237.420410	148.040000
237.513153	146.940000
237.605927	147.340000
237.698669	146.540000
237.791428	146.020000
237.884186	146.720000
237.976944	146.020000
238.069702	146.400000
238.162445	146.220000
238.255203	146.580000
238.347961	146.740000
238.440720	146.960000
238.533478	146.620000
238.626266	146.620000
238.719025	146.700000
238.811783	146.580000
238.904541	146.540000
238.997314	146.320000
239.090073	146.140000
239.182831	146.200000
239.275604	146.700000
239.368362	146.460000
239.461136	147.140000
239.553909	147.160000
239.646667	146.960000
239.739441	146.220000
239.832214	146.760000
239.925003	146.240000
240.017761	147.060000
240.110535	147.760000
240.203308	147.440000
240.296082	147.420000
240.388855	147.580000
240.481628	147.300000
240.574417	147.300000
240.667191	147.760000
240.759964	147.300000
240.852737	147.020000
240.945526	146.640000
241.038315	146.180000
241.131088	145.880000
241.223877	146.380000
241.316650	146.460000
241.409439	146.940000
241.502228	146.640000
241.595001	147.220000
241.687790	146.940000
241.780579	147.020000
241.873367	146.900000
241.966141	147.340000
242.058929	146.600000
242.151718	146.840000
242.244507	147.300000
242.337311	146.700000
242.430099	147.140000
242.522903	147.500000
242.615692	146.840000
242.708481	146.540000
242.801270	147.160000
242.894073	146.480000
242.986862	146.480000
243.079651	147.240000
243.172455	147.000000
243.265244	146.880000
243.358063	146.840000
243.450867	147.200000
243.543655	146.680000
243.636459	146.580000
243.729263	146.840000
243.822067	147.100000
243.914856	146.940000
244.007660	147.100000
244.100464	147.180000
244.193268	146.540000
244.286072	146.040000
244.378876	145.380000
244.471680	145.160000
244.564499	145.720000
244.657318	146.400000
244.750122	146.940000
244.842926	146.860000
244.935745	147.360000
245.028549	146.700000
245.121368	146.200000
245.214172	146.120000
245.306992	146.740000
245.399796	146.240000
245.492615	146.600000
245.585434	146.680000
245.678253	146.660000
245.771072	146.260000
245.863892	146.720000
245.956711	146.820000
246.049530	146.620000
246.142349	146.260000
246.235168	146.500000
246.327988	147.000000
246.420807	146.560000
246.513626	146.800000
246.606445	146.840000
246.699280	147.000000
246.792099	146.580000
246.884918	146.460000
246.977753	145.980000
247.070587	146.040000
247.163422	145.780000
247.256241	145.700000
247.349075	146.320000
247.441895	146.520000
247.534729	146.740000
247.627563	146.580000
247.720383	146.920000
247.813217	147.000000
247.906052	147.080000
247.998886	146.920000
248.091736	147.060000
248.184570	146.600000
248.277405	146.220000
248.370239	147.100000
248.463074	148.400000
248.555908	148.560000
248.648743	148.520000
248.741592	148.820000
248.834427	147.980000
248.927261	146.260000
249.020111	146.580000
249.112946	147.320000
249.205795	146.640000
249.298630	147.080000
249.391495	147.400000
249.484344	146.940000
249.577179	146.900000
249.670029	147.460000
249.762878	147.780000
249.855728	148.400000
249.948563	148.520000
250.041412	147.440000
250.134262	147.580000
250.227112	147.180000
250.319962	146.840000
250.412827	146.760000
250.505692	146.780000
250.598541	146.520000
250.691391	146.060000
250.784241	145.960000
250.877106	146.040000
250.969955	146.180000
251.062805	146.500000
251.155670	147.160000
251.248520	147.080000
251.341385	146.940000
251.434235	147.080000
251.527100	146.540000
251.619965	146.060000
251.712814	146.720000
251.805695	147.000000
251.898560	146.980000
251.991425	147.120000
252.084290	147.360000
252.177155	146.660000
252.270020	146.120000
252.362885	146.100000
252.455750	146.180000
252.548615	145.900000
252.641479	146.100000
252.734360	146.100000
252.827240	145.780000
252.920105	145.920000
253.012970	145.940000
253.105850	145.820000
253.198715	145.720000
253.291595	146.200000
253.384460	145.660000
253.477341	145.500000
253.570221	145.520000
253.663086	145.560000
253.755966	145.900000
253.848846	146.020000
253.941727	146.260000
254.034592	146.300000
254.127472	145.920000
254.220367	145.960000
254.313248	146.600000
254.406128	146.240000
254.499008	146.660000
254.591904	147.800000
254.684784	148.080000
254.777664	147.720000
254.870544	147.520000
254.963440	147.020000
255.056335	146.720000
255.149216	145.940000
255.242111	146.320000
255.334991	146.820000
255.427887	147.020000
255.520767	146.940000
255.613663	147.360000
255.706558	146.780000
255.799438	146.420000
255.892334	146.040000
255.985229	146.100000
256.078125	145.640000
256.171021	145.820000
256.263916	146.600000
256.356812	146.960000
256.449707	146.900000
256.542603	147.020000
256.635498	147.440000
256.728394	146.900000
256.821289	146.800000
256.914215	147.060000
257.007080	147.480000
257.100006	147.240000
257.192932	147.900000
257.285828	148.040000
257.378723	147.780000
257.471619	147.480000
257.564545	146.980000
257.657440	146.740000
257.750336	146.880000
257.843262	146.680000
257.936157	147.600000
258.029053	148.200000
258.121979	148.320000
258.214874	148.060000
258.307800	147.960000
258.400696	146.820000
258.493622	146.900000
258.586517	146.060000
258.679443	146.400000
258.772339	146.400000
258.865265	146.420000
258.958160	145.880000
259.051086	146.700000
259.144012	146.420000
259.236938	147.160000
259.329834	147.300000
259.422791	147.200000
259.515717	146.620000
259.608612	146.340000
259.701538	146.040000
259.794464	145.540000
259.887390	145.560000
259.980316	145.460000
260.073212	145.620000
260.166138	144.800000
260.259064	145.520000
260.351990	146.180000
260.444916	146.480000
260.537842	146.620000
260.630768	147.400000
260.723694	147.380000
260.816620	146.960000
260.909546	146.940000
261.002472	146.340000
261.095398	145.780000
261.188354	145.800000
261.281281	145.560000
261.374207	145.560000
261.467133	146.560000
261.560089	147.200000
261.653015	146.780000
261.745972	147.340000
261.838867	147.740000
261.931824	147.540000
262.024780	146.740000
262.117706	147.080000
262.210663	147.020000
262.303589	146.680000
262.396515	146.760000
262.489471	147.880000
262.582397	147.580000
262.675354	147.320000
262.768280	147.220000
262.861237	147.340000
262.954163	147.120000
263.047119	147.180000
263.140045	147.000000
263.233002	147.060000
263.325958	146.780000
263.418884	146.340000
263.511841	146.620000
263.604797	146.720000
263.697723	147.060000
263.790680	146.900000
263.883636	147.220000
263.976593	146.920000
264.069550	147.320000
264.162476	146.740000
264.255463	146.920000
264.348419	146.640000
264.441376	146.960000
264.534332	146.440000
264.627289	146.800000
264.720245	147.060000
264.813202	146.800000
264.906158	147.000000
264.999115	147.440000
265.092072	146.940000
265.185028	147.140000
265.277985	147.400000
265.370941	146.800000
265.463898	146.460000
265.556854	146.480000
265.649811	145.600000
265.742798	145.460000
265.835754	145.600000
265.928711	146.260000
266.021667	146.720000
266.114655	146.840000
266.207611	147.280000
266.300568	146.960000
266.393585	146.000000
266.486511	146.080000
266.579498	145.400000
266.672485	145.140000
266.765442	145.260000
266.858429	146.260000
266.951385	145.640000
267.044342	146.420000
267.137329	146.380000
267.230316	146.700000
267.323273	145.980000
267.416260	147.060000
267.509216	146.860000
267.602203	146.840000
267.695160	147.300000
267.788147	147.540000
267.881134	146.800000
267.974091	147.140000
268.067078	147.040000
268.160065	146.380000
268.253052	146.100000
268.346008	146.080000
268.438995	145.760000
268.531982	146.160000
268.624969	145.940000
268.717987	146.280000
268.810944	146.420000
268.903961	146.600000
268.996948	146.140000
269.089905	146.860000
269.182892	146.960000
269.275879	147.220000
269.368866	146.740000
269.461853	146.900000
269.554871	146.620000
269.647858	146.540000
269.740845	146.680000
269.833832	147.280000
269.926819	147.140000
270.019806	147.240000
270.112793	146.840000
270.205811	146.880000
270.298798	146.560000
270.391785	147.000000
270.484772	146.480000
270.577789	146.760000
270.670776	146.220000
270.763763	146.260000
270.856750	145.760000
270.949768	145.700000
271.042786	145.680000
271.135773	145.680000
271.228790	146.040000
271.321808	146.160000
271.414795	145.900000
271.507782	145.680000
271.600800	145.420000
271.693817	145.560000
271.786804	145.980000
271.879822	146.880000
271.972809	146.660000
272.065826	147.320000
272.158844	146.560000
272.251831	146.920000
272.344849	146.480000
272.437866	146.480000
272.530853	146.300000
272.623871	146.720000
272.716888	145.700000
272.809906	146.120000
272.902893	146.200000
272.995911	145.840000
273.088928	145.840000
273.181946	146.260000
273.274963	145.880000
273.367981	145.700000
273.460999	146.160000
273.554047	146.620000
273.647003	146.900000
273.740051	146.820000
273.833069	147.420000
273.926086	147.060000
274.019135	146.400000
274.112152	146.180000
274.205170	146.340000
274.298187	146.540000
274.391205	146.120000
274.484222	146.520000
274.577240	146.620000
274.670258	146.560000
274.763306	146.040000
274.856323	147.000000
274.949341	146.920000
275.042358	147.120000
275.135406	146.940000
275.228424	147.080000
275.321442	146.580000
275.414490	145.880000
275.507507	145.940000
275.600525	146.380000
275.693573	145.960000
275.786591	145.900000
275.879669	146.380000
275.972656	146.020000
276.065735	145.960000
276.158752	146.860000
276.251801	147.500000
276.344818	147.700000
276.437866	147.740000
276.530884	147.480000
276.623932	146.460000
276.716980	146.320000
276.809998	146.120000
276.903046	146.260000
276.996094	146.700000
277.089111	147.520000
277.182159	147.880000
277.275208	147.700000
277.368256	147.280000
277.461304	147.100000
277.554321	146.120000
277.647369	145.880000
277.740417	146.200000
277.833466	146.480000
277.926514	146.380000
278.019562	147.420000
278.112610	146.540000
278.205688	146.680000
278.298706	146.640000
278.391785	146.400000
278.484833	145.880000
278.577881	146.060000
278.670929	146.160000
278.763977	146.100000
278.857025	146.580000
278.950073	146.780000
279.043121	147.060000
279.136169	146.780000
279.229248	146.460000
279.322296	146.480000
279.415344	146.000000
279.508392	145.740000
279.601440	145.600000
279.694519	145.860000
279.787567	145.060000
279.880615	145.420000
279.973694	145.400000
280.066742	145.660000
280.159790	145.800000
280.252869	145.960000
280.345917	145.840000
280.438995	145.820000
280.532074	145.460000
280.625122	145.520000
280.718201	146.640000
280.811279	146.780000
280.904327	146.720000
280.997406	147.060000
281.090454	147.100000
281.183533	146.080000
281.276581	145.960000
281.369659	146.120000
281.462738	146.100000
281.555786	146.240000
281.648865	146.600000
281.741943	146.560000
281.835022	146.960000
281.928070	146.740000
282.021149	146.360000
282.114227	146.360000
282.207306	146.400000
282.300385	146.240000
282.393433	146.460000
282.486511	146.700000
282.579590	146.980000
282.672668	147.400000
282.765747	147.180000
282.858856	146.640000
282.951904	146.720000
283.045013	146.700000
283.138062	146.880000
283.231171	147.180000
283.324249	147.980000
283.417328	147.760000
283.510406	147.180000
283.603485	146.740000
283.696564	146.340000
283.789642	145.900000
283.882751	145.820000
283.975830	146.720000
284.068909	146.540000
284.161987	147.340000
284.255066	147.000000
284.348175	147.100000
284.441254	146.760000
284.534332	147.260000
284.627441	146.820000
284.720520	146.800000
284.813599	146.760000
284.906708	146.780000
284.999786	146.180000
285.092896	145.620000
285.185974	146.820000
285.279053	146.400000
285.372192	146.480000
285.465240	147.180000
285.558380	147.720000
285.651459	146.960000
285.744568	148.080000
285.837677	147.700000
285.930756	147.560000
286.023865	147.100000
286.116943	146.780000
286.210052	146.460000
286.303162	146.300000
286.396240	146.380000
286.489349	146.200000
286.582458	146.480000
286.675568	146.080000
286.768646	146.120000
286.861755	146.140000
286.954865	147.180000
287.047974	146.840000
287.141083	146.720000
287.234161	146.580000
287.327271	146.160000
287.420380	145.980000
287.513519	146.000000
287.606598	146.140000
287.699738	146.620000
287.792816	146.600000
287.885956	146.540000
287.979034	146.760000
288.072174	146.660000
288.165283	146.480000
288.258392	146.860000
288.351501	146.300000
288.444611	146.380000
288.537720	147.000000
288.630859	147.120000
288.723969	147.120000
288.817078	147.520000
288.910187	147.320000
289.003296	146.420000
289.096436	145.960000
289.189545	145.660000
289.282654	145.200000
289.375763	145.920000
289.468903	146.680000
289.562012	147.280000
289.655121	147.320000
289.748260	147.760000
289.841400	147.360000
289.934509	147.060000
290.027649	146.840000
290.120728	146.440000
290.213898	146.080000
290.306976	145.820000
290.400146	145.840000
290.493256	145.260000
290.586395	145.820000
290.679535	146.160000
290.772644	145.980000
290.865784	145.460000
290.958893	145.800000
291.052032	145.700000
291.145172	145.720000
291.238281	145.680000
291.331421	146.180000
291.424561	146.600000
291.517670	146.180000
291.610809	146.180000
291.703949	146.460000
291.797089	146.080000
291.890228	145.480000
291.983337	145.820000
292.076477	145.400000
292.169617	145.820000
292.262756	146.140000
292.355927	146.100000
292.449036	145.600000
292.542206	146.120000
292.635315	146.060000
292.728485	146.160000
292.821625	146.160000
292.914764	147.440000
293.007904	147.260000
293.101044	147.060000
293.194183	146.900000
293.287323	147.040000
293.380463	146.240000
293.473602	146.120000
293.566742	146.380000
293.659882	146.960000
293.753021	147.300000
293.846191	147.320000
293.939331	147.120000
294.032471	146.860000
294.125610	146.420000
294.218781	146.660000
294.311920	146.960000
294.405060	147.160000
294.498230	146.960000
294.591370	146.860000
294.684540	145.960000
294.777679	145.340000
294.870850	145.640000
294.963959	145.540000
295.057159	145.440000
295.150299	145.900000
295.243469	146.080000
295.336609	145.620000
295.429779	145.960000
295.522919	146.260000
295.616089	146.440000
295.709229	147.100000
295.802399	147.360000
295.895569	146.920000
295.988708	146.640000
296.081879	146.760000
296.175018	146.140000
296.268188	146.200000
296.361359	146.900000
296.454529	147.240000
296.547668	146.740000
296.640839	147.060000
296.734009	146.800000
296.827179	146.560000
296.920319	146.720000
297.013519	146.740000
297.106659	146.620000
297.199860	146.900000
297.292999	146.880000
297.386200	146.540000
297.479309	146.440000
297.572510	146.440000
297.665680	145.840000
297.758850	145.420000
297.852020	145.140000
297.945190	145.120000
298.038361	144.680000
298.131531	145.720000
298.224701	146.000000
298.317871	145.940000
298.411072	145.680000
298.504242	145.860000
298.597412	145.080000
298.690582	145.360000
298.783752	145.260000
298.876923	145.740000
298.970093	145.820000
299.063293	146.400000
299.156464	146.600000
299.249634	147.240000
299.342834	147.520000
299.436005	147.780000
299.529205	147.280000
299.622345	147.060000
299.715576	146.360000
299.808716	146.320000
299.901917	146.280000
299.995117	146.700000
300.088287	146.820000
300.181488	146.800000
300.274658	146.500000
300.367828	146.360000
300.461029	146.180000
300.554199	146.400000
300.647400	146.700000
300.740601	147.100000
300.833771	147.080000
300.926971	147.260000
301.020142	146.520000
301.113342	146.260000
301.206512	146.140000
301.299713	146.680000
301.392914	146.680000
301.486084	147.180000
301.579285	147.220000
301.672516	147.600000
301.765686	147.140000
301.858887	146.900000
301.952057	146.620000
302.045288	147.040000
302.138458	146.660000
302.231659	146.280000
302.324860	146.180000
302.418060	145.980000
302.511261	145.660000
302.604462	145.800000
302.697662	145.700000
302.790863	145.880000
302.884064	145.720000
302.977264	145.760000
303.070465	145.760000
303.163666	146.660000
303.256866	146.600000
303.350067	146.800000
303.443268	146.840000
303.536469	146.860000
303.629669	146.240000
303.722870	146.340000
303.816071	146.480000
303.909271	146.440000
304.002472	145.600000
304.095673	145.260000
304.188934	144.480000
304.282104	145.320000
304.375336	145.400000
304.468506	145.780000
304.561768	146.020000
304.654968	147.100000
304.748169	146.440000
304.841370	146.400000
304.934601	146.580000
305.027802	146.340000
305.121002	146.000000
305.214233	145.820000
305.307434	145.760000
305.400665	146.460000
305.493866	146.500000
305.587097	146.580000
305.680298	146.440000
305.773499	147.180000
305.866730	146.620000
305.959930	147.220000
306.053162	147.540000
306.146393	147.280000
306.239594	146.320000
306.332825	146.000000
306.426025	146.300000
306.519287	145.560000
306.612488	145.980000
306.705719	146.200000
306.798920	146.460000
306.892181	145.620000
306.985352	145.620000
307.078613	145.120000
307.171844	145.440000
307.265045	145.120000
307.358276	144.880000
307.451508	145.240000
307.544739	145.820000
307.637970	145.440000
307.731201	145.540000
307.824402	146.400000
307.917633	146.460000
308.010864	146.520000
308.104095	147.020000
308.197327	147.320000
308.290558	147.120000
308.383789	146.900000
308.477020	146.600000
308.570251	145.760000
308.663483	145.100000
308.756714	144.940000
308.849976	144.900000
308.943176	145.380000
309.036438	145.560000
309.129639	145.600000
309.222900	145.820000
309.316101	145.780000
309.409393	145.280000
309.502625	145.300000
309.595856	145.760000
309.689087	145.560000
309.782318	145.720000
309.875580	145.980000
309.968811	146.300000
310.062042	146.060000
310.155273	145.780000
310.248535	146.080000
310.341766	145.920000
310.434998	145.340000
310.528259	145.300000
310.621490	145.640000
310.714722	145.040000
310.807983	145.060000
310.901215	145.380000
310.994476	146.060000
311.087708	145.720000
311.181000	146.260000
311.274200	146.000000
311.367462	146.120000
311.460693	145.360000
311.553986	146.340000
311.647186	146.440000
311.740479	147.380000
311.833710	147.220000
311.926971	147.460000
312.020203	146.440000
312.113464	146.200000
312.206726	145.360000
312.299957	145.920000
312.393219	146.500000
312.486481	146.860000
312.579712	146.540000
312.672974	146.680000
312.766235	146.260000
312.859497	146.020000
312.952759	146.040000
313.045990	146.920000
313.139252	146.360000
313.232513	146.640000
313.325775	146.460000
313.419037	146.180000
313.512299	145.060000
313.605530	145.920000
313.698822	145.960000
313.792053	146.080000
313.885345	145.900000
313.978577	146.300000
314.071869	145.760000
314.165131	145.800000
314.258392	146.020000
314.351654	146.380000
314.444916	145.880000
314.538177	146.540000
314.631439	146.820000
314.724701	146.340000
314.817993	146.360000
314.911255	146.960000
315.004517	146.280000
315.097778	146.000000
315.191040	146.600000
315.284302	146.880000
315.377594	146.460000
315.470856	146.540000
315.564117	145.940000
315.657379	145.300000
315.750671	144.720000
315.843933	145.080000
315.937195	144.980000
316.030518	145.300000
316.123749	145.280000
316.217041	146.420000
316.310303	146.180000
316.403595	146.560000
316.496857	147.000000
316.590149	147.400000
316.683411	146.500000
316.776703	146.560000
316.869965	146.720000
316.963257	146.040000
317.056519	145.440000
317.149811	145.160000
317.243073	145.120000
317.336365	144.880000
317.429626	145.320000
317.522919	145.740000
317.616180	145.980000
317.709473	145.720000
317.802765	145.560000
317.896027	145.480000
317.989319	145.440000
318.082611	145.300000
318.175873	145.620000
318.269165	145.760000
318.362488	145.480000
318.455750	145.540000
318.549042	145.960000
318.642303	146.220000
318.735626	145.900000
318.828888	146.220000
318.922211	145.620000
319.015472	145.940000
319.108765	145.360000
319.202057	145.040000
319.295349	145.160000
319.388641	145.540000
319.481934	145.100000
319.575226	145.260000
319.668518	145.820000
319.761810	145.900000
319.855103	145.980000
319.948395	146.100000
320.041687	146.080000
320.134979	145.920000
320.228271	145.600000
320.321564	145.700000
320.414856	145.840000
320.508148	145.720000
320.601440	145.660000
320.694763	145.620000
320.788025	146.160000
320.881348	145.780000
320.974640	146.040000
321.067963	145.880000
321.161224	145.640000
321.254547	144.820000
321.347839	145.460000
321.441162	145.120000
321.534454	145.560000
321.627747	145.700000
321.721069	146.500000
321.814362	146.280000
321.907654	146.440000
322.000946	146.180000
322.094269	146.840000
322.187561	146.300000
322.280884	146.380000
322.374176	146.700000
322.467468	147.320000
322.560791	146.980000
322.654083	147.660000
322.747406	147.820000
322.840698	147.760000
322.934021	148.120000
323.027344	148.120000
323.120636	147.340000
323.213959	147.120000
323.307251	146.720000
323.400574	145.960000
323.493866	145.700000
323.587219	146.000000
323.680511	146.360000
323.773834	146.600000
323.867157	146.680000
323.960449	146.760000
324.053772	146.660000
324.147095	146.300000
324.240387	146.680000
324.333710	146.780000
324.427032	146.880000
324.520355	146.740000
324.613647	146.280000
324.706970	146.140000
324.800293	145.720000
324.893616	145.900000
324.986938	146.060000
325.080231	146.020000
325.173553	146.260000
325.266876	147.080000
325.360199	146.840000
325.453522	146.420000
325.546875	146.260000
325.640167	146.160000
325.733521	146.220000
325.826813	146.380000
325.920166	146.480000
326.013489	146.700000
326.106812	145.980000
326.200134	145.320000
326.293457	145.000000
326.386780	145.080000
326.480103	145.260000
326.573425	145.420000
326.666748	145.440000
326.760071	145.960000
326.853424	146.100000
326.946747	145.900000
327.040070	146.900000
327.133392	146.920000
327.226715	146.180000
327.320068	145.760000
327.413391	146.260000
327.506714	145.240000
327.600037	145.160000
327.693390	145.460000
327.786713	145.780000
327.880066	145.520000
327.973358	145.840000
328.066742	146.480000
328.160034	146.580000
328.253418	147.100000
328.346710	147.100000
328.440063	146.920000
328.533417	146.360000
328.626740	146.600000
328.720093	146.100000
328.813416	145.840000
328.906769	145.980000
329.000092	146.040000
329.093445	145.940000
329.186768	145.820000
329.280121	146.420000
329.373444	146.500000
329.466797	146.700000
329.560120	146.620000
329.653473	146.760000
329.746796	146.180000
329.840149	146.200000
329.933502	146.140000
330.026825	146.200000
330.120178	145.860000
330.213562	146.120000
330.306854	145.980000
330.400238	145.700000
330.493561	145.220000
330.586945	146.000000
330.680237	146.160000
330.773621	146.320000
330.866974	146.460000
330.960327	146.800000
331.053680	146.340000
331.147003	146.200000
331.240356	146.380000
331.333710	146.480000
331.427063	146.160000
331.520416	146.160000
331.613770	146.220000
331.707123	146.180000
331.800476	146.420000
331.893829	147.500000
331.987152	147.680000
332.080505	147.560000
332.173859	147.420000
332.267212	146.700000
332.360565	145.900000
332.453918	145.660000
332.547333	145.720000
332.640656	145.760000
332.734039	146.180000
332.827362	146.340000
332.920746	146.620000
333.014069	146.840000
333.107452	147.280000
333.200806	147.300000
333.294159	147.340000
333.387543	146.860000
333.480896	146.500000
333.574249	146.500000
333.667603	146.200000
333.760956	146.500000
333.854340	146.820000
333.947693	146.700000
334.041046	146.280000
334.134430	146.800000
334.227783	146.140000
334.321136	146.060000
334.414520	145.880000
334.507874	146.080000
334.601227	145.760000
334.694611	145.900000
334.787964	145.900000
334.881348	146.320000
334.974701	146.100000
335.068085	145.940000
335.161438	146.060000
335.254822	146.060000
335.348175	146.320000
335.441559	146.020000
335.534943	146.880000
335.628296	146.960000
335.721680	147.140000
335.815033	147.320000
335.908417	147.740000
336.001770	147.260000
336.095154	147.240000
336.188538	147.040000
336.281891	146.220000
336.375275	145.660000
336.468658	145.240000
336.562012	145.300000
336.655396	145.600000
336.748779	146.300000
336.842133	146.720000
336.935516	147.140000
337.028900	146.680000
337.122284	146.260000
337.215637	145.960000
337.309021	145.800000
337.402435	145.480000
337.495789	145.700000
337.589203	145.900000
337.682526	145.720000
337.775940	146.120000
337.869324	146.280000
337.962708	145.980000
338.056091	146.100000
338.149475	146.100000
338.242859	146.020000
338.336243	146.100000
338.429626	146.380000
338.523010	146.320000
338.616394	146.420000
338.709778	146.320000
338.803162	146.200000
338.896545	146.500000
338.989929	146.280000
339.083313	146.460000
339.176697	146.280000
339.270081	146.220000
339.363464	146.460000
339.456848	146.560000
339.550232	145.840000
339.643616	145.620000
339.737030	145.820000
339.830383	145.640000
339.923828	146.100000
340.017181	146.640000
340.110596	146.840000
340.203949	146.360000
340.297363	145.580000
340.390778	145.200000
340.484161	144.880000
340.577545	144.980000
340.670959	145.060000
340.764343	145.660000
340.857727	145.660000
340.951111	145.380000
341.044525	145.440000
341.137909	145.400000
341.231293	145.240000
341.324707	144.540000
341.418091	145.420000
341.511505	145.380000
341.604889	145.840000
341.698303	146.100000
341.791687	146.560000
341.885071	145.980000
341.978485	145.760000
342.071899	145.900000
342.165283	145.700000
342.258698	145.900000
342.352081	146.280000
342.445496	146.620000
342.538879	145.980000
342.632324	145.840000
342.725708	146.020000
342.819122	145.800000
342.912506	145.620000
343.005920	145.880000
343.099335	146.820000
343.192719	146.520000
343.286133	146.240000
343.379547	146.540000
343.472931	146.360000
343.566345	145.540000
343.659760	146.140000
343.753143	146.060000
343.846558	145.620000
343.939972	146.040000
344.033386	146.400000
344.126770	145.600000
344.220184	145.820000
344.313599	146.120000
344.407043	146.100000
344.500427	145.480000
344.593872	146.260000
344.687225	146.140000
344.780670	145.740000
344.874054	145.580000
344.967499	146.160000
345.060913	145.980000
345.154327	146.060000
345.247742	145.840000
345.341156	145.720000
345.434570	145.220000
345.527985	145.120000
345.621399	145.680000
345.714813	146.020000
345.808228	146.160000
345.901642	146.000000
345.995056	145.340000
346.088470	145.260000
346.181885	145.540000
346.275299	145.240000
346.368713	145.480000
346.462128	145.720000
346.555573	145.420000
346.648987	145.680000
346.742401	145.820000
346.835815	146.320000
346.929260	146.100000
347.022644	146.040000
347.116119	145.900000
347.209503	146.140000
347.302948	146.660000
347.396362	147.560000
347.489807	147.740000
347.583221	147.860000
347.676636	147.600000
347.770050	146.620000
347.863495	146.120000
347.956909	146.060000
348.050323	145.620000
348.143768	145.520000
348.237183	145.400000
348.330597	145.820000
348.424042	146.000000
348.517456	146.180000
348.610901	146.560000
348.704315	146.480000
348.797760	145.660000
348.891174	144.980000
348.984619	144.380000
349.078033	144.640000
349.171448	145.360000
349.264923	145.620000
349.358337	145.900000
349.451782	146.220000
349.545197	145.380000
349.638641	144.680000
349.732086	144.240000
349.825500	144.700000
349.918945	144.820000
350.012390	145.540000
350.105804	146.000000
350.199249	146.600000
350.292664	146.700000
350.386108	146.780000
350.479553	147.100000
350.572968	147.060000
350.666412	147.040000
350.759857	146.820000
350.853302	147.020000
350.946716	146.440000
351.040161	146.260000
351.133606	146.140000
351.227081	145.860000
351.320465	146.560000
351.413940	146.640000
351.507355	146.920000
351.600830	146.920000
351.694244	146.800000
351.787720	146.060000
351.881104	146.080000
351.974579	145.840000
352.067993	146.780000
352.161469	146.920000
352.254883	146.480000
352.348358	146.460000
352.441803	146.400000
352.535248	145.600000
352.628693	146.100000
352.722137	146.300000
352.815582	146.640000
352.909027	147.060000
353.002472	146.840000
353.095917	146.340000
353.189362	146.580000
353.282806	146.120000
353.376251	145.480000
353.469696	145.260000
353.563141	146.020000
353.656586	145.900000
353.750061	145.540000
353.843475	145.660000
353.936981	146.340000
354.030396	145.480000
354.123871	145.460000
354.217285	146.600000
354.310760	146.900000
354.404175	146.680000
354.497681	146.660000
354.591095	146.660000
354.684570	145.660000
354.777985	145.200000
354.871490	144.900000
354.964935	145.440000
355.058380	145.400000
355.151855	145.060000
355.245300	145.720000
355.338745	145.860000
355.432220	145.660000
355.525665	145.480000
355.619110	146.080000
355.712585	145.760000
355.806030	145.920000
355.899475	145.520000
355.992950	145.840000
356.086426	146.360000
356.179871	146.280000
356.273346	146.380000
356.366791	146.640000
356.460266	146.780000
356.553711	146.020000
356.647186	146.360000
356.740631	146.080000
356.834106	145.780000
356.927551	145.620000
357.021027	145.620000
357.114471	145.520000
357.207947	145.640000
357.301422	146.240000
357.394867	146.340000
357.488342	146.840000
357.581818	146.760000
357.675262	146.720000
357.768738	146.340000
357.862213	145.720000
357.955658	145.620000
358.049133	145.400000
358.142609	145.780000
358.236053	145.380000
358.329529	145.700000
358.423035	145.840000
358.516449	145.500000
358.609955	145.700000
358.703400	146.780000
358.796906	147.020000
358.890350	146.680000
358.983826	147.260000
359.077271	146.560000
359.170776	146.120000
359.264221	145.840000
359.357727	145.580000
359.451172	145.800000
359.544647	146.080000
359.638123	145.860000
359.731598	146.180000
359.825073	146.660000
359.918549	146.640000
360.012024	146.580000
360.105499	146.460000
360.198975	146.400000
360.292450	146.100000
360.385925	145.940000
360.479401	145.700000
360.572876	146.120000
360.666351	146.240000
360.759857	146.400000
360.853302	146.280000
360.946808	145.940000
361.040253	145.660000
361.133759	145.180000
361.227203	145.060000
361.320709	144.760000
361.414154	145.280000
361.507660	145.840000
361.601105	146.380000
361.694641	146.860000
361.788086	146.960000
361.881592	147.340000
361.975067	146.560000
362.068542	146.620000
362.162018	146.160000
362.255524	145.900000
362.348999	145.600000
362.442474	146.180000
362.535950	145.640000
362.629456	145.680000
362.722931	145.680000
362.816406	145.740000
362.909882	145.640000
363.003387	145.640000
363.096863	145.880000
363.190338	146.020000
363.283875	145.880000
363.377319	145.920000
363.470825	146.360000
363.564301	145.860000
363.657806	146.060000
363.751282	145.460000
363.844788	145.960000
363.938232	145.460000
364.031769	146.340000
364.125214	146.440000
364.218750	147.760000
364.312225	146.860000
364.405731	147.000000
364.499207	146.540000
364.592712	146.400000
364.686188	145.620000
364.779694	145.980000
364.873169	146.100000
364.966675	145.760000
365.060150	145.680000
365.153656	146.100000
365.247131	145.680000
365.340637	145.980000
365.434143	146.560000
365.527618	146.700000
365.621155	145.780000
365.714600	145.700000
365.808136	145.320000
365.901611	144.580000
365.995117	144.540000
366.088593	145.200000
366.182129	145.260000
366.275604	145.520000
366.369110	145.620000
366.462585	145.400000
366.556122	145.680000
366.649567	146.040000
366.743103	146.220000
366.836609	146.180000
366.930115	146.640000
367.023590	146.540000
367.117096	146.040000
367.210602	145.580000
367.304108	146.400000
367.397614	146.600000
367.491119	146.680000
367.584595	147.160000
367.678101	147.680000
367.771606	147.180000
367.865112	146.320000
367.958649	145.720000
368.052124	145.520000
368.145660	145.180000
368.239136	145.680000
368.332672	146.180000
368.426147	146.660000
368.519684	146.600000
368.613159	147.020000
368.706696	146.400000
368.800171	146.460000
368.893707	146.500000
368.987183	146.880000
369.080719	146.400000
369.174225	146.400000
369.267731	146.280000
369.361237	146.140000
369.454742	145.900000
369.548248	146.180000
369.641754	146.060000
369.735260	145.780000
369.828766	145.080000
369.922272	145.560000
370.015808	145.320000
370.109314	145.340000
370.202820	145.520000
370.296356	146.580000
370.389832	145.820000
370.483368	145.460000
370.576874	145.360000
370.670410	145.380000
370.763885	144.260000
370.857422	144.300000
370.950928	144.380000
371.044464	144.980000
371.137939	145.300000
371.231476	145.980000
371.324982	146.720000
371.418518	147.020000
371.512024	146.980000
371.605560	146.660000
371.699066	146.700000
371.792572	145.840000
371.886108	146.380000
371.979614	145.780000
372.073120	146.280000
372.166656	146.080000
372.260162	146.920000
372.353668	146.000000
372.447205	146.300000
372.540710	146.160000
372.634277	146.100000
372.727753	145.940000
372.821320	146.360000
372.914795	146.480000
373.008362	146.060000
373.101837	146.080000
373.195404	145.800000
373.288879	145.720000
373.382446	146.220000
373.475922	146.380000
373.569489	147.280000
373.662964	147.720000
373.756531	147.580000
373.850037	147.140000
373.943573	146.920000
374.037109	145.680000
374.130615	145.620000
374.224152	145.460000
374.317657	145.380000
374.411194	146.080000
374.504730	146.380000
374.598236	146.040000
374.691772	146.080000
374.785309	146.140000
374.878815	145.380000
374.972351	145.780000
375.065887	145.520000
375.159454	146.160000
375.252930	146.000000
375.346497	146.640000
375.440002	147.000000
375.533569	147.300000
375.627045	146.940000
375.720612	147.160000
375.814117	147.080000
375.907684	146.500000
376.001160	146.160000
376.094727	145.720000
376.188232	146.420000
376.281799	146.440000
376.375336	146.620000
376.468872	147.300000
376.562408	147.700000
376.655914	146.900000
376.749451	146.820000
376.842987	147.040000
376.936523	146.680000
377.030060	146.960000
377.123596	147.400000
377.217133	146.780000
377.310669	146.520000
377.404205	146.780000
377.497772	146.760000
377.591278	146.540000
377.684845	147.640000
377.778351	147.840000
377.871918	147.480000
377.965424	146.900000
378.058990	146.540000
378.152496	145.920000
378.246063	145.960000
378.339569	146.460000
378.433136	146.340000
378.526642	146.360000
378.620209	146.240000
378.713745	145.700000
378.807312	145.980000
378.900848	146.180000
378.994385	146.440000
379.087921	145.860000
379.181458	146.600000
379.274994	145.580000
379.368530	145.580000
379.462097	145.560000
379.555634	146.500000
379.649170	145.640000
379.742706	145.780000
379.836273	146.140000
379.929810	145.920000
380.023376	145.320000
380.116882	145.640000
380.210449	145.740000
380.303986	145.320000
380.397552	145.180000
380.491058	145.420000
380.584656	145.220000
380.678162	145.400000
380.771729	145.500000
380.865265	146.180000
380.958832	146.460000
381.052368	146.880000
381.145935	146.860000
381.239471	147.260000
381.333008	147.060000
381.426575	146.920000
381.520111	146.920000
381.613647	147.320000
381.707214	146.940000
381.800751	146.180000
381.894318	146.360000
381.987854	145.780000
382.081421	145.400000
382.174988	145.400000
382.268524	145.240000
382.362091	144.840000
382.455627	145.660000
382.549194	145.440000
382.642731	144.980000
382.736298	145.140000
382.829834	145.180000
382.923401	145.420000
383.016937	145.660000
383.110504	146.120000
383.204041	146.540000
383.297607	146.900000
383.391174	145.800000
383.484741	146.400000
383.578278	146.300000
383.671844	145.940000
383.765411	145.180000
383.858948	146.000000
383.952515	145.560000
384.046051	146.100000
384.139618	146.540000
384.233185	147.080000
384.326721	146.800000
384.420288	147.120000
384.513855	146.820000
384.607422	146.900000
384.700989	146.760000
384.794525	146.360000
384.888123	146.220000
384.981659	146.260000
385.075226	145.760000
385.168762	145.360000
385.262360	145.580000
385.355896	144.420000
385.449463	144.280000
385.542999	144.480000
385.636597	145.480000
385.730164	145.760000
385.823730	146.060000
385.917267	145.860000
386.010834	145.980000
386.104401	145.640000
386.197968	145.820000
386.291534	146.480000
386.385101	146.660000
386.478668	146.980000
386.572235	146.720000
386.665802	146.300000
386.759338	145.760000
386.852905	145.600000
386.946472	145.260000
387.040070	145.740000
387.133606	145.560000
387.227203	145.540000
387.320740	146.020000
387.414337	145.640000
387.507874	145.260000
387.601471	145.480000
387.695007	145.640000
387.788605	145.080000
387.882141	145.540000
387.975739	145.680000
388.069275	145.660000
388.162872	146.000000
388.256439	145.920000
388.350037	145.700000
388.443604	145.520000
388.537170	145.340000
388.630737	145.420000
388.724304	145.920000
388.817871	145.780000
388.911438	146.080000
389.005005	146.360000
389.098602	146.340000
389.192169	145.760000
389.285736	146.340000
389.379333	146.080000
389.472870	145.260000
389.566467	145.100000
389.660034	145.380000
389.753632	144.960000
389.847168	145.200000
389.940765	146.000000
390.034332	146.500000
390.127930	146.020000
390.221466	145.840000
390.315063	145.380000
390.408630	144.440000
390.502228	143.420000
390.595795	143.980000
390.689362	144.360000
390.782959	144.860000
390.876526	145.820000
390.970093	145.940000
391.063690	146.440000
391.157257	146.520000
391.250824	146.600000
391.344421	146.120000
391.437988	146.560000
391.531555	146.340000
391.625153	146.320000
391.718750	146.560000
391.812317	146.620000
391.905914	146.400000
391.999481	146.640000
392.093079	146.760000
392.186615	146.940000
392.280243	146.980000
392.373779	147.020000
392.467407	147.040000
392.560944	146.760000
392.654572	146.080000
392.748108	146.080000
392.841736	146.040000
392.935303	145.380000
393.028900	145.380000
393.122467	145.420000
393.216064	145.200000
393.309631	144.900000
393.403229	144.660000
393.496796	144.420000
393.590393	143.880000
393.683990	144.500000
393.777557	144.960000
393.871155	145.320000
393.964722	145.980000
394.058350	146.380000
394.151917	145.980000
394.245514	145.720000
394.339081	145.940000
394.432678	145.800000
394.526245	145.660000
394.619873	145.360000
394.713409	145.660000
394.807037	145.280000
394.900604	145.320000
394.994202	145.440000
395.087769	146.220000
395.181396	145.620000
395.274994	146.440000
395.368561	145.800000
395.462158	145.940000
395.555756	145.400000
395.649353	145.980000
395.742920	145.460000
395.836517	146.220000
395.930115	145.820000
396.023712	146.200000
396.117279	146.320000
396.210876	145.980000
396.304474	145.800000
396.398071	145.960000
396.491669	145.840000
396.585266	145.400000
396.678833	145.480000
396.772461	145.500000
396.866028	145.540000
396.959656	146.060000
397.053223	146.400000
397.146851	146.360000
397.240417	146.400000
397.334015	147.160000
397.427582	146.940000
397.521210	147.400000
397.614807	148.300000
397.708405	148.860000
397.802002	148.980000
397.895599	150.340000
397.989197	151.200000
398.082794	152.040000
398.176392	153.760000
398.269989	155.540000
398.363586	157.060000
398.457184	160.040000
398.550781	162.880000
398.644379	165.380000
398.737976	168.340000
398.831573	171.480000
398.925201	173.620000
399.018768	176.400000
399.112396	178.980000
399.205963	181.960000
399.299591	184.700000
399.393158	188.320000
399.486786	192.800000
399.580353	197.420000
399.673981	202.640000
399.767578	209.080000
399.861206	215.840000
399.954773	222.860000
400.048401	230.940000
400.141998	238.200000
400.235596	245.700000
400.329193	251.700000
400.422791	257.260000
400.516418	260.500000
400.610016	264.480000
400.703613	266.840000
400.797211	267.360000
400.890808	266.060000
400.984436	263.820000
401.078033	258.320000
401.171631	251.440000
401.265259	244.760000
401.358826	236.820000
401.452484	228.180000
401.546051	220.060000
401.639679	210.420000
401.733246	201.320000
401.826904	192.720000
401.920471	184.640000
402.014099	177.800000
402.107697	172.400000
402.201324	167.600000
402.294891	163.900000
402.388550	160.940000
402.482147	158.080000
402.575745	155.720000
402.669373	153.320000
402.762970	151.400000
402.856567	150.460000
402.950195	149.680000
403.043793	149.040000
403.137390	149.160000
403.231018	148.140000
403.324615	148.100000
403.418243	147.300000
403.511841	147.500000
403.605469	146.900000
403.699066	147.540000
403.792694	146.940000
403.886292	147.240000
403.979919	146.980000
404.073517	147.060000
404.167145	147.040000
404.260712	147.420000
404.354370	147.100000
404.447937	147.220000
404.541595	147.380000
404.635162	147.340000
404.728821	147.660000
404.822418	147.280000
404.916046	146.900000
405.009644	146.980000
405.103271	147.320000
405.196899	146.680000
405.290497	147.100000
405.384125	147.520000
405.477722	146.940000
405.571350	146.320000
405.664948	146.320000
405.758575	146.080000
405.852203	145.420000
405.945801	145.800000
406.039429	146.060000
406.133057	145.880000
406.226654	146.120000
406.320312	146.300000
406.413879	146.180000
406.507538	146.360000
406.601135	146.380000
406.694763	146.400000
406.788361	146.000000
406.882019	145.860000
406.975586	145.940000
407.069244	146.440000
407.162872	146.560000
407.256470	146.680000
407.350098	146.880000
407.443726	146.180000
407.537323	145.640000
407.630951	145.820000
407.724579	145.540000
407.818207	145.720000
407.911804	145.800000
408.005432	146.000000
408.099060	146.060000
408.192688	146.720000
408.286285	146.440000
408.379913	146.340000
408.473572	146.080000
408.567169	145.460000
408.660828	145.280000
408.754395	145.220000
408.848053	145.160000
408.941650	145.560000
409.035309	145.360000
409.128906	145.300000
409.222565	145.180000
409.316132	145.460000
409.409790	145.340000
409.503387	145.660000
409.597046	145.760000
409.690674	146.140000
409.784302	146.180000
409.877930	145.900000
409.971558	145.940000
410.065186	145.680000
410.158783	145.560000
410.252411	145.580000
410.346039	146.100000
410.439667	145.940000
410.533295	146.560000
410.626923	146.900000
410.720551	146.780000
410.814209	147.060000
410.907806	147.160000
411.001465	146.560000
411.095062	146.320000
411.188721	146.440000
411.282318	146.040000
411.375977	145.800000
411.469574	146.000000
411.563232	146.060000
411.656830	145.800000
411.750488	145.440000
411.844086	145.220000
411.937744	145.460000
412.031372	145.020000
412.125000	145.220000
412.218628	145.280000
412.312256	146.300000
412.405884	146.800000
412.499512	146.880000
412.593170	147.040000
412.686798	147.200000
412.780426	146.420000
412.874054	146.000000
412.967682	146.100000
413.061310	146.940000
413.154968	147.060000
413.248566	147.320000
413.342224	147.040000
413.435852	147.160000
413.529510	146.300000
413.623108	145.540000
413.716766	145.320000
413.810364	145.760000
413.904022	145.360000
413.997650	145.020000
414.091309	146.020000
414.184906	146.140000
414.278564	145.560000
414.372192	146.100000
414.465851	146.600000
414.559479	146.180000
414.653107	147.060000
414.746735	147.060000
414.840393	146.600000
414.934021	146.820000
415.027649	146.640000
415.121277	146.140000
415.214935	146.540000
415.308563	146.840000
415.402191	145.960000
415.495850	146.080000
415.589478	145.840000
415.683136	145.380000
415.776733	145.380000
415.870422	146.160000
415.964020	145.700000
416.057678	145.640000
416.151306	146.160000
416.244965	146.120000
416.338562	145.900000
416.432251	146.540000
416.525848	147.200000
416.619507	147.280000
416.713165	147.340000
416.806793	146.980000
416.900421	147.180000
416.994080	146.460000
417.087708	146.160000
417.181366	146.040000
417.274994	146.440000
417.368622	146.560000
417.462280	146.960000
417.555908	146.780000
417.649567	146.740000
417.743195	146.580000
417.836853	146.520000
417.930481	146.280000
418.024170	146.360000
418.117767	146.720000
418.211426	146.800000
418.305054	146.640000
418.398712	146.340000
418.492340	146.600000
418.585999	146.700000
418.679626	146.940000
418.773285	146.880000
418.866913	147.380000
418.960571	147.240000
419.054230	147.180000
419.147858	147.080000
419.241516	147.120000
419.335144	146.660000
419.428802	146.680000
419.522461	146.440000
419.616089	146.080000
419.709747	146.160000
419.803375	146.520000
419.897034	146.120000
419.990662	146.100000
420.084320	146.420000
420.177979	146.520000
420.271606	146.580000
420.365295	147.240000
420.458893	147.560000
420.552582	147.680000
420.646210	147.660000
420.739868	147.240000
420.833496	146.980000
420.927155	146.660000
421.020782	146.420000
421.114471	146.020000
421.208069	146.220000
421.301758	146.380000
421.395386	146.320000
421.489044	146.120000
421.582703	146.240000
421.676361	146.680000
421.769989	146.360000
421.863647	146.600000
421.957306	146.840000
422.050934	146.960000
422.144592	146.720000
422.238251	146.640000
422.331909	146.400000
422.425537	146.160000
422.519196	146.100000
422.612854	145.920000
422.706543	145.360000
422.800140	145.600000
422.893829	145.220000
422.987457	144.720000
423.081146	144.720000
423.174744	145.780000
423.268433	145.200000
423.362061	145.420000
423.455750	145.660000
423.549347	145.520000
423.643036	144.580000
423.736664	145.420000
423.830353	145.380000
423.924011	146.000000
424.017639	145.980000
424.111298	146.280000
424.204956	145.720000
424.298615	145.880000
424.392273	145.360000
424.485931	145.560000
424.579559	145.560000
424.673218	145.480000
424.766876	145.300000
424.860535	144.900000
424.954193	144.120000
425.047882	144.660000
425.141510	144.880000
425.235199	145.340000
425.328796	145.260000
425.422485	145.680000
425.516113	145.080000
425.609802	145.180000
425.703430	145.140000
425.797119	145.540000
425.890747	145.760000
425.984436	146.180000
426.078064	146.200000
426.171753	146.140000
426.265411	145.780000
426.359070	146.000000
426.452728	145.640000
426.546356	145.440000
426.640015	145.300000
426.733673	145.480000
426.827332	144.960000
426.920990	145.780000
427.014648	145.440000
427.108307	145.760000
427.201965	146.200000
427.295624	146.460000
427.389282	145.680000
427.482941	146.260000
427.576630	146.220000
427.670258	145.740000
427.763947	145.680000
427.857574	145.880000
427.951263	145.600000
428.044922	145.220000
428.138611	145.420000
428.232239	146.020000
428.325928	146.400000
428.419556	146.900000
428.513245	146.840000
428.606903	147.020000
428.700562	146.340000
428.794220	145.760000
428.887878	144.980000
428.981537	145.200000
429.075195	145.120000
429.168854	145.500000
429.262512	145.820000
429.356201	146.000000
429.449860	145.960000
429.543518	145.880000
429.637177	146.140000
429.730835	146.060000
429.824493	146.020000
429.918182	146.080000
430.011810	145.440000
430.105530	144.720000
430.199158	144.660000
430.292847	144.640000
430.386475	144.760000
430.480164	144.960000
430.573792	144.800000
430.667511	144.920000
430.761139	145.040000
430.854828	145.280000
430.948456	145.420000
431.042145	146.020000
431.135834	145.560000
431.229492	145.980000
431.323151	145.740000
431.416809	145.900000
431.510468	145.860000
431.604156	145.980000
431.697815	145.780000
431.791473	145.780000
431.885132	145.520000
431.978821	145.740000
432.072479	146.080000
432.166138	146.320000
432.259827	146.020000
432.353485	146.500000
432.447174	146.340000
432.540802	146.120000
432.634491	146.300000
432.728149	146.520000
432.821838	146.800000
432.915466	146.700000
433.009186	146.880000
433.102814	145.980000
433.196503	145.780000
433.290131	145.540000
433.383850	145.960000
433.477509	146.000000
433.571167	146.720000
433.664856	147.140000
433.758514	147.540000
433.852173	147.300000
433.945862	146.780000
434.039520	146.380000
434.133179	145.940000
434.226868	145.360000
434.320526	144.640000
434.414185	145.360000
434.507874	145.420000
434.601562	145.780000
434.695221	145.700000
434.788910	146.240000
434.882538	146.240000
434.976257	145.860000
435.069885	145.640000
435.163574	146.060000
435.257233	145.580000
435.350922	145.580000
435.444580	145.560000
435.538269	145.420000
435.631897	145.560000
435.725616	146.360000
435.819275	146.660000
435.912964	147.320000
436.006622	148.040000
436.100311	147.860000
436.193970	147.040000
436.287628	146.400000
436.381317	145.800000
436.474976	144.880000
436.568665	144.320000
436.662323	144.640000
436.756012	144.820000
436.849670	144.800000
436.943390	145.120000
437.037018	145.360000
437.130737	145.380000
437.224365	145.160000
437.318085	145.620000
437.411713	145.700000
437.505432	146.260000
437.599060	146.660000
437.692780	147.380000
437.786407	147.060000
437.880127	147.180000
437.973755	146.500000
438.067474	146.040000
438.161133	145.600000
438.254822	146.260000
438.348480	145.780000
438.442169	146.540000
438.535828	146.760000
438.629517	146.480000
438.723175	145.620000
438.816864	146.400000
438.910553	145.840000
439.004211	145.820000
439.097900	145.540000
439.191559	146.040000
439.285248	145.200000
439.378906	145.540000
439.472626	145.480000
439.566284	145.540000
439.659973	145.880000
439.753632	146.140000
439.847321	146.320000
439.940979	146.220000
440.034698	146.420000
440.128326	145.580000
440.222046	145.480000
440.315674	144.860000
440.409393	145.040000
440.503082	144.700000
440.596741	145.240000
440.690430	145.440000
440.784088	145.480000
440.877777	144.880000
440.971466	145.380000
441.065125	145.020000
441.158813	145.060000
441.252502	144.800000
441.346161	145.220000
441.439850	145.280000
441.533539	145.020000
441.627197	145.220000
441.720886	145.560000
441.814606	145.940000
441.908234	146.260000
442.001953	146.500000
442.095612	146.380000
442.189301	146.420000
442.282959	146.560000
442.376678	145.700000
442.470306	146.480000
442.564026	146.180000
442.657684	146.200000
442.751404	145.940000
442.845032	147.040000
442.938751	146.140000
443.032440	146.240000
443.126099	146.000000
443.219788	146.020000
443.313477	145.480000
443.407166	146.100000
443.500824	146.200000
443.594513	146.660000
443.688202	146.260000
443.781891	145.660000
443.875549	145.180000
443.969238	145.100000
444.062927	144.940000
444.156647	145.120000
444.250275	145.980000
444.343994	146.240000
444.437653	146.400000
444.531372	146.440000
444.625031	146.540000
444.718719	145.760000
444.812378	145.620000
444.906097	145.500000
444.999756	144.860000
445.093445	144.900000
445.187103	145.400000
445.280823	146.040000
445.374512	145.720000
445.468201	146.120000
445.561859	145.900000
445.655548	145.840000
445.749237	144.800000
445.842926	145.320000
445.936615	145.940000
446.030304	145.740000
446.123962	146.080000
446.217651	146.420000
446.311340	146.380000
446.405029	145.620000
446.498749	145.580000
446.592407	145.060000
446.686096	145.220000
446.779755	145.240000
446.873474	145.600000
446.967133	146.040000
447.060852	145.840000
447.154510	145.960000
447.248230	145.780000
447.341858	145.820000
447.435577	145.580000
447.529236	145.600000
447.622955	145.180000
447.716644	145.200000
447.810333	145.120000
447.904022	145.680000
447.997711	145.660000
448.091400	146.080000
448.185059	146.060000
448.278748	146.220000
448.372437	145.660000
448.466125	146.180000
448.559814	145.900000
448.653503	146.240000
448.747192	146.420000
448.840912	146.620000
448.934570	146.480000
449.028290	147.000000
449.121948	146.600000
449.215637	146.200000
449.309296	146.140000
449.403015	146.200000
449.496674	146.140000
449.590393	146.240000
449.684052	145.820000
449.777771	146.480000
449.871429	145.720000
449.965149	145.500000
450.058838	145.720000
450.152527	146.440000
450.246216	146.100000
450.339905	146.380000
450.433594	146.160000
450.527283	146.520000
450.620972	146.380000
450.714661	146.080000
450.808350	146.360000
450.902039	146.840000
450.995728	146.620000
451.089417	146.260000
451.183105	146.420000
451.276794	146.900000
451.370514	146.100000
451.464172	145.100000
451.557892	145.040000
451.651550	145.020000
451.745270	144.420000
451.838928	144.540000
451.932648	145.220000
452.026306	146.040000
452.120026	145.920000
452.213684	146.360000
452.307404	146.460000
452.401062	146.700000
452.494781	146.560000
452.588470	146.580000
452.682159	146.200000
452.775848	146.380000
452.869537	145.720000
452.963226	145.340000
453.056915	145.340000
453.150604	145.560000
453.244293	145.360000
453.337982	145.980000
453.431671	146.160000
453.525360	146.580000
453.619049	146.420000
453.712769	146.780000
453.806427	146.360000
453.900146	145.780000
453.993805	145.600000
454.087555	146.200000
454.181213	145.920000
454.274933	145.860000
454.368591	146.040000
454.462311	145.920000
454.555969	145.440000
454.649689	146.120000
454.743347	146.100000
454.837067	146.820000
454.930756	147.140000
455.024445	147.100000
455.118134	146.740000
455.211853	147.020000
455.305542	146.440000
455.399231	145.900000
455.492920	145.800000
455.586609	145.760000
455.680298	146.020000
455.773987	145.820000
455.867676	146.040000
455.961365	146.480000
456.055084	146.380000
456.148773	145.900000
456.242493	146.000000
456.336151	146.120000
456.429871	145.840000
456.523529	145.960000
456.617249	146.020000
456.710907	146.660000
456.804626	146.540000
456.898315	146.060000
456.992035	145.820000
457.085693	145.700000
457.179413	144.780000
457.273102	145.360000
457.366791	145.500000
457.460480	145.960000
457.554199	146.440000
457.647888	146.780000
457.741577	146.100000
457.835266	146.260000
457.928955	146.320000
458.022644	146.340000
458.116364	146.660000
458.210052	146.740000
458.303741	147.240000
458.397461	146.520000
458.491119	146.180000
458.584839	146.000000
458.678528	145.680000
458.772247	145.060000
458.865906	145.340000
458.959625	146.180000
459.053284	146.160000
459.147003	145.940000
459.240692	146.520000
459.334412	146.740000
459.428070	146.140000
459.521790	145.880000
459.615479	146.360000
459.709198	146.580000
459.802887	146.020000
459.896576	145.600000
459.990265	145.940000
460.083954	145.940000
460.177673	145.260000
460.271362	145.660000
460.365051	145.780000
460.458740	145.380000
460.552429	145.260000
460.646149	145.340000
460.739838	144.620000
460.833527	144.980000
460.927246	144.960000
461.020905	144.720000
461.114655	145.000000
461.208313	145.900000
461.302032	145.500000
461.395691	145.820000
461.489441	146.040000
461.583099	145.660000
461.676819	145.220000
461.770477	145.580000
461.864197	145.140000
461.957916	145.180000
462.051605	144.900000
462.145294	145.920000
462.238983	145.720000
462.332703	146.480000
462.426392	146.880000
462.520081	146.980000
462.613770	145.960000
462.707489	146.120000
462.801178	145.700000
462.894867	145.180000
462.988556	145.360000
463.082275	145.760000
463.175964	145.560000
463.269684	145.940000
463.363342	145.960000
463.457092	145.620000
463.550751	145.620000
463.644470	145.520000
463.738129	145.100000
463.831879	145.460000
463.925537	146.260000
464.019257	146.660000
464.112946	146.940000
464.206665	147.100000
464.300323	146.720000
464.394043	146.280000
464.487762	145.820000
464.581451	145.900000
464.675140	145.920000
464.768829	146.340000
464.862549	146.620000
464.956238	146.660000
465.049927	146.720000
465.143646	146.740000
465.237335	146.280000
465.331024	146.680000
465.424713	146.760000
465.518433	146.720000
465.612152	146.680000
465.705811	146.760000
465.799561	145.980000
465.893219	146.000000
465.986938	145.720000
466.080597	145.520000
466.174347	145.800000
466.268005	146.300000
466.361725	145.900000
466.455414	146.100000
466.549133	145.980000
466.642792	145.860000
466.736542	145.140000
466.830231	145.520000
466.923920	145.260000
467.017609	145.280000
467.111328	144.920000
467.205017	145.480000
467.298706	145.200000
467.392426	145.280000
467.486115	145.660000
467.579803	145.740000
467.673523	145.860000
467.767212	146.400000
467.860901	146.460000
467.954651	146.300000
468.048309	146.680000
468.142029	146.420000
468.235718	146.140000
468.329437	145.760000
468.423096	145.720000
468.516846	145.260000
468.610504	144.920000
468.704224	144.860000
468.797913	145.080000
468.891632	145.280000
468.985291	145.640000
469.079010	145.900000
469.172729	145.440000
469.266418	146.000000
469.360107	145.960000
469.453827	145.680000
469.547516	145.920000
469.641205	146.640000
469.734924	146.680000
469.828613	147.100000
469.922302	147.440000
470.016022	147.180000
470.109711	146.660000
470.203430	145.740000
470.297150	144.900000
470.390808	144.920000
470.484558	145.040000
470.578217	145.620000
470.671936	146.480000
470.765625	147.240000
470.859344	146.940000
470.953003	147.080000
471.046753	146.580000
471.140411	145.520000
471.234131	145.260000
471.327820	145.900000
471.421539	145.780000
471.515228	145.420000
471.608948	145.980000
471.702637	145.520000
471.796326	145.060000
471.890045	145.260000
471.983734	145.660000
472.077423	145.440000
472.171143	145.600000
472.264832	145.600000
472.358521	145.400000
472.452240	144.940000
472.545929	145.560000
472.639648	145.720000
472.733337	146.140000
472.827057	146.160000
472.920746	146.540000
473.014465	146.700000
473.108124	146.840000
473.201874	146.640000
473.295532	146.420000
473.389252	146.820000
473.482941	146.720000
473.576660	146.260000
473.670319	146.100000
473.764069	146.640000
473.857727	146.600000
473.951477	146.800000
474.045166	147.580000
474.138855	147.400000
474.232574	146.960000
474.326263	147.000000
474.419952	146.580000
474.513672	146.360000
474.607361	146.360000
474.701050	146.460000
474.794769	146.520000
474.888458	146.740000
474.982178	146.720000
475.075867	146.920000
475.169586	146.820000
475.263275	146.360000
475.356995	146.240000
475.450653	145.840000
475.544403	145.400000
475.638062	146.000000
475.731812	145.840000
475.825470	145.340000
475.919189	145.480000
476.012878	145.900000
476.106598	145.300000
476.200256	145.900000
476.294006	146.240000
476.387695	146.220000
476.481384	146.140000
476.575104	146.040000
476.668793	145.440000
476.762512	145.280000
476.856201	146.040000
476.949890	145.620000
477.043610	145.480000
477.137299	145.480000
477.230988	145.960000
477.324707	145.220000
477.418396	146.040000
477.512146	146.180000
477.605804	146.080000
477.699524	145.980000
477.793213	145.800000
477.886932	145.300000
477.980591	145.360000
478.074341	145.460000
478.167999	144.940000
478.261749	145.220000
478.355408	145.180000
478.449127	145.500000
478.542816	146.240000
478.636536	146.960000
478.730225	146.960000
478.823944	147.020000
478.917633	146.920000
479.011322	146.820000
479.105042	146.460000
479.198730	146.480000
479.292450	146.500000
479.386139	146.520000
479.479828	146.420000
479.573547	146.680000
479.667267	146.580000
479.760925	146.480000
479.854675	146.620000
479.948334	146.580000
480.042084	146.040000
480.135742	146.280000
480.229462	145.820000
480.323151	145.700000
480.416870	145.160000
480.510529	145.360000
480.604279	145.060000
480.697937	145.580000
480.791656	144.800000
480.885345	144.700000
480.979065	144.680000
481.072754	145.180000
481.166473	145.620000
481.260132	145.940000
481.353882	146.200000
481.447540	145.960000
481.541260	145.840000
481.635010	145.160000
481.728668	145.300000
481.822388	145.180000
481.916077	145.420000
482.009796	145.100000
482.103485	145.900000
482.197205	145.840000
482.290863	146.040000
482.384613	146.000000
482.478271	145.740000
482.571991	145.360000
482.665680	145.380000
482.759399	145.760000
482.853058	146.040000
482.946808	146.100000
483.040466	145.900000
483.134216	145.800000
483.227875	145.360000
483.321594	145.840000
483.415283	145.940000
483.509003	145.960000
483.602661	146.000000
483.696411	146.380000
483.790070	145.980000
483.883789	145.840000
483.977478	146.180000
484.071198	146.460000
484.164917	145.920000
484.258606	145.400000
484.352325	145.660000
484.445984	145.640000
484.539734	145.480000
484.633392	145.240000
484.727142	145.700000
484.820801	145.640000
484.914520	145.300000
485.008209	145.720000
485.101929	146.500000
485.195587	146.040000
485.289337	145.880000
485.382996	145.840000
485.476715	145.660000
485.570404	145.680000
485.664124	145.700000
485.757782	146.320000
485.851532	146.320000
485.945190	145.820000
486.038910	146.040000
486.132599	146.620000
486.226318	145.760000
486.319977	145.820000
486.413727	146.720000
486.507446	145.980000
486.601105	145.320000
486.694855	145.420000
486.788513	145.240000
486.882233	144.680000
486.975922	144.860000
487.069641	144.800000
487.163300	144.840000
487.257050	146.020000
487.350708	145.720000
487.444427	145.780000
487.538116	146.240000
487.631836	146.240000
487.725494	145.360000
487.819214	145.680000
487.912903	145.360000
488.006622	145.560000
488.100281	145.820000
488.194031	145.920000
488.287689	146.360000
488.381409	147.360000
488.475098	147.080000
488.568817	147.280000
488.662476	147.040000
488.756226	146.440000
488.849945	145.160000
488.943604	145.220000
489.037354	145.120000
489.131012	145.100000
489.224731	145.100000
489.318390	145.480000
489.412140	145.640000
489.505798	145.520000
489.599518	145.260000
489.693207	145.380000
489.786926	145.540000
489.880585	145.100000
489.974335	145.480000
490.067993	146.600000
490.161713	146.920000
490.255371	147.400000
490.349121	147.620000
490.442780	147.180000
490.536499	146.140000
490.630188	146.280000
490.723907	145.700000
490.817566	146.000000
490.911285	146.220000
491.004974	146.300000
491.098694	145.620000
491.192413	146.320000
491.286102	145.500000
491.379822	145.600000
491.473480	145.880000
491.567200	146.100000
491.660889	144.980000
491.754608	145.320000
491.848267	144.900000
491.941986	144.680000
492.035675	144.780000
492.129395	145.320000
492.223053	145.300000
492.316772	146.080000
492.410461	146.060000
492.504181	145.980000
492.597839	145.820000
492.691559	146.180000
492.785248	145.600000
492.878967	146.000000
492.972626	145.700000
493.066345	145.740000
493.160034	145.300000
493.253754	145.440000
493.347412	144.960000
493.441132	145.320000
493.534882	145.860000
493.628540	146.100000
493.722260	146.260000
493.815918	146.560000
493.909668	146.900000
494.003326	146.940000
494.097046	146.620000
494.190704	146.120000
494.284454	146.200000
494.378113	146.200000
494.471832	145.760000
494.565491	146.180000
494.659210	146.580000
494.752899	146.600000
494.846619	146.300000
494.940277	146.540000
495.033997	146.320000
495.127686	146.080000
495.221405	145.720000
495.315063	145.560000
495.408783	145.640000
495.502441	145.820000
495.596191	145.980000
495.689850	145.800000
495.783569	146.420000
495.877228	146.380000
495.970947	146.000000
496.064697	145.720000
496.158356	146.780000
496.252075	146.320000
496.345734	145.980000
496.439453	146.700000
496.533142	146.860000
496.626862	146.620000
496.720520	146.760000
496.814240	147.100000
496.907898	147.000000
497.001617	146.940000
497.095306	146.360000
497.189026	146.300000
497.282684	146.220000
497.376404	146.240000
497.470062	146.200000
497.563782	146.260000
497.657471	145.940000
497.751190	145.600000
497.844849	145.300000
497.938568	145.780000
498.032227	145.780000
498.125946	145.960000
498.219635	145.860000
498.313354	145.920000
498.407074	145.440000
498.500732	145.700000
498.594452	145.780000
498.688110	145.660000
498.781830	145.380000
498.875519	145.320000
498.969238	145.220000
499.062897	145.000000
499.156616	145.760000
499.250275	146.080000
499.343994	145.940000
499.437653	146.060000
499.531372	146.080000
499.625061	146.220000
499.718781	146.260000
499.812439	146.680000
499.906158	146.360000
499.999817	146.140000
500.093536	145.400000
500.187195	145.100000
500.280914	145.080000
500.374573	145.460000
500.468323	145.600000
500.561981	146.000000
500.655701	145.640000
500.749420	145.600000
500.843079	145.420000
500.936798	145.580000
501.030457	145.860000
501.124176	146.380000
501.217834	146.480000
501.311554	146.420000
501.405212	146.220000
501.498962	145.400000
501.592621	145.400000
501.686340	145.580000
501.779999	145.540000
501.873718	145.660000
501.967377	146.200000
502.061096	146.340000
502.154755	145.520000
502.248474	145.520000
502.342133	145.620000
502.435852	145.500000
502.529510	145.820000
502.623230	146.880000
502.716888	146.460000
502.810608	146.680000
502.904266	147.000000
502.997986	146.640000
503.091705	145.940000
503.185364	146.040000
503.279083	146.200000
503.372772	145.980000
503.466492	145.540000
503.560150	145.640000
503.653870	146.040000
503.747528	145.660000
503.841248	145.420000
503.934906	145.800000
504.028625	145.460000
504.122284	145.920000
504.216003	146.620000
504.309662	146.300000
504.403381	146.540000
504.497040	146.400000
504.590759	145.940000
504.684418	145.820000
504.778137	146.680000
504.871796	146.820000
504.965515	146.900000
505.059174	146.880000
505.152893	146.040000
505.246521	145.400000
505.340240	144.780000
505.433899	145.180000
505.527618	145.400000
505.621338	146.020000
505.714996	146.120000
505.808716	146.200000
505.902374	146.620000
505.996094	146.540000
506.089752	146.160000
506.183472	146.360000
506.277130	146.520000
506.370850	146.260000
506.464508	146.120000
506.558228	146.320000
506.651886	145.800000
506.745605	145.620000
506.839264	145.740000
506.932983	145.800000
507.026611	145.640000
507.120331	146.500000
507.213989	146.600000
507.307709	146.440000
507.401367	146.420000
507.495087	147.260000
507.588745	146.460000
507.682465	147.200000
507.776123	147.060000
507.869843	146.900000
507.963531	146.240000
508.057190	146.840000
508.150909	145.660000
508.244568	145.700000
508.338287	145.500000
508.431946	145.180000
508.525665	144.980000
508.619324	145.280000
508.713013	145.420000
508.806671	145.960000
508.900391	146.840000
508.994049	146.640000
509.087769	146.260000
509.181427	146.120000
509.275146	145.580000
509.368774	144.420000
509.462494	144.820000
509.556152	144.980000
509.649872	145.420000
509.743530	145.860000
509.837250	146.560000
509.930878	145.880000
510.024597	146.060000
510.118256	145.720000
510.211975	145.460000
510.305695	144.820000
510.399353	145.800000
510.493042	146.300000
510.586700	146.620000
510.680420	147.260000
510.774078	147.660000
510.867798	147.420000
510.961426	146.840000
511.055145	146.620000
511.148804	145.840000
511.242523	146.180000
511.336151	145.860000
511.429871	146.340000
511.523529	146.220000
511.617249	146.140000
511.710876	145.780000
511.804596	145.720000
511.898254	145.340000
511.991974	145.620000
512.085632	145.880000
512.179321	146.080000
512.272949	146.260000
512.366699	146.540000
512.460327	146.360000
512.554077	147.220000
512.647766	146.860000
512.741394	146.580000
512.835144	146.760000
512.928772	146.400000
513.022461	146.160000
513.116150	145.800000
513.209839	146.480000
513.303467	145.820000
513.397217	145.800000
513.490845	145.360000
513.584595	145.580000
513.678223	144.980000
513.771912	144.960000
513.865601	145.120000
513.959290	144.760000
514.052917	144.880000
514.146667	145.480000
514.240295	145.560000
514.333984	145.940000
514.427673	146.020000
514.521362	146.480000
514.614990	145.720000
514.708740	146.180000
514.802368	146.180000
514.896057	146.420000
514.989746	147.060000
515.083435	147.100000
515.177124	147.360000
515.270752	147.160000
515.364502	147.180000
515.458130	146.840000
515.551819	146.720000
515.645508	146.260000
515.739197	146.160000
515.832825	146.160000
515.926575	145.520000
516.020203	145.940000
516.113892	146.380000
516.207520	146.220000
516.301270	146.260000
516.394897	146.440000
516.488586	146.880000
516.582275	146.820000
516.675964	146.280000
516.769592	146.060000
516.863281	146.560000
516.956970	146.500000
517.050659	145.960000
517.144287	146.520000
517.238037	146.640000
517.331665	146.160000
517.425354	145.800000
517.519043	146.060000
517.612732	146.240000
517.706421	146.260000
517.800049	146.120000
517.893738	145.420000
517.987427	145.480000
518.081116	145.320000
518.174744	144.980000
518.268433	145.060000
518.362122	146.080000
518.455811	145.560000
518.549438	146.320000
518.643127	147.300000
518.736816	147.100000
518.830505	146.260000
518.924133	146.580000
519.017822	146.080000
519.111511	145.240000
519.205200	145.720000
519.298828	146.060000
519.392517	145.620000
519.486206	145.640000
519.579895	145.840000
519.673523	145.660000
519.767212	145.400000
519.860901	146.360000
519.954590	145.860000
520.048279	145.480000
520.141907	145.020000
520.235596	146.040000
520.329224	145.840000
520.422974	146.240000
520.516602	146.280000
520.610291	146.160000
520.703918	145.700000
520.797607	145.260000
520.891296	145.200000
520.984985	145.540000
521.078613	146.260000
521.172302	145.720000
521.265930	146.500000
521.359680	146.560000
521.453308	146.180000
521.546997	146.160000
521.640625	146.300000
521.734314	145.900000
521.827942	145.660000
521.921692	146.220000
522.015320	146.040000
522.109009	145.980000
522.202698	145.740000
522.296326	145.980000
522.390015	146.160000
522.483704	146.040000
522.577393	145.940000
522.671021	145.940000
522.764709	145.540000
522.858337	145.560000
522.952026	145.520000
523.045654	146.420000
523.139404	146.940000
523.233032	147.400000
523.326721	147.100000
523.420349	147.240000
523.514038	146.460000
523.607666	146.660000
523.701355	146.220000
523.795044	146.080000
523.888733	146.100000
523.982361	146.640000
524.076050	145.800000
524.169678	146.200000
524.263367	145.880000
524.356995	145.440000
524.450684	144.860000
524.544373	144.680000
524.638062	144.780000
524.731750	145.120000
524.825378	145.520000
524.919067	145.460000
525.012695	145.860000
525.106384	145.320000
525.200012	145.600000
525.293701	145.480000
525.387329	145.900000
525.481018	146.100000
525.574646	146.460000
525.668396	146.220000
525.762024	146.580000
525.855713	146.740000
525.949341	146.020000
526.043030	146.140000
526.136658	146.280000
526.230347	145.920000
526.323975	145.580000
526.417664	145.660000
526.511292	145.540000
526.604980	145.340000
526.698608	145.140000
526.792297	145.120000
526.885925	145.740000
526.979614	146.020000
527.073303	146.080000
527.166931	146.180000
527.260620	146.420000
527.354309	146.480000
527.447998	146.140000
527.541626	145.920000
527.635315	146.180000
527.728943	146.620000
527.822632	146.840000
527.916260	147.020000
528.009949	147.140000
528.103577	146.740000
528.197266	145.960000
528.290894	145.480000
528.384583	145.080000
528.478210	144.980000
528.571899	145.520000
528.665527	145.840000
528.759216	145.980000
528.852844	146.560000
528.946533	146.840000
529.040161	146.460000
529.133850	146.240000
529.227478	146.300000
529.321167	146.460000
529.414856	146.860000
529.508484	147.480000
529.602173	147.180000
529.695801	147.200000
529.789490	146.660000
529.883057	146.080000
529.976746	145.920000
530.070374	146.660000
530.164062	146.460000
530.257690	146.700000
530.351379	146.980000
530.445007	146.940000
530.538696	146.160000
530.632324	146.360000
530.726013	146.320000
530.819641	146.280000
530.913330	145.920000
531.006958	146.300000
531.100647	146.380000
531.194275	146.280000
531.287964	145.860000
531.381592	145.900000
531.475220	145.840000
531.568848	145.740000
531.662537	145.520000
531.756226	146.140000
531.849854	145.900000
531.943542	146.160000
532.037170	145.600000
532.130859	146.220000
532.224487	145.680000
532.318176	145.640000
532.411804	146.240000
532.505432	146.660000
532.599060	146.460000
532.692749	146.740000
532.786377	147.480000
532.880066	146.500000
532.973694	145.960000
533.067383	145.660000
533.161011	145.540000
533.254639	145.220000
533.348267	144.940000
533.441956	145.660000
533.535583	145.760000
533.629272	145.940000
533.722900	145.320000
533.816589	145.480000
533.910156	145.380000
534.003845	145.060000
534.097534	145.200000
534.191162	146.080000
534.284851	146.380000
534.378479	146.100000
534.472107	146.220000
534.565735	145.820000
534.659424	145.720000
534.753052	145.760000
534.846741	145.500000
534.940369	146.120000
535.033997	146.360000
535.127625	146.300000
535.221313	146.840000
535.314941	147.240000
535.408630	146.540000
535.502197	146.720000
535.595886	145.980000
535.689514	145.400000
535.783203	145.340000
535.876831	145.920000
535.970459	145.600000
536.064087	145.960000
536.157776	146.000000
536.251404	145.940000
536.345093	145.720000
536.438721	146.000000
536.532349	146.200000
536.626038	145.980000
536.719666	146.600000
536.813293	146.300000
536.906921	146.020000
537.000610	146.520000
537.094238	146.740000
537.187866	146.280000
537.281494	146.320000
537.375183	146.420000
537.468811	145.820000
537.562439	145.800000
537.656067	145.460000
537.749756	145.600000
537.843384	146.280000
537.937012	146.560000
538.030640	146.340000
538.124329	146.680000
538.217896	146.840000
538.311584	146.440000
538.405212	146.100000
538.498901	146.480000
538.592468	147.040000
538.686157	146.420000
538.779785	145.800000
538.873413	145.640000
538.967102	145.400000
539.060730	144.800000
539.154358	145.540000
539.247986	146.240000
539.341675	146.520000
539.435242	146.260000
539.528931	146.360000
539.622559	145.860000
539.716187	146.120000
539.809814	146.200000
539.903503	146.600000
539.997070	146.680000
540.090759	147.120000
540.184387	146.380000
540.278015	146.640000
540.371643	146.800000
540.465332	146.760000
540.558899	146.440000
540.652588	146.660000
540.746216	146.100000
540.839844	146.100000
540.933472	146.020000
541.027100	146.000000
541.120728	145.940000
541.214417	146.420000
541.308044	146.520000
541.401672	146.400000
541.495300	146.260000
541.588928	146.500000
541.682617	146.360000
541.776184	146.060000
541.869873	146.200000
541.963440	146.520000
542.057129	146.340000
542.150757	146.300000
542.244385	146.000000
542.338013	145.740000
542.431641	145.460000
542.525269	145.360000
542.618958	145.760000
542.712524	146.120000
542.806213	146.100000
542.899780	146.520000
542.993469	146.160000
543.087036	145.640000
543.180725	145.020000
543.274292	145.680000
543.367981	145.560000
543.461548	146.260000
543.555237	146.300000
543.648926	147.260000
543.742493	147.540000
543.836182	147.440000
543.929749	146.960000
544.023437	146.940000
544.117004	146.440000
544.210693	146.060000
544.304260	146.340000
544.397949	146.160000
544.491516	146.440000
544.585205	146.440000
544.678772	145.680000
544.772461	145.600000
544.866028	145.740000
544.959717	145.640000
545.053284	145.340000
545.146973	145.960000
545.240540	145.520000
545.334229	146.440000
545.427795	146.520000
545.521423	146.800000
545.615051	146.900000
545.708679	147.680000
545.802307	147.120000
545.895935	147.360000
545.989624	148.160000
546.083191	147.720000
546.176880	147.320000
546.270447	146.860000
546.364136	147.060000
546.457703	146.280000
546.551331	146.440000
546.644958	146.680000
546.738586	147.000000
546.832214	146.520000
546.925842	146.560000
547.019409	146.980000
547.113098	146.500000
547.206665	146.080000
547.300354	146.020000
547.393921	146.240000
547.487549	146.080000
547.581177	145.880000
547.674805	146.160000
547.768433	145.700000
547.862061	145.680000
547.955627	145.080000
548.049316	145.940000
548.142883	146.240000
548.236572	147.020000
548.330139	146.820000
548.423767	146.820000
548.517456	146.420000
548.611023	146.420000
548.704651	145.400000
548.798279	145.460000
548.891907	146.180000
548.985474	146.160000
549.079163	146.180000
549.172729	146.500000
549.266357	146.120000
549.359985	145.940000
549.453613	145.440000
549.547180	145.220000
549.640869	145.760000
549.734436	145.940000
549.828064	146.020000
549.921631	146.040000
550.015320	145.740000
550.108887	145.960000
550.202515	145.920000
550.296143	145.700000
550.389771	145.820000
550.483337	145.960000
550.576965	145.520000
550.670593	145.720000
550.764221	145.640000
550.857849	145.720000
550.951477	145.580000
551.045105	145.060000
551.138672	145.140000
551.232300	145.040000
551.325928	145.400000
551.419556	145.620000
551.513123	146.040000
551.606750	145.820000
551.700378	146.140000
551.794006	146.080000
551.887573	146.140000
551.981201	146.640000
552.074768	146.840000
552.168457	146.280000
552.262024	147.080000
552.355652	146.900000
552.449219	147.240000
552.542847	147.160000
552.636475	147.000000
552.730103	145.760000
552.823669	145.680000
552.917297	144.860000
553.010864	144.900000
553.104553	145.440000
553.198181	145.180000
553.291748	145.780000
553.385376	145.960000
553.478943	145.960000
553.572571	145.980000
553.666199	146.620000
553.759827	146.000000
553.853394	145.600000
553.947021	145.420000
554.040588	145.380000
554.134216	145.420000
554.227783	146.100000
554.321411	146.920000
554.415039	146.640000
554.508667	146.580000
554.602234	146.640000
554.695862	146.100000
554.789429	145.560000
554.883057	145.720000
554.976624	145.760000
555.070251	145.560000
555.163818	145.420000
555.257507	145.660000
555.351074	145.960000
555.444702	146.980000
555.538330	146.920000
555.631897	147.480000
555.725525	147.460000
555.819092	147.100000
555.912720	145.720000
556.006287	145.980000
556.099915	145.480000
556.193481	145.380000
556.287109	145.700000
556.380676	146.040000
556.474304	146.060000
556.567871	146.240000
556.661499	145.800000
556.755066	145.960000
556.848694	146.000000
556.942261	145.940000
557.035889	146.100000
557.129517	146.720000
557.223145	146.900000
557.316711	147.000000
557.410339	146.780000
557.503906	146.640000
557.597473	146.500000
557.691040	146.060000
557.784668	146.020000
557.878296	146.280000
557.971863	146.500000
558.065491	146.640000
558.159058	146.480000
558.252686	147.340000
558.346252	147.700000
558.439880	147.460000
558.533447	146.880000
558.627075	146.860000
558.720642	145.540000
558.814270	145.040000
558.907837	144.840000
559.001465	144.660000
559.095032	145.520000
559.188660	146.080000
559.282227	145.500000
559.375854	146.140000
559.469360	146.480000
559.562988	146.320000
559.656555	146.080000
559.750183	147.000000
559.843750	146.960000
559.937378	147.100000
560.030945	146.920000
560.124573	0.000000
560.218140	0.000000
560.311707	0.000000
560.405334	0.000000
560.498901	0.000000
560.592529	0.000000
560.686096	0.000000
560.779724	0.000000
560.873291	0.000000
560.966858	0.000000
561.060425	0.000000
561.154053	0.000000
561.247620	0.000000
561.341248	0.000000
561.434814	0.000000
561.528381	0.000000
561.621948	0.000000
561.715576	0.000000
561.809143	0.000000
561.902771	0.000000
561.996277	0.000000
562.089905	0.000000
562.183472	0.000000
562.277100	0.000000
