Model Number: SPM-002-B   
Serial Number: 70087108
Firmware Version: 004.15.4
Exposure Time: 100000.000000us
Data Taken on: 11-12-2020 18:52:41.018
Wavelength	Amplitude
221.570786	0.000000
221.663406	0.000000
221.756027	0.000000
221.848648	0.000000
221.941269	0.000000
222.033905	0.000000
222.126526	0.000000
222.219162	0.000000
222.311798	0.000000
222.404419	0.000000
222.497055	0.000000
222.589676	0.000000
222.682312	0.000000
222.774933	0.000000
222.867569	0.000000
222.960205	0.000000
223.052841	0.000000
223.145462	0.000000
223.238098	0.000000
223.330734	0.000000
223.423386	0.000000
223.516022	0.000000
223.608658	0.000000
223.701309	0.000000
223.793945	0.000000
223.886581	0.000000
223.979218	0.000000
224.071869	0.000000
224.164505	0.000000
224.257156	0.000000
224.349792	0.000000
224.442444	0.000000
224.535095	0.000000
224.627747	0.000000
224.720398	0.000000
224.813034	0.000000
224.905685	0.000000
224.998337	145.540000
225.090988	145.240000
225.183640	145.400000
225.276291	145.040000
225.368942	145.620000
225.461594	145.900000
225.554245	146.220000
225.646912	146.260000
225.739578	146.980000
225.832230	147.320000
225.924896	146.700000
226.017548	146.720000
226.110199	147.280000
226.202866	146.320000
226.295532	145.880000
226.388184	145.800000
226.480850	145.500000
226.573517	144.620000
226.666168	144.940000
226.758835	145.100000
226.851501	145.720000
226.944183	145.600000
227.036850	145.620000
227.129517	145.800000
227.222183	146.200000
227.314850	146.020000
227.407516	146.540000
227.500198	147.140000
227.592865	146.700000
227.685532	145.920000
227.778214	145.620000
227.870880	145.680000
227.963562	146.060000
228.056229	146.580000
228.148926	146.680000
228.241592	147.640000
228.334274	147.420000
228.426956	146.840000
228.519638	146.720000
228.612305	146.680000
228.704987	146.360000
228.797668	146.300000
228.890350	145.900000
228.983032	145.140000
229.075714	145.940000
229.168396	145.440000
229.261108	145.080000
229.353790	145.480000
229.446472	146.160000
229.539169	145.600000
229.631851	145.380000
229.724533	145.600000
229.817230	145.620000
229.909912	146.540000
230.002609	146.660000
230.095306	146.820000
230.187988	147.200000
230.280685	147.220000
230.373383	145.940000
230.466095	145.800000
230.558792	146.240000
230.651474	146.060000
230.744171	145.780000
230.836868	146.080000
230.929581	146.140000
231.022278	146.100000
231.114975	146.060000
231.207672	146.180000
231.300369	146.600000
231.393082	146.960000
231.485779	146.820000
231.578506	146.760000
231.671204	147.100000
231.763916	147.000000
231.856613	146.980000
231.949326	147.240000
232.042023	147.300000
232.134735	146.660000
232.227448	146.200000
232.320160	146.260000
232.412872	145.780000
232.505585	146.360000
232.598297	147.100000
232.691010	147.220000
232.783722	146.720000
232.876450	147.380000
232.969162	146.620000
233.061874	145.880000
233.154587	145.600000
233.247314	145.820000
233.340027	145.140000
233.432739	145.720000
233.525467	145.860000
233.618179	146.320000
233.710907	146.140000
233.803635	146.760000
233.896347	146.440000
233.989090	147.080000
234.081818	146.900000
234.174545	146.960000
234.267258	146.520000
234.359985	146.620000
234.452713	146.280000
234.545441	146.320000
234.638168	146.180000
234.730896	146.600000
234.823639	146.620000
234.916367	146.720000
235.009094	146.740000
235.101822	146.780000
235.194580	146.440000
235.287308	146.380000
235.380051	145.980000
235.472778	145.880000
235.565521	146.260000
235.658249	146.000000
235.750992	145.920000
235.843719	146.240000
235.936462	146.900000
236.029205	146.360000
236.121948	146.400000
236.214691	146.680000
236.307449	147.120000
236.400192	146.360000
236.492935	146.480000
236.585678	146.480000
236.678421	146.380000
236.771164	145.980000
236.863907	146.540000
236.956665	146.680000
237.049408	148.260000
237.142151	147.520000
237.234909	148.260000
237.327652	148.020000
237.420410	148.080000
237.513153	147.140000
237.605927	147.300000
237.698669	146.600000
237.791428	146.060000
237.884186	146.480000
237.976944	145.660000
238.069702	146.220000
238.162445	145.700000
238.255203	145.840000
238.347961	145.680000
238.440720	146.000000
238.533478	145.800000
238.626266	145.740000
238.719025	146.220000
238.811783	145.920000
238.904541	146.120000
238.997314	145.880000
239.090073	145.840000
239.182831	145.960000
239.275604	146.560000
239.368362	146.120000
239.461136	146.400000
239.553909	146.440000
239.646667	145.980000
239.739441	145.460000
239.832214	145.760000
239.925003	146.000000
240.017761	146.720000
240.110535	147.260000
240.203308	146.960000
240.296082	146.900000
240.388855	146.600000
240.481628	146.620000
240.574417	146.580000
240.667191	146.700000
240.759964	146.620000
240.852737	146.900000
240.945526	146.560000
241.038315	146.320000
241.131088	146.660000
241.223877	146.840000
241.316650	146.300000
241.409439	146.680000
241.502228	146.440000
241.595001	146.680000
241.687790	146.680000
241.780579	146.680000
241.873367	146.560000
241.966141	146.820000
242.058929	146.320000
242.151718	146.340000
242.244507	146.940000
242.337311	146.100000
242.430099	146.420000
242.522903	146.740000
242.615692	146.300000
242.708481	145.880000
242.801270	146.680000
242.894073	146.320000
242.986862	146.220000
243.079651	146.840000
243.172455	146.960000
243.265244	147.180000
243.358063	146.660000
243.450867	146.860000
243.543655	146.500000
243.636459	146.440000
243.729263	146.400000
243.822067	146.860000
243.914856	147.060000
244.007660	147.380000
244.100464	147.280000
244.193268	146.860000
244.286072	146.880000
244.378876	146.000000
244.471680	145.740000
244.564499	146.200000
244.657318	146.740000
244.750122	147.220000
244.842926	147.120000
244.935745	147.320000
245.028549	146.800000
245.121368	146.260000
245.214172	146.100000
245.306992	146.820000
245.399796	146.480000
245.492615	146.680000
245.585434	146.760000
245.678253	146.440000
245.771072	145.980000
245.863892	146.560000
245.956711	146.660000
246.049530	146.480000
246.142349	146.320000
246.235168	146.520000
246.327988	146.880000
246.420807	146.900000
246.513626	146.860000
246.606445	146.940000
246.699280	147.040000
246.792099	146.500000
246.884918	146.020000
246.977753	146.240000
247.070587	146.200000
247.163422	146.120000
247.256241	146.200000
247.349075	146.640000
247.441895	146.520000
247.534729	146.620000
247.627563	146.400000
247.720383	146.600000
247.813217	146.700000
247.906052	146.540000
247.998886	146.340000
248.091736	146.220000
248.184570	145.880000
248.277405	145.500000
248.370239	146.600000
248.463074	147.800000
248.555908	148.200000
248.648743	148.120000
248.741592	148.420000
248.834427	147.520000
248.927261	146.100000
249.020111	146.520000
249.112946	147.080000
249.205795	146.820000
249.298630	147.020000
249.391495	147.400000
249.484344	146.980000
249.577179	146.740000
249.670029	146.840000
249.762878	147.360000
249.855728	147.520000
249.948563	147.120000
250.041412	146.720000
250.134262	147.260000
250.227112	146.980000
250.319962	146.900000
250.412827	147.260000
250.505692	146.800000
250.598541	146.560000
250.691391	146.180000
250.784241	146.040000
250.877106	146.240000
250.969955	146.320000
251.062805	146.540000
251.155670	147.400000
251.248520	147.260000
251.341385	147.320000
251.434235	147.500000
251.527100	147.040000
251.619965	146.100000
251.712814	147.020000
251.805695	146.800000
251.898560	146.900000
251.991425	147.120000
252.084290	147.500000
252.177155	146.400000
252.270020	146.140000
252.362885	146.200000
252.455750	145.960000
252.548615	145.660000
252.641479	145.820000
252.734360	145.940000
252.827240	145.660000
252.920105	145.940000
253.012970	145.720000
253.105850	145.880000
253.198715	145.720000
253.291595	146.000000
253.384460	145.400000
253.477341	145.560000
253.570221	145.560000
253.663086	145.480000
253.755966	146.260000
253.848846	146.680000
253.941727	147.120000
254.034592	147.220000
254.127472	147.020000
254.220367	146.620000
254.313248	146.840000
254.406128	146.200000
254.499008	146.320000
254.591904	147.220000
254.684784	147.460000
254.777664	147.240000
254.870544	147.220000
254.963440	146.920000
255.056335	146.880000
255.149216	146.320000
255.242111	146.660000
255.334991	147.200000
255.427887	147.480000
255.520767	147.220000
255.613663	147.540000
255.706558	147.100000
255.799438	146.480000
255.892334	146.080000
255.985229	145.820000
256.078125	145.420000
256.171021	145.320000
256.263916	146.220000
256.356812	146.540000
256.449707	147.180000
256.542603	147.120000
256.635498	147.500000
256.728394	147.120000
256.821289	147.040000
256.914215	146.720000
257.007080	147.220000
257.100006	147.540000
257.192932	147.760000
257.285828	148.080000
257.378723	147.940000
257.471619	147.300000
257.564545	146.560000
257.657440	146.360000
257.750336	146.580000
257.843262	146.300000
257.936157	147.700000
258.029053	147.940000
258.121979	148.260000
258.214874	147.660000
258.307800	147.740000
258.400696	146.480000
258.493622	146.700000
258.586517	145.660000
258.679443	146.100000
258.772339	145.880000
258.865265	145.760000
258.958160	145.140000
259.051086	146.120000
259.144012	145.940000
259.236938	146.720000
259.329834	146.880000
259.422791	146.980000
259.515717	146.560000
259.608612	146.100000
259.701538	145.500000
259.794464	145.440000
259.887390	145.560000
259.980316	145.320000
260.073212	145.480000
260.166138	145.060000
260.259064	145.200000
260.351990	145.600000
260.444916	145.720000
260.537842	146.120000
260.630768	147.000000
260.723694	147.000000
260.816620	146.920000
260.909546	146.860000
261.002472	146.220000
261.095398	145.540000
261.188354	145.780000
261.281281	145.220000
261.374207	145.260000
261.467133	146.120000
261.560089	146.500000
261.653015	146.200000
261.745972	146.960000
261.838867	147.600000
261.931824	147.720000
262.024780	147.280000
262.117706	147.620000
262.210663	147.340000
262.303589	146.700000
262.396515	146.420000
262.489471	147.680000
262.582397	147.340000
262.675354	147.420000
262.768280	147.420000
262.861237	147.300000
262.954163	146.520000
263.047119	146.800000
263.140045	146.320000
263.233002	146.200000
263.325958	146.200000
263.418884	146.000000
263.511841	146.100000
263.604797	146.300000
263.697723	146.640000
263.790680	146.460000
263.883636	147.140000
263.976593	146.680000
264.069550	146.840000
264.162476	146.400000
264.255463	146.440000
264.348419	145.960000
264.441376	146.540000
264.534332	146.260000
264.627289	146.800000
264.720245	147.020000
264.813202	146.780000
264.906158	146.500000
264.999115	146.980000
265.092072	146.660000
265.185028	147.120000
265.277985	147.020000
265.370941	146.920000
265.463898	146.540000
265.556854	146.420000
265.649811	145.300000
265.742798	145.460000
265.835754	145.520000
265.928711	145.800000
266.021667	145.960000
266.114655	146.420000
266.207611	146.680000
266.300568	146.100000
266.393585	145.560000
266.486511	145.620000
266.579498	145.020000
266.672485	144.880000
266.765442	145.180000
266.858429	145.780000
266.951385	145.200000
267.044342	145.360000
267.137329	145.420000
267.230316	145.820000
267.323273	145.400000
267.416260	146.440000
267.509216	146.780000
267.602203	146.920000
267.695160	147.220000
267.788147	147.160000
267.881134	146.600000
267.974091	146.660000
268.067078	146.260000
268.160065	145.800000
268.253052	145.700000
268.346008	145.640000
268.438995	145.400000
268.531982	145.560000
268.624969	145.380000
268.717987	145.840000
268.810944	145.600000
268.903961	145.640000
268.996948	145.360000
269.089905	146.000000
269.182892	146.040000
269.275879	146.620000
269.368866	146.320000
269.461853	146.760000
269.554871	146.140000
269.647858	146.180000
269.740845	146.260000
269.833832	146.900000
269.926819	146.380000
270.019806	146.680000
270.112793	146.160000
270.205811	146.240000
270.298798	145.820000
270.391785	146.360000
270.484772	146.120000
270.577789	146.460000
270.670776	145.900000
270.763763	146.020000
270.856750	145.920000
270.949768	145.840000
271.042786	145.940000
271.135773	146.140000
271.228790	146.460000
271.321808	146.160000
271.414795	146.120000
271.507782	146.000000
271.600800	145.940000
271.693817	145.920000
271.786804	146.500000
271.879822	146.820000
271.972809	146.720000
272.065826	147.420000
272.158844	146.800000
272.251831	147.200000
272.344849	147.060000
272.437866	146.900000
272.530853	146.580000
272.623871	146.900000
272.716888	145.680000
272.809906	145.960000
272.902893	145.880000
272.995911	145.480000
273.088928	145.480000
273.181946	145.900000
273.274963	145.400000
273.367981	145.520000
273.460999	145.920000
273.554047	146.400000
273.647003	147.060000
273.740051	147.540000
273.833069	147.720000
273.926086	147.700000
274.019135	147.400000
274.112152	146.900000
274.205170	146.540000
274.298187	146.760000
274.391205	146.140000
274.484222	146.100000
274.577240	146.180000
274.670258	146.000000
274.763306	145.700000
274.856323	146.460000
274.949341	146.600000
275.042358	146.880000
275.135406	147.060000
275.228424	147.360000
275.321442	147.040000
275.414490	146.740000
275.507507	147.040000
275.600525	147.640000
275.693573	147.140000
275.786591	146.560000
275.879669	146.940000
275.972656	146.600000
276.065735	146.000000
276.158752	146.800000
276.251801	147.760000
276.344818	147.600000
276.437866	147.360000
276.530884	147.360000
276.623932	146.240000
276.716980	146.040000
276.809998	146.040000
276.903046	146.240000
276.996094	146.940000
277.089111	148.080000
277.182159	148.520000
277.275208	148.240000
277.368256	147.800000
277.461304	147.240000
277.554321	146.200000
277.647369	145.860000
277.740417	146.080000
277.833466	145.960000
277.926514	145.880000
278.019562	146.740000
278.112610	146.140000
278.205688	146.140000
278.298706	146.260000
278.391785	146.060000
278.484833	145.480000
278.577881	145.380000
278.670929	145.680000
278.763977	146.000000
278.857025	146.400000
278.950073	146.680000
279.043121	146.780000
279.136169	146.720000
279.229248	146.420000
279.322296	146.520000
279.415344	146.420000
279.508392	146.180000
279.601440	146.100000
279.694519	146.080000
279.787567	145.780000
279.880615	145.720000
279.973694	145.820000
280.066742	145.660000
280.159790	146.000000
280.252869	145.660000
280.345917	145.700000
280.438995	146.220000
280.532074	146.040000
280.625122	146.240000
280.718201	147.380000
280.811279	147.440000
280.904327	147.180000
280.997406	147.480000
281.090454	147.340000
281.183533	146.440000
281.276581	146.260000
281.369659	145.940000
281.462738	146.040000
281.555786	145.860000
281.648865	146.060000
281.741943	146.100000
281.835022	147.120000
281.928070	146.920000
282.021149	146.760000
282.114227	146.860000
282.207306	146.860000
282.300385	146.420000
282.393433	146.640000
282.486511	146.560000
282.579590	146.880000
282.672668	147.220000
282.765747	146.400000
282.858856	145.940000
282.951904	146.260000
283.045013	146.080000
283.138062	146.260000
283.231171	147.020000
283.324249	147.440000
283.417328	147.660000
283.510406	147.080000
283.603485	146.600000
283.696564	146.520000
283.789642	146.480000
283.882751	146.040000
283.975830	146.800000
284.068909	146.660000
284.161987	146.900000
284.255066	146.220000
284.348175	146.480000
284.441254	146.380000
284.534332	146.820000
284.627441	146.600000
284.720520	146.600000
284.813599	146.640000
284.906708	146.560000
284.999786	145.880000
285.092896	145.480000
285.185974	146.840000
285.279053	146.260000
285.372192	146.120000
285.465240	147.100000
285.558380	147.320000
285.651459	146.440000
285.744568	147.680000
285.837677	147.480000
285.930756	147.160000
286.023865	147.280000
286.116943	147.180000
286.210052	146.760000
286.303162	146.560000
286.396240	146.540000
286.489349	146.180000
286.582458	146.560000
286.675568	146.240000
286.768646	146.720000
286.861755	146.860000
286.954865	147.500000
287.047974	146.800000
287.141083	146.620000
287.234161	146.220000
287.327271	145.880000
287.420380	146.220000
287.513519	146.400000
287.606598	146.320000
287.699738	146.760000
287.792816	146.720000
287.885956	146.240000
287.979034	146.440000
288.072174	146.840000
288.165283	146.420000
288.258392	146.700000
288.351501	146.500000
288.444611	146.540000
288.537720	146.660000
288.630859	146.540000
288.723969	146.640000
288.817078	146.900000
288.910187	146.740000
289.003296	146.140000
289.096436	146.020000
289.189545	145.620000
289.282654	145.100000
289.375763	145.620000
289.468903	146.280000
289.562012	146.940000
289.655121	147.000000
289.748260	147.140000
289.841400	147.320000
289.934509	147.100000
290.027649	147.240000
290.120728	147.060000
290.213898	147.280000
290.306976	146.980000
290.400146	146.640000
290.493256	145.940000
290.586395	146.180000
290.679535	146.500000
290.772644	146.180000
290.865784	146.060000
290.958893	146.380000
291.052032	146.100000
291.145172	145.800000
291.238281	145.760000
291.331421	145.980000
291.424561	146.480000
291.517670	146.400000
291.610809	146.840000
291.703949	146.660000
291.797089	146.520000
291.890228	145.840000
291.983337	145.960000
292.076477	145.380000
292.169617	146.060000
292.262756	146.220000
292.355927	145.940000
292.449036	146.020000
292.542206	146.280000
292.635315	145.960000
292.728485	146.360000
292.821625	146.720000
292.914764	147.740000
293.007904	147.740000
293.101044	147.960000
293.194183	147.720000
293.287323	147.720000
293.380463	146.860000
293.473602	146.380000
293.566742	146.480000
293.659882	146.780000
293.753021	146.920000
293.846191	146.900000
293.939331	146.980000
294.032471	146.720000
294.125610	146.100000
294.218781	146.540000
294.311920	146.720000
294.405060	147.060000
294.498230	147.180000
294.591370	147.440000
294.684540	146.380000
294.777679	145.980000
294.870850	146.140000
294.963959	146.040000
295.057159	145.900000
295.150299	146.440000
295.243469	146.620000
295.336609	146.080000
295.429779	145.980000
295.522919	146.640000
295.616089	146.740000
295.709229	147.440000
295.802399	148.020000
295.895569	147.840000
295.988708	147.340000
296.081879	147.440000
296.175018	146.680000
296.268188	146.340000
296.361359	147.000000
296.454529	147.000000
296.547668	146.860000
296.640839	147.100000
296.734009	147.100000
296.827179	146.880000
296.920319	147.220000
297.013519	146.780000
297.106659	146.620000
297.199860	146.520000
297.292999	146.380000
297.386200	145.720000
297.479309	146.100000
297.572510	146.040000
297.665680	145.660000
297.758850	145.700000
297.852020	146.060000
297.945190	145.700000
298.038361	145.280000
298.131531	146.420000
298.224701	146.160000
298.317871	145.800000
298.411072	145.700000
298.504242	145.940000
298.597412	145.380000
298.690582	145.620000
298.783752	145.800000
298.876923	146.280000
298.970093	146.380000
299.063293	146.600000
299.156464	146.880000
299.249634	146.860000
299.342834	146.980000
299.436005	147.380000
299.529205	147.200000
299.622345	147.160000
299.715576	147.060000
299.808716	146.920000
299.901917	146.880000
299.995117	147.020000
300.088287	147.060000
300.181488	146.840000
300.274658	146.580000
300.367828	146.340000
300.461029	146.200000
300.554199	146.240000
300.647400	146.420000
300.740601	146.740000
300.833771	146.960000
300.926971	147.040000
301.020142	146.320000
301.113342	146.180000
301.206512	146.160000
301.299713	145.760000
301.392914	145.700000
301.486084	146.160000
301.579285	146.420000
301.672516	146.680000
301.765686	146.940000
301.858887	146.960000
301.952057	146.920000
302.045288	147.040000
302.138458	147.020000
302.231659	146.940000
302.324860	146.760000
302.418060	146.480000
302.511261	146.200000
302.604462	146.240000
302.697662	145.800000
302.790863	145.680000
302.884064	145.660000
302.977264	145.840000
303.070465	145.880000
303.163666	146.820000
303.256866	147.180000
303.350067	147.460000
303.443268	147.460000
303.536469	147.260000
303.629669	146.720000
303.722870	146.760000
303.816071	146.400000
303.909271	146.340000
304.002472	145.560000
304.095673	145.280000
304.188934	144.560000
304.282104	145.640000
304.375336	145.460000
304.468506	145.860000
304.561768	145.780000
304.654968	146.440000
304.748169	145.740000
304.841370	145.560000
304.934601	145.900000
305.027802	145.980000
305.121002	145.600000
305.214233	145.360000
305.307434	145.740000
305.400665	146.480000
305.493866	146.300000
305.587097	146.580000
305.680298	146.580000
305.773499	146.880000
305.866730	146.040000
305.959930	146.720000
306.053162	146.980000
306.146393	146.820000
306.239594	145.940000
306.332825	145.980000
306.426025	146.240000
306.519287	145.420000
306.612488	145.580000
306.705719	145.840000
306.798920	145.660000
306.892181	145.040000
306.985352	145.340000
307.078613	144.940000
307.171844	145.560000
307.265045	145.440000
307.358276	145.120000
307.451508	145.440000
307.544739	146.240000
307.637970	145.740000
307.731201	145.600000
307.824402	146.720000
307.917633	147.000000
308.010864	147.120000
308.104095	147.640000
308.197327	147.860000
308.290558	147.320000
308.383789	146.760000
308.477020	146.240000
308.570251	145.600000
308.663483	145.340000
308.756714	145.160000
308.849976	145.520000
308.943176	146.240000
309.036438	145.940000
309.129639	145.880000
309.222900	145.940000
309.316101	145.500000
309.409393	144.760000
309.502625	144.940000
309.595856	145.200000
309.689087	145.400000
309.782318	145.640000
309.875580	145.740000
309.968811	145.880000
310.062042	145.700000
310.155273	145.280000
310.248535	145.640000
310.341766	145.540000
310.434998	145.560000
310.528259	145.600000
310.621490	146.140000
310.714722	145.240000
310.807983	145.280000
310.901215	145.160000
310.994476	145.240000
311.087708	144.820000
311.181000	145.560000
311.274200	145.180000
311.367462	145.360000
311.460693	145.220000
311.553986	145.860000
311.647186	145.800000
311.740479	146.700000
311.833710	146.480000
311.926971	146.720000
312.020203	145.940000
312.113464	145.880000
312.206726	145.180000
312.299957	145.540000
312.393219	146.220000
312.486481	146.480000
312.579712	146.240000
312.672974	146.400000
312.766235	146.300000
312.859497	145.660000
312.952759	145.800000
313.045990	146.560000
313.139252	146.160000
313.232513	146.380000
313.325775	146.640000
313.419037	146.500000
313.512299	145.840000
313.605530	146.680000
313.698822	146.480000
313.792053	146.420000
313.885345	145.800000
313.978577	145.920000
314.071869	145.280000
314.165131	145.620000
314.258392	145.720000
314.351654	146.300000
314.444916	145.880000
314.538177	146.620000
314.631439	146.760000
314.724701	146.640000
314.817993	146.660000
314.911255	147.040000
315.004517	146.360000
315.097778	146.020000
315.191040	146.260000
315.284302	146.400000
315.377594	146.500000
315.470856	146.680000
315.564117	146.540000
315.657379	146.000000
315.750671	145.540000
315.843933	145.520000
315.937195	145.180000
316.030518	144.780000
316.123749	144.860000
316.217041	145.940000
316.310303	146.060000
316.403595	146.420000
316.496857	147.060000
316.590149	147.360000
316.683411	146.560000
316.776703	146.360000
316.869965	146.240000
316.963257	145.920000
317.056519	145.460000
317.149811	145.140000
317.243073	145.080000
317.336365	145.220000
317.429626	145.320000
317.522919	145.920000
317.616180	146.160000
317.709473	145.880000
317.802765	145.560000
317.896027	145.700000
317.989319	145.780000
318.082611	145.780000
318.175873	145.820000
318.269165	146.000000
318.362488	146.080000
318.455750	145.500000
318.549042	145.720000
318.642303	146.440000
318.735626	146.540000
318.828888	146.380000
318.922211	146.400000
319.015472	146.800000
319.108765	146.040000
319.202057	145.680000
319.295349	146.060000
319.388641	146.300000
319.481934	145.980000
319.575226	145.880000
319.668518	146.240000
319.761810	146.080000
319.855103	145.820000
319.948395	145.620000
320.041687	146.060000
320.134979	145.820000
320.228271	145.900000
320.321564	145.960000
320.414856	146.340000
320.508148	145.880000
320.601440	145.740000
320.694763	145.060000
320.788025	145.900000
320.881348	145.620000
320.974640	145.840000
321.067963	145.760000
321.161224	146.240000
321.254547	145.520000
321.347839	145.960000
321.441162	145.520000
321.534454	145.960000
321.627747	145.720000
321.721069	145.960000
321.814362	145.760000
321.907654	146.160000
322.000946	145.980000
322.094269	146.680000
322.187561	146.260000
322.280884	146.520000
322.374176	146.940000
322.467468	147.400000
322.560791	147.200000
322.654083	147.700000
322.747406	147.520000
322.840698	147.200000
322.934021	147.460000
323.027344	147.480000
323.120636	147.060000
323.213959	147.100000
323.307251	147.160000
323.400574	146.460000
323.493866	146.120000
323.587219	146.720000
323.680511	146.920000
323.773834	146.900000
323.867157	147.180000
323.960449	147.580000
324.053772	147.220000
324.147095	146.980000
324.240387	147.380000
324.333710	147.280000
324.427032	147.060000
324.520355	146.700000
324.613647	146.200000
324.706970	145.940000
324.800293	145.820000
324.893616	145.980000
324.986938	146.320000
325.080231	146.180000
325.173553	146.420000
325.266876	146.880000
325.360199	146.660000
325.453522	146.460000
325.546875	146.560000
325.640167	146.540000
325.733521	146.600000
325.826813	146.720000
325.920166	146.700000
326.013489	146.540000
326.106812	145.800000
326.200134	145.380000
326.293457	144.900000
326.386780	144.940000
326.480103	145.080000
326.573425	145.180000
326.666748	145.280000
326.760071	145.540000
326.853424	145.640000
326.946747	145.600000
327.040070	146.480000
327.133392	146.040000
327.226715	145.780000
327.320068	145.320000
327.413391	145.800000
327.506714	145.020000
327.600037	145.200000
327.693390	145.520000
327.786713	145.960000
327.880066	146.000000
327.973358	146.420000
328.066742	146.760000
328.160034	146.660000
328.253418	146.720000
328.346710	146.340000
328.440063	145.580000
328.533417	145.280000
328.626740	145.380000
328.720093	145.020000
328.813416	145.100000
328.906769	145.300000
329.000092	145.460000
329.093445	145.640000
329.186768	145.760000
329.280121	146.120000
329.373444	146.620000
329.466797	146.520000
329.560120	146.360000
329.653473	146.600000
329.746796	146.100000
329.840149	145.660000
329.933502	145.640000
330.026825	145.620000
330.120178	145.040000
330.213562	145.140000
330.306854	145.540000
330.400238	145.340000
330.493561	145.140000
330.586945	146.280000
330.680237	146.740000
330.773621	146.460000
330.866974	146.580000
330.960327	146.700000
331.053680	145.920000
331.147003	145.900000
331.240356	146.100000
331.333710	146.320000
331.427063	146.220000
331.520416	146.100000
331.613770	145.560000
331.707123	145.660000
331.800476	145.900000
331.893829	146.960000
331.987152	147.280000
332.080505	147.520000
332.173859	147.300000
332.267212	146.780000
332.360565	145.500000
332.453918	145.120000
332.547333	145.240000
332.640656	145.020000
332.734039	145.580000
332.827362	145.880000
332.920746	146.100000
333.014069	146.080000
333.107452	146.720000
333.200806	146.460000
333.294159	146.640000
333.387543	146.520000
333.480896	146.100000
333.574249	145.920000
333.667603	145.580000
333.760956	145.300000
333.854340	145.480000
333.947693	145.560000
334.041046	145.360000
334.134430	145.820000
334.227783	145.860000
334.321136	145.640000
334.414520	145.520000
334.507874	145.780000
334.601227	145.600000
334.694611	145.640000
334.787964	145.880000
334.881348	146.040000
334.974701	145.820000
335.068085	145.360000
335.161438	145.400000
335.254822	145.100000
335.348175	145.240000
335.441559	144.840000
335.534943	145.940000
335.628296	145.880000
335.721680	146.140000
335.815033	146.360000
335.908417	146.940000
336.001770	146.380000
336.095154	146.300000
336.188538	146.000000
336.281891	145.360000
336.375275	144.880000
336.468658	144.740000
336.562012	144.900000
336.655396	145.680000
336.748779	146.360000
336.842133	146.520000
336.935516	146.740000
337.028900	146.500000
337.122284	146.020000
337.215637	146.020000
337.309021	146.000000
337.402435	145.720000
337.495789	145.740000
337.589203	145.840000
337.682526	145.580000
337.775940	145.900000
337.869324	146.220000
337.962708	145.900000
338.056091	146.140000
338.149475	145.700000
338.242859	145.700000
338.336243	145.340000
338.429626	145.900000
338.523010	145.540000
338.616394	145.740000
338.709778	145.860000
338.803162	146.100000
338.896545	145.960000
338.989929	145.540000
339.083313	145.640000
339.176697	145.280000
339.270081	145.140000
339.363464	145.400000
339.456848	145.840000
339.550232	145.560000
339.643616	145.400000
339.737030	145.320000
339.830383	144.840000
339.923828	144.940000
340.017181	145.320000
340.110596	145.560000
340.203949	145.600000
340.297363	145.400000
340.390778	145.240000
340.484161	144.880000
340.577545	144.820000
340.670959	145.180000
340.764343	145.320000
340.857727	145.500000
340.951111	145.460000
341.044525	145.600000
341.137909	144.920000
341.231293	145.040000
341.324707	144.540000
341.418091	145.360000
341.511505	145.480000
341.604889	145.820000
341.698303	146.020000
341.791687	146.100000
341.885071	145.240000
341.978485	144.760000
342.071899	144.920000
342.165283	145.220000
342.258698	145.860000
342.352081	146.640000
342.445496	147.380000
342.538879	147.140000
342.632324	146.600000
342.725708	146.300000
342.819122	145.420000
342.912506	144.920000
343.005920	144.820000
343.099335	145.680000
343.192719	145.460000
343.286133	145.740000
343.379547	145.800000
343.472931	145.820000
343.566345	145.160000
343.659760	145.420000
343.753143	145.160000
343.846558	144.780000
343.939972	144.720000
344.033386	145.180000
344.126770	144.980000
344.220184	145.340000
344.313599	146.160000
344.407043	146.560000
344.500427	145.960000
344.593872	146.500000
344.687225	146.220000
344.780670	145.700000
344.874054	145.300000
344.967499	145.500000
345.060913	145.220000
345.154327	145.320000
345.247742	144.800000
345.341156	144.660000
345.434570	144.440000
345.527985	144.320000
345.621399	144.440000
345.714813	144.720000
345.808228	145.060000
345.901642	145.140000
345.995056	144.880000
346.088470	144.980000
346.181885	145.240000
346.275299	145.200000
346.368713	145.000000
346.462128	144.920000
346.555573	144.960000
346.648987	145.020000
346.742401	145.100000
346.835815	145.700000
346.929260	145.660000
347.022644	145.800000
347.116119	146.100000
347.209503	146.020000
347.302948	146.720000
347.396362	147.580000
347.489807	147.580000
347.583221	147.740000
347.676636	147.660000
347.770050	146.760000
347.863495	145.980000
347.956909	145.760000
348.050323	145.180000
348.143768	145.240000
348.237183	144.860000
348.330597	145.160000
348.424042	145.600000
348.517456	145.840000
348.610901	146.080000
348.704315	146.020000
348.797760	145.700000
348.891174	145.000000
348.984619	144.420000
349.078033	144.580000
349.171448	145.060000
349.264923	144.800000
349.358337	144.980000
349.451782	145.340000
349.545197	144.740000
349.638641	144.180000
349.732086	144.240000
349.825500	144.720000
349.918945	144.380000
350.012390	144.820000
350.105804	145.680000
350.199249	146.140000
350.292664	146.220000
350.386108	146.480000
350.479553	146.860000
350.572968	146.360000
350.666412	146.420000
350.759857	145.920000
350.853302	146.320000
350.946716	145.680000
351.040161	145.800000
351.133606	145.660000
351.227081	145.840000
351.320465	146.580000
351.413940	147.020000
351.507355	147.220000
351.600830	147.380000
351.694244	147.080000
351.787720	146.660000
351.881104	146.380000
351.974579	146.240000
352.067993	146.920000
352.161469	147.340000
352.254883	146.300000
352.348358	146.180000
352.441803	145.980000
352.535248	145.240000
352.628693	145.340000
352.722137	145.840000
352.815582	145.860000
352.909027	146.220000
353.002472	146.100000
353.095917	145.700000
353.189362	145.920000
353.282806	146.020000
353.376251	145.620000
353.469696	145.540000
353.563141	146.080000
353.656586	145.500000
353.750061	145.220000
353.843475	145.440000
353.936981	145.800000
354.030396	145.240000
354.123871	145.380000
354.217285	146.260000
354.310760	146.380000
354.404175	146.500000
354.497681	146.380000
354.591095	146.480000
354.684570	145.440000
354.777985	145.000000
354.871490	144.480000
354.964935	144.900000
355.058380	145.060000
355.151855	145.260000
355.245300	145.800000
355.338745	146.320000
355.432220	146.340000
355.525665	146.140000
355.619110	146.620000
355.712585	146.180000
355.806030	145.780000
355.899475	145.540000
355.992950	145.980000
356.086426	146.540000
356.179871	146.800000
356.273346	147.200000
356.366791	147.320000
356.460266	147.200000
356.553711	146.320000
356.647186	146.180000
356.740631	145.820000
356.834106	145.460000
356.927551	145.540000
357.021027	145.760000
357.114471	145.960000
357.207947	146.040000
357.301422	146.380000
357.394867	146.340000
357.488342	146.360000
357.581818	146.380000
357.675262	146.880000
357.768738	146.620000
357.862213	145.780000
357.955658	145.840000
358.049133	145.760000
358.142609	145.700000
358.236053	145.900000
358.329529	146.360000
358.423035	146.340000
358.516449	146.140000
358.609955	146.160000
358.703400	146.700000
358.796906	147.200000
358.890350	146.800000
358.983826	147.080000
359.077271	146.340000
359.170776	145.880000
359.264221	145.200000
359.357727	145.400000
359.451172	145.500000
359.544647	145.860000
359.638123	145.720000
359.731598	146.360000
359.825073	146.640000
359.918549	146.800000
360.012024	146.920000
360.105499	146.480000
360.198975	146.380000
360.292450	146.180000
360.385925	145.500000
360.479401	144.880000
360.572876	145.400000
360.666351	145.560000
360.759857	145.580000
360.853302	145.860000
360.946808	145.960000
361.040253	145.800000
361.133759	145.280000
361.227203	145.380000
361.320709	145.220000
361.414154	145.740000
361.507660	146.060000
361.601105	146.740000
361.694641	147.200000
361.788086	147.500000
361.881592	147.900000
361.975067	147.660000
362.068542	147.440000
362.162018	147.060000
362.255524	146.540000
362.348999	146.100000
362.442474	146.340000
362.535950	145.720000
362.629456	145.540000
362.722931	145.660000
362.816406	145.980000
362.909882	146.300000
363.003387	146.280000
363.096863	146.880000
363.190338	146.700000
363.283875	146.320000
363.377319	146.160000
363.470825	146.960000
363.564301	146.160000
363.657806	146.760000
363.751282	146.520000
363.844788	147.280000
363.938232	146.700000
364.031769	147.420000
364.125214	147.460000
364.218750	148.320000
364.312225	147.140000
364.405731	147.400000
364.499207	147.020000
364.592712	146.740000
364.686188	146.200000
364.779694	146.360000
364.873169	146.340000
364.966675	146.000000
365.060150	145.840000
365.153656	145.800000
365.247131	145.660000
365.340637	145.620000
365.434143	146.040000
365.527618	146.340000
365.621155	146.240000
365.714600	146.640000
365.808136	146.540000
365.901611	145.660000
365.995117	145.400000
366.088593	145.460000
366.182129	145.140000
366.275604	145.460000
366.369110	146.060000
366.462585	146.120000
366.556122	146.740000
366.649567	146.940000
366.743103	147.040000
366.836609	146.680000
366.930115	146.940000
367.023590	146.440000
367.117096	146.220000
367.210602	146.020000
367.304108	146.940000
367.397614	147.240000
367.491119	147.500000
367.584595	147.660000
367.678101	147.620000
367.771606	146.980000
367.865112	146.400000
367.958649	145.860000
368.052124	145.640000
368.145660	145.500000
368.239136	145.900000
368.332672	146.100000
368.426147	146.460000
368.519684	146.140000
368.613159	146.540000
368.706696	146.260000
368.800171	146.220000
368.893707	145.640000
368.987183	145.960000
369.080719	145.820000
369.174225	145.500000
369.267731	145.940000
369.361237	146.200000
369.454742	146.140000
369.548248	146.640000
369.641754	146.440000
369.735260	146.140000
369.828766	145.480000
369.922272	146.100000
370.015808	145.500000
370.109314	145.820000
370.202820	145.380000
370.296356	146.840000
370.389832	146.380000
370.483368	146.020000
370.576874	145.900000
370.670410	146.320000
370.763885	145.160000
370.857422	145.240000
370.950928	145.360000
371.044464	146.260000
371.137939	146.240000
371.231476	146.820000
371.324982	147.240000
371.418518	147.320000
371.512024	146.760000
371.605560	146.360000
371.699066	146.260000
371.792572	145.600000
371.886108	145.860000
371.979614	145.940000
372.073120	146.480000
372.166656	146.240000
372.260162	146.680000
372.353668	146.400000
372.447205	145.920000
372.540710	145.680000
372.634277	145.860000
372.727753	145.800000
372.821320	146.140000
372.914795	146.680000
373.008362	146.560000
373.101837	146.600000
373.195404	146.380000
373.288879	145.960000
373.382446	146.460000
373.475922	146.380000
373.569489	146.920000
373.662964	147.540000
373.756531	147.880000
373.850037	147.720000
373.943573	147.900000
374.037109	146.820000
374.130615	146.840000
374.224152	146.780000
374.317657	146.260000
374.411194	146.920000
374.504730	147.160000
374.598236	146.680000
374.691772	146.520000
374.785309	146.640000
374.878815	145.860000
374.972351	146.240000
375.065887	145.980000
375.159454	146.740000
375.252930	146.760000
375.346497	146.880000
375.440002	147.400000
375.533569	147.560000
375.627045	146.500000
375.720612	146.080000
375.814117	146.180000
375.907684	145.440000
376.001160	145.300000
376.094727	145.440000
376.188232	146.560000
376.281799	146.760000
376.375336	146.920000
376.468872	147.500000
376.562408	147.680000
376.655914	146.560000
376.749451	146.440000
376.842987	146.600000
376.936523	146.060000
377.030060	146.120000
377.123596	146.900000
377.217133	146.700000
377.310669	146.860000
377.404205	147.260000
377.497772	147.560000
377.591278	147.080000
377.684845	147.620000
377.778351	147.580000
377.871918	147.240000
377.965424	146.700000
378.058990	146.500000
378.152496	145.820000
378.246063	145.920000
378.339569	146.060000
378.433136	146.220000
378.526642	146.660000
378.620209	146.980000
378.713745	146.380000
378.807312	147.040000
378.900848	146.920000
378.994385	147.220000
379.087921	146.720000
379.181458	147.200000
379.274994	146.280000
379.368530	146.220000
379.462097	145.920000
379.555634	146.600000
379.649170	146.000000
379.742706	146.000000
379.836273	146.060000
379.929810	145.760000
380.023376	145.220000
380.116882	145.520000
380.210449	145.760000
380.303986	145.360000
380.397552	145.140000
380.491058	145.360000
380.584656	145.360000
380.678162	145.320000
380.771729	145.780000
380.865265	146.720000
380.958832	146.660000
381.052368	146.460000
381.145935	146.660000
381.239471	146.700000
381.333008	145.800000
381.426575	145.800000
381.520111	146.400000
381.613647	146.360000
381.707214	146.080000
381.800751	145.960000
381.894318	146.300000
381.987854	145.340000
382.081421	145.360000
382.174988	145.780000
382.268524	145.720000
382.362091	145.460000
382.455627	146.480000
382.549194	146.280000
382.642731	145.560000
382.736298	145.760000
382.829834	145.540000
382.923401	145.760000
383.016937	145.740000
383.110504	146.440000
383.204041	146.660000
383.297607	147.200000
383.391174	146.280000
383.484741	146.880000
383.578278	146.420000
383.671844	146.040000
383.765411	145.040000
383.858948	145.460000
383.952515	145.120000
384.046051	145.760000
384.139618	146.180000
384.233185	146.880000
384.326721	146.960000
384.420288	147.340000
384.513855	147.100000
384.607422	147.280000
384.700989	147.620000
384.794525	147.180000
384.888123	147.020000
384.981659	147.280000
385.075226	146.680000
385.168762	146.240000
385.262360	146.160000
385.355896	145.280000
385.449463	145.100000
385.542999	145.440000
385.636597	145.820000
385.730164	146.380000
385.823730	146.460000
385.917267	145.980000
386.010834	145.940000
386.104401	145.700000
386.197968	145.800000
386.291534	146.320000
386.385101	146.660000
386.478668	147.060000
386.572235	147.280000
386.665802	146.580000
386.759338	146.160000
386.852905	145.960000
386.946472	145.420000
387.040070	145.400000
387.133606	145.700000
387.227203	145.700000
387.320740	146.020000
387.414337	145.680000
387.507874	145.300000
387.601471	145.460000
387.695007	145.460000
387.788605	145.140000
387.882141	145.700000
387.975739	146.060000
388.069275	145.420000
388.162872	145.540000
388.256439	145.640000
388.350037	145.320000
388.443604	145.160000
388.537170	145.740000
388.630737	146.520000
388.724304	146.700000
388.817871	146.880000
388.911438	146.880000
389.005005	147.080000
389.098602	146.540000
389.192169	146.020000
389.285736	146.240000
389.379333	146.160000
389.472870	145.560000
389.566467	145.520000
389.660034	145.860000
389.753632	145.460000
389.847168	145.980000
389.940765	146.240000
390.034332	146.420000
390.127930	146.020000
390.221466	145.840000
390.315063	145.320000
390.408630	144.620000
390.502228	143.920000
390.595795	144.440000
390.689362	144.760000
390.782959	144.820000
390.876526	145.640000
390.970093	145.980000
391.063690	146.260000
391.157257	146.240000
391.250824	146.520000
391.344421	146.180000
391.437988	146.440000
391.531555	146.260000
391.625153	146.480000
391.718750	146.740000
391.812317	146.600000
391.905914	146.220000
391.999481	146.300000
392.093079	146.060000
392.186615	145.980000
392.280243	146.380000
392.373779	146.580000
392.467407	146.900000
392.560944	147.100000
392.654572	146.460000
392.748108	146.400000
392.841736	146.340000
392.935303	146.000000
393.028900	145.400000
393.122467	145.500000
393.216064	144.960000
393.309631	144.540000
393.403229	143.820000
393.496796	144.160000
393.590393	143.860000
393.683990	144.500000
393.777557	145.060000
393.871155	145.320000
393.964722	145.700000
394.058350	146.020000
394.151917	145.840000
394.245514	145.480000
394.339081	146.080000
394.432678	146.520000
394.526245	146.480000
394.619873	145.880000
394.713409	145.980000
394.807037	145.260000
394.900604	145.080000
394.994202	145.020000
395.087769	145.660000
395.181396	145.520000
395.274994	146.600000
395.368561	145.880000
395.462158	146.200000
395.555756	145.940000
395.649353	146.300000
395.742920	145.660000
395.836517	146.220000
395.930115	145.540000
396.023712	146.120000
396.117279	146.500000
396.210876	146.240000
396.304474	146.000000
396.398071	146.540000
396.491669	146.620000
396.585266	146.160000
396.678833	145.720000
396.772461	146.060000
396.866028	146.000000
396.959656	146.160000
397.053223	146.540000
397.146851	146.880000
397.240417	146.920000
397.334015	147.620000
397.427582	147.300000
397.521210	147.420000
397.614807	148.040000
397.708405	148.240000
397.802002	148.540000
397.895599	150.100000
397.989197	150.860000
398.082794	152.180000
398.176392	153.640000
398.269989	155.040000
398.363586	156.520000
398.457184	159.380000
398.550781	161.880000
398.644379	164.060000
398.737976	166.420000
398.831573	168.800000
398.925201	170.500000
399.018768	172.580000
399.112396	175.060000
399.205963	177.520000
399.299591	179.760000
399.393158	182.440000
399.486786	185.640000
399.580353	189.180000
399.673981	193.340000
399.767578	198.520000
399.861206	204.880000
399.954773	211.420000
400.048401	218.180000
400.141998	224.180000
400.235596	230.380000
400.329193	234.680000
400.422791	239.660000
400.516418	242.800000
400.610016	246.740000
400.703613	249.300000
400.797211	250.600000
400.890808	249.420000
400.984436	248.200000
401.078033	243.920000
401.171631	237.920000
401.265259	231.420000
401.358826	224.760000
401.452484	216.820000
401.546051	209.660000
401.639679	201.780000
401.733246	194.840000
401.826904	187.280000
401.920471	180.180000
402.014099	174.020000
402.107697	168.940000
402.201324	164.580000
402.294891	161.100000
402.388550	158.640000
402.482147	156.260000
402.575745	154.320000
402.669373	152.020000
402.762970	150.500000
402.856567	149.620000
402.950195	148.800000
403.043793	148.020000
403.137390	148.380000
403.231018	147.400000
403.324615	147.380000
403.418243	146.880000
403.511841	147.240000
403.605469	146.780000
403.699066	147.460000
403.792694	147.280000
403.886292	147.460000
403.979919	147.220000
404.073517	146.840000
404.167145	146.880000
404.260712	146.520000
404.354370	146.180000
404.447937	146.200000
404.541595	146.600000
404.635162	146.720000
404.728821	147.240000
404.822418	146.840000
404.916046	146.460000
405.009644	146.360000
405.103271	146.460000
405.196899	145.940000
405.290497	146.380000
405.384125	146.800000
405.477722	146.220000
405.571350	145.460000
405.664948	145.900000
405.758575	145.800000
405.852203	145.300000
405.945801	145.820000
406.039429	146.020000
406.133057	145.560000
406.226654	145.480000
406.320312	145.820000
406.413879	145.720000
406.507538	146.160000
406.601135	146.120000
406.694763	146.800000
406.788361	146.340000
406.882019	146.080000
406.975586	146.080000
407.069244	146.720000
407.162872	146.360000
407.256470	146.660000
407.350098	146.620000
407.443726	146.420000
407.537323	145.760000
407.630951	146.100000
407.724579	145.640000
407.818207	146.140000
407.911804	145.940000
408.005432	145.880000
408.099060	145.840000
408.192688	146.660000
408.286285	146.500000
408.379913	146.200000
408.473572	146.420000
408.567169	145.620000
408.660828	145.480000
408.754395	145.220000
408.848053	145.120000
408.941650	145.220000
409.035309	145.240000
409.128906	145.020000
409.222565	145.020000
409.316132	145.720000
409.409790	145.420000
409.503387	145.600000
409.597046	145.740000
409.690674	146.040000
409.784302	145.920000
409.877930	146.020000
409.971558	146.260000
410.065186	146.260000
410.158783	146.160000
410.252411	146.080000
410.346039	146.380000
410.439667	146.260000
410.533295	146.300000
410.626923	146.520000
410.720551	146.160000
410.814209	146.480000
410.907806	146.460000
411.001465	145.680000
411.095062	145.620000
411.188721	145.820000
411.282318	145.280000
411.375977	145.100000
411.469574	145.840000
411.563232	145.580000
411.656830	145.560000
411.750488	145.400000
411.844086	145.560000
411.937744	145.560000
412.031372	145.220000
412.125000	145.500000
412.218628	145.520000
412.312256	145.920000
412.405884	146.060000
412.499512	146.320000
412.593170	146.140000
412.686798	146.400000
412.780426	146.120000
412.874054	145.880000
412.967682	145.880000
413.061310	146.400000
413.154968	146.360000
413.248566	146.220000
413.342224	146.160000
413.435852	146.220000
413.529510	145.800000
413.623108	145.460000
413.716766	145.320000
413.810364	145.780000
413.904022	145.500000
413.997650	144.980000
414.091309	145.840000
414.184906	145.880000
414.278564	145.380000
414.372192	146.100000
414.465851	146.980000
414.559479	146.200000
414.653107	147.200000
414.746735	147.120000
414.840393	146.860000
414.934021	146.800000
415.027649	146.760000
415.121277	146.200000
415.214935	146.640000
415.308563	146.580000
415.402191	145.960000
415.495850	146.020000
415.589478	145.800000
415.683136	145.320000
415.776733	145.520000
415.870422	146.360000
415.964020	145.840000
416.057678	145.940000
416.151306	146.300000
416.244965	146.060000
416.338562	145.620000
416.432251	146.680000
416.525848	147.180000
416.619507	147.580000
416.713165	147.920000
416.806793	147.740000
416.900421	147.720000
416.994080	146.900000
417.087708	146.580000
417.181366	146.380000
417.274994	146.300000
417.368622	145.920000
417.462280	146.440000
417.555908	146.180000
417.649567	145.600000
417.743195	145.720000
417.836853	145.880000
417.930481	146.180000
418.024170	146.280000
418.117767	147.220000
418.211426	147.540000
418.305054	147.480000
418.398712	146.840000
418.492340	146.880000
418.585999	147.080000
418.679626	147.240000
418.773285	147.300000
418.866913	147.760000
418.960571	148.000000
419.054230	147.540000
419.147858	147.220000
419.241516	147.420000
419.335144	147.100000
419.428802	146.960000
419.522461	146.860000
419.616089	146.520000
419.709747	146.440000
419.803375	146.540000
419.897034	146.460000
419.990662	146.220000
420.084320	146.540000
420.177979	146.800000
420.271606	146.880000
420.365295	147.240000
420.458893	147.680000
420.552582	147.760000
420.646210	147.480000
420.739868	147.160000
420.833496	146.780000
420.927155	146.520000
421.020782	146.260000
421.114471	145.880000
421.208069	146.020000
421.301758	146.280000
421.395386	146.300000
421.489044	146.360000
421.582703	146.280000
421.676361	146.700000
421.769989	146.040000
421.863647	146.100000
421.957306	146.040000
422.050934	146.140000
422.144592	145.680000
422.238251	145.940000
422.331909	145.820000
422.425537	145.780000
422.519196	146.180000
422.612854	145.780000
422.706543	145.640000
422.800140	145.760000
422.893829	145.760000
422.987457	145.240000
423.081146	145.660000
423.174744	146.120000
423.268433	145.680000
423.362061	145.500000
423.455750	145.560000
423.549347	145.700000
423.643036	145.080000
423.736664	145.820000
423.830353	146.000000
423.924011	146.620000
424.017639	146.000000
424.111298	146.080000
424.204956	145.880000
424.298615	145.900000
424.392273	145.140000
424.485931	145.520000
424.579559	145.840000
424.673218	145.700000
424.766876	145.740000
424.860535	145.840000
424.954193	145.720000
425.047882	146.040000
425.141510	145.960000
425.235199	145.940000
425.328796	145.740000
425.422485	145.640000
425.516113	144.800000
425.609802	145.020000
425.703430	145.100000
425.797119	145.320000
425.890747	145.540000
425.984436	145.820000
426.078064	145.580000
426.171753	145.620000
426.265411	145.460000
426.359070	145.520000
426.452728	145.540000
426.546356	145.640000
426.640015	145.120000
426.733673	145.060000
426.827332	144.880000
426.920990	145.580000
427.014648	145.420000
427.108307	145.800000
427.201965	146.580000
427.295624	146.840000
427.389282	145.940000
427.482941	146.220000
427.576630	146.040000
427.670258	145.180000
427.763947	144.740000
427.857574	145.220000
427.951263	145.140000
428.044922	144.940000
428.138611	145.380000
428.232239	145.920000
428.325928	146.340000
428.419556	146.720000
428.513245	146.780000
428.606903	146.740000
428.700562	146.380000
428.794220	145.380000
428.887878	144.700000
428.981537	145.160000
429.075195	145.100000
429.168854	145.300000
429.262512	145.460000
429.356201	145.700000
429.449860	145.520000
429.543518	145.740000
429.637177	146.020000
429.730835	146.120000
429.824493	145.900000
429.918182	146.020000
430.011810	145.120000
430.105530	144.400000
430.199158	144.740000
430.292847	144.780000
430.386475	144.460000
430.480164	145.080000
430.573792	145.000000
430.667511	144.940000
430.761139	145.120000
430.854828	145.920000
430.948456	146.140000
431.042145	147.080000
431.135834	146.520000
431.229492	146.760000
431.323151	146.380000
431.416809	146.080000
431.510468	145.620000
431.604156	146.000000
431.697815	145.960000
431.791473	145.400000
431.885132	145.300000
431.978821	145.480000
432.072479	145.700000
432.166138	145.780000
432.259827	145.900000
432.353485	146.340000
432.447174	146.560000
432.540802	146.320000
432.634491	146.380000
432.728149	147.020000
432.821838	147.320000
432.915466	146.780000
433.009186	146.800000
433.102814	146.100000
433.196503	145.720000
433.290131	145.580000
433.383850	145.940000
433.477509	146.180000
433.571167	147.180000
433.664856	147.560000
433.758514	147.700000
433.852173	147.600000
433.945862	147.200000
434.039520	147.020000
434.133179	146.660000
434.226868	146.160000
434.320526	145.360000
434.414185	146.160000
434.507874	145.660000
434.601562	145.760000
434.695221	145.460000
434.788910	146.240000
434.882538	146.060000
434.976257	145.640000
435.069885	145.480000
435.163574	146.140000
435.257233	145.520000
435.350922	144.980000
435.444580	145.120000
435.538269	145.080000
435.631897	145.300000
435.725616	146.100000
435.819275	146.840000
435.912964	147.340000
436.006622	147.820000
436.100311	147.420000
436.193970	146.380000
436.287628	145.900000
436.381317	145.360000
436.474976	144.920000
436.568665	144.620000
436.662323	145.180000
436.756012	145.060000
436.849670	145.340000
436.943390	145.460000
437.037018	145.480000
437.130737	145.620000
437.224365	145.460000
437.318085	145.360000
437.411713	145.360000
437.505432	145.840000
437.599060	146.200000
437.692780	147.140000
437.786407	147.200000
437.880127	147.000000
437.973755	146.900000
438.067474	146.320000
438.161133	145.800000
438.254822	146.320000
438.348480	145.980000
438.442169	146.400000
438.535828	147.180000
438.629517	146.800000
438.723175	146.220000
438.816864	147.000000
438.910553	146.220000
439.004211	145.540000
439.097900	145.600000
439.191559	145.480000
439.285248	144.980000
439.378906	145.600000
439.472626	145.640000
439.566284	145.500000
439.659973	146.020000
439.753632	146.180000
439.847321	146.260000
439.940979	146.460000
440.034698	146.500000
440.128326	145.860000
440.222046	145.580000
440.315674	144.920000
440.409393	145.140000
440.503082	145.200000
440.596741	145.700000
440.690430	145.980000
440.784088	145.820000
440.877777	145.140000
440.971466	145.240000
441.065125	145.000000
441.158813	144.860000
441.252502	145.100000
441.346161	145.480000
441.439850	145.620000
441.533539	145.300000
441.627197	145.760000
441.720886	145.580000
441.814606	145.980000
441.908234	146.300000
442.001953	146.500000
442.095612	146.300000
442.189301	146.720000
442.282959	146.460000
442.376678	145.720000
442.470306	146.460000
442.564026	146.120000
442.657684	146.340000
442.751404	146.300000
442.845032	147.480000
442.938751	146.560000
443.032440	147.020000
443.126099	146.260000
443.219788	146.580000
443.313477	146.020000
443.407166	146.720000
443.500824	146.520000
443.594513	147.000000
443.688202	146.640000
443.781891	146.140000
443.875549	145.620000
443.969238	145.520000
444.062927	145.460000
444.156647	145.440000
444.250275	146.000000
444.343994	146.000000
444.437653	146.400000
444.531372	146.260000
444.625031	146.100000
444.718719	145.600000
444.812378	145.620000
444.906097	145.220000
444.999756	145.000000
445.093445	145.160000
445.187103	145.180000
445.280823	145.880000
445.374512	145.480000
445.468201	145.660000
445.561859	145.580000
445.655548	145.780000
445.749237	145.240000
445.842926	145.740000
445.936615	146.100000
446.030304	145.760000
446.123962	146.120000
446.217651	145.820000
446.311340	145.780000
446.405029	145.460000
446.498749	145.720000
446.592407	145.180000
446.686096	145.460000
446.779755	145.760000
446.873474	145.880000
446.967133	146.100000
447.060852	146.040000
447.154510	146.060000
447.248230	145.900000
447.341858	145.560000
447.435577	145.040000
447.529236	144.820000
447.622955	144.660000
447.716644	144.520000
447.810333	145.120000
447.904022	145.800000
447.997711	145.980000
448.091400	146.400000
448.185059	146.380000
448.278748	146.300000
448.372437	145.900000
448.466125	146.100000
448.559814	146.020000
448.653503	146.500000
448.747192	146.740000
448.840912	147.120000
448.934570	147.440000
449.028290	147.720000
449.121948	147.180000
449.215637	146.620000
449.309296	146.280000
449.403015	146.220000
449.496674	146.120000
449.590393	146.240000
449.684052	146.140000
449.777771	146.900000
449.871429	146.300000
449.965149	145.800000
450.058838	146.020000
450.152527	146.480000
450.246216	146.160000
450.339905	146.240000
450.433594	146.020000
450.527283	146.500000
450.620972	146.180000
450.714661	145.960000
450.808350	146.220000
450.902039	146.760000
450.995728	146.220000
451.089417	145.880000
451.183105	146.040000
451.276794	146.320000
451.370514	145.700000
451.464172	144.820000
451.557892	145.120000
451.651550	145.380000
451.745270	144.980000
451.838928	144.820000
451.932648	145.740000
452.026306	146.060000
452.120026	145.440000
452.213684	146.020000
452.307404	146.540000
452.401062	146.660000
452.494781	146.800000
452.588470	146.880000
452.682159	146.000000
452.775848	145.760000
452.869537	144.960000
452.963226	144.600000
453.056915	144.380000
453.150604	144.700000
453.244293	145.080000
453.337982	145.980000
453.431671	146.320000
453.525360	147.200000
453.619049	147.400000
453.712769	147.200000
453.806427	146.460000
453.900146	146.080000
453.993805	145.460000
454.087555	145.760000
454.181213	145.700000
454.274933	146.020000
454.368591	146.040000
454.462311	145.780000
454.555969	145.240000
454.649689	146.040000
454.743347	145.620000
454.837067	146.440000
454.930756	147.220000
455.024445	147.480000
455.118134	147.020000
455.211853	147.360000
455.305542	146.500000
455.399231	146.100000
455.492920	145.780000
455.586609	145.700000
455.680298	146.060000
455.773987	145.660000
455.867676	145.560000
455.961365	145.760000
456.055084	145.740000
456.148773	145.360000
456.242493	145.860000
456.336151	145.900000
456.429871	146.080000
456.523529	146.440000
456.617249	146.360000
456.710907	146.940000
456.804626	147.040000
456.898315	146.560000
456.992035	146.220000
457.085693	145.960000
457.179413	144.980000
457.273102	145.580000
457.366791	146.020000
457.460480	146.300000
457.554199	147.300000
457.647888	147.960000
457.741577	147.180000
457.835266	147.000000
457.928955	146.940000
458.022644	146.580000
458.116364	146.640000
458.210052	146.720000
458.303741	146.780000
458.397461	146.100000
458.491119	145.440000
458.584839	145.200000
458.678528	144.860000
458.772247	144.420000
458.865906	144.720000
458.959625	146.020000
459.053284	146.180000
459.147003	146.320000
459.240692	147.340000
459.334412	147.540000
459.428070	146.840000
459.521790	146.360000
459.615479	146.540000
459.709198	146.720000
459.802887	146.500000
459.896576	146.440000
459.990265	146.740000
460.083954	146.760000
460.177673	145.860000
460.271362	146.120000
460.365051	145.880000
460.458740	145.600000
460.552429	145.260000
460.646149	145.300000
460.739838	144.980000
460.833527	145.240000
460.927246	145.220000
461.020905	145.040000
461.114655	145.120000
461.208313	145.520000
461.302032	145.200000
461.395691	145.480000
461.489441	145.960000
461.583099	146.120000
461.676819	145.580000
461.770477	145.960000
461.864197	145.660000
461.957916	145.540000
462.051605	144.860000
462.145294	145.880000
462.238983	145.460000
462.332703	145.940000
462.426392	146.620000
462.520081	147.040000
462.613770	146.400000
462.707489	146.800000
462.801178	146.600000
462.894867	145.980000
462.988556	146.140000
463.082275	146.060000
463.175964	145.580000
463.269684	145.720000
463.363342	145.880000
463.457092	145.280000
463.550751	145.620000
463.644470	146.000000
463.738129	145.680000
463.831879	145.840000
463.925537	146.720000
464.019257	146.760000
464.112946	146.520000
464.206665	146.280000
464.300323	145.720000
464.394043	145.340000
464.487762	145.480000
464.581451	145.520000
464.675140	145.600000
464.768829	146.320000
464.862549	146.360000
464.956238	146.100000
465.049927	146.640000
465.143646	146.780000
465.237335	146.160000
465.331024	146.400000
465.424713	146.400000
465.518433	146.200000
465.612152	146.140000
465.705811	146.480000
465.799561	146.180000
465.893219	145.640000
465.986938	145.260000
466.080597	145.340000
466.174347	145.420000
466.268005	145.720000
466.361725	145.920000
466.455414	146.220000
466.549133	146.180000
466.642792	146.340000
466.736542	145.740000
466.830231	146.080000
466.923920	145.940000
467.017609	145.800000
467.111328	145.240000
467.205017	145.480000
467.298706	145.400000
467.392426	145.600000
467.486115	146.020000
467.579803	145.920000
467.673523	146.320000
467.767212	146.200000
467.860901	146.040000
467.954651	146.180000
468.048309	146.420000
468.142029	146.120000
468.235718	146.140000
468.329437	146.000000
468.423096	145.680000
468.516846	145.580000
468.610504	145.040000
468.704224	144.720000
468.797913	144.900000
468.891632	145.080000
468.985291	145.120000
469.079010	145.640000
469.172729	145.540000
469.266418	145.820000
469.360107	145.780000
469.453827	145.560000
469.547516	145.580000
469.641205	146.520000
469.734924	146.540000
469.828613	146.920000
469.922302	147.320000
470.016022	147.420000
470.109711	146.620000
470.203430	145.880000
470.297150	144.840000
470.390808	144.980000
470.484558	144.600000
470.578217	145.460000
470.671936	146.240000
470.765625	147.140000
470.859344	146.560000
470.953003	147.020000
471.046753	146.180000
471.140411	145.420000
471.234131	145.620000
471.327820	146.260000
471.421539	146.280000
471.515228	146.220000
471.608948	146.340000
471.702637	145.700000
471.796326	145.460000
471.890045	145.600000
471.983734	146.120000
472.077423	146.240000
472.171143	146.420000
472.264832	146.180000
472.358521	145.700000
472.452240	145.160000
472.545929	145.600000
472.639648	145.840000
472.733337	146.040000
472.827057	146.480000
472.920746	146.820000
473.014465	147.100000
473.108124	147.100000
473.201874	147.320000
473.295532	146.820000
473.389252	147.080000
473.482941	146.760000
473.576660	146.220000
473.670319	146.040000
473.764069	146.440000
473.857727	146.500000
473.951477	146.760000
474.045166	147.320000
474.138855	146.860000
474.232574	146.840000
474.326263	146.720000
474.419952	146.400000
474.513672	146.560000
474.607361	146.900000
474.701050	146.860000
474.794769	147.040000
474.888458	147.260000
474.982178	147.100000
475.075867	147.360000
475.169586	147.140000
475.263275	146.840000
475.356995	146.820000
475.450653	146.380000
475.544403	145.740000
475.638062	146.500000
475.731812	146.200000
475.825470	145.800000
475.919189	145.860000
476.012878	146.600000
476.106598	145.900000
476.200256	146.360000
476.294006	146.640000
476.387695	146.460000
476.481384	146.160000
476.575104	146.160000
476.668793	145.820000
476.762512	145.180000
476.856201	145.880000
476.949890	145.620000
477.043610	145.460000
477.137299	145.480000
477.230988	146.160000
477.324707	145.660000
477.418396	146.100000
477.512146	146.160000
477.605804	146.060000
477.699524	145.940000
477.793213	145.880000
477.886932	145.620000
477.980591	145.280000
478.074341	145.340000
478.167999	144.820000
478.261749	144.880000
478.355408	144.580000
478.449127	145.380000
478.542816	146.140000
478.636536	146.880000
478.730225	147.220000
478.823944	147.540000
478.917633	147.040000
479.011322	146.900000
479.105042	146.720000
479.198730	146.780000
479.292450	146.700000
479.386139	147.080000
479.479828	146.740000
479.573547	147.100000
479.667267	146.700000
479.760925	146.700000
479.854675	146.580000
479.948334	146.720000
480.042084	145.820000
480.135742	146.500000
480.229462	146.100000
480.323151	146.360000
480.416870	145.900000
480.510529	145.960000
480.604279	145.020000
480.697937	145.760000
480.791656	145.140000
480.885345	145.100000
480.979065	145.280000
481.072754	145.980000
481.166473	146.120000
481.260132	145.800000
481.353882	145.960000
481.447540	145.820000
481.541260	145.720000
481.635010	145.120000
481.728668	145.620000
481.822388	145.660000
481.916077	146.100000
482.009796	145.540000
482.103485	146.180000
482.197205	146.000000
482.290863	146.220000
482.384613	145.820000
482.478271	145.980000
482.571991	145.700000
482.665680	146.020000
482.759399	146.380000
482.853058	146.720000
482.946808	146.660000
483.040466	146.440000
483.134216	146.200000
483.227875	145.460000
483.321594	145.820000
483.415283	145.880000
483.509003	145.900000
483.602661	145.740000
483.696411	145.860000
483.790070	145.680000
483.883789	145.600000
483.977478	145.840000
484.071198	146.120000
484.164917	145.840000
484.258606	145.480000
484.352325	146.020000
484.445984	145.920000
484.539734	145.840000
484.633392	145.640000
484.727142	145.940000
484.820801	145.740000
484.914520	145.580000
485.008209	145.880000
485.101929	146.380000
485.195587	146.180000
485.289337	146.020000
485.382996	146.280000
485.476715	146.060000
485.570404	146.680000
485.664124	146.660000
485.757782	147.300000
485.851532	147.000000
485.945190	146.900000
486.038910	146.640000
486.132599	146.640000
486.226318	145.960000
486.319977	146.140000
486.413727	146.520000
486.507446	145.980000
486.601105	145.640000
486.694855	145.300000
486.788513	145.060000
486.882233	144.920000
486.975922	145.160000
487.069641	145.340000
487.163300	145.260000
487.257050	146.240000
487.350708	145.660000
487.444427	145.320000
487.538116	145.260000
487.631836	145.420000
487.725494	144.900000
487.819214	145.220000
487.912903	145.360000
488.006622	145.900000
488.100281	146.540000
488.194031	146.300000
488.287689	146.680000
488.381409	147.560000
488.475098	147.240000
488.568817	147.360000
488.662476	147.100000
488.756226	146.600000
488.849945	145.340000
488.943604	145.460000
489.037354	145.020000
489.131012	145.100000
489.224731	145.140000
489.318390	145.460000
489.412140	145.360000
489.505798	145.420000
489.599518	145.240000
489.693207	145.840000
489.786926	145.820000
489.880585	145.640000
489.974335	146.020000
490.067993	147.300000
490.161713	147.060000
490.255371	147.540000
490.349121	147.860000
490.442780	147.440000
490.536499	146.280000
490.630188	146.320000
490.723907	145.780000
490.817566	145.740000
490.911285	145.880000
491.004974	145.960000
491.098694	145.480000
491.192413	146.360000
491.286102	146.080000
491.379822	146.020000
491.473480	146.360000
491.567200	146.600000
491.660889	145.740000
491.754608	145.960000
491.848267	146.240000
491.941986	145.880000
492.035675	145.860000
492.129395	146.360000
492.223053	146.120000
492.316772	146.000000
492.410461	145.840000
492.504181	145.640000
492.597839	145.220000
492.691559	145.260000
492.785248	145.180000
492.878967	145.580000
492.972626	145.500000
493.066345	146.040000
493.160034	145.820000
493.253754	145.500000
493.347412	145.200000
493.441132	145.560000
493.534882	145.780000
493.628540	146.360000
493.722260	146.760000
493.815918	147.100000
493.909668	147.460000
494.003326	147.240000
494.097046	146.780000
494.190704	146.380000
494.284454	146.360000
494.378113	145.980000
494.471832	146.000000
494.565491	146.100000
494.659210	146.360000
494.752899	146.060000
494.846619	146.020000
494.940277	145.980000
495.033997	145.940000
495.127686	145.700000
495.221405	145.600000
495.315063	145.620000
495.408783	145.720000
495.502441	145.880000
495.596191	146.160000
495.689850	146.260000
495.783569	146.480000
495.877228	146.580000
495.970947	146.600000
496.064697	146.340000
496.158356	147.080000
496.252075	147.080000
496.345734	146.660000
496.439453	147.340000
496.533142	147.500000
496.626862	147.680000
496.720520	147.640000
496.814240	147.900000
496.907898	147.320000
497.001617	147.520000
497.095306	146.560000
497.189026	146.340000
497.282684	146.280000
497.376404	146.620000
497.470062	146.340000
497.563782	146.680000
497.657471	146.700000
497.751190	146.320000
497.844849	146.020000
497.938568	146.220000
498.032227	146.200000
498.125946	146.240000
498.219635	145.960000
498.313354	145.980000
498.407074	145.680000
498.500732	145.840000
498.594452	146.220000
498.688110	146.260000
498.781830	145.740000
498.875519	145.740000
498.969238	145.440000
499.062897	144.880000
499.156616	145.420000
499.250275	145.820000
499.343994	145.600000
499.437653	145.520000
499.531372	146.000000
499.625061	146.300000
499.718781	146.300000
499.812439	146.860000
499.906158	146.800000
499.999817	146.360000
500.093536	145.900000
500.187195	145.940000
500.280914	145.660000
500.374573	146.080000
500.468323	146.380000
500.561981	146.520000
500.655701	146.100000
500.749420	146.260000
500.843079	146.400000
500.936798	146.300000
501.030457	146.660000
501.124176	146.980000
501.217834	146.960000
501.311554	146.580000
501.405212	146.460000
501.498962	145.660000
501.592621	145.720000
501.686340	145.800000
501.779999	145.880000
501.873718	145.920000
501.967377	146.460000
502.061096	146.800000
502.154755	146.280000
502.248474	146.040000
502.342133	146.140000
502.435852	145.840000
502.529510	145.860000
502.623230	146.560000
502.716888	146.380000
502.810608	146.400000
502.904266	147.000000
502.997986	146.660000
503.091705	146.020000
503.185364	146.200000
503.279083	146.220000
503.372772	145.740000
503.466492	145.440000
503.560150	145.840000
503.653870	146.180000
503.747528	146.180000
503.841248	146.100000
503.934906	146.800000
504.028625	146.580000
504.122284	146.600000
504.216003	147.120000
504.309662	146.940000
504.403381	146.560000
504.497040	146.460000
504.590759	146.100000
504.684418	145.900000
504.778137	146.440000
504.871796	146.780000
504.965515	146.860000
505.059174	146.900000
505.152893	146.260000
505.246521	145.600000
505.340240	145.200000
505.433899	145.100000
505.527618	145.480000
505.621338	145.960000
505.714996	146.180000
505.808716	146.040000
505.902374	146.700000
505.996094	146.720000
506.089752	146.380000
506.183472	146.440000
506.277130	146.800000
506.370850	146.520000
506.464508	146.200000
506.558228	146.480000
506.651886	145.960000
506.745605	145.780000
506.839264	146.040000
506.932983	146.200000
507.026611	145.800000
507.120331	146.380000
507.213989	145.900000
507.307709	145.620000
507.401367	145.740000
507.495087	146.780000
507.588745	146.500000
507.682465	147.360000
507.776123	147.240000
507.869843	146.860000
507.963531	146.280000
508.057190	146.880000
508.150909	146.140000
508.244568	146.200000
508.338287	146.180000
508.431946	145.920000
508.525665	145.640000
508.619324	145.640000
508.713013	145.480000
508.806671	146.080000
508.900391	146.740000
508.994049	146.680000
509.087769	146.460000
509.181427	146.680000
509.275146	146.120000
509.368774	145.180000
509.462494	144.940000
509.556152	145.240000
509.649872	145.700000
509.743530	146.020000
509.837250	146.540000
509.930878	146.680000
510.024597	146.680000
510.118256	146.120000
510.211975	145.620000
510.305695	145.240000
510.399353	145.360000
510.493042	145.960000
510.586700	146.220000
510.680420	147.280000
510.774078	147.260000
510.867798	147.660000
510.961426	146.900000
511.055145	146.660000
511.148804	146.080000
511.242523	146.560000
511.336151	146.480000
511.429871	147.000000
511.523529	146.960000
511.617249	146.560000
511.710876	146.180000
511.804596	145.400000
511.898254	145.200000
511.991974	145.560000
512.085632	145.460000
512.179321	145.840000
512.272949	146.360000
512.366699	146.660000
512.460327	146.260000
512.554077	147.140000
512.647766	147.060000
512.741394	147.120000
512.835144	147.560000
512.928772	147.440000
513.022461	147.180000
513.116150	146.840000
513.209839	147.220000
513.303467	146.440000
513.397217	146.400000
513.490845	146.000000
513.584595	146.000000
513.678223	145.380000
513.771912	145.140000
513.865601	145.280000
513.959290	145.140000
514.052917	145.120000
514.146667	145.900000
514.240295	146.340000
514.333984	146.560000
514.427673	146.520000
514.521362	146.960000
514.614990	146.260000
514.708740	146.180000
514.802368	146.340000
514.896057	146.620000
514.989746	147.320000
515.083435	147.200000
515.177124	147.160000
515.270752	146.860000
515.364502	146.640000
515.458130	146.180000
515.551819	146.020000
515.645508	145.840000
515.739197	145.680000
515.832825	145.800000
515.926575	145.320000
516.020203	145.620000
516.113892	146.380000
516.207520	146.440000
516.301270	146.600000
516.394897	147.060000
516.488586	147.360000
516.582275	146.940000
516.675964	146.600000
516.769592	146.500000
516.863281	146.800000
516.956970	147.120000
517.050659	146.880000
517.144287	146.940000
517.238037	147.060000
517.331665	145.960000
517.425354	145.080000
517.519043	145.160000
517.612732	145.640000
517.706421	145.540000
517.800049	145.520000
517.893738	145.680000
517.987427	145.640000
518.081116	145.460000
518.174744	145.280000
518.268433	145.940000
518.362122	146.700000
518.455811	146.480000
518.549438	147.280000
518.643127	148.160000
518.736816	147.920000
518.830505	147.180000
518.924133	147.420000
519.017822	146.820000
519.111511	146.480000
519.205200	146.800000
519.298828	146.680000
519.392517	146.200000
519.486206	146.260000
519.579895	146.040000
519.673523	145.580000
519.767212	145.940000
519.860901	146.820000
519.954590	146.600000
520.048279	146.260000
520.141907	146.060000
520.235596	146.680000
520.329224	146.640000
520.422974	146.680000
520.516602	146.740000
520.610291	146.640000
520.703918	146.320000
520.797607	145.740000
520.891296	145.780000
520.984985	146.040000
521.078613	146.720000
521.172302	146.060000
521.265930	147.000000
521.359680	147.240000
521.453308	147.340000
521.546997	147.240000
521.640625	147.480000
521.734314	146.640000
521.827942	146.460000
521.921692	146.340000
522.015320	146.200000
522.109009	146.180000
522.202698	146.240000
522.296326	146.160000
522.390015	146.520000
522.483704	146.700000
522.577393	146.640000
522.671021	146.580000
522.764709	146.140000
522.858337	146.140000
522.952026	146.140000
523.045654	146.460000
523.139404	147.040000
523.233032	147.600000
523.326721	147.220000
523.420349	147.040000
523.514038	146.500000
523.607666	146.280000
523.701355	145.600000
523.795044	145.500000
523.888733	145.500000
523.982361	145.860000
524.076050	145.620000
524.169678	146.280000
524.263367	146.200000
524.356995	146.260000
524.450684	146.420000
524.544373	146.180000
524.638062	145.780000
524.731750	145.480000
524.825378	145.520000
524.919067	144.700000
525.012695	145.020000
525.106384	144.820000
525.200012	145.140000
525.293701	145.020000
525.387329	145.400000
525.481018	145.320000
525.574646	146.120000
525.668396	146.060000
525.762024	146.200000
525.855713	146.720000
525.949341	146.280000
526.043030	146.100000
526.136658	146.020000
526.230347	146.040000
526.323975	145.440000
526.417664	145.380000
526.511292	145.240000
526.604980	145.640000
526.698608	145.400000
526.792297	145.380000
526.885925	146.040000
526.979614	146.260000
527.073303	145.960000
527.166931	145.780000
527.260620	146.160000
527.354309	146.520000
527.447998	146.360000
527.541626	146.380000
527.635315	146.660000
527.728943	147.200000
527.822632	146.820000
527.916260	146.600000
528.009949	146.560000
528.103577	146.200000
528.197266	145.520000
528.290894	145.400000
528.384583	145.520000
528.478210	145.820000
528.571899	146.240000
528.665527	146.540000
528.759216	146.780000
528.852844	147.380000
528.946533	147.080000
529.040161	146.720000
529.133850	146.180000
529.227478	146.340000
529.321167	145.980000
529.414856	146.280000
529.508484	146.800000
529.602173	146.920000
529.695801	146.680000
529.789490	146.580000
529.883057	146.460000
529.976746	146.540000
530.070374	146.900000
530.164062	147.000000
530.257690	147.000000
530.351379	147.060000
530.445007	146.760000
530.538696	146.180000
530.632324	146.140000
530.726013	145.980000
530.819641	145.800000
530.913330	145.660000
531.006958	145.940000
531.100647	145.920000
531.194275	146.040000
531.287964	145.960000
531.381592	146.080000
531.475220	145.880000
531.568848	145.860000
531.662537	145.720000
531.756226	146.180000
531.849854	146.200000
531.943542	146.300000
532.037170	145.940000
532.130859	146.540000
532.224487	145.980000
532.318176	145.220000
532.411804	146.000000
532.505432	146.440000
532.599060	145.720000
532.692749	145.840000
532.786377	146.600000
532.880066	145.620000
532.973694	144.820000
533.067383	145.000000
533.161011	145.100000
533.254639	145.040000
533.348267	144.880000
533.441956	145.640000
533.535583	145.580000
533.629272	145.600000
533.722900	145.060000
533.816589	145.380000
533.910156	145.500000
534.003845	145.220000
534.097534	145.360000
534.191162	146.260000
534.284851	146.340000
534.378479	145.800000
534.472107	146.000000
534.565735	145.700000
534.659424	145.560000
534.753052	145.600000
534.846741	145.540000
534.940369	146.360000
535.033997	146.600000
535.127625	146.520000
535.221313	147.140000
535.314941	147.340000
535.408630	146.340000
535.502197	146.660000
535.595886	146.360000
535.689514	145.720000
535.783203	146.020000
535.876831	146.680000
535.970459	146.340000
536.064087	146.160000
536.157776	146.140000
536.251404	145.860000
536.345093	145.320000
536.438721	145.300000
536.532349	145.840000
536.626038	145.640000
536.719666	145.820000
536.813293	145.840000
536.906921	145.860000
537.000610	146.120000
537.094238	146.340000
537.187866	146.360000
537.281494	146.340000
537.375183	146.340000
537.468811	145.860000
537.562439	146.040000
537.656067	145.680000
537.749756	145.780000
537.843384	146.180000
537.937012	146.520000
538.030640	146.000000
538.124329	146.340000
538.217896	146.520000
538.311584	146.240000
538.405212	145.980000
538.498901	146.400000
538.592468	146.920000
538.686157	146.400000
538.779785	145.880000
538.873413	145.700000
538.967102	145.300000
539.060730	144.480000
539.154358	145.140000
539.247986	145.840000
539.341675	145.960000
539.435242	146.200000
539.528931	146.400000
539.622559	145.640000
539.716187	145.780000
539.809814	145.900000
539.903503	145.780000
539.997070	145.620000
540.090759	145.980000
540.184387	145.720000
540.278015	145.860000
540.371643	146.260000
540.465332	146.560000
540.558899	146.400000
540.652588	146.220000
540.746216	145.840000
540.839844	145.980000
540.933472	145.920000
541.027100	146.000000
541.120728	146.280000
541.214417	146.480000
541.308044	146.540000
541.401672	146.060000
541.495300	146.140000
541.588928	146.140000
541.682617	145.700000
541.776184	145.220000
541.869873	145.640000
541.963440	145.760000
542.057129	145.380000
542.150757	145.820000
542.244385	145.560000
542.338013	145.320000
542.431641	145.320000
542.525269	145.360000
542.618958	145.560000
542.712524	146.000000
542.806213	145.720000
542.899780	145.840000
542.993469	145.340000
543.087036	144.980000
543.180725	144.600000
543.274292	145.260000
543.367981	145.340000
543.461548	146.140000
543.555237	145.920000
543.648926	146.700000
543.742493	147.400000
543.836182	147.020000
543.929749	146.640000
544.023437	146.820000
544.117004	146.360000
544.210693	145.820000
544.304260	146.260000
544.397949	146.280000
544.491516	146.700000
544.585205	146.740000
544.678772	146.060000
544.772461	146.180000
544.866028	146.260000
544.959717	146.220000
545.053284	145.960000
545.146973	146.580000
545.240540	146.360000
545.334229	146.860000
545.427795	146.800000
545.521423	147.120000
545.615051	146.880000
545.708679	147.160000
545.802307	146.840000
545.895935	147.140000
545.989624	147.640000
546.083191	147.400000
546.176880	147.000000
546.270447	146.740000
546.364136	146.800000
546.457703	146.260000
546.551331	146.300000
546.644958	146.500000
546.738586	146.640000
546.832214	146.020000
546.925842	146.020000
547.019409	146.400000
547.113098	146.060000
547.206665	146.080000
547.300354	146.240000
547.393921	146.400000
547.487549	146.520000
547.581177	146.240000
547.674805	145.840000
547.768433	145.360000
547.862061	145.340000
547.955627	144.540000
548.049316	145.260000
548.142883	145.920000
548.236572	146.660000
548.330139	146.820000
548.423767	147.080000
548.517456	146.760000
548.611023	146.580000
548.704651	145.920000
548.798279	145.840000
548.891907	146.440000
548.985474	146.540000
549.079163	146.780000
549.172729	146.720000
549.266357	146.400000
549.359985	146.180000
549.453613	145.640000
549.547180	145.380000
549.640869	146.160000
549.734436	146.000000
549.828064	146.140000
549.921631	146.340000
550.015320	146.040000
550.108887	146.060000
550.202515	146.100000
550.296143	145.680000
550.389771	145.940000
550.483337	146.000000
550.576965	145.660000
550.670593	145.920000
550.764221	146.240000
550.857849	145.780000
550.951477	145.700000
551.045105	145.240000
551.138672	145.200000
551.232300	144.560000
551.325928	145.220000
551.419556	145.400000
551.513123	145.580000
551.606750	145.320000
551.700378	145.740000
551.794006	145.260000
551.887573	145.180000
551.981201	145.520000
552.074768	145.520000
552.168457	145.140000
552.262024	146.380000
552.355652	146.240000
552.449219	146.780000
552.542847	146.840000
552.636475	147.140000
552.730103	146.000000
552.823669	146.240000
552.917297	145.500000
553.010864	145.580000
553.104553	145.540000
553.198181	145.380000
553.291748	145.560000
553.385376	145.940000
553.478943	145.620000
553.572571	145.660000
553.666199	146.060000
553.759827	145.560000
553.853394	145.000000
553.947021	145.420000
554.040588	145.280000
554.134216	145.300000
554.227783	146.200000
554.321411	146.800000
554.415039	146.380000
554.508667	146.300000
554.602234	146.540000
554.695862	145.620000
554.789429	145.500000
554.883057	145.620000
554.976624	145.900000
555.070251	145.580000
555.163818	145.640000
555.257507	145.180000
555.351074	145.500000
555.444702	146.640000
555.538330	146.360000
555.631897	146.900000
555.725525	147.240000
555.819092	146.960000
555.912720	145.460000
556.006287	145.940000
556.099915	145.540000
556.193481	145.520000
556.287109	146.020000
556.380676	145.980000
556.474304	145.800000
556.567871	146.160000
556.661499	145.800000
556.755066	145.580000
556.848694	146.080000
556.942261	145.960000
557.035889	146.160000
557.129517	146.420000
557.223145	146.600000
557.316711	146.540000
557.410339	146.660000
557.503906	146.120000
557.597473	146.360000
557.691040	146.160000
557.784668	146.040000
557.878296	145.940000
557.971863	146.220000
558.065491	146.080000
558.159058	145.760000
558.252686	146.480000
558.346252	147.240000
558.439880	146.660000
558.533447	146.340000
558.627075	146.240000
558.720642	145.520000
558.814270	145.100000
558.907837	145.500000
559.001465	145.480000
559.095032	146.460000
559.188660	146.740000
559.282227	145.940000
559.375854	146.500000
559.469360	146.360000
559.562988	146.220000
559.656555	145.900000
559.750183	146.480000
559.843750	146.360000
559.937378	146.720000
560.030945	146.400000
560.124573	0.000000
560.218140	0.000000
560.311707	0.000000
560.405334	0.000000
560.498901	0.000000
560.592529	0.000000
560.686096	0.000000
560.779724	0.000000
560.873291	0.000000
560.966858	0.000000
561.060425	0.000000
561.154053	0.000000
561.247620	0.000000
561.341248	0.000000
561.434814	0.000000
561.528381	0.000000
561.621948	0.000000
561.715576	0.000000
561.809143	0.000000
561.902771	0.000000
561.996277	0.000000
562.089905	0.000000
562.183472	0.000000
562.277100	0.000000
