Model Number: SPM-002-B   
Serial Number: 70087108
Firmware Version: 004.15.4
Exposure Time: 100000.000000us
Data Taken on: 11-12-2020 18:52:47.628
Wavelength	Amplitude
221.570786	0.000000
221.663406	0.000000
221.756027	0.000000
221.848648	0.000000
221.941269	0.000000
222.033905	0.000000
222.126526	0.000000
222.219162	0.000000
222.311798	0.000000
222.404419	0.000000
222.497055	0.000000
222.589676	0.000000
222.682312	0.000000
222.774933	0.000000
222.867569	0.000000
222.960205	0.000000
223.052841	0.000000
223.145462	0.000000
223.238098	0.000000
223.330734	0.000000
223.423386	0.000000
223.516022	0.000000
223.608658	0.000000
223.701309	0.000000
223.793945	0.000000
223.886581	0.000000
223.979218	0.000000
224.071869	0.000000
224.164505	0.000000
224.257156	0.000000
224.349792	0.000000
224.442444	0.000000
224.535095	0.000000
224.627747	0.000000
224.720398	0.000000
224.813034	0.000000
224.905685	0.000000
224.998337	145.320000
225.090988	144.900000
225.183640	144.700000
225.276291	144.640000
225.368942	144.600000
225.461594	145.240000
225.554245	145.320000
225.646912	145.500000
225.739578	146.040000
225.832230	146.220000
225.924896	145.420000
226.017548	145.720000
226.110199	146.260000
226.202866	145.360000
226.295532	145.400000
226.388184	145.560000
226.480850	144.940000
226.573517	144.420000
226.666168	144.880000
226.758835	145.280000
226.851501	145.880000
226.944183	146.400000
227.036850	145.900000
227.129517	145.820000
227.222183	145.580000
227.314850	145.540000
227.407516	145.840000
227.500198	146.660000
227.592865	146.340000
227.685532	146.080000
227.778214	145.580000
227.870880	145.600000
227.963562	145.860000
228.056229	146.300000
228.148926	146.360000
228.241592	147.320000
228.334274	146.780000
228.426956	146.280000
228.519638	146.360000
228.612305	146.260000
228.704987	145.940000
228.797668	146.080000
228.890350	146.080000
228.983032	145.480000
229.075714	145.980000
229.168396	145.560000
229.261108	144.820000
229.353790	144.960000
229.446472	145.300000
229.539169	144.860000
229.631851	144.780000
229.724533	145.500000
229.817230	145.420000
229.909912	146.160000
230.002609	146.260000
230.095306	145.980000
230.187988	145.960000
230.280685	145.740000
230.373383	144.620000
230.466095	144.480000
230.558792	144.900000
230.651474	144.640000
230.744171	144.920000
230.836868	145.240000
230.929581	145.740000
231.022278	145.780000
231.114975	146.160000
231.207672	145.940000
231.300369	146.180000
231.393082	145.820000
231.485779	145.700000
231.578506	145.380000
231.671204	145.500000
231.763916	145.340000
231.856613	145.400000
231.949326	145.600000
232.042023	145.600000
232.134735	145.500000
232.227448	145.460000
232.320160	145.600000
232.412872	145.400000
232.505585	146.260000
232.598297	146.640000
232.691010	146.340000
232.783722	146.020000
232.876450	146.440000
232.969162	145.840000
233.061874	145.140000
233.154587	145.020000
233.247314	145.400000
233.340027	144.600000
233.432739	144.920000
233.525467	145.260000
233.618179	145.740000
233.710907	145.380000
233.803635	146.200000
233.896347	145.600000
233.989090	146.280000
234.081818	146.220000
234.174545	146.460000
234.267258	145.700000
234.359985	146.140000
234.452713	145.700000
234.545441	145.540000
234.638168	145.360000
234.730896	146.160000
234.823639	146.080000
234.916367	146.360000
235.009094	146.660000
235.101822	146.460000
235.194580	145.880000
235.287308	145.840000
235.380051	145.040000
235.472778	145.100000
235.565521	145.600000
235.658249	145.460000
235.750992	145.700000
235.843719	145.880000
235.936462	145.860000
236.029205	145.320000
236.121948	145.340000
236.214691	145.600000
236.307449	146.500000
236.400192	146.340000
236.492935	146.020000
236.585678	146.420000
236.678421	145.980000
236.771164	145.300000
236.863907	145.960000
236.956665	146.620000
237.049408	147.700000
237.142151	147.580000
237.234909	148.260000
237.327652	147.820000
237.420410	147.640000
237.513153	146.980000
237.605927	146.860000
237.698669	146.280000
237.791428	145.520000
237.884186	146.040000
237.976944	145.480000
238.069702	145.700000
238.162445	145.340000
238.255203	145.940000
238.347961	146.000000
238.440720	145.800000
238.533478	145.800000
238.626266	145.860000
238.719025	145.880000
238.811783	145.360000
238.904541	145.420000
238.997314	145.180000
239.090073	145.040000
239.182831	145.440000
239.275604	146.580000
239.368362	146.540000
239.461136	146.700000
239.553909	146.700000
239.646667	146.420000
239.739441	145.340000
239.832214	145.640000
239.925003	145.960000
240.017761	146.620000
240.110535	146.800000
240.203308	146.440000
240.296082	146.360000
240.388855	146.140000
240.481628	146.220000
240.574417	146.160000
240.667191	146.700000
240.759964	146.580000
240.852737	146.660000
240.945526	146.180000
241.038315	146.100000
241.131088	145.960000
241.223877	146.120000
241.316650	145.820000
241.409439	146.040000
241.502228	145.660000
241.595001	146.180000
241.687790	145.660000
241.780579	145.880000
241.873367	145.960000
241.966141	146.300000
242.058929	145.820000
242.151718	146.440000
242.244507	146.640000
242.337311	145.960000
242.430099	146.380000
242.522903	146.360000
242.615692	145.700000
242.708481	145.700000
242.801270	146.340000
242.894073	146.040000
242.986862	146.120000
243.079651	146.760000
243.172455	146.160000
243.265244	146.040000
243.358063	145.440000
243.450867	145.900000
243.543655	145.860000
243.636459	146.100000
243.729263	146.580000
243.822067	147.040000
243.914856	147.020000
244.007660	146.940000
244.100464	146.900000
244.193268	146.020000
244.286072	145.520000
244.378876	144.960000
244.471680	144.620000
244.564499	145.040000
244.657318	146.200000
244.750122	146.680000
244.842926	146.180000
244.935745	146.800000
245.028549	146.260000
245.121368	145.280000
245.214172	145.660000
245.306992	146.320000
245.399796	145.880000
245.492615	146.040000
245.585434	146.280000
245.678253	145.760000
245.771072	145.500000
245.863892	145.780000
245.956711	146.140000
246.049530	145.940000
246.142349	145.780000
246.235168	145.880000
246.327988	146.300000
246.420807	145.940000
246.513626	145.880000
246.606445	146.000000
246.699280	146.100000
246.792099	145.440000
246.884918	145.240000
246.977753	145.180000
247.070587	145.140000
247.163422	144.940000
247.256241	145.060000
247.349075	145.560000
247.441895	145.740000
247.534729	145.720000
247.627563	145.600000
247.720383	146.360000
247.813217	145.980000
247.906052	145.480000
247.998886	145.480000
248.091736	145.600000
248.184570	144.920000
248.277405	144.980000
248.370239	146.300000
248.463074	147.280000
248.555908	147.460000
248.648743	147.380000
248.741592	147.760000
248.834427	146.840000
248.927261	145.940000
249.020111	146.560000
249.112946	147.420000
249.205795	146.560000
249.298630	146.800000
249.391495	146.800000
249.484344	146.080000
249.577179	145.480000
249.670029	146.060000
249.762878	146.540000
249.855728	146.580000
249.948563	146.720000
250.041412	146.300000
250.134262	146.540000
250.227112	146.360000
250.319962	146.320000
250.412827	146.400000
250.505692	146.420000
250.598541	146.360000
250.691391	146.040000
250.784241	146.140000
250.877106	146.400000
250.969955	146.380000
251.062805	146.720000
251.155670	147.380000
251.248520	147.260000
251.341385	147.120000
251.434235	147.060000
251.527100	146.640000
251.619965	145.880000
251.712814	146.520000
251.805695	146.360000
251.898560	146.820000
251.991425	147.120000
252.084290	147.240000
252.177155	146.380000
252.270020	146.280000
252.362885	145.880000
252.455750	145.460000
252.548615	145.000000
252.641479	145.160000
252.734360	145.020000
252.827240	144.960000
252.920105	145.180000
253.012970	145.620000
253.105850	145.860000
253.198715	145.720000
253.291595	145.960000
253.384460	145.980000
253.477341	145.880000
253.570221	145.800000
253.663086	145.460000
253.755966	145.960000
253.848846	146.000000
253.941727	146.100000
254.034592	146.060000
254.127472	146.040000
254.220367	145.860000
254.313248	145.840000
254.406128	145.560000
254.499008	145.600000
254.591904	146.560000
254.684784	146.780000
254.777664	146.540000
254.870544	146.380000
254.963440	146.320000
255.056335	146.240000
255.149216	145.620000
255.242111	146.080000
255.334991	146.540000
255.427887	146.740000
255.520767	146.740000
255.613663	146.840000
255.706558	146.180000
255.799438	145.960000
255.892334	145.620000
255.985229	145.360000
256.078125	145.420000
256.171021	145.520000
256.263916	145.700000
256.356812	146.040000
256.449707	146.000000
256.542603	145.480000
256.635498	146.200000
256.728394	146.060000
256.821289	145.800000
256.914215	146.000000
257.007080	146.880000
257.100006	146.540000
257.192932	147.020000
257.285828	147.200000
257.378723	146.960000
257.471619	146.680000
257.564545	146.260000
257.657440	145.900000
257.750336	146.600000
257.843262	146.320000
257.936157	147.140000
258.029053	147.820000
258.121979	148.060000
258.214874	147.360000
258.307800	147.380000
258.400696	146.040000
258.493622	145.560000
258.586517	144.900000
258.679443	145.040000
258.772339	144.940000
258.865265	144.980000
258.958160	144.380000
259.051086	145.360000
259.144012	145.320000
259.236938	146.100000
259.329834	146.400000
259.422791	146.520000
259.515717	145.740000
259.608612	145.400000
259.701538	145.460000
259.794464	145.280000
259.887390	145.700000
259.980316	145.700000
260.073212	145.700000
260.166138	144.400000
260.259064	144.940000
260.351990	144.920000
260.444916	145.240000
260.537842	145.560000
260.630768	146.600000
260.723694	146.420000
260.816620	146.740000
260.909546	146.300000
261.002472	145.940000
261.095398	145.520000
261.188354	145.380000
261.281281	144.680000
261.374207	144.900000
261.467133	145.540000
261.560089	145.700000
261.653015	145.360000
261.745972	146.200000
261.838867	146.680000
261.931824	147.140000
262.024780	146.640000
262.117706	147.140000
262.210663	147.280000
262.303589	146.820000
262.396515	146.080000
262.489471	147.400000
262.582397	147.120000
262.675354	146.120000
262.768280	146.200000
262.861237	146.220000
262.954163	145.640000
263.047119	145.800000
263.140045	146.040000
263.233002	146.180000
263.325958	146.260000
263.418884	145.720000
263.511841	145.960000
263.604797	146.120000
263.697723	145.760000
263.790680	145.380000
263.883636	145.980000
263.976593	145.740000
264.069550	145.840000
264.162476	145.820000
264.255463	146.120000
264.348419	145.960000
264.441376	146.440000
264.534332	146.140000
264.627289	146.160000
264.720245	146.640000
264.813202	146.240000
264.906158	145.960000
264.999115	146.200000
265.092072	146.060000
265.185028	146.080000
265.277985	146.440000
265.370941	146.160000
265.463898	146.000000
265.556854	146.040000
265.649811	145.080000
265.742798	145.100000
265.835754	145.300000
265.928711	145.800000
266.021667	146.160000
266.114655	146.780000
266.207611	147.120000
266.300568	146.440000
266.393585	146.000000
266.486511	146.260000
266.579498	145.260000
266.672485	145.000000
266.765442	145.140000
266.858429	145.420000
266.951385	144.960000
267.044342	145.380000
267.137329	145.260000
267.230316	146.000000
267.323273	145.600000
267.416260	145.800000
267.509216	146.080000
267.602203	145.960000
267.695160	145.900000
267.788147	145.940000
267.881134	145.720000
267.974091	145.440000
268.067078	145.260000
268.160065	145.040000
268.253052	144.920000
268.346008	145.180000
268.438995	145.120000
268.531982	145.340000
268.624969	144.840000
268.717987	145.280000
268.810944	145.400000
268.903961	145.500000
268.996948	145.040000
269.089905	145.780000
269.182892	145.740000
269.275879	145.960000
269.368866	145.920000
269.461853	147.020000
269.554871	146.800000
269.647858	146.760000
269.740845	146.900000
269.833832	147.260000
269.926819	146.220000
270.019806	146.320000
270.112793	145.680000
270.205811	145.600000
270.298798	145.600000
270.391785	146.180000
270.484772	145.760000
270.577789	145.940000
270.670776	145.440000
270.763763	145.420000
270.856750	145.280000
270.949768	145.180000
271.042786	145.480000
271.135773	145.560000
271.228790	145.580000
271.321808	145.500000
271.414795	145.540000
271.507782	145.240000
271.600800	144.800000
271.693817	144.940000
271.786804	145.280000
271.879822	145.400000
271.972809	145.540000
272.065826	146.020000
272.158844	145.600000
272.251831	146.100000
272.344849	146.340000
272.437866	146.140000
272.530853	146.020000
272.623871	146.220000
272.716888	145.000000
272.809906	145.180000
272.902893	145.340000
272.995911	144.980000
273.088928	144.980000
273.181946	145.400000
273.274963	144.920000
273.367981	144.960000
273.460999	145.120000
273.554047	145.260000
273.647003	145.780000
273.740051	145.900000
273.833069	146.240000
273.926086	146.440000
274.019135	146.240000
274.112152	145.900000
274.205170	145.980000
274.298187	145.960000
274.391205	145.720000
274.484222	145.760000
274.577240	145.560000
274.670258	145.520000
274.763306	145.300000
274.856323	145.700000
274.949341	145.680000
275.042358	146.140000
275.135406	145.900000
275.228424	145.940000
275.321442	145.980000
275.414490	145.940000
275.507507	146.180000
275.600525	146.780000
275.693573	146.900000
275.786591	146.380000
275.879669	146.520000
275.972656	145.980000
276.065735	145.680000
276.158752	145.940000
276.251801	146.700000
276.344818	146.680000
276.437866	146.660000
276.530884	146.440000
276.623932	145.580000
276.716980	145.520000
276.809998	145.600000
276.903046	145.620000
276.996094	146.540000
277.089111	147.440000
277.182159	147.960000
277.275208	147.620000
277.368256	147.720000
277.461304	147.020000
277.554321	146.160000
277.647369	145.380000
277.740417	145.380000
277.833466	145.420000
277.926514	145.540000
278.019562	146.460000
278.112610	146.160000
278.205688	146.540000
278.298706	146.460000
278.391785	146.120000
278.484833	145.400000
278.577881	145.520000
278.670929	145.740000
278.763977	145.740000
278.857025	146.160000
278.950073	146.560000
279.043121	146.420000
279.136169	146.040000
279.229248	146.140000
279.322296	145.920000
279.415344	145.500000
279.508392	145.720000
279.601440	145.780000
279.694519	145.420000
279.787567	145.580000
279.880615	145.560000
279.973694	145.380000
280.066742	145.200000
280.159790	145.300000
280.252869	145.060000
280.345917	145.380000
280.438995	145.380000
280.532074	145.640000
280.625122	146.060000
280.718201	146.740000
280.811279	146.780000
280.904327	146.740000
280.997406	146.800000
281.090454	146.540000
281.183533	145.880000
281.276581	145.720000
281.369659	145.580000
281.462738	145.520000
281.555786	145.760000
281.648865	145.900000
281.741943	145.760000
281.835022	146.400000
281.928070	145.820000
282.021149	145.520000
282.114227	145.280000
282.207306	145.400000
282.300385	145.300000
282.393433	145.700000
282.486511	145.580000
282.579590	146.100000
282.672668	146.580000
282.765747	146.220000
282.858856	146.260000
282.951904	146.420000
283.045013	146.260000
283.138062	146.340000
283.231171	146.640000
283.324249	146.900000
283.417328	147.180000
283.510406	146.800000
283.603485	146.340000
283.696564	146.160000
283.789642	146.280000
283.882751	145.980000
283.975830	146.920000
284.068909	146.500000
284.161987	146.980000
284.255066	146.420000
284.348175	146.420000
284.441254	145.480000
284.534332	146.540000
284.627441	145.900000
284.720520	145.460000
284.813599	145.360000
284.906708	145.840000
284.999786	144.980000
285.092896	144.940000
285.185974	146.220000
285.279053	145.680000
285.372192	145.760000
285.465240	146.620000
285.558380	146.680000
285.651459	146.080000
285.744568	146.980000
285.837677	146.600000
285.930756	146.200000
286.023865	146.380000
286.116943	145.860000
286.210052	146.120000
286.303162	146.100000
286.396240	145.880000
286.489349	145.840000
286.582458	146.420000
286.675568	145.880000
286.768646	146.060000
286.861755	146.260000
286.954865	146.620000
287.047974	146.100000
287.141083	146.080000
287.234161	145.740000
287.327271	145.920000
287.420380	146.300000
287.513519	146.320000
287.606598	146.320000
287.699738	146.600000
287.792816	146.160000
287.885956	145.620000
287.979034	146.080000
288.072174	146.140000
288.165283	145.980000
288.258392	146.040000
288.351501	145.580000
288.444611	145.560000
288.537720	146.120000
288.630859	146.200000
288.723969	146.500000
288.817078	147.000000
288.910187	146.940000
289.003296	146.340000
289.096436	146.120000
289.189545	145.840000
289.282654	145.280000
289.375763	145.460000
289.468903	145.900000
289.562012	146.140000
289.655121	146.160000
289.748260	146.580000
289.841400	146.780000
289.934509	146.340000
290.027649	146.520000
290.120728	146.420000
290.213898	146.040000
290.306976	145.620000
290.400146	145.760000
290.493256	145.400000
290.586395	145.420000
290.679535	145.860000
290.772644	145.820000
290.865784	145.180000
290.958893	145.320000
291.052032	145.180000
291.145172	144.880000
291.238281	144.660000
291.331421	144.940000
291.424561	144.940000
291.517670	144.760000
291.610809	145.300000
291.703949	145.400000
291.797089	145.740000
291.890228	145.400000
291.983337	145.620000
292.076477	145.100000
292.169617	145.160000
292.262756	145.040000
292.355927	145.540000
292.449036	145.340000
292.542206	145.640000
292.635315	145.980000
292.728485	146.120000
292.821625	145.340000
292.914764	146.860000
293.007904	146.460000
293.101044	146.260000
293.194183	146.160000
293.287323	146.760000
293.380463	145.640000
293.473602	145.700000
293.566742	145.700000
293.659882	146.300000
293.753021	146.300000
293.846191	146.260000
293.939331	146.180000
294.032471	146.160000
294.125610	145.560000
294.218781	145.940000
294.311920	146.200000
294.405060	146.360000
294.498230	146.060000
294.591370	146.080000
294.684540	145.280000
294.777679	144.820000
294.870850	145.260000
294.963959	145.480000
295.057159	145.320000
295.150299	145.720000
295.243469	145.680000
295.336609	145.060000
295.429779	145.240000
295.522919	145.720000
295.616089	145.740000
295.709229	146.620000
295.802399	146.500000
295.895569	146.000000
295.988708	145.600000
296.081879	145.680000
296.175018	144.900000
296.268188	145.180000
296.361359	145.660000
296.454529	145.880000
296.547668	145.780000
296.640839	145.960000
296.734009	145.860000
296.827179	145.960000
296.920319	146.000000
297.013519	145.620000
297.106659	145.620000
297.199860	145.820000
297.292999	145.940000
297.386200	145.820000
297.479309	145.900000
297.572510	145.860000
297.665680	145.400000
297.758850	144.940000
297.852020	144.720000
297.945190	144.900000
298.038361	144.520000
298.131531	145.520000
298.224701	145.340000
298.317871	145.080000
298.411072	144.620000
298.504242	144.840000
298.597412	144.160000
298.690582	144.520000
298.783752	144.720000
298.876923	145.140000
298.970093	145.140000
299.063293	145.520000
299.156464	145.880000
299.249634	146.140000
299.342834	146.360000
299.436005	146.960000
299.529205	146.940000
299.622345	146.860000
299.715576	146.300000
299.808716	146.220000
299.901917	145.460000
299.995117	145.180000
300.088287	145.180000
300.181488	145.260000
300.274658	145.200000
300.367828	145.560000
300.461029	145.860000
300.554199	146.020000
300.647400	146.140000
300.740601	146.720000
300.833771	146.440000
300.926971	146.280000
301.020142	145.600000
301.113342	145.520000
301.206512	144.900000
301.299713	145.540000
301.392914	146.000000
301.486084	146.520000
301.579285	146.780000
301.672516	147.340000
301.765686	146.700000
301.858887	146.040000
301.952057	145.620000
302.045288	145.580000
302.138458	145.160000
302.231659	144.940000
302.324860	144.920000
302.418060	144.980000
302.511261	144.780000
302.604462	145.080000
302.697662	145.400000
302.790863	145.700000
302.884064	145.260000
302.977264	145.400000
303.070465	145.500000
303.163666	146.160000
303.256866	146.260000
303.350067	146.560000
303.443268	146.720000
303.536469	146.520000
303.629669	146.040000
303.722870	146.000000
303.816071	146.140000
303.909271	146.060000
304.002472	145.460000
304.095673	145.100000
304.188934	144.400000
304.282104	145.320000
304.375336	145.440000
304.468506	145.640000
304.561768	145.300000
304.654968	146.200000
304.748169	145.540000
304.841370	145.180000
304.934601	145.520000
305.027802	145.680000
305.121002	145.160000
305.214233	144.940000
305.307434	145.060000
305.400665	145.500000
305.493866	145.560000
305.587097	146.040000
305.680298	145.940000
305.773499	146.620000
305.866730	146.400000
305.959930	147.000000
306.053162	147.060000
306.146393	146.940000
306.239594	145.980000
306.332825	145.860000
306.426025	146.080000
306.519287	145.500000
306.612488	145.800000
306.705719	145.920000
306.798920	145.940000
306.892181	145.120000
306.985352	144.940000
307.078613	144.340000
307.171844	144.800000
307.265045	144.500000
307.358276	144.400000
307.451508	144.880000
307.544739	145.580000
307.637970	145.420000
307.731201	145.420000
307.824402	146.140000
307.917633	146.560000
308.010864	147.040000
308.104095	147.240000
308.197327	147.100000
308.290558	146.880000
308.383789	146.160000
308.477020	145.500000
308.570251	144.920000
308.663483	144.660000
308.756714	144.460000
308.849976	144.480000
308.943176	144.940000
309.036438	144.960000
309.129639	145.040000
309.222900	145.340000
309.316101	145.300000
309.409393	144.720000
309.502625	144.640000
309.595856	145.100000
309.689087	145.020000
309.782318	145.180000
309.875580	145.520000
309.968811	145.820000
310.062042	145.440000
310.155273	145.260000
310.248535	145.780000
310.341766	145.280000
310.434998	144.940000
310.528259	144.940000
310.621490	145.380000
310.714722	144.300000
310.807983	144.720000
310.901215	145.040000
310.994476	145.300000
311.087708	144.800000
311.181000	145.680000
311.274200	145.180000
311.367462	145.180000
311.460693	144.640000
311.553986	145.460000
311.647186	145.560000
311.740479	146.220000
311.833710	145.800000
311.926971	146.180000
312.020203	145.140000
312.113464	144.660000
312.206726	144.200000
312.299957	144.940000
312.393219	145.280000
312.486481	145.820000
312.579712	145.620000
312.672974	145.520000
312.766235	145.200000
312.859497	145.000000
312.952759	144.820000
313.045990	146.000000
313.139252	145.720000
313.232513	145.860000
313.325775	146.020000
313.419037	145.940000
313.512299	144.740000
313.605530	145.300000
313.698822	145.200000
313.792053	145.120000
313.885345	144.740000
313.978577	145.140000
314.071869	144.940000
314.165131	145.320000
314.258392	145.540000
314.351654	145.840000
314.444916	145.100000
314.538177	145.620000
314.631439	145.520000
314.724701	145.120000
314.817993	144.900000
314.911255	145.540000
315.004517	144.920000
315.097778	144.920000
315.191040	145.500000
315.284302	146.000000
315.377594	145.740000
315.470856	145.880000
315.564117	145.300000
315.657379	144.460000
315.750671	144.140000
315.843933	144.620000
315.937195	144.220000
316.030518	144.220000
316.123749	144.600000
316.217041	145.480000
316.310303	145.320000
316.403595	145.800000
316.496857	146.360000
316.590149	146.580000
316.683411	145.860000
316.776703	145.700000
316.869965	145.840000
316.963257	145.420000
317.056519	144.820000
317.149811	144.560000
317.243073	144.660000
317.336365	144.540000
317.429626	144.880000
317.522919	145.800000
317.616180	146.140000
317.709473	145.800000
317.802765	145.800000
317.896027	145.840000
317.989319	145.580000
318.082611	145.760000
318.175873	146.020000
318.269165	145.920000
318.362488	145.660000
318.455750	145.340000
318.549042	145.320000
318.642303	145.580000
318.735626	145.440000
318.828888	145.460000
318.922211	145.120000
319.015472	145.640000
319.108765	145.240000
319.202057	145.080000
319.295349	145.320000
319.388641	145.340000
319.481934	144.760000
319.575226	144.740000
319.668518	144.920000
319.761810	145.060000
319.855103	145.500000
319.948395	145.400000
320.041687	145.880000
320.134979	146.280000
320.228271	145.680000
320.321564	145.460000
320.414856	145.700000
320.508148	145.000000
320.601440	144.580000
320.694763	144.840000
320.788025	145.420000
320.881348	145.120000
320.974640	145.080000
321.067963	145.020000
321.161224	145.120000
321.254547	144.480000
321.347839	145.240000
321.441162	145.260000
321.534454	145.600000
321.627747	145.440000
321.721069	146.220000
321.814362	145.900000
321.907654	146.080000
322.000946	146.180000
322.094269	146.780000
322.187561	146.080000
322.280884	146.220000
322.374176	146.340000
322.467468	146.520000
322.560791	146.260000
322.654083	147.100000
322.747406	147.020000
322.840698	147.340000
322.934021	147.400000
323.027344	147.620000
323.120636	147.040000
323.213959	146.880000
323.307251	146.060000
323.400574	145.560000
323.493866	144.860000
323.587219	144.940000
323.680511	145.280000
323.773834	145.820000
323.867157	145.980000
323.960449	146.240000
324.053772	145.960000
324.147095	145.800000
324.240387	146.120000
324.333710	146.380000
324.427032	146.560000
324.520355	146.860000
324.613647	146.340000
324.706970	146.160000
324.800293	145.820000
324.893616	146.180000
324.986938	146.300000
325.080231	146.480000
325.173553	146.680000
325.266876	146.980000
325.360199	146.660000
325.453522	146.100000
325.546875	145.680000
325.640167	145.700000
325.733521	145.900000
325.826813	146.000000
325.920166	145.860000
326.013489	146.040000
326.106812	145.040000
326.200134	144.600000
326.293457	144.120000
326.386780	144.440000
326.480103	144.640000
326.573425	144.680000
326.666748	144.620000
326.760071	145.100000
326.853424	145.080000
326.946747	144.800000
327.040070	146.080000
327.133392	145.880000
327.226715	145.120000
327.320068	144.900000
327.413391	145.740000
327.506714	144.800000
327.600037	144.940000
327.693390	145.320000
327.786713	145.520000
327.880066	145.100000
327.973358	145.840000
328.066742	146.340000
328.160034	146.500000
328.253418	146.620000
328.346710	146.320000
328.440063	145.740000
328.533417	145.420000
328.626740	145.580000
328.720093	145.540000
328.813416	145.400000
328.906769	145.560000
329.000092	146.000000
329.093445	146.040000
329.186768	145.780000
329.280121	146.560000
329.373444	146.840000
329.466797	146.400000
329.560120	146.460000
329.653473	146.720000
329.746796	146.320000
329.840149	145.980000
329.933502	146.140000
330.026825	145.620000
330.120178	145.520000
330.213562	145.200000
330.306854	144.960000
330.400238	144.800000
330.493561	144.980000
330.586945	145.740000
330.680237	146.200000
330.773621	146.820000
330.866974	146.860000
330.960327	147.100000
331.053680	146.320000
331.147003	146.440000
331.240356	146.760000
331.333710	146.540000
331.427063	145.980000
331.520416	146.300000
331.613770	145.900000
331.707123	145.280000
331.800476	145.580000
331.893829	146.820000
331.987152	146.740000
332.080505	146.820000
332.173859	146.680000
332.267212	146.320000
332.360565	145.740000
332.453918	145.360000
332.547333	145.420000
332.640656	145.620000
332.734039	145.580000
332.827362	145.320000
332.920746	145.980000
333.014069	146.220000
333.107452	146.480000
333.200806	147.060000
333.294159	147.240000
333.387543	146.720000
333.480896	146.300000
333.574249	146.280000
333.667603	145.660000
333.760956	145.660000
333.854340	145.560000
333.947693	145.860000
334.041046	145.660000
334.134430	146.100000
334.227783	145.560000
334.321136	145.640000
334.414520	144.960000
334.507874	145.080000
334.601227	145.000000
334.694611	145.160000
334.787964	145.140000
334.881348	145.580000
334.974701	145.400000
335.068085	145.140000
335.161438	145.640000
335.254822	145.700000
335.348175	145.920000
335.441559	145.540000
335.534943	146.220000
335.628296	145.620000
335.721680	145.800000
335.815033	145.740000
335.908417	146.240000
336.001770	145.940000
336.095154	145.940000
336.188538	145.360000
336.281891	145.200000
336.375275	144.680000
336.468658	144.240000
336.562012	144.260000
336.655396	144.800000
336.748779	145.040000
336.842133	145.540000
336.935516	145.920000
337.028900	146.140000
337.122284	146.000000
337.215637	146.060000
337.309021	145.780000
337.402435	145.360000
337.495789	145.260000
337.589203	144.940000
337.682526	144.300000
337.775940	145.000000
337.869324	145.480000
337.962708	145.140000
338.056091	146.140000
338.149475	146.080000
338.242859	145.540000
338.336243	145.240000
338.429626	145.740000
338.523010	145.160000
338.616394	145.200000
338.709778	145.520000
338.803162	145.740000
338.896545	145.600000
338.989929	145.320000
339.083313	145.720000
339.176697	145.320000
339.270081	145.160000
339.363464	145.540000
339.456848	145.900000
339.550232	145.420000
339.643616	145.440000
339.737030	145.100000
339.830383	144.520000
339.923828	144.660000
340.017181	144.920000
340.110596	145.160000
340.203949	145.580000
340.297363	145.460000
340.390778	145.100000
340.484161	145.040000
340.577545	144.620000
340.670959	144.700000
340.764343	145.140000
340.857727	145.360000
340.951111	145.080000
341.044525	145.540000
341.137909	144.760000
341.231293	144.780000
341.324707	144.420000
341.418091	145.420000
341.511505	145.220000
341.604889	145.880000
341.698303	145.760000
341.791687	146.020000
341.885071	145.120000
341.978485	144.920000
342.071899	145.120000
342.165283	145.260000
342.258698	145.420000
342.352081	146.320000
342.445496	146.920000
342.538879	146.580000
342.632324	146.120000
342.725708	146.200000
342.819122	145.520000
342.912506	145.200000
343.005920	145.120000
343.099335	146.160000
343.192719	145.900000
343.286133	146.000000
343.379547	146.220000
343.472931	146.460000
343.566345	145.540000
343.659760	145.680000
343.753143	145.640000
343.846558	145.080000
343.939972	145.040000
344.033386	145.560000
344.126770	145.340000
344.220184	145.240000
344.313599	145.620000
344.407043	145.860000
344.500427	145.240000
344.593872	145.960000
344.687225	145.960000
344.780670	145.720000
344.874054	145.460000
344.967499	146.280000
345.060913	145.900000
345.154327	145.860000
345.247742	145.660000
345.341156	145.440000
345.434570	144.800000
345.527985	144.580000
345.621399	144.780000
345.714813	144.660000
345.808228	145.240000
345.901642	145.200000
345.995056	144.660000
346.088470	144.760000
346.181885	145.060000
346.275299	144.420000
346.368713	144.720000
346.462128	144.880000
346.555573	144.740000
346.648987	145.100000
346.742401	144.980000
346.835815	145.300000
346.929260	145.260000
347.022644	145.220000
347.116119	145.200000
347.209503	145.960000
347.302948	146.660000
347.396362	147.300000
347.489807	147.400000
347.583221	147.880000
347.676636	147.100000
347.770050	145.860000
347.863495	145.560000
347.956909	145.640000
348.050323	144.900000
348.143768	145.060000
348.237183	144.860000
348.330597	145.360000
348.424042	145.680000
348.517456	146.200000
348.610901	146.880000
348.704315	146.880000
348.797760	146.240000
348.891174	145.720000
348.984619	145.260000
349.078033	145.140000
349.171448	146.040000
349.264923	145.680000
349.358337	145.640000
349.451782	145.620000
349.545197	145.180000
349.638641	144.340000
349.732086	144.540000
349.825500	144.900000
349.918945	144.640000
350.012390	145.280000
350.105804	145.760000
350.199249	146.100000
350.292664	146.240000
350.386108	146.460000
350.479553	146.600000
350.572968	146.580000
350.666412	146.700000
350.759857	146.380000
350.853302	146.880000
350.946716	146.020000
351.040161	145.980000
351.133606	145.680000
351.227081	145.720000
351.320465	145.960000
351.413940	146.240000
351.507355	146.280000
351.600830	146.560000
351.694244	146.360000
351.787720	146.000000
351.881104	146.360000
351.974579	146.100000
352.067993	146.540000
352.161469	146.500000
352.254883	146.040000
352.348358	145.740000
352.441803	145.780000
352.535248	145.520000
352.628693	146.040000
352.722137	146.240000
352.815582	146.340000
352.909027	146.480000
353.002472	146.300000
353.095917	146.000000
353.189362	146.340000
353.282806	146.080000
353.376251	146.080000
353.469696	145.680000
353.563141	146.040000
353.656586	145.820000
353.750061	145.500000
353.843475	145.240000
353.936981	145.960000
354.030396	145.200000
354.123871	144.940000
354.217285	146.040000
354.310760	146.460000
354.404175	146.260000
354.497681	146.340000
354.591095	146.260000
354.684570	145.100000
354.777985	144.700000
354.871490	144.560000
354.964935	145.320000
355.058380	145.740000
355.151855	145.640000
355.245300	146.100000
355.338745	146.200000
355.432220	145.800000
355.525665	145.100000
355.619110	145.820000
355.712585	145.120000
355.806030	144.640000
355.899475	144.300000
355.992950	144.700000
356.086426	144.800000
356.179871	145.160000
356.273346	145.740000
356.366791	146.120000
356.460266	146.520000
356.553711	146.180000
356.647186	146.340000
356.740631	146.000000
356.834106	145.640000
356.927551	145.480000
357.021027	145.720000
357.114471	145.860000
357.207947	145.980000
357.301422	146.420000
357.394867	146.600000
357.488342	146.840000
357.581818	146.680000
357.675262	146.740000
357.768738	146.580000
357.862213	146.080000
357.955658	145.780000
358.049133	145.520000
358.142609	145.700000
358.236053	145.580000
358.329529	145.500000
358.423035	145.680000
358.516449	145.660000
358.609955	145.700000
358.703400	146.500000
358.796906	146.700000
358.890350	146.200000
358.983826	146.440000
359.077271	145.940000
359.170776	145.220000
359.264221	145.240000
359.357727	145.280000
359.451172	145.600000
359.544647	145.880000
359.638123	145.640000
359.731598	145.900000
359.825073	146.340000
359.918549	145.880000
360.012024	145.860000
360.105499	145.600000
360.198975	145.160000
360.292450	145.060000
360.385925	145.220000
360.479401	144.800000
360.572876	145.200000
360.666351	145.600000
360.759857	145.460000
360.853302	145.360000
360.946808	145.380000
361.040253	145.720000
361.133759	145.200000
361.227203	145.700000
361.320709	145.420000
361.414154	145.860000
361.507660	145.940000
361.601105	146.480000
361.694641	146.380000
361.788086	146.680000
361.881592	147.020000
361.975067	146.420000
362.068542	146.480000
362.162018	146.180000
362.255524	145.520000
362.348999	145.320000
362.442474	145.760000
362.535950	145.100000
362.629456	145.220000
362.722931	145.680000
362.816406	145.780000
362.909882	145.940000
363.003387	145.760000
363.096863	145.980000
363.190338	146.000000
363.283875	145.460000
363.377319	145.180000
363.470825	146.000000
363.564301	145.060000
363.657806	145.440000
363.751282	145.840000
363.844788	146.300000
363.938232	145.800000
364.031769	146.680000
364.125214	146.480000
364.218750	146.580000
364.312225	145.680000
364.405731	146.100000
364.499207	145.580000
364.592712	145.160000
364.686188	144.820000
364.779694	145.320000
364.873169	145.020000
364.966675	144.880000
365.060150	144.960000
365.153656	145.320000
365.247131	145.140000
365.340637	145.540000
365.434143	146.120000
365.527618	146.440000
365.621155	145.780000
365.714600	145.820000
365.808136	145.640000
365.901611	144.720000
365.995117	144.320000
366.088593	144.340000
366.182129	144.020000
366.275604	144.060000
366.369110	144.640000
366.462585	144.880000
366.556122	145.620000
366.649567	145.940000
366.743103	145.740000
366.836609	145.400000
366.930115	145.620000
367.023590	145.580000
367.117096	145.640000
367.210602	145.740000
367.304108	146.500000
367.397614	147.120000
367.491119	146.820000
367.584595	146.940000
367.678101	147.020000
367.771606	146.420000
367.865112	145.500000
367.958649	145.240000
368.052124	144.840000
368.145660	144.720000
368.239136	145.520000
368.332672	145.880000
368.426147	145.980000
368.519684	146.080000
368.613159	146.520000
368.706696	145.840000
368.800171	145.560000
368.893707	145.480000
368.987183	145.500000
369.080719	145.360000
369.174225	145.020000
369.267731	145.260000
369.361237	145.400000
369.454742	145.480000
369.548248	145.820000
369.641754	145.760000
369.735260	145.440000
369.828766	144.600000
369.922272	145.100000
370.015808	144.360000
370.109314	144.360000
370.202820	144.440000
370.296356	146.140000
370.389832	145.380000
370.483368	145.120000
370.576874	145.160000
370.670410	145.240000
370.763885	144.040000
370.857422	144.460000
370.950928	144.800000
371.044464	145.840000
371.137939	145.880000
371.231476	146.240000
371.324982	146.600000
371.418518	146.640000
371.512024	145.980000
371.605560	145.920000
371.699066	146.100000
371.792572	145.320000
371.886108	145.700000
371.979614	145.780000
372.073120	146.120000
372.166656	146.080000
372.260162	146.800000
372.353668	146.340000
372.447205	145.940000
372.540710	145.700000
372.634277	145.460000
372.727753	145.200000
372.821320	145.420000
372.914795	145.780000
373.008362	145.720000
373.101837	145.820000
373.195404	145.560000
373.288879	145.440000
373.382446	145.920000
373.475922	145.840000
373.569489	146.360000
373.662964	146.700000
373.756531	146.540000
373.850037	146.320000
373.943573	146.420000
374.037109	145.180000
374.130615	145.200000
374.224152	145.500000
374.317657	145.140000
374.411194	146.040000
374.504730	146.300000
374.598236	146.100000
374.691772	145.900000
374.785309	146.140000
374.878815	144.820000
374.972351	145.640000
375.065887	145.480000
375.159454	146.140000
375.252930	145.780000
375.346497	146.240000
375.440002	146.620000
375.533569	146.680000
375.627045	145.460000
375.720612	145.740000
375.814117	146.300000
375.907684	145.720000
376.001160	145.560000
376.094727	145.740000
376.188232	146.220000
376.281799	146.140000
376.375336	146.060000
376.468872	146.780000
376.562408	147.320000
376.655914	147.080000
376.749451	146.700000
376.842987	146.660000
376.936523	146.360000
377.030060	146.220000
377.123596	146.140000
377.217133	145.920000
377.310669	145.840000
377.404205	146.060000
377.497772	146.520000
377.591278	146.280000
377.684845	146.960000
377.778351	147.400000
377.871918	146.980000
377.965424	146.060000
378.058990	146.080000
378.152496	145.500000
378.246063	145.240000
378.339569	145.760000
378.433136	145.960000
378.526642	145.880000
378.620209	146.220000
378.713745	145.860000
378.807312	145.940000
378.900848	145.860000
378.994385	146.060000
379.087921	144.960000
379.181458	145.540000
379.274994	144.640000
379.368530	144.480000
379.462097	144.800000
379.555634	145.680000
379.649170	144.920000
379.742706	145.080000
379.836273	145.640000
379.929810	145.100000
380.023376	144.740000
380.116882	145.040000
380.210449	144.960000
380.303986	144.640000
380.397552	144.400000
380.491058	144.900000
380.584656	144.840000
380.678162	145.140000
380.771729	145.220000
380.865265	146.100000
380.958832	145.820000
381.052368	146.040000
381.145935	146.740000
381.239471	147.240000
381.333008	146.900000
381.426575	146.760000
381.520111	147.000000
381.613647	146.760000
381.707214	146.200000
381.800751	145.720000
381.894318	146.100000
381.987854	145.400000
382.081421	144.980000
382.174988	145.300000
382.268524	145.380000
382.362091	145.060000
382.455627	145.880000
382.549194	145.760000
382.642731	145.140000
382.736298	144.880000
382.829834	144.780000
382.923401	145.460000
383.016937	145.680000
383.110504	146.280000
383.204041	146.520000
383.297607	147.020000
383.391174	145.640000
383.484741	145.980000
383.578278	145.520000
383.671844	145.280000
383.765411	144.580000
383.858948	145.320000
383.952515	145.000000
384.046051	145.480000
384.139618	146.140000
384.233185	146.460000
384.326721	146.020000
384.420288	146.700000
384.513855	146.580000
384.607422	146.400000
384.700989	146.520000
384.794525	146.180000
384.888123	145.940000
384.981659	145.920000
385.075226	145.400000
385.168762	145.200000
385.262360	145.320000
385.355896	144.360000
385.449463	144.180000
385.542999	144.380000
385.636597	145.020000
385.730164	145.440000
385.823730	145.380000
385.917267	145.280000
386.010834	145.900000
386.104401	145.780000
386.197968	146.100000
386.291534	146.720000
386.385101	146.980000
386.478668	146.900000
386.572235	146.620000
386.665802	145.760000
386.759338	145.240000
386.852905	144.880000
386.946472	144.180000
387.040070	144.440000
387.133606	144.560000
387.227203	144.460000
387.320740	145.140000
387.414337	145.060000
387.507874	144.780000
387.601471	145.040000
387.695007	145.100000
387.788605	144.500000
387.882141	145.200000
387.975739	145.320000
388.069275	144.960000
388.162872	145.340000
388.256439	145.480000
388.350037	144.940000
388.443604	144.920000
388.537170	145.320000
388.630737	145.780000
388.724304	145.960000
388.817871	146.260000
388.911438	146.100000
389.005005	146.180000
389.098602	146.240000
389.192169	146.040000
389.285736	146.460000
389.379333	146.840000
389.472870	146.180000
389.566467	145.960000
389.660034	145.760000
389.753632	145.380000
389.847168	145.240000
389.940765	145.480000
390.034332	145.600000
390.127930	145.400000
390.221466	145.160000
390.315063	144.740000
390.408630	144.420000
390.502228	143.460000
390.595795	143.980000
390.689362	144.260000
390.782959	144.740000
390.876526	145.340000
390.970093	145.500000
391.063690	145.900000
391.157257	145.940000
391.250824	146.220000
391.344421	146.200000
391.437988	146.780000
391.531555	146.560000
391.625153	146.540000
391.718750	146.240000
391.812317	146.080000
391.905914	145.680000
391.999481	145.920000
392.093079	146.200000
392.186615	146.380000
392.280243	146.480000
392.373779	146.700000
392.467407	146.760000
392.560944	146.420000
392.654572	146.080000
392.748108	145.980000
392.841736	145.780000
392.935303	145.220000
393.028900	145.240000
393.122467	145.480000
393.216064	145.140000
393.309631	144.900000
393.403229	144.780000
393.496796	144.520000
393.590393	144.040000
393.683990	144.280000
393.777557	144.900000
393.871155	145.040000
393.964722	145.300000
394.058350	145.360000
394.151917	145.440000
394.245514	145.100000
394.339081	145.500000
394.432678	145.440000
394.526245	145.280000
394.619873	144.940000
394.713409	145.180000
394.807037	144.760000
394.900604	145.100000
394.994202	145.180000
395.087769	145.740000
395.181396	145.320000
395.274994	146.080000
395.368561	145.320000
395.462158	145.820000
395.555756	145.340000
395.649353	145.820000
395.742920	145.360000
395.836517	146.080000
395.930115	145.280000
396.023712	145.840000
396.117279	145.920000
396.210876	145.580000
396.304474	145.440000
396.398071	145.900000
396.491669	145.920000
396.585266	145.360000
396.678833	145.140000
396.772461	145.320000
396.866028	145.140000
396.959656	145.300000
397.053223	145.540000
397.146851	145.780000
397.240417	145.900000
397.334015	146.700000
397.427582	146.320000
397.521210	146.980000
397.614807	147.720000
397.708405	148.220000
397.802002	148.440000
397.895599	149.640000
397.989197	150.500000
398.082794	151.500000
398.176392	152.880000
398.269989	154.700000
398.363586	156.420000
398.457184	159.160000
398.550781	161.840000
398.644379	163.840000
398.737976	165.800000
398.831573	168.080000
398.925201	169.500000
399.018768	170.840000
399.112396	172.820000
399.205963	175.220000
399.299591	177.320000
399.393158	179.460000
399.486786	182.500000
399.580353	185.620000
399.673981	188.880000
399.767578	193.480000
399.861206	199.180000
399.954773	205.360000
400.048401	211.920000
400.141998	217.720000
400.235596	223.940000
400.329193	228.380000
400.422791	232.500000
400.516418	235.220000
400.610016	238.940000
400.703613	240.880000
400.797211	241.120000
400.890808	239.640000
400.984436	237.520000
401.078033	232.420000
401.171631	226.580000
401.265259	220.640000
401.358826	214.800000
401.452484	207.920000
401.546051	202.080000
401.639679	194.600000
401.733246	188.200000
401.826904	181.500000
401.920471	175.040000
402.014099	169.200000
402.107697	164.820000
402.201324	161.100000
402.294891	157.860000
402.388550	156.040000
402.482147	154.220000
402.575745	152.580000
402.669373	150.740000
402.762970	149.600000
402.856567	148.560000
402.950195	147.940000
403.043793	147.360000
403.137390	147.640000
403.231018	146.600000
403.324615	146.840000
403.418243	145.960000
403.511841	145.960000
403.605469	145.660000
403.699066	146.160000
403.792694	145.900000
403.886292	146.620000
403.979919	146.580000
404.073517	146.200000
404.167145	146.520000
404.260712	146.320000
404.354370	145.480000
404.447937	145.720000
404.541595	145.920000
404.635162	145.800000
404.728821	146.280000
404.822418	146.340000
404.916046	145.940000
405.009644	146.220000
405.103271	146.360000
405.196899	145.800000
405.290497	146.160000
405.384125	146.420000
405.477722	145.720000
405.571350	145.300000
405.664948	145.500000
405.758575	145.180000
405.852203	144.760000
405.945801	145.320000
406.039429	145.160000
406.133057	144.880000
406.226654	144.880000
406.320312	144.900000
406.413879	144.780000
406.507538	145.260000
406.601135	144.960000
406.694763	145.500000
406.788361	145.280000
406.882019	144.920000
406.975586	145.100000
407.069244	146.020000
407.162872	145.900000
407.256470	146.040000
407.350098	146.100000
407.443726	145.580000
407.537323	144.840000
407.630951	145.000000
407.724579	144.760000
407.818207	145.220000
407.911804	144.980000
408.005432	145.240000
408.099060	145.420000
408.192688	146.140000
408.286285	145.680000
408.379913	145.840000
408.473572	145.920000
408.567169	145.280000
408.660828	144.980000
408.754395	145.080000
408.848053	145.040000
408.941650	145.060000
409.035309	144.660000
409.128906	144.700000
409.222565	145.040000
409.316132	145.380000
409.409790	144.940000
409.503387	145.360000
409.597046	145.280000
409.690674	145.180000
409.784302	145.320000
409.877930	145.440000
409.971558	145.560000
410.065186	145.460000
410.158783	145.200000
410.252411	145.040000
410.346039	145.300000
410.439667	145.280000
410.533295	145.740000
410.626923	146.100000
410.720551	145.840000
410.814209	146.120000
410.907806	146.120000
411.001465	145.340000
411.095062	145.200000
411.188721	145.500000
411.282318	145.160000
411.375977	144.740000
411.469574	145.560000
411.563232	145.480000
411.656830	145.120000
411.750488	144.960000
411.844086	144.980000
411.937744	144.540000
412.031372	144.320000
412.125000	144.400000
412.218628	144.280000
412.312256	145.200000
412.405884	145.660000
412.499512	145.760000
412.593170	145.960000
412.686798	146.180000
412.780426	145.120000
412.874054	145.180000
412.967682	145.420000
413.061310	145.860000
413.154968	146.340000
413.248566	146.980000
413.342224	146.620000
413.435852	146.520000
413.529510	146.100000
413.623108	145.140000
413.716766	144.960000
413.810364	145.400000
413.904022	144.860000
413.997650	144.360000
414.091309	145.300000
414.184906	145.220000
414.278564	144.660000
414.372192	145.280000
414.465851	145.920000
414.559479	145.540000
414.653107	146.220000
414.746735	146.280000
414.840393	146.440000
414.934021	146.300000
415.027649	145.820000
415.121277	145.540000
415.214935	145.960000
415.308563	145.580000
415.402191	145.080000
415.495850	145.180000
415.589478	144.740000
415.683136	144.580000
415.776733	144.760000
415.870422	145.660000
415.964020	145.600000
416.057678	146.040000
416.151306	145.880000
416.244965	145.740000
416.338562	145.280000
416.432251	145.880000
416.525848	146.660000
416.619507	147.100000
416.713165	147.480000
416.806793	147.420000
416.900421	147.580000
416.994080	146.380000
417.087708	145.980000
417.181366	145.620000
417.274994	145.720000
417.368622	145.940000
417.462280	146.380000
417.555908	146.400000
417.649567	146.380000
417.743195	146.180000
417.836853	145.720000
417.930481	145.960000
418.024170	146.000000
418.117767	146.300000
418.211426	146.780000
418.305054	147.000000
418.398712	146.340000
418.492340	146.240000
418.585999	146.400000
418.679626	146.300000
418.773285	146.200000
418.866913	146.720000
418.960571	146.740000
419.054230	146.720000
419.147858	146.760000
419.241516	146.600000
419.335144	146.200000
419.428802	146.260000
419.522461	145.660000
419.616089	145.240000
419.709747	145.400000
419.803375	145.820000
419.897034	145.580000
419.990662	145.740000
420.084320	146.480000
420.177979	146.680000
420.271606	146.560000
420.365295	147.380000
420.458893	147.780000
420.552582	147.620000
420.646210	147.560000
420.739868	147.300000
420.833496	146.740000
420.927155	146.160000
421.020782	145.900000
421.114471	145.420000
421.208069	145.680000
421.301758	146.040000
421.395386	146.240000
421.489044	146.100000
421.582703	146.420000
421.676361	146.640000
421.769989	146.100000
421.863647	146.700000
421.957306	146.880000
422.050934	146.720000
422.144592	146.440000
422.238251	146.280000
422.331909	145.700000
422.425537	145.500000
422.519196	145.640000
422.612854	145.360000
422.706543	145.360000
422.800140	145.620000
422.893829	144.940000
422.987457	144.700000
423.081146	145.100000
423.174744	145.840000
423.268433	145.600000
423.362061	146.180000
423.455750	145.880000
423.549347	145.700000
423.643036	144.860000
423.736664	145.340000
423.830353	145.400000
423.924011	145.980000
424.017639	145.740000
424.111298	146.060000
424.204956	145.800000
424.298615	145.860000
424.392273	145.560000
424.485931	145.660000
424.579559	145.600000
424.673218	145.260000
424.766876	145.200000
424.860535	145.080000
424.954193	144.860000
425.047882	145.240000
425.141510	145.420000
425.235199	145.560000
425.328796	145.440000
425.422485	145.520000
425.516113	144.740000
425.609802	144.860000
425.703430	144.520000
425.797119	144.540000
425.890747	144.760000
425.984436	145.140000
426.078064	144.880000
426.171753	145.040000
426.265411	145.060000
426.359070	145.280000
426.452728	145.180000
426.546356	145.220000
426.640015	145.200000
426.733673	145.100000
426.827332	144.500000
426.920990	145.180000
427.014648	144.920000
427.108307	145.040000
427.201965	145.620000
427.295624	145.920000
427.389282	145.220000
427.482941	145.420000
427.576630	145.400000
427.670258	144.860000
427.763947	144.800000
427.857574	145.220000
427.951263	145.440000
428.044922	145.120000
428.138611	145.480000
428.232239	146.120000
428.325928	146.400000
428.419556	146.580000
428.513245	146.620000
428.606903	146.360000
428.700562	145.360000
428.794220	144.220000
428.887878	143.620000
428.981537	143.920000
429.075195	144.260000
429.168854	144.840000
429.262512	145.500000
429.356201	145.700000
429.449860	145.380000
429.543518	145.080000
429.637177	145.220000
429.730835	144.920000
429.824493	144.740000
429.918182	145.280000
430.011810	144.920000
430.105530	144.180000
430.199158	144.560000
430.292847	144.320000
430.386475	143.960000
430.480164	143.880000
430.573792	143.940000
430.667511	143.660000
430.761139	144.300000
430.854828	144.920000
430.948456	145.380000
431.042145	146.000000
431.135834	145.740000
431.229492	145.360000
431.323151	145.160000
431.416809	144.840000
431.510468	144.640000
431.604156	144.800000
431.697815	145.140000
431.791473	144.520000
431.885132	144.540000
431.978821	144.820000
432.072479	145.380000
432.166138	145.720000
432.259827	145.900000
432.353485	146.140000
432.447174	146.060000
432.540802	145.780000
432.634491	145.580000
432.728149	145.700000
432.821838	146.360000
432.915466	145.940000
433.009186	145.760000
433.102814	145.300000
433.196503	145.280000
433.290131	145.000000
433.383850	145.400000
433.477509	145.520000
433.571167	146.680000
433.664856	146.940000
433.758514	147.300000
433.852173	147.100000
433.945862	147.080000
434.039520	146.340000
434.133179	145.860000
434.226868	145.400000
434.320526	144.840000
434.414185	145.300000
434.507874	144.900000
434.601562	144.880000
434.695221	144.560000
434.788910	145.020000
434.882538	144.980000
434.976257	145.000000
435.069885	145.360000
435.163574	145.740000
435.257233	145.740000
435.350922	145.460000
435.444580	145.320000
435.538269	144.940000
435.631897	144.940000
435.725616	145.360000
435.819275	145.760000
435.912964	146.300000
436.006622	146.820000
436.100311	146.460000
436.193970	145.500000
436.287628	145.180000
436.381317	145.080000
436.474976	144.700000
436.568665	144.660000
436.662323	145.120000
436.756012	145.040000
436.849670	144.740000
436.943390	144.580000
437.037018	144.700000
437.130737	144.900000
437.224365	144.880000
437.318085	145.060000
437.411713	145.400000
437.505432	145.580000
437.599060	146.000000
437.692780	146.460000
437.786407	146.420000
437.880127	146.480000
437.973755	146.300000
438.067474	145.500000
438.161133	145.220000
438.254822	145.620000
438.348480	145.340000
438.442169	145.900000
438.535828	146.420000
438.629517	146.060000
438.723175	145.540000
438.816864	145.840000
438.910553	145.300000
439.004211	145.040000
439.097900	144.800000
439.191559	144.840000
439.285248	144.420000
439.378906	144.720000
439.472626	144.560000
439.566284	144.760000
439.659973	145.260000
439.753632	145.280000
439.847321	145.520000
439.940979	145.600000
440.034698	145.640000
440.128326	145.100000
440.222046	144.880000
440.315674	143.860000
440.409393	144.040000
440.503082	143.820000
440.596741	144.000000
440.690430	144.460000
440.784088	144.820000
440.877777	144.360000
440.971466	144.760000
441.065125	144.320000
441.158813	144.260000
441.252502	144.520000
441.346161	144.960000
441.439850	144.820000
441.533539	145.060000
441.627197	145.200000
441.720886	144.980000
441.814606	145.280000
441.908234	145.900000
442.001953	145.860000
442.095612	145.640000
442.189301	146.000000
442.282959	145.860000
442.376678	145.140000
442.470306	145.800000
442.564026	145.560000
442.657684	145.680000
442.751404	145.500000
442.845032	146.280000
442.938751	145.460000
443.032440	145.840000
443.126099	145.320000
443.219788	145.860000
443.313477	145.500000
443.407166	146.140000
443.500824	146.100000
443.594513	146.100000
443.688202	145.800000
443.781891	145.400000
443.875549	144.940000
443.969238	145.240000
444.062927	145.580000
444.156647	145.440000
444.250275	145.820000
444.343994	146.100000
444.437653	146.020000
444.531372	145.920000
444.625031	145.760000
444.718719	145.340000
444.812378	145.320000
444.906097	145.140000
444.999756	144.780000
445.093445	144.740000
445.187103	145.200000
445.280823	145.640000
445.374512	145.060000
445.468201	145.120000
445.561859	145.120000
445.655548	145.080000
445.749237	144.280000
445.842926	144.720000
445.936615	145.200000
446.030304	145.140000
446.123962	145.320000
446.217651	145.480000
446.311340	145.580000
446.405029	145.300000
446.498749	145.300000
446.592407	144.880000
446.686096	145.160000
446.779755	145.220000
446.873474	145.580000
446.967133	145.800000
447.060852	145.460000
447.154510	145.260000
447.248230	145.360000
447.341858	144.800000
447.435577	144.480000
447.529236	144.420000
447.622955	144.320000
447.716644	144.360000
447.810333	144.860000
447.904022	145.120000
447.997711	145.520000
448.091400	146.040000
448.185059	145.880000
448.278748	146.080000
448.372437	145.940000
448.466125	146.080000
448.559814	146.000000
448.653503	146.540000
448.747192	146.440000
448.840912	147.060000
448.934570	147.180000
449.028290	147.360000
449.121948	146.680000
449.215637	146.180000
449.309296	145.580000
449.403015	145.620000
449.496674	145.240000
449.590393	145.420000
449.684052	145.380000
449.777771	146.100000
449.871429	145.480000
449.965149	145.360000
450.058838	145.420000
450.152527	145.940000
450.246216	145.800000
450.339905	146.000000
450.433594	145.720000
450.527283	146.360000
450.620972	145.840000
450.714661	145.380000
450.808350	145.320000
450.902039	145.840000
450.995728	145.220000
451.089417	145.240000
451.183105	145.440000
451.276794	146.060000
451.370514	145.680000
451.464172	144.820000
451.557892	144.780000
451.651550	144.940000
451.745270	144.520000
451.838928	144.220000
451.932648	145.180000
452.026306	145.900000
452.120026	145.440000
452.213684	145.740000
452.307404	146.060000
452.401062	145.760000
452.494781	145.880000
452.588470	146.220000
452.682159	145.600000
452.775848	145.760000
452.869537	145.680000
452.963226	144.740000
453.056915	144.560000
453.150604	145.040000
453.244293	145.140000
453.337982	145.860000
453.431671	146.580000
453.525360	146.800000
453.619049	146.740000
453.712769	146.660000
453.806427	145.800000
453.900146	145.320000
453.993805	145.000000
454.087555	145.020000
454.181213	145.020000
454.274933	145.080000
454.368591	144.900000
454.462311	144.920000
454.555969	144.600000
454.649689	145.280000
454.743347	145.140000
454.837067	145.940000
454.930756	146.280000
455.024445	146.480000
455.118134	145.960000
455.211853	146.440000
455.305542	146.000000
455.399231	145.780000
455.492920	146.040000
455.586609	145.880000
455.680298	146.040000
455.773987	145.640000
455.867676	145.740000
455.961365	145.600000
456.055084	145.280000
456.148773	144.900000
456.242493	145.100000
456.336151	144.900000
456.429871	145.040000
456.523529	145.620000
456.617249	145.240000
456.710907	145.480000
456.804626	145.460000
456.898315	144.840000
456.992035	144.520000
457.085693	144.640000
457.179413	144.040000
457.273102	145.040000
457.366791	145.180000
457.460480	145.360000
457.554199	146.160000
457.647888	146.420000
457.741577	145.680000
457.835266	146.080000
457.928955	146.020000
458.022644	145.980000
458.116364	146.360000
458.210052	146.160000
458.303741	145.880000
458.397461	145.380000
458.491119	144.680000
458.584839	144.620000
458.678528	144.500000
458.772247	144.580000
458.865906	144.720000
458.959625	145.680000
459.053284	145.560000
459.147003	145.400000
459.240692	146.020000
459.334412	146.580000
459.428070	145.900000
459.521790	145.800000
459.615479	146.080000
459.709198	146.060000
459.802887	145.560000
459.896576	145.280000
459.990265	145.160000
460.083954	145.520000
460.177673	144.780000
460.271362	145.060000
460.365051	145.280000
460.458740	145.420000
460.552429	144.920000
460.646149	145.120000
460.739838	144.800000
460.833527	144.940000
460.927246	144.580000
461.020905	144.460000
461.114655	144.360000
461.208313	144.740000
461.302032	144.400000
461.395691	145.060000
461.489441	144.960000
461.583099	144.840000
461.676819	144.200000
461.770477	144.840000
461.864197	144.480000
461.957916	144.820000
462.051605	144.600000
462.145294	145.920000
462.238983	145.340000
462.332703	145.600000
462.426392	146.020000
462.520081	146.280000
462.613770	145.580000
462.707489	146.080000
462.801178	145.780000
462.894867	145.480000
462.988556	145.540000
463.082275	145.460000
463.175964	144.940000
463.269684	145.400000
463.363342	145.040000
463.457092	144.280000
463.550751	144.620000
463.644470	145.300000
463.738129	144.940000
463.831879	145.320000
463.925537	146.680000
464.019257	146.420000
464.112946	145.840000
464.206665	145.820000
464.300323	145.800000
464.394043	145.100000
464.487762	145.200000
464.581451	145.600000
464.675140	145.540000
464.768829	145.440000
464.862549	145.480000
464.956238	145.420000
465.049927	145.440000
465.143646	145.840000
465.237335	145.680000
465.331024	146.120000
465.424713	146.300000
465.518433	146.160000
465.612152	145.820000
465.705811	146.360000
465.799561	146.220000
465.893219	145.780000
465.986938	145.700000
466.080597	145.440000
466.174347	145.220000
466.268005	145.180000
466.361725	145.240000
466.455414	145.340000
466.549133	145.280000
466.642792	145.480000
466.736542	145.080000
466.830231	145.340000
466.923920	145.020000
467.017609	145.380000
467.111328	145.060000
467.205017	145.020000
467.298706	144.740000
467.392426	144.940000
467.486115	145.180000
467.579803	145.000000
467.673523	145.640000
467.767212	145.640000
467.860901	145.620000
467.954651	145.740000
468.048309	146.180000
468.142029	145.920000
468.235718	146.060000
468.329437	145.760000
468.423096	145.480000
468.516846	145.060000
468.610504	144.640000
468.704224	144.340000
468.797913	144.580000
468.891632	144.460000
468.985291	144.480000
469.079010	144.780000
469.172729	144.600000
469.266418	144.820000
469.360107	145.160000
469.453827	144.880000
469.547516	144.880000
469.641205	145.860000
469.734924	146.040000
469.828613	146.060000
469.922302	146.600000
470.016022	146.620000
470.109711	146.080000
470.203430	145.440000
470.297150	144.720000
470.390808	144.980000
470.484558	144.860000
470.578217	145.500000
470.671936	146.280000
470.765625	147.100000
470.859344	146.540000
470.953003	146.740000
471.046753	145.880000
471.140411	145.000000
471.234131	144.820000
471.327820	145.500000
471.421539	145.460000
471.515228	145.360000
471.608948	145.700000
471.702637	145.200000
471.796326	144.400000
471.890045	144.860000
471.983734	145.020000
472.077423	144.780000
472.171143	145.280000
472.264832	145.560000
472.358521	144.860000
472.452240	144.880000
472.545929	145.560000
472.639648	145.740000
472.733337	146.220000
472.827057	146.380000
472.920746	146.320000
473.014465	146.340000
473.108124	146.060000
473.201874	145.780000
473.295532	145.860000
473.389252	146.300000
473.482941	146.200000
473.576660	145.740000
473.670319	145.520000
473.764069	145.740000
473.857727	145.600000
473.951477	145.700000
474.045166	146.460000
474.138855	146.420000
474.232574	145.960000
474.326263	146.020000
474.419952	146.100000
474.513672	145.980000
474.607361	145.980000
474.701050	146.520000
474.794769	146.900000
474.888458	147.060000
474.982178	146.860000
475.075867	146.900000
475.169586	146.600000
475.263275	146.260000
475.356995	145.840000
475.450653	145.740000
475.544403	145.400000
475.638062	146.400000
475.731812	145.800000
475.825470	145.720000
475.919189	145.740000
476.012878	146.040000
476.106598	144.740000
476.200256	145.300000
476.294006	145.040000
476.387695	145.080000
476.481384	145.100000
476.575104	145.580000
476.668793	145.480000
476.762512	145.360000
476.856201	146.020000
476.949890	145.900000
477.043610	145.360000
477.137299	145.360000
477.230988	146.000000
477.324707	145.200000
477.418396	145.760000
477.512146	146.000000
477.605804	145.760000
477.699524	145.560000
477.793213	145.860000
477.886932	145.240000
477.980591	145.100000
478.074341	145.120000
478.167999	144.620000
478.261749	144.380000
478.355408	144.580000
478.449127	145.020000
478.542816	145.900000
478.636536	146.820000
478.730225	146.900000
478.823944	147.000000
478.917633	147.060000
479.011322	146.620000
479.105042	146.140000
479.198730	146.580000
479.292450	146.300000
479.386139	146.360000
479.479828	146.400000
479.573547	146.740000
479.667267	146.440000
479.760925	146.800000
479.854675	146.780000
479.948334	146.500000
480.042084	145.980000
480.135742	146.400000
480.229462	145.940000
480.323151	145.800000
480.416870	145.400000
480.510529	145.360000
480.604279	144.680000
480.697937	144.960000
480.791656	144.880000
480.885345	145.080000
480.979065	145.360000
481.072754	146.060000
481.166473	146.400000
481.260132	145.980000
481.353882	145.940000
481.447540	145.620000
481.541260	145.240000
481.635010	144.600000
481.728668	144.820000
481.822388	144.740000
481.916077	144.780000
482.009796	144.660000
482.103485	145.360000
482.197205	145.560000
482.290863	145.880000
482.384613	145.800000
482.478271	145.300000
482.571991	144.840000
482.665680	144.540000
482.759399	145.260000
482.853058	146.100000
482.946808	146.220000
483.040466	146.200000
483.134216	146.180000
483.227875	145.260000
483.321594	145.280000
483.415283	145.560000
483.509003	145.680000
483.602661	145.600000
483.696411	146.040000
483.790070	145.400000
483.883789	145.100000
483.977478	145.140000
484.071198	145.580000
484.164917	145.160000
484.258606	144.660000
484.352325	145.300000
484.445984	145.220000
484.539734	144.780000
484.633392	144.460000
484.727142	145.300000
484.820801	145.060000
484.914520	145.280000
485.008209	145.740000
485.101929	146.420000
485.195587	146.160000
485.289337	145.980000
485.382996	145.640000
485.476715	145.520000
485.570404	145.940000
485.664124	145.660000
485.757782	146.280000
485.851532	146.400000
485.945190	146.180000
486.038910	145.780000
486.132599	146.180000
486.226318	145.280000
486.319977	144.880000
486.413727	145.620000
486.507446	145.200000
486.601105	144.760000
486.694855	145.020000
486.788513	145.380000
486.882233	144.620000
486.975922	144.740000
487.069641	144.760000
487.163300	144.440000
487.257050	145.160000
487.350708	145.260000
487.444427	144.980000
487.538116	145.200000
487.631836	145.240000
487.725494	144.780000
487.819214	144.720000
487.912903	144.800000
488.006622	144.740000
488.100281	145.180000
488.194031	145.020000
488.287689	145.340000
488.381409	146.160000
488.475098	146.120000
488.568817	146.240000
488.662476	146.160000
488.756226	145.840000
488.849945	144.620000
488.943604	144.720000
489.037354	144.760000
489.131012	144.780000
489.224731	144.560000
489.318390	145.200000
489.412140	145.320000
489.505798	145.260000
489.599518	145.040000
489.693207	145.560000
489.786926	145.180000
489.880585	144.960000
489.974335	144.920000
490.067993	145.960000
490.161713	146.280000
490.255371	147.080000
490.349121	147.200000
490.442780	147.100000
490.536499	146.120000
490.630188	145.660000
490.723907	145.100000
490.817566	145.120000
490.911285	145.160000
491.004974	144.920000
491.098694	144.740000
491.192413	145.440000
491.286102	145.260000
491.379822	145.180000
491.473480	145.360000
491.567200	145.540000
491.660889	144.760000
491.754608	144.780000
491.848267	144.960000
491.941986	145.040000
492.035675	144.660000
492.129395	145.220000
492.223053	145.120000
492.316772	145.260000
492.410461	145.180000
492.504181	145.500000
492.597839	145.040000
492.691559	145.420000
492.785248	144.980000
492.878967	145.340000
492.972626	145.140000
493.066345	145.160000
493.160034	144.300000
493.253754	144.420000
493.347412	143.780000
493.441132	143.820000
493.534882	144.280000
493.628540	145.200000
493.722260	145.260000
493.815918	145.720000
493.909668	146.000000
494.003326	146.240000
494.097046	146.100000
494.190704	146.120000
494.284454	146.420000
494.378113	146.640000
494.471832	145.880000
494.565491	145.660000
494.659210	145.540000
494.752899	145.180000
494.846619	145.020000
494.940277	145.480000
495.033997	145.300000
495.127686	145.020000
495.221405	145.020000
495.315063	144.900000
495.408783	144.720000
495.502441	144.980000
495.596191	145.220000
495.689850	145.280000
495.783569	145.420000
495.877228	145.560000
495.970947	145.440000
496.064697	145.500000
496.158356	146.140000
496.252075	146.320000
496.345734	146.100000
496.439453	146.800000
496.533142	146.860000
496.626862	146.680000
496.720520	146.460000
496.814240	146.700000
496.907898	146.080000
497.001617	146.260000
497.095306	145.560000
497.189026	145.400000
497.282684	145.380000
497.376404	145.600000
497.470062	145.240000
497.563782	145.600000
497.657471	145.740000
497.751190	145.580000
497.844849	145.380000
497.938568	145.740000
498.032227	145.600000
498.125946	145.320000
498.219635	145.120000
498.313354	145.200000
498.407074	144.960000
498.500732	145.180000
498.594452	145.500000
498.688110	145.360000
498.781830	145.040000
498.875519	145.180000
498.969238	144.880000
499.062897	144.400000
499.156616	145.000000
499.250275	145.380000
499.343994	144.600000
499.437653	144.540000
499.531372	145.000000
499.625061	145.180000
499.718781	145.020000
499.812439	145.740000
499.906158	145.580000
499.999817	145.480000
500.093536	144.740000
500.187195	144.580000
500.280914	144.280000
500.374573	144.620000
500.468323	144.340000
500.561981	144.780000
500.655701	144.680000
500.749420	144.760000
500.843079	145.100000
500.936798	145.320000
501.030457	145.480000
501.124176	145.940000
501.217834	145.980000
501.311554	145.440000
501.405212	145.280000
501.498962	144.380000
501.592621	144.060000
501.686340	144.380000
501.779999	144.520000
501.873718	144.720000
501.967377	145.200000
502.061096	145.780000
502.154755	145.360000
502.248474	145.760000
502.342133	145.680000
502.435852	145.580000
502.529510	145.700000
502.623230	146.180000
502.716888	145.520000
502.810608	145.540000
502.904266	146.140000
502.997986	145.700000
503.091705	144.960000
503.185364	144.940000
503.279083	145.080000
503.372772	144.720000
503.466492	144.300000
503.560150	144.660000
503.653870	145.160000
503.747528	144.740000
503.841248	144.500000
503.934906	144.940000
504.028625	144.720000
504.122284	144.640000
504.216003	145.360000
504.309662	145.420000
504.403381	145.380000
504.497040	145.440000
504.590759	145.040000
504.684418	144.920000
504.778137	145.440000
504.871796	145.600000
504.965515	145.700000
505.059174	146.080000
505.152893	145.700000
505.246521	144.980000
505.340240	144.660000
505.433899	144.900000
505.527618	145.040000
505.621338	145.480000
505.714996	145.440000
505.808716	145.560000
505.902374	145.960000
505.996094	145.940000
506.089752	145.620000
506.183472	146.020000
506.277130	146.100000
506.370850	145.660000
506.464508	145.420000
506.558228	145.520000
506.651886	145.420000
506.745605	145.780000
506.839264	145.820000
506.932983	145.920000
507.026611	145.880000
507.120331	146.180000
507.213989	145.540000
507.307709	145.660000
507.401367	145.840000
507.495087	146.440000
507.588745	145.980000
507.682465	146.880000
507.776123	146.860000
507.869843	146.720000
507.963531	146.420000
508.057190	147.020000
508.150909	145.980000
508.244568	146.020000
508.338287	145.800000
508.431946	145.440000
508.525665	144.940000
508.619324	145.220000
508.713013	145.180000
508.806671	145.500000
508.900391	146.200000
508.994049	146.340000
509.087769	146.240000
509.181427	146.200000
509.275146	145.760000
509.368774	144.800000
509.462494	144.960000
509.556152	145.160000
509.649872	145.540000
509.743530	145.840000
509.837250	146.560000
509.930878	146.120000
510.024597	145.900000
510.118256	145.340000
510.211975	145.140000
510.305695	144.520000
510.399353	145.000000
510.493042	145.380000
510.586700	145.460000
510.680420	146.180000
510.774078	146.240000
510.867798	146.240000
510.961426	145.720000
511.055145	145.480000
511.148804	144.840000
511.242523	145.280000
511.336151	145.220000
511.429871	145.760000
511.523529	146.040000
511.617249	145.760000
511.710876	145.440000
511.804596	145.060000
511.898254	144.480000
511.991974	144.540000
512.085632	144.800000
512.179321	145.080000
512.272949	145.680000
512.366699	146.480000
512.460327	146.160000
512.554077	146.900000
512.647766	146.600000
512.741394	146.220000
512.835144	146.380000
512.928772	146.480000
513.022461	146.160000
513.116150	146.100000
513.209839	146.720000
513.303467	145.900000
513.397217	145.640000
513.490845	145.400000
513.584595	145.100000
513.678223	144.220000
513.771912	143.860000
513.865601	144.060000
513.959290	143.700000
514.052917	144.100000
514.146667	144.800000
514.240295	145.420000
514.333984	145.960000
514.427673	145.800000
514.521362	145.920000
514.614990	145.340000
514.708740	145.320000
514.802368	144.840000
514.896057	145.380000
514.989746	146.040000
515.083435	146.140000
515.177124	146.420000
515.270752	146.380000
515.364502	146.360000
515.458130	146.160000
515.551819	145.880000
515.645508	145.320000
515.739197	145.400000
515.832825	145.240000
515.926575	144.680000
516.020203	145.160000
516.113892	145.960000
516.207520	146.080000
516.301270	146.260000
516.394897	146.180000
516.488586	146.400000
516.582275	146.120000
516.675964	145.640000
516.769592	145.360000
516.863281	146.180000
516.956970	146.180000
517.050659	145.700000
517.144287	146.140000
517.238037	146.260000
517.331665	145.340000
517.425354	145.060000
517.519043	145.100000
517.612732	145.080000
517.706421	145.320000
517.800049	145.400000
517.893738	144.980000
517.987427	144.960000
518.081116	144.720000
518.174744	144.040000
518.268433	144.320000
518.362122	145.220000
518.455811	145.380000
518.549438	146.320000
518.643127	147.360000
518.736816	146.900000
518.830505	146.240000
518.924133	146.080000
519.017822	145.620000
519.111511	145.040000
519.205200	145.620000
519.298828	145.920000
519.392517	145.780000
519.486206	145.920000
519.579895	145.980000
519.673523	145.900000
519.767212	145.860000
519.860901	146.400000
519.954590	145.920000
520.048279	145.420000
520.141907	145.160000
520.235596	145.980000
520.329224	145.880000
520.422974	145.520000
520.516602	145.600000
520.610291	145.240000
520.703918	144.640000
520.797607	144.640000
520.891296	144.900000
520.984985	145.280000
521.078613	146.280000
521.172302	145.620000
521.265930	146.380000
521.359680	147.040000
521.453308	147.040000
521.546997	146.820000
521.640625	147.400000
521.734314	146.540000
521.827942	146.460000
521.921692	146.620000
522.015320	146.220000
522.109009	145.760000
522.202698	145.780000
522.296326	145.440000
522.390015	145.580000
522.483704	145.660000
522.577393	145.340000
522.671021	145.120000
522.764709	145.080000
522.858337	145.280000
522.952026	145.280000
523.045654	146.240000
523.139404	146.920000
523.233032	147.120000
523.326721	146.840000
523.420349	146.920000
523.514038	146.400000
523.607666	146.360000
523.701355	146.000000
523.795044	145.800000
523.888733	145.940000
523.982361	146.160000
524.076050	145.620000
524.169678	146.060000
524.263367	145.740000
524.356995	145.000000
524.450684	144.740000
524.544373	144.640000
524.638062	144.380000
524.731750	144.660000
524.825378	145.020000
524.919067	144.560000
525.012695	145.060000
525.106384	144.580000
525.200012	144.700000
525.293701	144.580000
525.387329	145.360000
525.481018	145.220000
525.574646	146.020000
525.668396	146.100000
525.762024	146.480000
525.855713	146.320000
525.949341	145.900000
526.043030	145.720000
526.136658	145.040000
526.230347	145.080000
526.323975	144.720000
526.417664	144.800000
526.511292	144.900000
526.604980	145.520000
526.698608	145.140000
526.792297	145.500000
526.885925	145.680000
526.979614	145.640000
527.073303	145.540000
527.166931	145.760000
527.260620	146.080000
527.354309	146.140000
527.447998	145.980000
527.541626	145.720000
527.635315	145.820000
527.728943	145.960000
527.822632	146.220000
527.916260	146.260000
528.009949	146.600000
528.103577	146.220000
528.197266	145.360000
528.290894	145.240000
528.384583	145.020000
528.478210	144.740000
528.571899	145.200000
528.665527	146.020000
528.759216	145.900000
528.852844	146.340000
528.946533	146.460000
529.040161	145.980000
529.133850	145.340000
529.227478	145.580000
529.321167	145.800000
529.414856	146.300000
529.508484	147.060000
529.602173	147.060000
529.695801	146.740000
529.789490	146.500000
529.883057	146.040000
529.976746	145.920000
530.070374	146.460000
530.164062	146.600000
530.257690	146.820000
530.351379	147.220000
530.445007	146.820000
530.538696	145.840000
530.632324	146.320000
530.726013	146.300000
530.819641	145.840000
530.913330	146.140000
531.006958	146.460000
531.100647	146.260000
531.194275	146.060000
531.287964	146.000000
531.381592	145.400000
531.475220	145.500000
531.568848	145.000000
531.662537	144.640000
531.756226	145.340000
531.849854	145.680000
531.943542	145.620000
532.037170	145.180000
532.130859	145.720000
532.224487	144.860000
532.318176	144.620000
532.411804	145.260000
532.505432	145.740000
532.599060	145.540000
532.692749	145.420000
532.786377	145.860000
532.880066	145.100000
532.973694	144.800000
533.067383	144.560000
533.161011	144.840000
533.254639	144.460000
533.348267	144.560000
533.441956	145.160000
533.535583	144.940000
533.629272	145.020000
533.722900	144.800000
533.816589	144.740000
533.910156	144.840000
534.003845	144.780000
534.097534	145.280000
534.191162	146.080000
534.284851	146.300000
534.378479	145.720000
534.472107	145.820000
534.565735	145.540000
534.659424	145.620000
534.753052	145.900000
534.846741	146.020000
534.940369	146.540000
535.033997	146.040000
535.127625	145.620000
535.221313	145.660000
535.314941	145.440000
535.408630	144.880000
535.502197	145.560000
535.595886	145.300000
535.689514	145.000000
535.783203	145.640000
535.876831	146.100000
535.970459	145.880000
536.064087	145.840000
536.157776	145.940000
536.251404	145.680000
536.345093	145.260000
536.438721	145.340000
536.532349	145.760000
536.626038	145.460000
536.719666	145.620000
536.813293	145.360000
536.906921	145.260000
537.000610	145.120000
537.094238	145.120000
537.187866	145.040000
537.281494	145.340000
537.375183	145.460000
537.468811	145.340000
537.562439	145.540000
537.656067	145.300000
537.749756	145.400000
537.843384	145.660000
537.937012	145.900000
538.030640	145.500000
538.124329	145.460000
538.217896	145.800000
538.311584	145.780000
538.405212	145.640000
538.498901	146.240000
538.592468	146.880000
538.686157	146.420000
538.779785	145.740000
538.873413	145.420000
538.967102	144.980000
539.060730	144.320000
539.154358	144.660000
539.247986	145.000000
539.341675	145.140000
539.435242	145.240000
539.528931	145.560000
539.622559	145.080000
539.716187	145.800000
539.809814	145.880000
539.903503	146.160000
539.997070	145.780000
540.090759	145.960000
540.184387	145.360000
540.278015	145.640000
540.371643	145.680000
540.465332	146.280000
540.558899	146.180000
540.652588	145.900000
540.746216	145.700000
540.839844	145.980000
540.933472	145.500000
541.027100	145.600000
541.120728	145.860000
541.214417	146.180000
541.308044	145.900000
541.401672	146.040000
541.495300	145.660000
541.588928	145.620000
541.682617	145.140000
541.776184	144.860000
541.869873	145.160000
541.963440	145.520000
542.057129	145.340000
542.150757	145.420000
542.244385	145.360000
542.338013	144.920000
542.431641	144.720000
542.525269	144.660000
542.618958	145.120000
542.712524	145.640000
542.806213	145.620000
542.899780	145.920000
542.993469	145.900000
543.087036	145.500000
543.180725	144.860000
543.274292	145.220000
543.367981	145.340000
543.461548	145.700000
543.555237	145.420000
543.648926	145.700000
543.742493	145.980000
543.836182	145.880000
543.929749	145.460000
544.023437	145.840000
544.117004	145.980000
544.210693	145.600000
544.304260	145.660000
544.397949	145.800000
544.491516	145.720000
544.585205	145.480000
544.678772	145.220000
544.772461	145.600000
544.866028	145.520000
544.959717	145.680000
545.053284	145.480000
545.146973	145.880000
545.240540	145.700000
545.334229	146.280000
545.427795	146.360000
545.521423	146.760000
545.615051	146.660000
545.708679	146.960000
545.802307	146.440000
545.895935	146.500000
545.989624	147.300000
546.083191	147.220000
546.176880	146.580000
546.270447	146.400000
546.364136	146.900000
546.457703	145.960000
546.551331	145.900000
546.644958	146.160000
546.738586	146.380000
546.832214	145.620000
546.925842	145.640000
547.019409	145.800000
547.113098	145.540000
547.206665	145.320000
547.300354	145.420000
547.393921	145.540000
547.487549	145.600000
547.581177	145.540000
547.674805	145.900000
547.768433	145.440000
547.862061	145.320000
547.955627	144.560000
548.049316	145.240000
548.142883	145.380000
548.236572	145.960000
548.330139	146.280000
548.423767	146.560000
548.517456	146.160000
548.611023	145.940000
548.704651	145.300000
548.798279	145.120000
548.891907	145.680000
548.985474	145.300000
549.079163	145.440000
549.172729	145.500000
549.266357	145.060000
549.359985	144.760000
549.453613	144.400000
549.547180	144.120000
549.640869	144.580000
549.734436	144.480000
549.828064	144.800000
549.921631	145.020000
550.015320	144.700000
550.108887	144.940000
550.202515	145.060000
550.296143	144.700000
550.389771	144.840000
550.483337	145.240000
550.576965	144.840000
550.670593	145.220000
550.764221	145.400000
550.857849	145.520000
550.951477	144.900000
551.045105	144.600000
551.138672	144.880000
551.232300	144.280000
551.325928	144.580000
551.419556	145.320000
551.513123	145.540000
551.606750	145.160000
551.700378	145.560000
551.794006	145.420000
551.887573	145.100000
551.981201	145.600000
552.074768	145.580000
552.168457	145.260000
552.262024	146.000000
552.355652	146.100000
552.449219	146.200000
552.542847	146.180000
552.636475	146.100000
552.730103	145.120000
552.823669	145.060000
552.917297	144.600000
553.010864	144.500000
553.104553	144.780000
553.198181	144.680000
553.291748	145.140000
553.385376	145.460000
553.478943	145.500000
553.572571	145.820000
553.666199	146.200000
553.759827	145.640000
553.853394	145.080000
553.947021	145.300000
554.040588	145.200000
554.134216	145.180000
554.227783	146.200000
554.321411	147.060000
554.415039	146.400000
554.508667	146.400000
554.602234	146.700000
554.695862	145.780000
554.789429	145.540000
554.883057	146.060000
554.976624	146.080000
555.070251	146.120000
555.163818	145.920000
555.257507	145.380000
555.351074	145.160000
555.444702	146.160000
555.538330	145.420000
555.631897	145.980000
555.725525	146.240000
555.819092	146.200000
555.912720	145.180000
556.006287	146.020000
556.099915	145.660000
556.193481	145.740000
556.287109	146.300000
556.380676	145.980000
556.474304	145.720000
556.567871	146.240000
556.661499	145.600000
556.755066	145.380000
556.848694	145.580000
556.942261	145.300000
557.035889	145.300000
557.129517	145.840000
557.223145	146.300000
557.316711	146.540000
557.410339	146.720000
557.503906	146.380000
557.597473	146.620000
557.691040	146.160000
557.784668	146.020000
557.878296	146.080000
557.971863	146.300000
558.065491	146.240000
558.159058	146.080000
558.252686	146.840000
558.346252	147.500000
558.439880	147.040000
558.533447	146.500000
558.627075	146.140000
558.720642	145.220000
558.814270	144.360000
558.907837	144.800000
559.001465	144.960000
559.095032	145.820000
559.188660	146.100000
559.282227	145.840000
559.375854	146.060000
559.469360	145.840000
559.562988	145.920000
559.656555	145.700000
559.750183	146.200000
559.843750	145.960000
559.937378	146.160000
560.030945	145.880000
560.124573	0.000000
560.218140	0.000000
560.311707	0.000000
560.405334	0.000000
560.498901	0.000000
560.592529	0.000000
560.686096	0.000000
560.779724	0.000000
560.873291	0.000000
560.966858	0.000000
561.060425	0.000000
561.154053	0.000000
561.247620	0.000000
561.341248	0.000000
561.434814	0.000000
561.528381	0.000000
561.621948	0.000000
561.715576	0.000000
561.809143	0.000000
561.902771	0.000000
561.996277	0.000000
562.089905	0.000000
562.183472	0.000000
562.277100	0.000000
