Model Number: SPM-002-B   
Serial Number: 70087108
Firmware Version: 004.15.4
Exposure Time: 100000.000000us
Data Taken on: 11-12-2020 18:52:52.720
Wavelength	Amplitude
221.570786	0.000000
221.663406	0.000000
221.756027	0.000000
221.848648	0.000000
221.941269	0.000000
222.033905	0.000000
222.126526	0.000000
222.219162	0.000000
222.311798	0.000000
222.404419	0.000000
222.497055	0.000000
222.589676	0.000000
222.682312	0.000000
222.774933	0.000000
222.867569	0.000000
222.960205	0.000000
223.052841	0.000000
223.145462	0.000000
223.238098	0.000000
223.330734	0.000000
223.423386	0.000000
223.516022	0.000000
223.608658	0.000000
223.701309	0.000000
223.793945	0.000000
223.886581	0.000000
223.979218	0.000000
224.071869	0.000000
224.164505	0.000000
224.257156	0.000000
224.349792	0.000000
224.442444	0.000000
224.535095	0.000000
224.627747	0.000000
224.720398	0.000000
224.813034	0.000000
224.905685	0.000000
224.998337	144.960000
225.090988	144.800000
225.183640	144.720000
225.276291	144.640000
225.368942	144.860000
225.461594	145.240000
225.554245	145.860000
225.646912	146.000000
225.739578	146.400000
225.832230	146.900000
225.924896	146.400000
226.017548	146.360000
226.110199	146.760000
226.202866	146.080000
226.295532	145.980000
226.388184	145.780000
226.480850	145.260000
226.573517	144.760000
226.666168	145.480000
226.758835	145.500000
226.851501	146.160000
226.944183	146.380000
227.036850	146.020000
227.129517	145.800000
227.222183	145.920000
227.314850	145.600000
227.407516	145.840000
227.500198	147.100000
227.592865	146.820000
227.685532	146.360000
227.778214	146.360000
227.870880	146.540000
227.963562	146.300000
228.056229	146.680000
228.148926	146.780000
228.241592	147.520000
228.334274	147.260000
228.426956	146.960000
228.519638	146.760000
228.612305	146.240000
228.704987	146.060000
228.797668	146.100000
228.890350	145.720000
228.983032	145.260000
229.075714	146.060000
229.168396	145.600000
229.261108	145.280000
229.353790	145.540000
229.446472	146.060000
229.539169	145.760000
229.631851	145.400000
229.724533	145.500000
229.817230	145.720000
229.909912	146.580000
230.002609	146.760000
230.095306	147.200000
230.187988	147.400000
230.280685	147.140000
230.373383	145.940000
230.466095	145.720000
230.558792	145.840000
230.651474	145.820000
230.744171	145.820000
230.836868	146.040000
230.929581	146.480000
231.022278	146.500000
231.114975	146.300000
231.207672	146.060000
231.300369	146.540000
231.393082	146.660000
231.485779	146.340000
231.578506	146.340000
231.671204	146.700000
231.763916	146.260000
231.856613	145.640000
231.949326	145.740000
232.042023	145.760000
232.134735	145.400000
232.227448	145.260000
232.320160	145.740000
232.412872	145.580000
232.505585	146.360000
232.598297	146.800000
232.691010	146.800000
232.783722	146.420000
232.876450	147.140000
232.969162	146.580000
233.061874	146.100000
233.154587	145.700000
233.247314	145.900000
233.340027	145.280000
233.432739	145.680000
233.525467	145.720000
233.618179	146.520000
233.710907	146.280000
233.803635	147.100000
233.896347	146.760000
233.989090	147.340000
234.081818	147.140000
234.174545	147.280000
234.267258	146.460000
234.359985	146.700000
234.452713	146.540000
234.545441	146.400000
234.638168	146.220000
234.730896	146.620000
234.823639	146.400000
234.916367	146.780000
235.009094	147.000000
235.101822	147.140000
235.194580	147.020000
235.287308	146.760000
235.380051	146.200000
235.472778	146.360000
235.565521	146.620000
235.658249	146.420000
235.750992	146.680000
235.843719	146.560000
235.936462	146.400000
236.029205	145.860000
236.121948	145.640000
236.214691	145.740000
236.307449	146.400000
236.400192	145.980000
236.492935	146.060000
236.585678	146.240000
236.678421	146.300000
236.771164	146.000000
236.863907	146.760000
236.956665	147.080000
237.049408	148.900000
237.142151	148.300000
237.234909	148.840000
237.327652	148.760000
237.420410	148.560000
237.513153	147.120000
237.605927	147.140000
237.698669	146.380000
237.791428	145.540000
237.884186	146.240000
237.976944	145.780000
238.069702	146.460000
238.162445	146.340000
238.255203	146.620000
238.347961	146.640000
238.440720	146.720000
238.533478	146.320000
238.626266	146.000000
238.719025	146.180000
238.811783	145.640000
238.904541	145.500000
238.997314	145.360000
239.090073	145.440000
239.182831	145.860000
239.275604	146.520000
239.368362	146.400000
239.461136	146.640000
239.553909	146.660000
239.646667	146.220000
239.739441	145.780000
239.832214	146.520000
239.925003	146.580000
240.017761	147.300000
240.110535	148.020000
240.203308	147.500000
240.296082	147.000000
240.388855	146.580000
240.481628	146.260000
240.574417	146.100000
240.667191	146.240000
240.759964	146.220000
240.852737	146.600000
240.945526	146.460000
241.038315	145.880000
241.131088	146.200000
241.223877	146.520000
241.316650	145.920000
241.409439	146.260000
241.502228	145.880000
241.595001	146.260000
241.687790	145.840000
241.780579	146.420000
241.873367	146.260000
241.966141	147.040000
242.058929	146.220000
242.151718	146.580000
242.244507	146.760000
242.337311	146.300000
242.430099	146.500000
242.522903	147.040000
242.615692	146.800000
242.708481	146.480000
242.801270	146.940000
242.894073	146.540000
242.986862	146.240000
243.079651	146.560000
243.172455	146.380000
243.265244	146.160000
243.358063	145.860000
243.450867	146.300000
243.543655	146.100000
243.636459	146.440000
243.729263	146.920000
243.822067	147.260000
243.914856	147.300000
244.007660	147.600000
244.100464	147.480000
244.193268	147.140000
244.286072	146.960000
244.378876	146.320000
244.471680	146.000000
244.564499	146.640000
244.657318	147.220000
244.750122	147.460000
244.842926	147.140000
244.935745	147.460000
245.028549	146.560000
245.121368	146.040000
245.214172	145.600000
245.306992	146.640000
245.399796	146.060000
245.492615	146.560000
245.585434	146.400000
245.678253	146.500000
245.771072	145.980000
245.863892	146.600000
245.956711	146.660000
246.049530	146.760000
246.142349	146.820000
246.235168	146.900000
246.327988	147.140000
246.420807	146.760000
246.513626	146.600000
246.606445	146.300000
246.699280	146.140000
246.792099	145.380000
246.884918	145.200000
246.977753	145.140000
247.070587	145.480000
247.163422	145.600000
247.256241	145.940000
247.349075	146.120000
247.441895	146.160000
247.534729	146.160000
247.627563	145.720000
247.720383	146.420000
247.813217	146.300000
247.906052	146.300000
247.998886	146.320000
248.091736	146.660000
248.184570	146.080000
248.277405	146.260000
248.370239	147.040000
248.463074	147.880000
248.555908	148.240000
248.648743	148.040000
248.741592	148.060000
248.834427	147.560000
248.927261	146.440000
249.020111	146.380000
249.112946	146.980000
249.205795	146.520000
249.298630	146.460000
249.391495	146.380000
249.484344	146.140000
249.577179	145.700000
249.670029	146.240000
249.762878	146.740000
249.855728	147.040000
249.948563	147.080000
250.041412	146.740000
250.134262	146.660000
250.227112	146.280000
250.319962	146.560000
250.412827	146.360000
250.505692	146.120000
250.598541	146.300000
250.691391	145.940000
250.784241	145.620000
250.877106	145.620000
250.969955	145.680000
251.062805	145.760000
251.155670	146.340000
251.248520	146.240000
251.341385	146.620000
251.434235	146.820000
251.527100	146.780000
251.619965	146.340000
251.712814	147.180000
251.805695	147.020000
251.898560	147.060000
251.991425	147.420000
252.084290	147.480000
252.177155	146.560000
252.270020	146.580000
252.362885	146.280000
252.455750	145.820000
252.548615	145.580000
252.641479	145.540000
252.734360	145.360000
252.827240	145.480000
252.920105	145.460000
253.012970	145.340000
253.105850	145.480000
253.198715	145.360000
253.291595	145.560000
253.384460	145.300000
253.477341	145.460000
253.570221	145.680000
253.663086	145.540000
253.755966	146.140000
253.848846	146.380000
253.941727	146.480000
254.034592	146.340000
254.127472	146.120000
254.220367	145.920000
254.313248	146.220000
254.406128	145.880000
254.499008	146.040000
254.591904	147.160000
254.684784	147.480000
254.777664	147.260000
254.870544	147.260000
254.963440	147.180000
255.056335	146.700000
255.149216	145.960000
255.242111	146.120000
255.334991	146.720000
255.427887	146.700000
255.520767	146.600000
255.613663	147.180000
255.706558	146.520000
255.799438	145.960000
255.892334	145.780000
255.985229	145.600000
256.078125	145.000000
256.171021	145.120000
256.263916	145.500000
256.356812	145.800000
256.449707	146.200000
256.542603	146.060000
256.635498	146.840000
256.728394	146.640000
256.821289	146.320000
256.914215	146.180000
257.007080	146.680000
257.100006	146.300000
257.192932	146.760000
257.285828	147.200000
257.378723	147.220000
257.471619	146.640000
257.564545	146.320000
257.657440	146.460000
257.750336	146.640000
257.843262	146.200000
257.936157	147.660000
258.029053	147.940000
258.121979	147.740000
258.214874	147.380000
258.307800	147.320000
258.400696	146.020000
258.493622	145.940000
258.586517	145.080000
258.679443	144.900000
258.772339	144.520000
258.865265	144.600000
258.958160	144.040000
259.051086	145.440000
259.144012	145.500000
259.236938	146.880000
259.329834	146.980000
259.422791	147.400000
259.515717	146.260000
259.608612	146.160000
259.701538	145.680000
259.794464	145.560000
259.887390	145.360000
259.980316	145.680000
260.073212	145.560000
260.166138	144.900000
260.259064	144.980000
260.351990	145.660000
260.444916	145.320000
260.537842	145.960000
260.630768	146.660000
260.723694	146.740000
260.816620	146.260000
260.909546	146.560000
261.002472	145.860000
261.095398	145.300000
261.188354	145.240000
261.281281	144.900000
261.374207	144.880000
261.467133	145.660000
261.560089	146.000000
261.653015	145.700000
261.745972	146.720000
261.838867	147.280000
261.931824	147.300000
262.024780	146.900000
262.117706	147.280000
262.210663	147.120000
262.303589	146.900000
262.396515	147.000000
262.489471	147.840000
262.582397	147.760000
262.675354	146.920000
262.768280	146.440000
262.861237	146.260000
262.954163	145.960000
263.047119	146.160000
263.140045	146.560000
263.233002	146.760000
263.325958	146.440000
263.418884	146.080000
263.511841	146.080000
263.604797	145.920000
263.697723	146.200000
263.790680	146.200000
263.883636	146.780000
263.976593	146.380000
264.069550	146.600000
264.162476	146.220000
264.255463	146.260000
264.348419	145.800000
264.441376	146.160000
264.534332	145.720000
264.627289	146.040000
264.720245	146.600000
264.813202	146.060000
264.906158	146.060000
264.999115	146.700000
265.092072	146.460000
265.185028	146.420000
265.277985	147.040000
265.370941	147.100000
265.463898	146.600000
265.556854	146.260000
265.649811	145.480000
265.742798	145.360000
265.835754	145.220000
265.928711	145.920000
266.021667	146.200000
266.114655	146.540000
266.207611	146.940000
266.300568	146.500000
266.393585	145.720000
266.486511	146.060000
266.579498	145.260000
266.672485	145.180000
266.765442	145.420000
266.858429	146.140000
266.951385	145.640000
267.044342	146.400000
267.137329	145.960000
267.230316	146.300000
267.323273	145.500000
267.416260	146.220000
267.509216	145.860000
267.602203	146.220000
267.695160	146.100000
267.788147	146.540000
267.881134	146.180000
267.974091	146.560000
268.067078	146.180000
268.160065	146.100000
268.253052	145.700000
268.346008	145.400000
268.438995	145.180000
268.531982	145.380000
268.624969	145.220000
268.717987	145.700000
268.810944	145.680000
268.903961	145.920000
268.996948	145.760000
269.089905	146.420000
269.182892	146.540000
269.275879	146.920000
269.368866	146.340000
269.461853	146.560000
269.554871	145.900000
269.647858	145.620000
269.740845	145.880000
269.833832	146.340000
269.926819	146.220000
270.019806	146.580000
270.112793	146.200000
270.205811	146.100000
270.298798	146.140000
270.391785	146.940000
270.484772	146.720000
270.577789	146.920000
270.670776	146.260000
270.763763	145.960000
270.856750	145.100000
270.949768	144.700000
271.042786	144.920000
271.135773	145.360000
271.228790	145.740000
271.321808	145.620000
271.414795	145.560000
271.507782	145.220000
271.600800	144.820000
271.693817	144.840000
271.786804	145.440000
271.879822	145.860000
271.972809	145.800000
272.065826	146.620000
272.158844	145.860000
272.251831	146.080000
272.344849	146.020000
272.437866	146.040000
272.530853	145.640000
272.623871	146.420000
272.716888	145.320000
272.809906	145.660000
272.902893	145.820000
272.995911	145.380000
273.088928	145.200000
273.181946	146.120000
273.274963	145.780000
273.367981	145.980000
273.460999	146.440000
273.554047	146.620000
273.647003	146.960000
273.740051	147.060000
273.833069	147.240000
273.926086	147.360000
274.019135	147.140000
274.112152	146.740000
274.205170	146.700000
274.298187	146.720000
274.391205	146.120000
274.484222	146.260000
274.577240	146.000000
274.670258	145.800000
274.763306	145.460000
274.856323	145.840000
274.949341	146.000000
275.042358	146.280000
275.135406	146.360000
275.228424	146.260000
275.321442	146.420000
275.414490	145.980000
275.507507	145.880000
275.600525	146.200000
275.693573	146.060000
275.786591	145.420000
275.879669	145.300000
275.972656	145.160000
276.065735	145.040000
276.158752	145.780000
276.251801	146.820000
276.344818	147.080000
276.437866	147.000000
276.530884	146.760000
276.623932	145.700000
276.716980	145.320000
276.809998	145.200000
276.903046	145.400000
276.996094	146.160000
277.089111	146.980000
277.182159	147.440000
277.275208	147.100000
277.368256	147.240000
277.461304	146.580000
277.554321	145.880000
277.647369	145.620000
277.740417	146.020000
277.833466	145.580000
277.926514	145.720000
278.019562	146.900000
278.112610	146.240000
278.205688	146.360000
278.298706	146.820000
278.391785	146.580000
278.484833	145.660000
278.577881	145.760000
278.670929	145.980000
278.763977	145.960000
278.857025	146.540000
278.950073	146.520000
279.043121	146.640000
279.136169	146.420000
279.229248	146.060000
279.322296	145.940000
279.415344	145.880000
279.508392	145.400000
279.601440	145.400000
279.694519	145.300000
279.787567	145.120000
279.880615	145.220000
279.973694	145.700000
280.066742	145.640000
280.159790	146.040000
280.252869	145.620000
280.345917	145.880000
280.438995	145.740000
280.532074	145.840000
280.625122	145.900000
280.718201	146.700000
280.811279	146.600000
280.904327	146.620000
280.997406	146.740000
281.090454	146.880000
281.183533	146.100000
281.276581	145.880000
281.369659	145.840000
281.462738	145.660000
281.555786	145.300000
281.648865	145.620000
281.741943	145.820000
281.835022	146.500000
281.928070	146.480000
282.021149	146.480000
282.114227	146.380000
282.207306	146.200000
282.300385	145.760000
282.393433	145.800000
282.486511	145.800000
282.579590	146.180000
282.672668	146.780000
282.765747	146.520000
282.858856	146.360000
282.951904	146.600000
283.045013	146.740000
283.138062	146.480000
283.231171	146.880000
283.324249	147.100000
283.417328	146.920000
283.510406	146.260000
283.603485	146.080000
283.696564	146.000000
283.789642	146.360000
283.882751	146.040000
283.975830	146.880000
284.068909	146.800000
284.161987	147.280000
284.255066	146.480000
284.348175	146.740000
284.441254	146.460000
284.534332	147.020000
284.627441	146.440000
284.720520	146.240000
284.813599	146.460000
284.906708	146.520000
284.999786	145.740000
285.092896	145.400000
285.185974	146.680000
285.279053	146.100000
285.372192	145.960000
285.465240	146.720000
285.558380	146.760000
285.651459	146.160000
285.744568	147.240000
285.837677	146.980000
285.930756	146.740000
286.023865	146.960000
286.116943	146.640000
286.210052	146.160000
286.303162	146.080000
286.396240	145.980000
286.489349	145.880000
286.582458	146.420000
286.675568	146.140000
286.768646	146.200000
286.861755	146.580000
286.954865	147.260000
287.047974	146.520000
287.141083	146.420000
287.234161	146.260000
287.327271	145.900000
287.420380	145.980000
287.513519	146.100000
287.606598	146.180000
287.699738	146.560000
287.792816	146.380000
287.885956	145.940000
287.979034	146.080000
288.072174	146.400000
288.165283	146.080000
288.258392	146.460000
288.351501	146.000000
288.444611	146.120000
288.537720	146.180000
288.630859	146.220000
288.723969	146.240000
288.817078	146.860000
288.910187	146.940000
289.003296	146.500000
289.096436	146.420000
289.189545	146.160000
289.282654	145.480000
289.375763	145.760000
289.468903	146.200000
289.562012	146.140000
289.655121	146.120000
289.748260	146.340000
289.841400	146.320000
289.934509	146.380000
290.027649	146.560000
290.120728	146.300000
290.213898	146.480000
290.306976	146.120000
290.400146	145.640000
290.493256	145.420000
290.586395	145.720000
290.679535	145.940000
290.772644	145.980000
290.865784	145.420000
290.958893	145.380000
291.052032	145.240000
291.145172	144.900000
291.238281	144.480000
291.331421	144.980000
291.424561	145.580000
291.517670	145.660000
291.610809	145.820000
291.703949	145.900000
291.797089	146.140000
291.890228	145.820000
291.983337	146.000000
292.076477	145.840000
292.169617	146.220000
292.262756	146.340000
292.355927	146.260000
292.449036	145.880000
292.542206	146.060000
292.635315	145.900000
292.728485	145.980000
292.821625	145.800000
292.914764	147.040000
293.007904	147.080000
293.101044	147.140000
293.194183	147.040000
293.287323	147.260000
293.380463	146.580000
293.473602	146.260000
293.566742	146.620000
293.659882	146.980000
293.753021	147.220000
293.846191	147.080000
293.939331	146.980000
294.032471	146.600000
294.125610	146.040000
294.218781	146.160000
294.311920	145.960000
294.405060	146.320000
294.498230	146.320000
294.591370	146.460000
294.684540	145.620000
294.777679	145.520000
294.870850	145.640000
294.963959	145.440000
295.057159	145.100000
295.150299	145.880000
295.243469	146.020000
295.336609	145.660000
295.429779	145.920000
295.522919	146.640000
295.616089	146.420000
295.709229	147.140000
295.802399	147.400000
295.895569	147.040000
295.988708	146.720000
296.081879	146.780000
296.175018	145.880000
296.268188	145.740000
296.361359	146.540000
296.454529	146.400000
296.547668	146.360000
296.640839	146.880000
296.734009	146.680000
296.827179	146.300000
296.920319	146.800000
297.013519	146.620000
297.106659	146.460000
297.199860	146.540000
297.292999	146.440000
297.386200	145.820000
297.479309	145.920000
297.572510	145.820000
297.665680	145.820000
297.758850	145.840000
297.852020	145.940000
297.945190	145.700000
298.038361	145.400000
298.131531	146.440000
298.224701	146.340000
298.317871	145.980000
298.411072	145.600000
298.504242	145.460000
298.597412	144.800000
298.690582	145.360000
298.783752	145.760000
298.876923	146.460000
298.970093	146.740000
299.063293	146.800000
299.156464	146.920000
299.249634	147.140000
299.342834	147.440000
299.436005	147.800000
299.529205	147.680000
299.622345	147.620000
299.715576	146.960000
299.808716	146.460000
299.901917	146.340000
299.995117	146.480000
300.088287	146.260000
300.181488	146.100000
300.274658	146.340000
300.367828	146.320000
300.461029	146.120000
300.554199	146.600000
300.647400	147.120000
300.740601	147.360000
300.833771	147.080000
300.926971	147.420000
301.020142	146.640000
301.113342	146.640000
301.206512	146.440000
301.299713	146.680000
301.392914	146.560000
301.486084	146.980000
301.579285	146.760000
301.672516	147.240000
301.765686	147.340000
301.858887	147.120000
301.952057	146.820000
302.045288	146.820000
302.138458	146.460000
302.231659	146.140000
302.324860	146.260000
302.418060	145.980000
302.511261	145.940000
302.604462	146.080000
302.697662	145.900000
302.790863	145.340000
302.884064	145.260000
302.977264	145.460000
303.070465	145.500000
303.163666	146.240000
303.256866	146.680000
303.350067	147.240000
303.443268	147.160000
303.536469	147.120000
303.629669	146.440000
303.722870	146.620000
303.816071	145.980000
303.909271	146.100000
304.002472	145.120000
304.095673	144.980000
304.188934	144.300000
304.282104	145.380000
304.375336	145.420000
304.468506	145.900000
304.561768	145.900000
304.654968	146.880000
304.748169	146.340000
304.841370	146.000000
304.934601	146.300000
305.027802	146.460000
305.121002	146.000000
305.214233	145.940000
305.307434	146.200000
305.400665	146.840000
305.493866	146.580000
305.587097	146.780000
305.680298	146.640000
305.773499	147.260000
305.866730	146.680000
305.959930	147.640000
306.053162	147.620000
306.146393	147.380000
306.239594	146.240000
306.332825	146.180000
306.426025	146.200000
306.519287	145.660000
306.612488	145.720000
306.705719	145.920000
306.798920	146.060000
306.892181	145.100000
306.985352	145.160000
307.078613	144.760000
307.171844	145.340000
307.265045	144.620000
307.358276	144.540000
307.451508	144.860000
307.544739	145.620000
307.637970	145.580000
307.731201	145.780000
307.824402	146.580000
307.917633	146.740000
308.010864	147.380000
308.104095	147.360000
308.197327	147.680000
308.290558	147.640000
308.383789	147.260000
308.477020	146.320000
308.570251	145.780000
308.663483	145.720000
308.756714	145.420000
308.849976	145.620000
308.943176	146.380000
309.036438	146.460000
309.129639	146.040000
309.222900	146.080000
309.316101	145.960000
309.409393	145.300000
309.502625	145.420000
309.595856	145.740000
309.689087	146.000000
309.782318	146.020000
309.875580	146.260000
309.968811	146.180000
310.062042	145.760000
310.155273	145.480000
310.248535	146.080000
310.341766	145.820000
310.434998	145.620000
310.528259	145.760000
310.621490	145.900000
310.714722	145.000000
310.807983	145.160000
310.901215	145.380000
310.994476	145.640000
311.087708	145.420000
311.181000	145.840000
311.274200	145.400000
311.367462	145.600000
311.460693	145.400000
311.553986	146.160000
311.647186	146.240000
311.740479	147.100000
311.833710	146.860000
311.926971	146.760000
312.020203	145.700000
312.113464	145.500000
312.206726	144.840000
312.299957	145.200000
312.393219	146.000000
312.486481	146.320000
312.579712	146.320000
312.672974	146.440000
312.766235	146.440000
312.859497	145.880000
312.952759	145.840000
313.045990	146.440000
313.139252	146.140000
313.232513	146.440000
313.325775	146.640000
313.419037	146.660000
313.512299	145.720000
313.605530	146.200000
313.698822	145.840000
313.792053	145.820000
313.885345	145.380000
313.978577	145.840000
314.071869	145.340000
314.165131	145.260000
314.258392	145.940000
314.351654	146.500000
314.444916	146.040000
314.538177	146.620000
314.631439	146.960000
314.724701	146.260000
314.817993	146.100000
314.911255	146.500000
315.004517	145.840000
315.097778	145.660000
315.191040	145.960000
315.284302	146.260000
315.377594	145.700000
315.470856	145.740000
315.564117	145.240000
315.657379	144.620000
315.750671	144.260000
315.843933	144.720000
315.937195	144.740000
316.030518	144.760000
316.123749	144.760000
316.217041	145.620000
316.310303	145.860000
316.403595	146.120000
316.496857	146.440000
316.590149	146.940000
316.683411	146.120000
316.776703	145.640000
316.869965	145.520000
316.963257	145.420000
317.056519	144.660000
317.149811	144.540000
317.243073	144.680000
317.336365	145.100000
317.429626	145.480000
317.522919	146.240000
317.616180	146.380000
317.709473	146.140000
317.802765	145.980000
317.896027	145.640000
317.989319	145.960000
318.082611	145.760000
318.175873	146.040000
318.269165	146.160000
318.362488	146.260000
318.455750	145.660000
318.549042	146.200000
318.642303	146.660000
318.735626	145.980000
318.828888	145.820000
318.922211	145.520000
319.015472	146.000000
319.108765	145.000000
319.202057	144.900000
319.295349	145.260000
319.388641	145.220000
319.481934	144.560000
319.575226	144.740000
319.668518	145.540000
319.761810	145.380000
319.855103	145.780000
319.948395	145.840000
320.041687	146.120000
320.134979	146.000000
320.228271	145.840000
320.321564	145.760000
320.414856	145.740000
320.508148	145.480000
320.601440	145.040000
320.694763	145.080000
320.788025	145.680000
320.881348	145.600000
320.974640	145.760000
321.067963	145.580000
321.161224	145.500000
321.254547	144.840000
321.347839	145.660000
321.441162	145.400000
321.534454	145.620000
321.627747	145.480000
321.721069	146.100000
321.814362	145.820000
321.907654	146.060000
322.000946	146.060000
322.094269	146.740000
322.187561	146.140000
322.280884	146.120000
322.374176	146.460000
322.467468	147.120000
322.560791	146.900000
322.654083	147.380000
322.747406	147.380000
322.840698	147.300000
322.934021	147.340000
323.027344	147.700000
323.120636	147.100000
323.213959	147.100000
323.307251	146.840000
323.400574	146.480000
323.493866	145.720000
323.587219	146.000000
323.680511	145.840000
323.773834	145.900000
323.867157	145.760000
323.960449	145.820000
324.053772	145.620000
324.147095	145.600000
324.240387	146.300000
324.333710	146.500000
324.427032	146.980000
324.520355	146.980000
324.613647	146.840000
324.706970	146.360000
324.800293	146.380000
324.893616	146.420000
324.986938	146.860000
325.080231	146.680000
325.173553	147.160000
325.266876	147.500000
325.360199	147.480000
325.453522	146.920000
325.546875	146.880000
325.640167	146.680000
325.733521	146.780000
325.826813	146.840000
325.920166	146.860000
326.013489	146.960000
326.106812	145.900000
326.200134	145.340000
326.293457	144.620000
326.386780	144.840000
326.480103	144.760000
326.573425	145.160000
326.666748	145.080000
326.760071	145.700000
326.853424	145.800000
326.946747	145.460000
327.040070	146.120000
327.133392	145.920000
327.226715	145.160000
327.320068	144.760000
327.413391	145.520000
327.506714	144.780000
327.600037	144.880000
327.693390	145.460000
327.786713	145.420000
327.880066	144.920000
327.973358	145.560000
328.066742	146.180000
328.160034	146.220000
328.253418	146.840000
328.346710	146.660000
328.440063	146.040000
328.533417	145.600000
328.626740	145.800000
328.720093	145.140000
328.813416	145.300000
328.906769	145.120000
329.000092	145.360000
329.093445	145.140000
329.186768	145.020000
329.280121	145.620000
329.373444	146.240000
329.466797	146.160000
329.560120	146.200000
329.653473	146.800000
329.746796	146.220000
329.840149	146.060000
329.933502	145.960000
330.026825	145.320000
330.120178	145.100000
330.213562	145.260000
330.306854	145.360000
330.400238	145.360000
330.493561	145.540000
330.586945	146.160000
330.680237	146.300000
330.773621	146.200000
330.866974	146.240000
330.960327	146.720000
331.053680	146.160000
331.147003	146.420000
331.240356	146.780000
331.333710	146.780000
331.427063	146.520000
331.520416	146.560000
331.613770	146.200000
331.707123	146.120000
331.800476	146.040000
331.893829	146.880000
331.987152	146.660000
332.080505	146.660000
332.173859	146.180000
332.267212	145.820000
332.360565	145.060000
332.453918	145.240000
332.547333	145.080000
332.640656	145.400000
332.734039	145.940000
332.827362	146.120000
332.920746	146.480000
333.014069	146.940000
333.107452	147.320000
333.200806	147.420000
333.294159	147.600000
333.387543	146.920000
333.480896	146.380000
333.574249	146.060000
333.667603	145.500000
333.760956	145.020000
333.854340	145.020000
333.947693	145.420000
334.041046	145.500000
334.134430	146.060000
334.227783	145.860000
334.321136	146.100000
334.414520	145.740000
334.507874	145.700000
334.601227	145.540000
334.694611	145.760000
334.787964	145.980000
334.881348	146.220000
334.974701	146.240000
335.068085	145.760000
335.161438	146.300000
335.254822	146.140000
335.348175	146.300000
335.441559	145.900000
335.534943	146.720000
335.628296	146.340000
335.721680	146.220000
335.815033	146.300000
335.908417	146.860000
336.001770	146.680000
336.095154	146.600000
336.188538	146.260000
336.281891	145.560000
336.375275	145.200000
336.468658	145.180000
336.562012	145.260000
336.655396	145.880000
336.748779	146.640000
336.842133	147.040000
336.935516	147.200000
337.028900	147.060000
337.122284	147.080000
337.215637	147.140000
337.309021	146.800000
337.402435	146.140000
337.495789	146.220000
337.589203	146.120000
337.682526	145.640000
337.775940	145.860000
337.869324	146.380000
337.962708	145.740000
338.056091	146.060000
338.149475	146.040000
338.242859	146.040000
338.336243	145.640000
338.429626	146.280000
338.523010	146.260000
338.616394	146.140000
338.709778	146.160000
338.803162	146.420000
338.896545	146.500000
338.989929	145.760000
339.083313	146.000000
339.176697	145.600000
339.270081	145.160000
339.363464	145.280000
339.456848	145.940000
339.550232	145.360000
339.643616	145.320000
339.737030	145.760000
339.830383	145.380000
339.923828	145.220000
340.017181	145.780000
340.110596	146.040000
340.203949	145.980000
340.297363	145.460000
340.390778	145.380000
340.484161	145.200000
340.577545	145.220000
340.670959	145.080000
340.764343	145.520000
340.857727	145.640000
340.951111	145.120000
341.044525	145.060000
341.137909	144.860000
341.231293	144.820000
341.324707	144.100000
341.418091	145.060000
341.511505	145.280000
341.604889	145.740000
341.698303	146.160000
341.791687	146.600000
341.885071	146.080000
341.978485	145.540000
342.071899	145.560000
342.165283	145.420000
342.258698	145.660000
342.352081	145.980000
342.445496	146.720000
342.538879	146.400000
342.632324	146.080000
342.725708	146.200000
342.819122	145.660000
342.912506	145.160000
343.005920	145.160000
343.099335	146.140000
343.192719	145.800000
343.286133	146.180000
343.379547	146.380000
343.472931	146.320000
343.566345	145.560000
343.659760	145.960000
343.753143	145.540000
343.846558	145.260000
343.939972	145.300000
344.033386	145.860000
344.126770	145.400000
344.220184	145.920000
344.313599	146.280000
344.407043	146.500000
344.500427	145.800000
344.593872	146.480000
344.687225	146.160000
344.780670	146.080000
344.874054	145.900000
344.967499	146.500000
345.060913	146.180000
345.154327	145.920000
345.247742	145.360000
345.341156	145.220000
345.434570	144.620000
345.527985	144.660000
345.621399	145.280000
345.714813	145.780000
345.808228	145.940000
345.901642	145.980000
345.995056	145.640000
346.088470	145.460000
346.181885	145.300000
346.275299	145.180000
346.368713	145.240000
346.462128	145.240000
346.555573	145.420000
346.648987	145.640000
346.742401	145.840000
346.835815	146.060000
346.929260	145.960000
347.022644	145.640000
347.116119	145.580000
347.209503	145.760000
347.302948	146.620000
347.396362	147.060000
347.489807	147.380000
347.583221	148.040000
347.676636	147.740000
347.770050	146.420000
347.863495	145.680000
347.956909	145.640000
348.050323	144.760000
348.143768	144.760000
348.237183	145.140000
348.330597	146.040000
348.424042	146.380000
348.517456	146.680000
348.610901	146.820000
348.704315	146.720000
348.797760	146.120000
348.891174	145.340000
348.984619	145.000000
349.078033	145.240000
349.171448	145.600000
349.264923	145.560000
349.358337	145.860000
349.451782	145.940000
349.545197	145.260000
349.638641	144.880000
349.732086	144.660000
349.825500	144.840000
349.918945	144.840000
350.012390	145.640000
350.105804	145.960000
350.199249	146.380000
350.292664	146.520000
350.386108	146.400000
350.479553	146.240000
350.572968	146.200000
350.666412	146.380000
350.759857	146.060000
350.853302	146.620000
350.946716	146.260000
351.040161	145.960000
351.133606	145.740000
351.227081	145.540000
351.320465	146.020000
351.413940	146.260000
351.507355	146.740000
351.600830	147.100000
351.694244	146.760000
351.787720	146.580000
351.881104	146.360000
351.974579	145.900000
352.067993	146.320000
352.161469	146.760000
352.254883	145.660000
352.348358	145.620000
352.441803	145.740000
352.535248	145.100000
352.628693	145.540000
352.722137	145.720000
352.815582	145.800000
352.909027	145.840000
353.002472	145.540000
353.095917	145.300000
353.189362	145.680000
353.282806	145.600000
353.376251	145.420000
353.469696	145.300000
353.563141	145.540000
353.656586	145.340000
353.750061	145.040000
353.843475	144.980000
353.936981	145.580000
354.030396	144.980000
354.123871	145.400000
354.217285	146.040000
354.310760	146.440000
354.404175	146.320000
354.497681	146.280000
354.591095	145.960000
354.684570	145.200000
354.777985	144.440000
354.871490	144.240000
354.964935	144.920000
355.058380	145.160000
355.151855	145.180000
355.245300	146.060000
355.338745	146.340000
355.432220	146.260000
355.525665	145.660000
355.619110	146.360000
355.712585	146.040000
355.806030	145.840000
355.899475	145.280000
355.992950	145.760000
356.086426	146.100000
356.179871	145.980000
356.273346	146.200000
356.366791	146.580000
356.460266	146.680000
356.553711	145.880000
356.647186	146.160000
356.740631	145.920000
356.834106	145.660000
356.927551	145.800000
357.021027	145.700000
357.114471	145.600000
357.207947	145.660000
357.301422	145.880000
357.394867	145.940000
357.488342	146.440000
357.581818	146.340000
357.675262	146.480000
357.768738	146.100000
357.862213	145.280000
357.955658	145.340000
358.049133	145.100000
358.142609	145.560000
358.236053	145.520000
358.329529	145.660000
358.423035	145.700000
358.516449	145.700000
358.609955	145.620000
358.703400	146.320000
358.796906	146.820000
358.890350	146.360000
358.983826	146.780000
359.077271	145.920000
359.170776	145.700000
359.264221	145.320000
359.357727	145.760000
359.451172	146.120000
359.544647	146.320000
359.638123	146.160000
359.731598	146.820000
359.825073	147.000000
359.918549	146.420000
360.012024	146.840000
360.105499	146.580000
360.198975	146.400000
360.292450	146.180000
360.385925	146.300000
360.479401	145.620000
360.572876	145.640000
360.666351	145.320000
360.759857	145.000000
360.853302	145.220000
360.946808	145.100000
361.040253	145.260000
361.133759	145.100000
361.227203	145.400000
361.320709	145.040000
361.414154	145.720000
361.507660	146.080000
361.601105	146.660000
361.694641	147.220000
361.788086	147.100000
361.881592	147.360000
361.975067	147.020000
362.068542	147.180000
362.162018	146.580000
362.255524	146.360000
362.348999	146.020000
362.442474	146.260000
362.535950	145.460000
362.629456	145.380000
362.722931	145.540000
362.816406	145.700000
362.909882	145.820000
363.003387	145.980000
363.096863	146.440000
363.190338	146.420000
363.283875	146.280000
363.377319	146.140000
363.470825	146.600000
363.564301	145.820000
363.657806	146.300000
363.751282	146.060000
363.844788	146.780000
363.938232	146.260000
364.031769	147.240000
364.125214	147.180000
364.218750	147.560000
364.312225	146.180000
364.405731	146.320000
364.499207	145.740000
364.592712	145.360000
364.686188	145.300000
364.779694	146.020000
364.873169	146.100000
364.966675	146.060000
365.060150	146.040000
365.153656	146.220000
365.247131	146.500000
365.340637	146.600000
365.434143	146.860000
365.527618	147.120000
365.621155	146.300000
365.714600	145.860000
365.808136	146.040000
365.901611	145.160000
365.995117	144.940000
366.088593	145.200000
366.182129	145.040000
366.275604	144.880000
366.369110	145.080000
366.462585	144.900000
366.556122	145.540000
366.649567	145.680000
366.743103	145.760000
366.836609	145.600000
366.930115	146.300000
367.023590	145.980000
367.117096	145.880000
367.210602	145.640000
367.304108	146.780000
367.397614	146.800000
367.491119	147.060000
367.584595	147.300000
367.678101	147.520000
367.771606	146.860000
367.865112	146.620000
367.958649	146.000000
368.052124	145.400000
368.145660	145.320000
368.239136	145.940000
368.332672	146.100000
368.426147	146.240000
368.519684	146.320000
368.613159	146.400000
368.706696	145.720000
368.800171	145.720000
368.893707	145.780000
368.987183	146.240000
369.080719	146.120000
369.174225	146.060000
369.267731	146.040000
369.361237	145.800000
369.454742	145.520000
369.548248	146.020000
369.641754	145.900000
369.735260	145.640000
369.828766	145.220000
369.922272	145.860000
370.015808	145.100000
370.109314	144.940000
370.202820	144.940000
370.296356	145.880000
370.389832	145.280000
370.483368	145.160000
370.576874	145.160000
370.670410	145.280000
370.763885	144.540000
370.857422	144.600000
370.950928	144.660000
371.044464	145.580000
371.137939	145.500000
371.231476	146.120000
371.324982	146.700000
371.418518	146.940000
371.512024	146.440000
371.605560	146.060000
371.699066	146.180000
371.792572	145.540000
371.886108	145.980000
371.979614	145.900000
372.073120	146.800000
372.166656	146.760000
372.260162	147.220000
372.353668	146.480000
372.447205	146.400000
372.540710	146.080000
372.634277	145.780000
372.727753	145.560000
372.821320	145.820000
372.914795	146.000000
373.008362	145.620000
373.101837	145.900000
373.195404	145.600000
373.288879	145.360000
373.382446	146.040000
373.475922	146.200000
373.569489	146.340000
373.662964	146.860000
373.756531	147.100000
373.850037	146.720000
373.943573	146.640000
374.037109	145.560000
374.130615	145.680000
374.224152	145.720000
374.317657	145.380000
374.411194	146.000000
374.504730	146.420000
374.598236	146.140000
374.691772	145.740000
374.785309	146.060000
374.878815	145.420000
374.972351	145.600000
375.065887	145.540000
375.159454	146.400000
375.252930	145.940000
375.346497	145.940000
375.440002	146.780000
375.533569	146.580000
375.627045	145.620000
375.720612	145.740000
375.814117	146.060000
375.907684	145.140000
376.001160	144.720000
376.094727	144.840000
376.188232	145.420000
376.281799	145.420000
376.375336	145.580000
376.468872	146.580000
376.562408	146.840000
376.655914	146.400000
376.749451	146.380000
376.842987	146.660000
376.936523	146.140000
377.030060	146.440000
377.123596	146.560000
377.217133	146.100000
377.310669	146.260000
377.404205	146.740000
377.497772	146.740000
377.591278	146.460000
377.684845	147.440000
377.778351	147.420000
377.871918	147.260000
377.965424	146.660000
378.058990	146.760000
378.152496	146.300000
378.246063	146.520000
378.339569	146.520000
378.433136	146.800000
378.526642	146.840000
378.620209	146.500000
378.713745	145.900000
378.807312	146.180000
378.900848	145.900000
378.994385	146.020000
379.087921	145.500000
379.181458	145.660000
379.274994	144.920000
379.368530	145.140000
379.462097	145.080000
379.555634	145.880000
379.649170	145.420000
379.742706	145.520000
379.836273	145.600000
379.929810	145.180000
380.023376	144.560000
380.116882	144.920000
380.210449	144.820000
380.303986	144.580000
380.397552	144.640000
380.491058	145.100000
380.584656	144.620000
380.678162	144.780000
380.771729	144.860000
380.865265	145.720000
380.958832	145.640000
381.052368	146.080000
381.145935	146.720000
381.239471	147.020000
381.333008	146.460000
381.426575	146.480000
381.520111	146.840000
381.613647	146.700000
381.707214	146.440000
381.800751	146.060000
381.894318	146.360000
381.987854	145.560000
382.081421	145.300000
382.174988	145.420000
382.268524	145.480000
382.362091	145.340000
382.455627	146.420000
382.549194	146.040000
382.642731	145.620000
382.736298	145.660000
382.829834	145.520000
382.923401	145.540000
383.016937	146.440000
383.110504	147.060000
383.204041	147.220000
383.297607	147.420000
383.391174	146.480000
383.484741	146.420000
383.578278	146.100000
383.671844	146.000000
383.765411	145.300000
383.858948	145.720000
383.952515	145.200000
384.046051	145.880000
384.139618	146.020000
384.233185	146.460000
384.326721	146.480000
384.420288	147.140000
384.513855	146.400000
384.607422	146.700000
384.700989	147.120000
384.794525	146.840000
384.888123	146.360000
384.981659	146.780000
385.075226	146.140000
385.168762	145.800000
385.262360	145.780000
385.355896	144.960000
385.449463	144.700000
385.542999	144.980000
385.636597	145.560000
385.730164	145.860000
385.823730	146.040000
385.917267	145.660000
386.010834	145.800000
386.104401	145.300000
386.197968	145.560000
386.291534	145.860000
386.385101	146.280000
386.478668	146.500000
386.572235	146.400000
386.665802	145.760000
386.759338	145.540000
386.852905	145.420000
386.946472	144.880000
387.040070	145.240000
387.133606	145.100000
387.227203	145.000000
387.320740	145.260000
387.414337	144.980000
387.507874	144.640000
387.601471	144.940000
387.695007	144.960000
387.788605	144.680000
387.882141	145.220000
387.975739	145.360000
388.069275	145.120000
388.162872	145.540000
388.256439	145.500000
388.350037	145.400000
388.443604	145.060000
388.537170	145.480000
388.630737	146.020000
388.724304	146.140000
388.817871	145.980000
388.911438	146.080000
389.005005	146.080000
389.098602	146.080000
389.192169	145.840000
389.285736	146.220000
389.379333	146.260000
389.472870	145.680000
389.566467	145.400000
389.660034	145.760000
389.753632	145.200000
389.847168	145.280000
389.940765	145.620000
390.034332	145.580000
390.127930	144.800000
390.221466	145.120000
390.315063	145.080000
390.408630	144.620000
390.502228	144.360000
390.595795	145.140000
390.689362	145.000000
390.782959	145.300000
390.876526	146.040000
390.970093	145.880000
391.063690	146.060000
391.157257	146.220000
391.250824	146.320000
391.344421	145.720000
391.437988	146.200000
391.531555	146.200000
391.625153	146.280000
391.718750	146.420000
391.812317	146.480000
391.905914	146.500000
391.999481	146.220000
392.093079	146.280000
392.186615	146.300000
392.280243	146.620000
392.373779	146.440000
392.467407	147.140000
392.560944	147.160000
392.654572	146.580000
392.748108	146.640000
392.841736	146.420000
392.935303	145.540000
393.028900	145.500000
393.122467	145.800000
393.216064	145.440000
393.309631	145.280000
393.403229	145.060000
393.496796	145.000000
393.590393	144.400000
393.683990	144.800000
393.777557	145.240000
393.871155	145.940000
393.964722	146.220000
394.058350	146.520000
394.151917	146.640000
394.245514	146.280000
394.339081	146.380000
394.432678	146.540000
394.526245	146.640000
394.619873	145.980000
394.713409	146.160000
394.807037	145.760000
394.900604	145.820000
394.994202	145.780000
395.087769	146.400000
395.181396	145.900000
395.274994	147.060000
395.368561	146.200000
395.462158	146.580000
395.555756	146.500000
395.649353	147.100000
395.742920	146.240000
395.836517	147.100000
395.930115	146.080000
396.023712	146.140000
396.117279	146.300000
396.210876	145.640000
396.304474	145.140000
396.398071	145.960000
396.491669	145.900000
396.585266	145.540000
396.678833	145.840000
396.772461	146.120000
396.866028	145.780000
396.959656	146.120000
397.053223	146.340000
397.146851	146.240000
397.240417	146.560000
397.334015	147.600000
397.427582	147.420000
397.521210	147.920000
397.614807	148.620000
397.708405	148.840000
397.802002	148.840000
397.895599	150.000000
397.989197	150.400000
398.082794	151.480000
398.176392	152.940000
398.269989	154.540000
398.363586	156.420000
398.457184	159.440000
398.550781	162.100000
398.644379	164.140000
398.737976	166.620000
398.831573	169.180000
398.925201	170.940000
399.018768	172.940000
399.112396	175.240000
399.205963	177.380000
399.299591	179.000000
399.393158	181.280000
399.486786	184.180000
399.580353	187.060000
399.673981	190.940000
399.767578	196.220000
399.861206	202.260000
399.954773	208.640000
400.048401	215.800000
400.141998	221.800000
400.235596	228.400000
400.329193	233.320000
400.422791	238.220000
400.516418	242.000000
400.610016	246.640000
400.703613	248.880000
400.797211	249.700000
400.890808	248.600000
400.984436	247.240000
401.078033	242.400000
401.171631	236.560000
401.265259	230.640000
401.358826	224.280000
401.452484	216.280000
401.546051	209.920000
401.639679	202.560000
401.733246	195.620000
401.826904	188.360000
401.920471	181.100000
402.014099	174.320000
402.107697	168.780000
402.201324	164.240000
402.294891	160.800000
402.388550	158.520000
402.482147	156.220000
402.575745	154.400000
402.669373	152.320000
402.762970	150.580000
402.856567	149.680000
402.950195	149.180000
403.043793	148.260000
403.137390	148.540000
403.231018	147.680000
403.324615	147.720000
403.418243	146.860000
403.511841	147.300000
403.605469	146.460000
403.699066	146.820000
403.792694	146.380000
403.886292	146.760000
403.979919	146.460000
404.073517	146.320000
404.167145	146.520000
404.260712	146.620000
404.354370	146.200000
404.447937	146.220000
404.541595	146.620000
404.635162	146.860000
404.728821	147.100000
404.822418	146.840000
404.916046	146.520000
405.009644	146.660000
405.103271	146.620000
405.196899	146.300000
405.290497	146.520000
405.384125	147.160000
405.477722	146.520000
405.571350	146.080000
405.664948	146.100000
405.758575	145.860000
405.852203	145.060000
405.945801	145.440000
406.039429	145.520000
406.133057	145.440000
406.226654	145.600000
406.320312	145.820000
406.413879	145.860000
406.507538	146.220000
406.601135	145.600000
406.694763	146.000000
406.788361	145.840000
406.882019	145.720000
406.975586	145.900000
407.069244	146.900000
407.162872	146.820000
407.256470	147.020000
407.350098	146.840000
407.443726	146.320000
407.537323	145.660000
407.630951	145.860000
407.724579	145.360000
407.818207	146.120000
407.911804	146.060000
408.005432	146.020000
408.099060	146.240000
408.192688	146.960000
408.286285	146.300000
408.379913	146.040000
408.473572	146.400000
408.567169	145.680000
408.660828	145.520000
408.754395	145.560000
408.848053	145.520000
408.941650	145.600000
409.035309	145.320000
409.128906	145.300000
409.222565	145.260000
409.316132	145.640000
409.409790	145.080000
409.503387	145.100000
409.597046	145.140000
409.690674	145.280000
409.784302	145.200000
409.877930	145.340000
409.971558	145.660000
410.065186	145.380000
410.158783	145.140000
410.252411	145.160000
410.346039	145.620000
410.439667	145.400000
410.533295	145.780000
410.626923	146.280000
410.720551	146.100000
410.814209	146.460000
410.907806	146.680000
411.001465	146.220000
411.095062	146.160000
411.188721	146.440000
411.282318	145.880000
411.375977	145.780000
411.469574	146.020000
411.563232	146.100000
411.656830	145.900000
411.750488	145.640000
411.844086	145.580000
411.937744	145.800000
412.031372	145.420000
412.125000	145.280000
412.218628	145.340000
412.312256	146.240000
412.405884	146.580000
412.499512	146.340000
412.593170	146.780000
412.686798	147.060000
412.780426	146.220000
412.874054	146.060000
412.967682	146.620000
413.061310	146.940000
413.154968	146.920000
413.248566	147.000000
413.342224	146.700000
413.435852	146.440000
413.529510	145.900000
413.623108	145.500000
413.716766	145.580000
413.810364	145.940000
413.904022	145.500000
413.997650	145.280000
414.091309	146.160000
414.184906	146.040000
414.278564	145.480000
414.372192	146.120000
414.465851	146.400000
414.559479	145.520000
414.653107	146.100000
414.746735	146.120000
414.840393	145.760000
414.934021	145.980000
415.027649	145.960000
415.121277	145.760000
415.214935	146.280000
415.308563	146.520000
415.402191	145.860000
415.495850	145.980000
415.589478	145.780000
415.683136	145.300000
415.776733	145.360000
415.870422	145.960000
415.964020	145.800000
416.057678	145.980000
416.151306	146.020000
416.244965	145.780000
416.338562	145.600000
416.432251	146.240000
416.525848	146.520000
416.619507	146.880000
416.713165	147.360000
416.806793	147.540000
416.900421	147.460000
416.994080	146.840000
417.087708	146.660000
417.181366	146.220000
417.274994	146.000000
417.368622	145.880000
417.462280	146.120000
417.555908	145.800000
417.649567	145.520000
417.743195	145.660000
417.836853	145.560000
417.930481	145.980000
418.024170	146.300000
418.117767	147.100000
418.211426	147.360000
418.305054	147.620000
418.398712	146.860000
418.492340	146.840000
418.585999	146.680000
418.679626	146.380000
418.773285	146.260000
418.866913	146.700000
418.960571	147.060000
419.054230	147.140000
419.147858	147.120000
419.241516	147.100000
419.335144	146.460000
419.428802	146.000000
419.522461	145.760000
419.616089	145.520000
419.709747	145.400000
419.803375	145.960000
419.897034	145.820000
419.990662	145.500000
420.084320	146.160000
420.177979	146.580000
420.271606	146.800000
420.365295	147.260000
420.458893	147.640000
420.552582	147.960000
420.646210	147.780000
420.739868	147.020000
420.833496	146.580000
420.927155	145.980000
421.020782	145.160000
421.114471	144.540000
421.208069	144.940000
421.301758	145.120000
421.395386	145.760000
421.489044	145.940000
421.582703	146.080000
421.676361	146.760000
421.769989	146.560000
421.863647	146.660000
421.957306	146.660000
422.050934	146.920000
422.144592	146.540000
422.238251	146.220000
422.331909	145.920000
422.425537	145.700000
422.519196	145.760000
422.612854	145.480000
422.706543	145.540000
422.800140	145.560000
422.893829	145.360000
422.987457	145.180000
423.081146	145.180000
423.174744	145.760000
423.268433	145.560000
423.362061	145.500000
423.455750	145.380000
423.549347	145.560000
423.643036	145.080000
423.736664	145.680000
423.830353	145.940000
423.924011	146.660000
424.017639	146.080000
424.111298	146.100000
424.204956	145.680000
424.298615	145.400000
424.392273	144.720000
424.485931	144.860000
424.579559	144.880000
424.673218	144.520000
424.766876	144.820000
424.860535	144.480000
424.954193	144.560000
425.047882	145.220000
425.141510	145.500000
425.235199	145.640000
425.328796	146.060000
425.422485	146.080000
425.516113	145.340000
425.609802	145.480000
425.703430	145.360000
425.797119	145.140000
425.890747	145.060000
425.984436	145.520000
426.078064	145.620000
426.171753	145.600000
426.265411	145.540000
426.359070	145.800000
426.452728	145.580000
426.546356	145.420000
426.640015	145.280000
426.733673	145.280000
426.827332	144.860000
426.920990	145.360000
427.014648	145.140000
427.108307	145.320000
427.201965	145.860000
427.295624	146.580000
427.389282	145.940000
427.482941	146.100000
427.576630	146.180000
427.670258	145.400000
427.763947	144.860000
427.857574	145.240000
427.951263	145.460000
428.044922	144.980000
428.138611	145.400000
428.232239	145.660000
428.325928	145.660000
428.419556	146.000000
428.513245	146.120000
428.606903	146.400000
428.700562	146.200000
428.794220	145.740000
428.887878	144.960000
428.981537	145.180000
429.075195	145.120000
429.168854	145.320000
429.262512	145.540000
429.356201	145.780000
429.449860	145.680000
429.543518	145.560000
429.637177	145.800000
429.730835	145.800000
429.824493	145.660000
429.918182	145.860000
430.011810	145.160000
430.105530	144.640000
430.199158	144.820000
430.292847	144.860000
430.386475	144.440000
430.480164	144.340000
430.573792	143.980000
430.667511	143.660000
430.761139	143.720000
430.854828	144.160000
430.948456	144.820000
431.042145	145.400000
431.135834	145.040000
431.229492	145.060000
431.323151	145.200000
431.416809	145.100000
431.510468	145.220000
431.604156	145.680000
431.697815	145.880000
431.791473	145.500000
431.885132	145.280000
431.978821	145.600000
432.072479	146.040000
432.166138	146.400000
432.259827	146.800000
432.353485	147.380000
432.447174	147.220000
432.540802	146.660000
432.634491	146.680000
432.728149	146.480000
432.821838	146.660000
432.915466	146.200000
433.009186	146.700000
433.102814	145.960000
433.196503	145.900000
433.290131	145.580000
433.383850	145.840000
433.477509	145.780000
433.571167	146.540000
433.664856	146.700000
433.758514	147.120000
433.852173	147.140000
433.945862	146.820000
434.039520	146.280000
434.133179	145.840000
434.226868	145.200000
434.320526	144.520000
434.414185	144.800000
434.507874	144.820000
434.601562	145.360000
434.695221	145.300000
434.788910	145.740000
434.882538	145.940000
434.976257	145.660000
435.069885	145.600000
435.163574	145.860000
435.257233	145.640000
435.350922	145.400000
435.444580	145.420000
435.538269	144.960000
435.631897	145.300000
435.725616	145.700000
435.819275	146.160000
435.912964	146.780000
436.006622	147.400000
436.100311	147.200000
436.193970	146.760000
436.287628	146.040000
436.381317	145.720000
436.474976	145.140000
436.568665	144.880000
436.662323	145.220000
436.756012	145.400000
436.849670	144.960000
436.943390	144.960000
437.037018	144.760000
437.130737	144.760000
437.224365	144.660000
437.318085	145.240000
437.411713	145.620000
437.505432	146.460000
437.599060	146.780000
437.692780	147.580000
437.786407	147.300000
437.880127	147.000000
437.973755	146.300000
438.067474	145.980000
438.161133	145.280000
438.254822	145.600000
438.348480	145.440000
438.442169	146.280000
438.535828	146.540000
438.629517	146.300000
438.723175	145.640000
438.816864	146.420000
438.910553	145.520000
439.004211	145.080000
439.097900	145.080000
439.191559	145.080000
439.285248	144.240000
439.378906	144.740000
439.472626	144.740000
439.566284	144.800000
439.659973	145.320000
439.753632	145.440000
439.847321	145.660000
439.940979	145.640000
440.034698	145.520000
440.128326	145.100000
440.222046	145.200000
440.315674	144.400000
440.409393	144.740000
440.503082	144.680000
440.596741	145.020000
440.690430	144.940000
440.784088	145.080000
440.877777	144.600000
440.971466	144.800000
441.065125	144.560000
441.158813	144.460000
441.252502	144.380000
441.346161	144.560000
441.439850	144.780000
441.533539	144.700000
441.627197	145.120000
441.720886	145.160000
441.814606	145.400000
441.908234	145.640000
442.001953	145.640000
442.095612	145.380000
442.189301	145.920000
442.282959	146.280000
442.376678	145.440000
442.470306	146.220000
442.564026	146.020000
442.657684	146.120000
442.751404	145.940000
442.845032	147.220000
442.938751	146.400000
443.032440	146.840000
443.126099	146.240000
443.219788	146.360000
443.313477	145.660000
443.407166	146.180000
443.500824	146.100000
443.594513	146.380000
443.688202	146.140000
443.781891	145.680000
443.875549	145.400000
443.969238	145.320000
444.062927	145.340000
444.156647	145.180000
444.250275	145.820000
444.343994	145.900000
444.437653	146.000000
444.531372	145.860000
444.625031	145.740000
444.718719	145.340000
444.812378	145.440000
444.906097	145.300000
444.999756	145.000000
445.093445	144.960000
445.187103	145.000000
445.280823	145.460000
445.374512	145.020000
445.468201	145.220000
445.561859	145.280000
445.655548	145.500000
445.749237	144.540000
445.842926	144.820000
445.936615	145.340000
446.030304	145.240000
446.123962	145.560000
446.217651	145.820000
446.311340	146.140000
446.405029	145.340000
446.498749	145.520000
446.592407	144.520000
446.686096	144.700000
446.779755	144.760000
446.873474	145.180000
446.967133	145.280000
447.060852	145.600000
447.154510	145.420000
447.248230	145.400000
447.341858	145.240000
447.435577	144.640000
447.529236	144.440000
447.622955	144.120000
447.716644	144.060000
447.810333	144.200000
447.904022	144.760000
447.997711	144.360000
448.091400	144.960000
448.185059	145.000000
448.278748	145.220000
448.372437	144.960000
448.466125	145.660000
448.559814	145.500000
448.653503	145.820000
448.747192	146.040000
448.840912	146.580000
448.934570	146.760000
449.028290	147.120000
449.121948	146.660000
449.215637	146.160000
449.309296	145.480000
449.403015	145.560000
449.496674	145.320000
449.590393	145.500000
449.684052	145.360000
449.777771	146.560000
449.871429	145.800000
449.965149	145.800000
450.058838	145.760000
450.152527	146.560000
450.246216	145.880000
450.339905	146.360000
450.433594	146.100000
450.527283	146.980000
450.620972	146.280000
450.714661	146.300000
450.808350	146.540000
450.902039	146.840000
450.995728	146.220000
451.089417	146.040000
451.183105	145.940000
451.276794	146.200000
451.370514	145.860000
451.464172	145.200000
451.557892	145.400000
451.651550	145.860000
451.745270	145.440000
451.838928	144.960000
451.932648	145.100000
452.026306	145.680000
452.120026	144.800000
452.213684	144.900000
452.307404	145.360000
452.401062	145.580000
452.494781	145.580000
452.588470	145.980000
452.682159	145.760000
452.775848	145.920000
452.869537	145.580000
452.963226	144.920000
453.056915	144.920000
453.150604	145.340000
453.244293	145.740000
453.337982	146.400000
453.431671	146.900000
453.525360	147.380000
453.619049	147.420000
453.712769	146.940000
453.806427	146.420000
453.900146	145.820000
453.993805	145.320000
454.087555	145.520000
454.181213	145.660000
454.274933	145.720000
454.368591	145.820000
454.462311	145.660000
454.555969	145.140000
454.649689	145.680000
454.743347	145.260000
454.837067	145.980000
454.930756	146.640000
455.024445	146.660000
455.118134	146.180000
455.211853	146.720000
455.305542	146.120000
455.399231	145.700000
455.492920	145.740000
455.586609	145.720000
455.680298	145.820000
455.773987	145.680000
455.867676	145.680000
455.961365	145.800000
456.055084	145.540000
456.148773	145.120000
456.242493	145.300000
456.336151	145.360000
456.429871	145.480000
456.523529	146.100000
456.617249	146.160000
456.710907	146.660000
456.804626	146.720000
456.898315	146.040000
456.992035	145.640000
457.085693	145.500000
457.179413	144.780000
457.273102	145.340000
457.366791	145.480000
457.460480	145.780000
457.554199	146.500000
457.647888	146.540000
457.741577	145.900000
457.835266	146.140000
457.928955	146.000000
458.022644	145.900000
458.116364	146.240000
458.210052	146.180000
458.303741	146.280000
458.397461	145.860000
458.491119	145.240000
458.584839	145.240000
458.678528	145.080000
458.772247	144.980000
458.865906	145.240000
458.959625	146.120000
459.053284	145.920000
459.147003	145.480000
459.240692	146.020000
459.334412	146.080000
459.428070	145.480000
459.521790	145.460000
459.615479	145.760000
459.709198	145.560000
459.802887	145.040000
459.896576	144.860000
459.990265	145.120000
460.083954	145.340000
460.177673	145.040000
460.271362	145.560000
460.365051	145.820000
460.458740	145.500000
460.552429	145.300000
460.646149	145.200000
460.739838	144.880000
460.833527	144.920000
460.927246	144.960000
461.020905	145.040000
461.114655	145.240000
461.208313	145.700000
461.302032	145.500000
461.395691	145.800000
461.489441	145.740000
461.583099	145.500000
461.676819	145.060000
461.770477	145.300000
461.864197	144.820000
461.957916	144.820000
462.051605	144.180000
462.145294	145.140000
462.238983	144.700000
462.332703	145.260000
462.426392	146.160000
462.520081	146.780000
462.613770	146.120000
462.707489	146.640000
462.801178	146.360000
462.894867	145.820000
462.988556	145.820000
463.082275	145.800000
463.175964	145.240000
463.269684	145.340000
463.363342	145.200000
463.457092	144.560000
463.550751	144.860000
463.644470	145.220000
463.738129	145.060000
463.831879	145.320000
463.925537	146.220000
464.019257	146.040000
464.112946	145.980000
464.206665	146.020000
464.300323	145.740000
464.394043	145.580000
464.487762	145.440000
464.581451	145.580000
464.675140	145.520000
464.768829	145.920000
464.862549	145.900000
464.956238	146.280000
465.049927	146.380000
465.143646	146.520000
465.237335	146.240000
465.331024	146.520000
465.424713	146.360000
465.518433	146.460000
465.612152	146.280000
465.705811	146.340000
465.799561	145.660000
465.893219	145.300000
465.986938	144.880000
466.080597	144.660000
466.174347	144.740000
466.268005	145.120000
466.361725	145.300000
466.455414	145.500000
466.549133	145.640000
466.642792	145.880000
466.736542	145.780000
466.830231	145.900000
466.923920	145.920000
467.017609	146.000000
467.111328	145.360000
467.205017	145.480000
467.298706	145.320000
467.392426	145.540000
467.486115	146.020000
467.579803	145.920000
467.673523	146.160000
467.767212	146.540000
467.860901	146.240000
467.954651	146.080000
468.048309	146.480000
468.142029	146.360000
468.235718	146.240000
468.329437	145.860000
468.423096	145.740000
468.516846	145.420000
468.610504	145.040000
468.704224	144.740000
468.797913	145.140000
468.891632	145.200000
468.985291	145.040000
469.079010	145.180000
469.172729	144.880000
469.266418	145.240000
469.360107	145.380000
469.453827	145.420000
469.547516	145.580000
469.641205	146.220000
469.734924	146.180000
469.828613	146.680000
469.922302	146.960000
470.016022	146.880000
470.109711	146.380000
470.203430	145.900000
470.297150	144.820000
470.390808	145.080000
470.484558	145.200000
470.578217	145.760000
470.671936	146.220000
470.765625	146.800000
470.859344	146.640000
470.953003	146.780000
471.046753	146.540000
471.140411	145.940000
471.234131	145.980000
471.327820	146.100000
471.421539	146.220000
471.515228	145.860000
471.608948	145.980000
471.702637	145.360000
471.796326	145.100000
471.890045	144.900000
471.983734	145.160000
472.077423	144.980000
472.171143	145.100000
472.264832	144.920000
472.358521	144.660000
472.452240	144.240000
472.545929	145.020000
472.639648	145.440000
472.733337	145.900000
472.827057	146.300000
472.920746	146.740000
473.014465	146.620000
473.108124	146.560000
473.201874	146.580000
473.295532	146.080000
473.389252	146.520000
473.482941	146.440000
473.576660	146.160000
473.670319	146.020000
473.764069	146.600000
473.857727	146.320000
473.951477	146.580000
474.045166	147.300000
474.138855	147.020000
474.232574	146.780000
474.326263	146.680000
474.419952	146.700000
474.513672	146.160000
474.607361	146.380000
474.701050	146.420000
474.794769	146.800000
474.888458	146.700000
474.982178	146.880000
475.075867	146.860000
475.169586	146.880000
475.263275	146.660000
475.356995	146.700000
475.450653	146.400000
475.544403	146.180000
475.638062	146.880000
475.731812	146.340000
475.825470	145.840000
475.919189	146.100000
476.012878	146.500000
476.106598	145.520000
476.200256	146.020000
476.294006	146.280000
476.387695	146.280000
476.481384	145.940000
476.575104	146.220000
476.668793	145.780000
476.762512	145.680000
476.856201	146.220000
476.949890	146.240000
477.043610	145.580000
477.137299	145.780000
477.230988	145.900000
477.324707	145.300000
477.418396	145.700000
477.512146	146.040000
477.605804	145.980000
477.699524	145.920000
477.793213	145.840000
477.886932	145.340000
477.980591	145.040000
478.074341	144.840000
478.167999	144.420000
478.261749	144.420000
478.355408	144.660000
478.449127	145.560000
478.542816	146.380000
478.636536	147.140000
478.730225	147.280000
478.823944	147.480000
478.917633	147.200000
479.011322	147.080000
479.105042	146.740000
479.198730	146.700000
479.292450	146.280000
479.386139	146.280000
479.479828	146.200000
479.573547	146.940000
479.667267	146.800000
479.760925	147.060000
479.854675	147.300000
479.948334	147.160000
480.042084	146.140000
480.135742	146.540000
480.229462	146.180000
480.323151	145.900000
480.416870	145.620000
480.510529	145.800000
480.604279	145.040000
480.697937	145.560000
480.791656	145.360000
480.885345	144.960000
480.979065	144.820000
481.072754	145.560000
481.166473	145.900000
481.260132	145.940000
481.353882	146.380000
481.447540	146.540000
481.541260	146.420000
481.635010	145.700000
481.728668	145.860000
481.822388	145.860000
481.916077	146.180000
482.009796	146.060000
482.103485	146.480000
482.197205	146.360000
482.290863	146.520000
482.384613	146.040000
482.478271	145.640000
482.571991	145.180000
482.665680	145.280000
482.759399	145.800000
482.853058	146.300000
482.946808	146.680000
483.040466	146.920000
483.134216	146.800000
483.227875	146.180000
483.321594	146.620000
483.415283	146.740000
483.509003	146.560000
483.602661	146.360000
483.696411	146.740000
483.790070	146.560000
483.883789	145.980000
483.977478	146.360000
484.071198	146.540000
484.164917	145.980000
484.258606	145.020000
484.352325	145.580000
484.445984	145.400000
484.539734	145.400000
484.633392	145.260000
484.727142	146.060000
484.820801	145.580000
484.914520	145.700000
485.008209	145.700000
485.101929	146.020000
485.195587	145.640000
485.289337	145.680000
485.382996	145.560000
485.476715	145.580000
485.570404	146.040000
485.664124	145.880000
485.757782	146.480000
485.851532	146.320000
485.945190	146.020000
486.038910	145.760000
486.132599	146.260000
486.226318	145.520000
486.319977	145.300000
486.413727	146.020000
486.507446	145.560000
486.601105	145.140000
486.694855	145.240000
486.788513	145.220000
486.882233	144.900000
486.975922	144.960000
487.069641	144.640000
487.163300	144.740000
487.257050	145.700000
487.350708	145.540000
487.444427	145.440000
487.538116	145.760000
487.631836	145.600000
487.725494	145.100000
487.819214	145.280000
487.912903	145.220000
488.006622	145.580000
488.100281	146.080000
488.194031	146.280000
488.287689	146.500000
488.381409	147.420000
488.475098	146.960000
488.568817	146.800000
488.662476	146.460000
488.756226	145.820000
488.849945	144.800000
488.943604	145.240000
489.037354	145.660000
489.131012	145.540000
489.224731	145.600000
489.318390	145.680000
489.412140	145.300000
489.505798	144.940000
489.599518	144.620000
489.693207	145.160000
489.786926	145.300000
489.880585	144.960000
489.974335	145.100000
490.067993	146.340000
490.161713	146.240000
490.255371	147.060000
490.349121	147.460000
490.442780	147.140000
490.536499	145.940000
490.630188	145.760000
490.723907	145.020000
490.817566	145.160000
490.911285	145.340000
491.004974	145.340000
491.098694	145.120000
491.192413	145.820000
491.286102	145.660000
491.379822	145.700000
491.473480	146.320000
491.567200	146.340000
491.660889	145.320000
491.754608	145.280000
491.848267	145.240000
491.941986	144.920000
492.035675	144.960000
492.129395	145.700000
492.223053	145.600000
492.316772	145.880000
492.410461	145.860000
492.504181	145.800000
492.597839	145.340000
492.691559	145.420000
492.785248	145.300000
492.878967	145.340000
492.972626	145.340000
493.066345	145.440000
493.160034	145.080000
493.253754	144.680000
493.347412	144.560000
493.441132	144.940000
493.534882	145.240000
493.628540	146.040000
493.722260	146.420000
493.815918	146.500000
493.909668	146.660000
494.003326	146.860000
494.097046	146.300000
494.190704	146.000000
494.284454	146.120000
494.378113	146.140000
494.471832	145.940000
494.565491	145.820000
494.659210	146.240000
494.752899	146.200000
494.846619	145.940000
494.940277	145.880000
495.033997	146.100000
495.127686	145.400000
495.221405	145.200000
495.315063	145.480000
495.408783	145.580000
495.502441	145.680000
495.596191	146.420000
495.689850	146.380000
495.783569	146.460000
495.877228	146.320000
495.970947	146.280000
496.064697	145.780000
496.158356	146.580000
496.252075	146.340000
496.345734	146.160000
496.439453	146.720000
496.533142	146.940000
496.626862	147.160000
496.720520	147.180000
496.814240	147.500000
496.907898	146.840000
497.001617	147.000000
497.095306	146.100000
497.189026	146.280000
497.282684	146.300000
497.376404	146.760000
497.470062	146.580000
497.563782	146.700000
497.657471	146.500000
497.751190	146.040000
497.844849	145.680000
497.938568	145.760000
498.032227	145.680000
498.125946	145.560000
498.219635	145.700000
498.313354	145.820000
498.407074	145.520000
498.500732	146.080000
498.594452	146.080000
498.688110	146.000000
498.781830	145.860000
498.875519	146.080000
498.969238	145.540000
499.062897	145.500000
499.156616	145.760000
499.250275	145.840000
499.343994	145.260000
499.437653	145.160000
499.531372	145.320000
499.625061	145.660000
499.718781	145.600000
499.812439	146.060000
499.906158	146.180000
499.999817	146.240000
500.093536	145.620000
500.187195	145.780000
500.280914	145.940000
500.374573	146.340000
500.468323	145.840000
500.561981	146.300000
500.655701	146.060000
500.749420	146.160000
500.843079	146.060000
500.936798	146.660000
501.030457	146.900000
501.124176	147.020000
501.217834	146.880000
501.311554	146.700000
501.405212	145.960000
501.498962	144.940000
501.592621	145.200000
501.686340	145.400000
501.779999	145.640000
501.873718	146.120000
501.967377	146.640000
502.061096	146.420000
502.154755	145.920000
502.248474	145.640000
502.342133	145.800000
502.435852	145.840000
502.529510	146.180000
502.623230	146.920000
502.716888	146.380000
502.810608	146.100000
502.904266	146.360000
502.997986	146.060000
503.091705	145.380000
503.185364	145.740000
503.279083	145.760000
503.372772	145.520000
503.466492	145.200000
503.560150	145.240000
503.653870	145.520000
503.747528	145.580000
503.841248	145.720000
503.934906	146.040000
504.028625	145.940000
504.122284	145.980000
504.216003	146.320000
504.309662	145.900000
504.403381	146.180000
504.497040	146.040000
504.590759	145.880000
504.684418	145.980000
504.778137	146.580000
504.871796	146.760000
504.965515	146.840000
505.059174	146.720000
505.152893	146.100000
505.246521	145.380000
505.340240	144.760000
505.433899	145.080000
505.527618	145.040000
505.621338	145.420000
505.714996	145.420000
505.808716	145.440000
505.902374	145.880000
505.996094	146.280000
506.089752	145.700000
506.183472	146.180000
506.277130	146.440000
506.370850	146.080000
506.464508	145.740000
506.558228	146.340000
506.651886	146.100000
506.745605	146.060000
506.839264	146.240000
506.932983	146.660000
507.026611	146.580000
507.120331	147.000000
507.213989	146.440000
507.307709	146.440000
507.401367	146.740000
507.495087	147.280000
507.588745	146.900000
507.682465	148.020000
507.776123	147.720000
507.869843	147.260000
507.963531	146.740000
508.057190	147.060000
508.150909	146.120000
508.244568	146.220000
508.338287	145.980000
508.431946	145.580000
508.525665	145.340000
508.619324	145.560000
508.713013	145.620000
508.806671	146.020000
508.900391	146.980000
508.994049	147.100000
509.087769	146.820000
509.181427	146.760000
509.275146	146.400000
509.368774	145.680000
509.462494	145.680000
509.556152	145.820000
509.649872	146.280000
509.743530	146.320000
509.837250	146.220000
509.930878	146.000000
510.024597	146.300000
510.118256	145.560000
510.211975	145.660000
510.305695	145.540000
510.399353	145.700000
510.493042	145.860000
510.586700	146.260000
510.680420	146.980000
510.774078	147.320000
510.867798	147.440000
510.961426	147.000000
511.055145	147.000000
511.148804	146.320000
511.242523	146.320000
511.336151	146.360000
511.429871	146.720000
511.523529	146.580000
511.617249	146.280000
511.710876	146.000000
511.804596	145.600000
511.898254	145.580000
511.991974	145.940000
512.085632	146.060000
512.179321	146.280000
512.272949	146.740000
512.366699	146.660000
512.460327	146.060000
512.554077	146.800000
512.647766	146.560000
512.741394	146.000000
512.835144	146.640000
512.928772	146.580000
513.022461	146.240000
513.116150	146.220000
513.209839	146.620000
513.303467	146.000000
513.397217	145.880000
513.490845	145.580000
513.584595	145.680000
513.678223	145.360000
513.771912	144.580000
513.865601	145.000000
513.959290	144.820000
514.052917	145.080000
514.146667	146.120000
514.240295	146.840000
514.333984	146.940000
514.427673	146.740000
514.521362	147.040000
514.614990	145.920000
514.708740	145.860000
514.802368	146.160000
514.896057	146.540000
514.989746	146.960000
515.083435	147.240000
515.177124	147.440000
515.270752	146.920000
515.364502	146.980000
515.458130	146.700000
515.551819	146.600000
515.645508	146.540000
515.739197	146.560000
515.832825	146.620000
515.926575	146.120000
516.020203	146.380000
516.113892	146.880000
516.207520	146.780000
516.301270	146.520000
516.394897	146.780000
516.488586	147.120000
516.582275	146.540000
516.675964	146.220000
516.769592	146.120000
516.863281	146.500000
516.956970	146.420000
517.050659	146.640000
517.144287	147.080000
517.238037	147.420000
517.331665	146.620000
517.425354	146.060000
517.519043	145.720000
517.612732	145.620000
517.706421	145.480000
517.800049	145.500000
517.893738	145.160000
517.987427	145.040000
518.081116	145.220000
518.174744	144.940000
518.268433	145.380000
518.362122	146.600000
518.455811	146.820000
518.549438	147.440000
518.643127	148.480000
518.736816	148.160000
518.830505	147.380000
518.924133	147.420000
519.017822	147.080000
519.111511	146.500000
519.205200	146.940000
519.298828	146.960000
519.392517	146.500000
519.486206	146.460000
519.579895	146.560000
519.673523	146.220000
519.767212	146.200000
519.860901	147.080000
519.954590	146.400000
520.048279	145.840000
520.141907	145.780000
520.235596	146.600000
520.329224	146.400000
520.422974	146.940000
520.516602	146.920000
520.610291	146.700000
520.703918	146.120000
520.797607	145.600000
520.891296	145.380000
520.984985	146.080000
521.078613	146.600000
521.172302	146.280000
521.265930	147.420000
521.359680	147.920000
521.453308	147.440000
521.546997	147.220000
521.640625	147.500000
521.734314	146.680000
521.827942	146.500000
521.921692	146.820000
522.015320	147.040000
522.109009	146.740000
522.202698	146.560000
522.296326	146.480000
522.390015	146.720000
522.483704	146.580000
522.577393	146.540000
522.671021	146.500000
522.764709	145.920000
522.858337	146.000000
522.952026	145.820000
523.045654	146.560000
523.139404	147.200000
523.233032	147.520000
523.326721	147.100000
523.420349	147.060000
523.514038	146.240000
523.607666	146.120000
523.701355	145.960000
523.795044	145.860000
523.888733	146.100000
523.982361	146.620000
524.076050	145.920000
524.169678	146.340000
524.263367	146.280000
524.356995	145.900000
524.450684	145.440000
524.544373	145.420000
524.638062	145.160000
524.731750	145.380000
524.825378	145.540000
524.919067	145.440000
525.012695	145.760000
525.106384	145.540000
525.200012	145.580000
525.293701	145.320000
525.387329	145.700000
525.481018	146.100000
525.574646	146.700000
525.668396	146.740000
525.762024	147.240000
525.855713	147.420000
525.949341	146.700000
526.043030	146.700000
526.136658	146.240000
526.230347	146.040000
526.323975	145.720000
526.417664	146.000000
526.511292	145.760000
526.604980	146.140000
526.698608	145.860000
526.792297	145.660000
526.885925	145.560000
526.979614	145.700000
527.073303	145.520000
527.166931	145.760000
527.260620	145.780000
527.354309	146.340000
527.447998	146.080000
527.541626	145.760000
527.635315	146.000000
527.728943	146.660000
527.822632	146.440000
527.916260	146.680000
528.009949	147.340000
528.103577	146.820000
528.197266	146.120000
528.290894	145.940000
528.384583	145.900000
528.478210	145.640000
528.571899	145.760000
528.665527	146.120000
528.759216	146.000000
528.852844	146.220000
528.946533	146.180000
529.040161	145.940000
529.133850	145.720000
529.227478	145.780000
529.321167	145.840000
529.414856	146.180000
529.508484	147.000000
529.602173	146.840000
529.695801	147.120000
529.789490	146.740000
529.883057	146.200000
529.976746	146.040000
530.070374	146.660000
530.164062	146.360000
530.257690	146.560000
530.351379	146.680000
530.445007	146.620000
530.538696	145.660000
530.632324	145.900000
530.726013	145.780000
530.819641	145.940000
530.913330	145.720000
531.006958	145.940000
531.100647	145.820000
531.194275	145.960000
531.287964	145.660000
531.381592	145.580000
531.475220	145.880000
531.568848	145.880000
531.662537	145.460000
531.756226	145.840000
531.849854	145.880000
531.943542	146.100000
532.037170	145.320000
532.130859	145.960000
532.224487	145.420000
532.318176	144.980000
532.411804	145.200000
532.505432	146.120000
532.599060	145.620000
532.692749	145.920000
532.786377	146.620000
532.880066	145.660000
532.973694	144.800000
533.067383	144.760000
533.161011	144.380000
533.254639	144.240000
533.348267	144.620000
533.441956	145.400000
533.535583	145.260000
533.629272	145.680000
533.722900	145.260000
533.816589	145.460000
533.910156	145.740000
534.003845	145.500000
534.097534	145.880000
534.191162	146.320000
534.284851	146.180000
534.378479	145.560000
534.472107	145.840000
534.565735	145.200000
534.659424	145.320000
534.753052	145.580000
534.846741	145.560000
534.940369	146.280000
535.033997	146.440000
535.127625	146.080000
535.221313	146.560000
535.314941	146.520000
535.408630	145.800000
535.502197	146.320000
535.595886	146.220000
535.689514	145.400000
535.783203	146.060000
535.876831	146.560000
535.970459	146.240000
536.064087	146.200000
536.157776	146.580000
536.251404	146.140000
536.345093	145.640000
536.438721	145.660000
536.532349	145.920000
536.626038	145.540000
536.719666	146.000000
536.813293	146.140000
536.906921	146.420000
537.000610	146.640000
537.094238	146.620000
537.187866	146.240000
537.281494	146.120000
537.375183	145.840000
537.468811	145.680000
537.562439	146.060000
537.656067	146.220000
537.749756	146.360000
537.843384	146.860000
537.937012	147.060000
538.030640	146.520000
538.124329	146.500000
538.217896	147.020000
538.311584	146.580000
538.405212	146.140000
538.498901	146.480000
538.592468	147.000000
538.686157	145.960000
538.779785	145.500000
538.873413	145.600000
538.967102	145.260000
539.060730	144.560000
539.154358	144.940000
539.247986	144.980000
539.341675	145.160000
539.435242	145.180000
539.528931	145.480000
539.622559	145.300000
539.716187	145.900000
539.809814	145.500000
539.903503	145.820000
539.997070	145.520000
540.090759	145.760000
540.184387	145.320000
540.278015	146.120000
540.371643	146.440000
540.465332	146.480000
540.558899	146.300000
540.652588	146.440000
540.746216	145.760000
540.839844	145.780000
540.933472	145.680000
541.027100	145.760000
541.120728	146.000000
541.214417	146.340000
541.308044	146.360000
541.401672	146.400000
541.495300	146.600000
541.588928	146.400000
541.682617	146.100000
541.776184	145.680000
541.869873	146.080000
541.963440	145.860000
542.057129	145.800000
542.150757	145.900000
542.244385	145.780000
542.338013	144.820000
542.431641	144.720000
542.525269	144.480000
542.618958	144.940000
542.712524	145.220000
542.806213	145.580000
542.899780	146.020000
542.993469	145.880000
543.087036	145.680000
543.180725	145.180000
543.274292	145.380000
543.367981	145.500000
543.461548	146.180000
543.555237	145.820000
543.648926	146.480000
543.742493	147.040000
543.836182	146.800000
543.929749	146.440000
544.023437	146.720000
544.117004	146.660000
544.210693	146.420000
544.304260	146.420000
544.397949	146.580000
544.491516	146.860000
544.585205	146.560000
544.678772	145.960000
544.772461	146.220000
544.866028	146.040000
544.959717	145.760000
545.053284	145.480000
545.146973	146.220000
545.240540	146.020000
545.334229	146.620000
545.427795	146.560000
545.521423	146.780000
545.615051	146.320000
545.708679	146.580000
545.802307	145.860000
545.895935	146.140000
545.989624	147.180000
546.083191	147.200000
546.176880	147.140000
546.270447	147.120000
546.364136	147.220000
546.457703	146.360000
546.551331	146.460000
546.644958	146.360000
546.738586	146.720000
546.832214	146.140000
546.925842	146.000000
547.019409	146.300000
547.113098	145.920000
547.206665	145.660000
547.300354	145.940000
547.393921	146.260000
547.487549	146.000000
547.581177	146.220000
547.674805	146.080000
547.768433	145.480000
547.862061	145.220000
547.955627	144.700000
548.049316	145.060000
548.142883	145.600000
548.236572	146.120000
548.330139	146.260000
548.423767	146.380000
548.517456	146.380000
548.611023	146.460000
548.704651	145.980000
548.798279	146.120000
548.891907	146.660000
548.985474	146.260000
549.079163	146.340000
549.172729	146.500000
549.266357	146.000000
549.359985	145.660000
549.453613	145.080000
549.547180	144.660000
549.640869	145.220000
549.734436	145.300000
549.828064	145.880000
549.921631	146.220000
550.015320	145.800000
550.108887	145.780000
550.202515	145.900000
550.296143	145.200000
550.389771	145.440000
550.483337	145.620000
550.576965	145.340000
550.670593	145.800000
550.764221	146.060000
550.857849	145.860000
550.951477	145.660000
551.045105	145.480000
551.138672	145.280000
551.232300	144.940000
551.325928	145.380000
551.419556	145.680000
551.513123	145.760000
551.606750	145.380000
551.700378	145.600000
551.794006	145.460000
551.887573	145.340000
551.981201	145.680000
552.074768	145.920000
552.168457	145.700000
552.262024	146.220000
552.355652	146.080000
552.449219	146.440000
552.542847	146.440000
552.636475	146.600000
552.730103	145.780000
552.823669	146.240000
552.917297	145.560000
553.010864	145.600000
553.104553	145.620000
553.198181	145.440000
553.291748	145.520000
553.385376	145.960000
553.478943	145.860000
553.572571	145.980000
553.666199	146.480000
553.759827	146.040000
553.853394	145.380000
553.947021	145.240000
554.040588	145.260000
554.134216	145.380000
554.227783	146.220000
554.321411	146.860000
554.415039	146.340000
554.508667	146.200000
554.602234	146.360000
554.695862	145.540000
554.789429	145.200000
554.883057	145.900000
554.976624	145.980000
555.070251	145.700000
555.163818	145.880000
555.257507	145.980000
555.351074	146.140000
555.444702	147.240000
555.538330	146.840000
555.631897	147.020000
555.725525	146.820000
555.819092	146.740000
555.912720	145.700000
556.006287	146.580000
556.099915	146.200000
556.193481	146.480000
556.287109	146.700000
556.380676	146.580000
556.474304	146.440000
556.567871	147.120000
556.661499	146.560000
556.755066	146.020000
556.848694	146.220000
556.942261	146.060000
557.035889	146.020000
557.129517	146.520000
557.223145	147.100000
557.316711	147.060000
557.410339	146.980000
557.503906	146.520000
557.597473	146.800000
557.691040	146.460000
557.784668	146.360000
557.878296	146.460000
557.971863	146.360000
558.065491	146.500000
558.159058	146.280000
558.252686	147.040000
558.346252	147.560000
558.439880	147.580000
558.533447	146.980000
558.627075	146.760000
558.720642	145.840000
558.814270	145.280000
558.907837	145.120000
559.001465	144.980000
559.095032	145.700000
559.188660	145.980000
559.282227	145.540000
559.375854	146.340000
559.469360	146.540000
559.562988	146.640000
559.656555	146.660000
559.750183	146.780000
559.843750	146.720000
559.937378	146.760000
560.030945	146.320000
560.124573	0.000000
560.218140	0.000000
560.311707	0.000000
560.405334	0.000000
560.498901	0.000000
560.592529	0.000000
560.686096	0.000000
560.779724	0.000000
560.873291	0.000000
560.966858	0.000000
561.060425	0.000000
561.154053	0.000000
561.247620	0.000000
561.341248	0.000000
561.434814	0.000000
561.528381	0.000000
561.621948	0.000000
561.715576	0.000000
561.809143	0.000000
561.902771	0.000000
561.996277	0.000000
562.089905	0.000000
562.183472	0.000000
562.277100	0.000000
