Model Number: SPM-002-B   
Serial Number: 70087108
Firmware Version: 004.15.4
Exposure Time: 100000.000000us
Data Taken on: 11-12-2020 18:53:09.348
Wavelength	Amplitude
221.570786	0.000000
221.663406	0.000000
221.756027	0.000000
221.848648	0.000000
221.941269	0.000000
222.033905	0.000000
222.126526	0.000000
222.219162	0.000000
222.311798	0.000000
222.404419	0.000000
222.497055	0.000000
222.589676	0.000000
222.682312	0.000000
222.774933	0.000000
222.867569	0.000000
222.960205	0.000000
223.052841	0.000000
223.145462	0.000000
223.238098	0.000000
223.330734	0.000000
223.423386	0.000000
223.516022	0.000000
223.608658	0.000000
223.701309	0.000000
223.793945	0.000000
223.886581	0.000000
223.979218	0.000000
224.071869	0.000000
224.164505	0.000000
224.257156	0.000000
224.349792	0.000000
224.442444	0.000000
224.535095	0.000000
224.627747	0.000000
224.720398	0.000000
224.813034	0.000000
224.905685	0.000000
224.998337	145.860000
225.090988	145.540000
225.183640	145.820000
225.276291	145.820000
225.368942	146.320000
225.461594	147.180000
225.554245	147.360000
225.646912	147.000000
225.739578	147.400000
225.832230	147.460000
225.924896	146.440000
226.017548	146.720000
226.110199	147.460000
226.202866	146.620000
226.295532	146.680000
226.388184	146.760000
226.480850	146.440000
226.573517	146.020000
226.666168	146.740000
226.758835	146.820000
226.851501	147.460000
226.944183	147.540000
227.036850	147.240000
227.129517	146.940000
227.222183	146.980000
227.314850	146.940000
227.407516	147.360000
227.500198	148.140000
227.592865	147.780000
227.685532	147.400000
227.778214	146.780000
227.870880	146.820000
227.963562	146.920000
228.056229	147.540000
228.148926	147.740000
228.241592	148.880000
228.334274	148.480000
228.426956	147.920000
228.519638	147.900000
228.612305	147.400000
228.704987	147.140000
228.797668	147.220000
228.890350	147.280000
228.983032	146.540000
229.075714	147.380000
229.168396	146.740000
229.261108	146.280000
229.353790	146.220000
229.446472	146.500000
229.539169	146.020000
229.631851	145.760000
229.724533	145.980000
229.817230	146.300000
229.909912	147.120000
230.002609	147.280000
230.095306	147.460000
230.187988	147.900000
230.280685	147.520000
230.373383	146.340000
230.466095	146.400000
230.558792	146.680000
230.651474	146.620000
230.744171	146.680000
230.836868	146.860000
230.929581	146.720000
231.022278	146.760000
231.114975	146.460000
231.207672	146.280000
231.300369	146.700000
231.393082	146.840000
231.485779	146.400000
231.578506	146.740000
231.671204	146.920000
231.763916	147.000000
231.856613	147.000000
231.949326	147.460000
232.042023	146.940000
232.134735	147.040000
232.227448	146.440000
232.320160	146.440000
232.412872	146.360000
232.505585	147.220000
232.598297	147.500000
232.691010	147.920000
232.783722	147.420000
232.876450	147.980000
232.969162	147.640000
233.061874	147.120000
233.154587	146.720000
233.247314	147.240000
233.340027	146.660000
233.432739	146.860000
233.525467	146.900000
233.618179	147.360000
233.710907	147.200000
233.803635	147.660000
233.896347	147.200000
233.989090	147.740000
234.081818	147.640000
234.174545	147.880000
234.267258	147.200000
234.359985	147.480000
234.452713	147.260000
234.545441	147.080000
234.638168	146.820000
234.730896	147.500000
234.823639	147.420000
234.916367	148.000000
235.009094	148.220000
235.101822	148.360000
235.194580	148.260000
235.287308	148.200000
235.380051	147.340000
235.472778	147.480000
235.565521	147.320000
235.658249	146.600000
235.750992	146.560000
235.843719	146.420000
235.936462	146.580000
236.029205	146.280000
236.121948	146.500000
236.214691	147.040000
236.307449	147.980000
236.400192	147.440000
236.492935	147.440000
236.585678	147.840000
236.678421	147.560000
236.771164	147.280000
236.863907	148.200000
236.956665	148.700000
237.049408	149.900000
237.142151	149.580000
237.234909	149.900000
237.327652	149.520000
237.420410	149.160000
237.513153	147.820000
237.605927	148.040000
237.698669	147.580000
237.791428	147.000000
237.884186	147.700000
237.976944	147.260000
238.069702	147.240000
238.162445	146.820000
238.255203	146.960000
238.347961	146.740000
238.440720	147.080000
238.533478	147.100000
238.626266	146.700000
238.719025	146.820000
238.811783	146.680000
238.904541	146.500000
238.997314	146.160000
239.090073	146.360000
239.182831	146.500000
239.275604	147.220000
239.368362	147.260000
239.461136	147.420000
239.553909	147.420000
239.646667	147.420000
239.739441	146.940000
239.832214	147.220000
239.925003	147.580000
240.017761	148.340000
240.110535	148.700000
240.203308	148.000000
240.296082	148.060000
240.388855	147.720000
240.481628	147.400000
240.574417	147.160000
240.667191	147.540000
240.759964	147.060000
240.852737	147.060000
240.945526	146.960000
241.038315	146.700000
241.131088	146.780000
241.223877	147.060000
241.316650	146.540000
241.409439	146.740000
241.502228	146.340000
241.595001	146.760000
241.687790	146.640000
241.780579	146.940000
241.873367	147.080000
241.966141	147.600000
242.058929	147.040000
242.151718	147.320000
242.244507	147.580000
242.337311	146.700000
242.430099	146.980000
242.522903	147.380000
242.615692	147.000000
242.708481	147.080000
242.801270	147.800000
242.894073	147.620000
242.986862	147.440000
243.079651	147.860000
243.172455	147.660000
243.265244	147.780000
243.358063	147.060000
243.450867	146.900000
243.543655	146.920000
243.636459	147.120000
243.729263	147.040000
243.822067	147.480000
243.914856	148.060000
244.007660	147.760000
244.100464	147.500000
244.193268	147.280000
244.286072	147.060000
244.378876	146.380000
244.471680	146.200000
244.564499	146.460000
244.657318	147.000000
244.750122	147.420000
244.842926	146.740000
244.935745	147.220000
245.028549	147.060000
245.121368	146.180000
245.214172	146.100000
245.306992	146.920000
245.399796	146.600000
245.492615	146.520000
245.585434	146.960000
245.678253	146.820000
245.771072	146.580000
245.863892	146.860000
245.956711	147.180000
246.049530	146.760000
246.142349	146.780000
246.235168	147.120000
246.327988	147.500000
246.420807	146.960000
246.513626	147.200000
246.606445	146.960000
246.699280	146.760000
246.792099	146.120000
246.884918	146.300000
246.977753	145.940000
247.070587	146.300000
247.163422	146.320000
247.256241	146.560000
247.349075	146.740000
247.441895	147.160000
247.534729	146.760000
247.627563	146.460000
247.720383	147.040000
247.813217	146.800000
247.906052	146.660000
247.998886	146.900000
248.091736	147.140000
248.184570	146.480000
248.277405	146.580000
248.370239	147.620000
248.463074	148.360000
248.555908	148.700000
248.648743	148.500000
248.741592	148.860000
248.834427	148.000000
248.927261	147.060000
249.020111	147.200000
249.112946	147.880000
249.205795	147.440000
249.298630	147.260000
249.391495	147.460000
249.484344	146.900000
249.577179	146.660000
249.670029	146.760000
249.762878	147.480000
249.855728	147.620000
249.948563	147.720000
250.041412	147.220000
250.134262	147.520000
250.227112	147.160000
250.319962	146.980000
250.412827	146.900000
250.505692	146.880000
250.598541	146.880000
250.691391	146.600000
250.784241	146.700000
250.877106	146.960000
250.969955	146.840000
251.062805	147.020000
251.155670	147.380000
251.248520	146.940000
251.341385	146.920000
251.434235	147.100000
251.527100	146.720000
251.619965	146.160000
251.712814	147.200000
251.805695	147.200000
251.898560	147.200000
251.991425	147.300000
252.084290	147.740000
252.177155	147.160000
252.270020	146.900000
252.362885	146.800000
252.455750	146.800000
252.548615	146.640000
252.641479	146.480000
252.734360	146.420000
252.827240	146.480000
252.920105	146.700000
253.012970	146.440000
253.105850	146.340000
253.198715	146.220000
253.291595	146.500000
253.384460	146.060000
253.477341	146.260000
253.570221	146.720000
253.663086	146.700000
253.755966	147.040000
253.848846	147.300000
253.941727	147.420000
254.034592	147.200000
254.127472	147.060000
254.220367	146.960000
254.313248	146.720000
254.406128	146.320000
254.499008	146.300000
254.591904	147.060000
254.684784	147.300000
254.777664	147.400000
254.870544	147.360000
254.963440	147.240000
255.056335	146.820000
255.149216	146.560000
255.242111	146.980000
255.334991	147.340000
255.427887	147.520000
255.520767	147.940000
255.613663	147.920000
255.706558	147.020000
255.799438	146.640000
255.892334	146.420000
255.985229	146.040000
256.078125	146.080000
256.171021	146.500000
256.263916	147.240000
256.356812	147.420000
256.449707	147.640000
256.542603	147.280000
256.635498	147.520000
256.728394	147.320000
256.821289	147.180000
256.914215	147.400000
257.007080	147.780000
257.100006	147.880000
257.192932	147.960000
257.285828	148.060000
257.378723	147.700000
257.471619	147.400000
257.564545	146.980000
257.657440	146.640000
257.750336	147.160000
257.843262	147.060000
257.936157	148.260000
258.029053	148.600000
258.121979	148.740000
258.214874	148.280000
258.307800	148.280000
258.400696	146.840000
258.493622	146.680000
258.586517	146.240000
258.679443	146.440000
258.772339	146.120000
258.865265	146.620000
258.958160	146.260000
259.051086	146.920000
259.144012	146.720000
259.236938	147.740000
259.329834	147.300000
259.422791	147.360000
259.515717	146.880000
259.608612	146.600000
259.701538	146.560000
259.794464	146.480000
259.887390	146.480000
259.980316	146.600000
260.073212	146.640000
260.166138	145.240000
260.259064	145.820000
260.351990	146.260000
260.444916	146.040000
260.537842	146.380000
260.630768	147.480000
260.723694	147.260000
260.816620	147.240000
260.909546	147.480000
261.002472	146.940000
261.095398	146.240000
261.188354	146.140000
261.281281	145.600000
261.374207	145.680000
261.467133	146.480000
261.560089	147.020000
261.653015	146.800000
261.745972	147.580000
261.838867	147.680000
261.931824	148.000000
262.024780	147.240000
262.117706	147.580000
262.210663	147.520000
262.303589	147.560000
262.396515	147.060000
262.489471	148.200000
262.582397	147.840000
262.675354	147.200000
262.768280	146.920000
262.861237	147.080000
262.954163	146.680000
263.047119	146.960000
263.140045	146.740000
263.233002	146.720000
263.325958	146.320000
263.418884	145.860000
263.511841	146.000000
263.604797	146.620000
263.697723	146.920000
263.790680	146.920000
263.883636	147.600000
263.976593	147.380000
264.069550	147.320000
264.162476	147.000000
264.255463	147.220000
264.348419	146.840000
264.441376	146.880000
264.534332	146.540000
264.627289	146.680000
264.720245	146.880000
264.813202	146.600000
264.906158	147.020000
264.999115	147.340000
265.092072	147.340000
265.185028	147.780000
265.277985	148.060000
265.370941	147.700000
265.463898	147.620000
265.556854	147.460000
265.649811	146.300000
265.742798	146.380000
265.835754	146.380000
265.928711	147.000000
266.021667	146.740000
266.114655	147.320000
266.207611	147.480000
266.300568	146.860000
266.393585	146.080000
266.486511	146.700000
266.579498	145.960000
266.672485	145.700000
266.765442	146.120000
266.858429	146.720000
266.951385	146.100000
267.044342	146.460000
267.137329	146.480000
267.230316	146.520000
267.323273	145.840000
267.416260	146.540000
267.509216	146.460000
267.602203	146.480000
267.695160	147.060000
267.788147	147.300000
267.881134	146.900000
267.974091	147.080000
268.067078	146.640000
268.160065	146.120000
268.253052	145.980000
268.346008	146.380000
268.438995	146.260000
268.531982	146.820000
268.624969	146.780000
268.717987	147.040000
268.810944	146.620000
268.903961	146.820000
268.996948	146.580000
269.089905	146.840000
269.182892	146.900000
269.275879	147.180000
269.368866	146.740000
269.461853	146.920000
269.554871	146.960000
269.647858	147.020000
269.740845	147.380000
269.833832	147.940000
269.926819	147.500000
270.019806	147.640000
270.112793	147.100000
270.205811	146.880000
270.298798	146.580000
270.391785	147.300000
270.484772	146.780000
270.577789	147.320000
270.670776	146.780000
270.763763	146.940000
270.856750	146.820000
270.949768	146.740000
271.042786	146.560000
271.135773	146.760000
271.228790	146.920000
271.321808	146.300000
271.414795	146.080000
271.507782	145.620000
271.600800	145.620000
271.693817	145.540000
271.786804	146.120000
271.879822	146.620000
271.972809	146.900000
272.065826	146.960000
272.158844	146.460000
272.251831	146.980000
272.344849	146.940000
272.437866	146.580000
272.530853	146.800000
272.623871	147.200000
272.716888	145.920000
272.809906	146.120000
272.902893	146.480000
272.995911	145.980000
273.088928	145.920000
273.181946	146.660000
273.274963	146.200000
273.367981	146.060000
273.460999	146.420000
273.554047	146.880000
273.647003	147.140000
273.740051	147.300000
273.833069	147.720000
273.926086	147.880000
274.019135	147.340000
274.112152	146.740000
274.205170	146.700000
274.298187	146.780000
274.391205	146.160000
274.484222	146.360000
274.577240	146.420000
274.670258	146.260000
274.763306	145.860000
274.856323	146.380000
274.949341	146.440000
275.042358	146.940000
275.135406	147.020000
275.228424	147.360000
275.321442	147.300000
275.414490	146.880000
275.507507	146.840000
275.600525	147.360000
275.693573	147.080000
275.786591	146.580000
275.879669	147.040000
275.972656	146.580000
276.065735	146.020000
276.158752	146.200000
276.251801	147.120000
276.344818	147.100000
276.437866	147.420000
276.530884	147.340000
276.623932	146.540000
276.716980	146.200000
276.809998	146.160000
276.903046	146.220000
276.996094	147.020000
277.089111	147.880000
277.182159	148.680000
277.275208	148.460000
277.368256	148.180000
277.461304	147.860000
277.554321	147.200000
277.647369	146.680000
277.740417	146.800000
277.833466	147.000000
277.926514	146.600000
278.019562	147.360000
278.112610	147.040000
278.205688	147.240000
278.298706	147.000000
278.391785	146.780000
278.484833	146.380000
278.577881	146.080000
278.670929	146.140000
278.763977	146.380000
278.857025	147.240000
278.950073	147.300000
279.043121	147.300000
279.136169	147.060000
279.229248	146.800000
279.322296	146.440000
279.415344	146.200000
279.508392	146.120000
279.601440	146.020000
279.694519	145.980000
279.787567	145.980000
279.880615	146.100000
279.973694	146.080000
280.066742	146.340000
280.159790	146.700000
280.252869	146.200000
280.345917	146.480000
280.438995	146.620000
280.532074	146.340000
280.625122	146.480000
280.718201	147.820000
280.811279	147.520000
280.904327	147.500000
280.997406	147.740000
281.090454	147.400000
281.183533	146.360000
281.276581	146.380000
281.369659	146.460000
281.462738	146.320000
281.555786	146.760000
281.648865	146.920000
281.741943	146.960000
281.835022	147.120000
281.928070	147.040000
282.021149	146.600000
282.114227	146.420000
282.207306	146.100000
282.300385	146.440000
282.393433	146.600000
282.486511	146.620000
282.579590	147.160000
282.672668	147.780000
282.765747	147.160000
282.858856	146.700000
282.951904	146.820000
283.045013	146.780000
283.138062	147.020000
283.231171	147.440000
283.324249	148.180000
283.417328	148.480000
283.510406	147.960000
283.603485	147.280000
283.696564	146.900000
283.789642	146.540000
283.882751	146.060000
283.975830	146.700000
284.068909	146.560000
284.161987	147.360000
284.255066	147.180000
284.348175	147.400000
284.441254	147.240000
284.534332	147.840000
284.627441	147.160000
284.720520	146.860000
284.813599	146.760000
284.906708	146.540000
284.999786	145.500000
285.092896	145.520000
285.185974	146.740000
285.279053	146.160000
285.372192	146.180000
285.465240	147.260000
285.558380	147.080000
285.651459	146.320000
285.744568	147.460000
285.837677	147.300000
285.930756	147.200000
286.023865	147.180000
286.116943	146.820000
286.210052	146.660000
286.303162	146.780000
286.396240	146.540000
286.489349	146.280000
286.582458	146.960000
286.675568	146.640000
286.768646	146.560000
286.861755	147.100000
286.954865	147.940000
287.047974	147.120000
287.141083	147.040000
287.234161	146.800000
287.327271	146.060000
287.420380	146.240000
287.513519	146.440000
287.606598	146.340000
287.699738	146.660000
287.792816	146.860000
287.885956	146.260000
287.979034	146.200000
288.072174	146.360000
288.165283	146.140000
288.258392	146.300000
288.351501	146.220000
288.444611	146.760000
288.537720	146.800000
288.630859	146.680000
288.723969	146.880000
288.817078	147.140000
288.910187	146.840000
289.003296	146.560000
289.096436	146.480000
289.189545	146.120000
289.282654	145.280000
289.375763	145.940000
289.468903	146.400000
289.562012	146.760000
289.655121	147.040000
289.748260	147.600000
289.841400	147.440000
289.934509	146.980000
290.027649	147.120000
290.120728	146.720000
290.213898	147.020000
290.306976	146.540000
290.400146	146.940000
290.493256	146.720000
290.586395	146.960000
290.679535	146.960000
290.772644	146.620000
290.865784	145.880000
290.958893	146.020000
291.052032	145.600000
291.145172	145.500000
291.238281	145.520000
291.331421	146.020000
291.424561	146.060000
291.517670	146.260000
291.610809	146.320000
291.703949	146.400000
291.797089	146.700000
291.890228	146.700000
291.983337	146.740000
292.076477	146.540000
292.169617	146.800000
292.262756	146.540000
292.355927	146.300000
292.449036	146.280000
292.542206	146.440000
292.635315	146.520000
292.728485	146.700000
292.821625	146.340000
292.914764	147.320000
293.007904	147.260000
293.101044	147.340000
293.194183	146.900000
293.287323	147.400000
293.380463	146.680000
293.473602	146.580000
293.566742	146.460000
293.659882	147.120000
293.753021	147.140000
293.846191	146.820000
293.939331	146.340000
294.032471	146.300000
294.125610	145.700000
294.218781	145.880000
294.311920	146.540000
294.405060	147.200000
294.498230	147.080000
294.591370	147.460000
294.684540	146.860000
294.777679	146.220000
294.870850	146.680000
294.963959	146.700000
295.057159	146.400000
295.150299	146.740000
295.243469	146.760000
295.336609	145.840000
295.429779	146.040000
295.522919	146.400000
295.616089	146.180000
295.709229	147.000000
295.802399	147.120000
295.895569	146.680000
295.988708	146.540000
296.081879	146.980000
296.175018	146.160000
296.268188	146.340000
296.361359	147.120000
296.454529	147.100000
296.547668	146.840000
296.640839	147.220000
296.734009	146.780000
296.827179	146.580000
296.920319	146.580000
297.013519	146.760000
297.106659	146.700000
297.199860	147.220000
297.292999	146.980000
297.386200	146.880000
297.479309	146.300000
297.572510	146.140000
297.665680	145.820000
297.758850	145.900000
297.852020	145.860000
297.945190	146.000000
298.038361	145.720000
298.131531	146.880000
298.224701	146.760000
298.317871	146.440000
298.411072	146.380000
298.504242	146.580000
298.597412	145.600000
298.690582	146.000000
298.783752	146.200000
298.876923	146.580000
298.970093	146.820000
299.063293	147.220000
299.156464	147.420000
299.249634	147.880000
299.342834	148.040000
299.436005	147.880000
299.529205	147.720000
299.622345	147.380000
299.715576	146.540000
299.808716	146.080000
299.901917	146.060000
299.995117	146.240000
300.088287	146.460000
300.181488	146.500000
300.274658	146.580000
300.367828	146.760000
300.461029	146.780000
300.554199	146.720000
300.647400	146.800000
300.740601	147.180000
300.833771	147.120000
300.926971	147.080000
301.020142	146.480000
301.113342	146.520000
301.206512	146.340000
301.299713	146.340000
301.392914	146.220000
301.486084	146.800000
301.579285	146.780000
301.672516	147.280000
301.765686	147.220000
301.858887	147.140000
301.952057	146.860000
302.045288	147.140000
302.138458	146.780000
302.231659	146.360000
302.324860	146.180000
302.418060	146.400000
302.511261	146.360000
302.604462	146.520000
302.697662	146.580000
302.790863	146.680000
302.884064	146.060000
302.977264	145.740000
303.070465	145.820000
303.163666	146.620000
303.256866	146.720000
303.350067	146.900000
303.443268	147.120000
303.536469	147.060000
303.629669	146.140000
303.722870	146.140000
303.816071	146.060000
303.909271	146.120000
304.002472	145.600000
304.095673	145.640000
304.188934	145.000000
304.282104	146.020000
304.375336	145.920000
304.468506	146.120000
304.561768	146.060000
304.654968	146.720000
304.748169	145.700000
304.841370	145.640000
304.934601	145.740000
305.027802	145.740000
305.121002	145.500000
305.214233	145.940000
305.307434	146.060000
305.400665	146.240000
305.493866	146.140000
305.587097	146.380000
305.680298	146.040000
305.773499	146.560000
305.866730	146.160000
305.959930	147.000000
306.053162	147.360000
306.146393	147.380000
306.239594	146.340000
306.332825	146.640000
306.426025	146.600000
306.519287	146.040000
306.612488	146.300000
306.705719	146.800000
306.798920	146.820000
306.892181	146.500000
306.985352	146.240000
307.078613	145.500000
307.171844	146.020000
307.265045	145.460000
307.358276	144.880000
307.451508	145.540000
307.544739	146.620000
307.637970	146.000000
307.731201	146.380000
307.824402	147.300000
307.917633	147.080000
308.010864	147.260000
308.104095	147.580000
308.197327	147.560000
308.290558	147.260000
308.383789	146.920000
308.477020	146.120000
308.570251	145.740000
308.663483	145.380000
308.756714	145.380000
308.849976	145.660000
308.943176	146.360000
309.036438	146.020000
309.129639	145.940000
309.222900	145.960000
309.316101	145.700000
309.409393	145.160000
309.502625	145.340000
309.595856	145.700000
309.689087	145.880000
309.782318	146.020000
309.875580	146.040000
309.968811	146.280000
310.062042	146.240000
310.155273	145.860000
310.248535	146.360000
310.341766	146.140000
310.434998	145.900000
310.528259	145.780000
310.621490	146.360000
310.714722	145.520000
310.807983	145.720000
310.901215	145.820000
310.994476	146.040000
311.087708	145.380000
311.181000	145.840000
311.274200	145.620000
311.367462	146.060000
311.460693	145.960000
311.553986	146.940000
311.647186	147.240000
311.740479	147.840000
311.833710	147.240000
311.926971	147.380000
312.020203	146.320000
312.113464	145.940000
312.206726	145.340000
312.299957	145.760000
312.393219	146.100000
312.486481	146.720000
312.579712	146.700000
312.672974	146.640000
312.766235	146.680000
312.859497	146.340000
312.952759	145.840000
313.045990	146.760000
313.139252	146.680000
313.232513	146.980000
313.325775	147.080000
313.419037	147.300000
313.512299	146.320000
313.605530	146.760000
313.698822	146.560000
313.792053	146.720000
313.885345	146.360000
313.978577	146.600000
314.071869	146.180000
314.165131	146.320000
314.258392	146.320000
314.351654	146.700000
314.444916	146.180000
314.538177	146.680000
314.631439	146.500000
314.724701	146.420000
314.817993	146.340000
314.911255	146.620000
315.004517	146.260000
315.097778	146.120000
315.191040	146.400000
315.284302	146.520000
315.377594	146.380000
315.470856	146.620000
315.564117	146.340000
315.657379	145.740000
315.750671	145.240000
315.843933	145.560000
315.937195	145.160000
316.030518	145.340000
316.123749	145.700000
316.217041	146.780000
316.310303	147.020000
316.403595	147.360000
316.496857	147.620000
316.590149	147.460000
316.683411	146.560000
316.776703	146.180000
316.869965	146.200000
316.963257	145.880000
317.056519	145.380000
317.149811	145.460000
317.243073	145.200000
317.336365	145.160000
317.429626	145.480000
317.522919	146.280000
317.616180	146.120000
317.709473	146.120000
317.802765	145.840000
317.896027	145.940000
317.989319	146.180000
318.082611	146.200000
318.175873	146.300000
318.269165	146.640000
318.362488	146.580000
318.455750	145.980000
318.549042	146.440000
318.642303	146.860000
318.735626	146.560000
318.828888	146.540000
318.922211	145.980000
319.015472	146.480000
319.108765	145.620000
319.202057	145.380000
319.295349	145.320000
319.388641	145.720000
319.481934	145.060000
319.575226	145.340000
319.668518	145.720000
319.761810	146.180000
319.855103	146.460000
319.948395	146.400000
320.041687	146.600000
320.134979	146.720000
320.228271	146.140000
320.321564	145.740000
320.414856	145.840000
320.508148	145.680000
320.601440	145.660000
320.694763	145.640000
320.788025	146.260000
320.881348	146.300000
320.974640	146.540000
321.067963	146.000000
321.161224	145.900000
321.254547	145.100000
321.347839	145.680000
321.441162	145.400000
321.534454	145.860000
321.627747	145.900000
321.721069	146.680000
321.814362	146.620000
321.907654	146.600000
322.000946	146.540000
322.094269	147.400000
322.187561	147.120000
322.280884	147.020000
322.374176	147.240000
322.467468	147.860000
322.560791	147.060000
322.654083	147.540000
322.747406	147.640000
322.840698	147.840000
322.934021	147.880000
323.027344	148.260000
323.120636	147.540000
323.213959	147.340000
323.307251	146.880000
323.400574	146.280000
323.493866	145.780000
323.587219	146.260000
323.680511	146.180000
323.773834	146.340000
323.867157	146.520000
323.960449	146.780000
324.053772	146.600000
324.147095	146.520000
324.240387	147.200000
324.333710	147.320000
324.427032	147.260000
324.520355	147.240000
324.613647	147.000000
324.706970	146.440000
324.800293	146.180000
324.893616	146.440000
324.986938	146.720000
325.080231	146.640000
325.173553	147.140000
325.266876	147.660000
325.360199	147.520000
325.453522	146.920000
325.546875	147.120000
325.640167	147.120000
325.733521	147.020000
325.826813	147.440000
325.920166	147.440000
326.013489	147.140000
326.106812	146.240000
326.200134	145.580000
326.293457	144.800000
326.386780	145.060000
326.480103	145.100000
326.573425	145.620000
326.666748	146.100000
326.760071	146.620000
326.853424	146.580000
326.946747	146.940000
327.040070	147.400000
327.133392	147.140000
327.226715	146.520000
327.320068	146.360000
327.413391	146.640000
327.506714	145.660000
327.600037	145.800000
327.693390	146.420000
327.786713	146.460000
327.880066	146.060000
327.973358	146.660000
328.066742	146.820000
328.160034	146.780000
328.253418	147.240000
328.346710	147.000000
328.440063	146.540000
328.533417	146.360000
328.626740	146.400000
328.720093	146.060000
328.813416	146.100000
328.906769	146.460000
329.000092	146.460000
329.093445	146.320000
329.186768	145.940000
329.280121	146.640000
329.373444	146.700000
329.466797	146.820000
329.560120	147.120000
329.653473	147.440000
329.746796	147.160000
329.840149	146.880000
329.933502	146.880000
330.026825	146.360000
330.120178	146.340000
330.213562	146.200000
330.306854	146.180000
330.400238	146.260000
330.493561	146.520000
330.586945	147.360000
330.680237	147.420000
330.773621	147.600000
330.866974	147.400000
330.960327	147.520000
331.053680	146.720000
331.147003	146.820000
331.240356	146.920000
331.333710	146.660000
331.427063	146.180000
331.520416	146.180000
331.613770	145.920000
331.707123	145.960000
331.800476	146.780000
331.893829	148.040000
331.987152	148.220000
332.080505	148.240000
332.173859	148.220000
332.267212	147.400000
332.360565	146.560000
332.453918	146.360000
332.547333	146.280000
332.640656	146.160000
332.734039	146.420000
332.827362	146.340000
332.920746	146.940000
333.014069	147.240000
333.107452	147.440000
333.200806	147.700000
333.294159	147.520000
333.387543	146.720000
333.480896	146.400000
333.574249	146.440000
333.667603	145.820000
333.760956	146.140000
333.854340	146.320000
333.947693	146.360000
334.041046	146.160000
334.134430	146.740000
334.227783	146.260000
334.321136	146.120000
334.414520	145.740000
334.507874	145.900000
334.601227	145.700000
334.694611	145.920000
334.787964	146.340000
334.881348	146.960000
334.974701	147.160000
335.068085	147.000000
335.161438	147.280000
335.254822	147.040000
335.348175	146.840000
335.441559	146.180000
335.534943	147.080000
335.628296	146.660000
335.721680	146.340000
335.815033	146.880000
335.908417	147.440000
336.001770	146.980000
336.095154	147.240000
336.188538	147.180000
336.281891	146.580000
336.375275	146.140000
336.468658	145.720000
336.562012	145.680000
336.655396	146.160000
336.748779	146.280000
336.842133	146.520000
336.935516	146.760000
337.028900	146.300000
337.122284	146.260000
337.215637	146.460000
337.309021	146.400000
337.402435	145.880000
337.495789	146.040000
337.589203	145.800000
337.682526	145.680000
337.775940	145.940000
337.869324	146.500000
337.962708	146.360000
338.056091	146.920000
338.149475	146.540000
338.242859	146.540000
338.336243	146.080000
338.429626	146.440000
338.523010	146.060000
338.616394	146.240000
338.709778	146.180000
338.803162	146.460000
338.896545	146.500000
338.989929	146.440000
339.083313	146.520000
339.176697	146.140000
339.270081	146.140000
339.363464	146.280000
339.456848	146.540000
339.550232	146.000000
339.643616	146.080000
339.737030	145.960000
339.830383	145.520000
339.923828	145.680000
340.017181	146.020000
340.110596	145.900000
340.203949	146.020000
340.297363	146.000000
340.390778	145.480000
340.484161	145.480000
340.577545	145.420000
340.670959	145.360000
340.764343	145.540000
340.857727	146.060000
340.951111	146.000000
341.044525	146.780000
341.137909	146.400000
341.231293	146.320000
341.324707	145.560000
341.418091	146.340000
341.511505	146.080000
341.604889	146.480000
341.698303	146.720000
341.791687	147.020000
341.885071	146.280000
341.978485	145.880000
342.071899	145.860000
342.165283	146.100000
342.258698	146.420000
342.352081	146.800000
342.445496	147.360000
342.538879	147.360000
342.632324	146.980000
342.725708	146.780000
342.819122	146.380000
342.912506	146.120000
343.005920	146.100000
343.099335	146.720000
343.192719	146.640000
343.286133	146.700000
343.379547	146.960000
343.472931	147.220000
343.566345	146.700000
343.659760	146.980000
343.753143	146.660000
343.846558	146.300000
343.939972	146.240000
344.033386	146.720000
344.126770	146.440000
344.220184	146.520000
344.313599	146.860000
344.407043	146.720000
344.500427	146.000000
344.593872	146.440000
344.687225	146.480000
344.780670	146.100000
344.874054	146.360000
344.967499	147.040000
345.060913	147.040000
345.154327	147.000000
345.247742	146.620000
345.341156	146.100000
345.434570	145.400000
345.527985	145.020000
345.621399	145.340000
345.714813	145.560000
345.808228	145.840000
345.901642	145.800000
345.995056	145.520000
346.088470	145.600000
346.181885	145.940000
346.275299	145.720000
346.368713	145.820000
346.462128	145.800000
346.555573	145.780000
346.648987	145.620000
346.742401	145.720000
346.835815	146.240000
346.929260	146.320000
347.022644	146.040000
347.116119	146.360000
347.209503	146.440000
347.302948	146.820000
347.396362	147.480000
347.489807	147.800000
347.583221	147.980000
347.676636	147.900000
347.770050	147.260000
347.863495	146.580000
347.956909	146.660000
348.050323	146.000000
348.143768	145.900000
348.237183	145.460000
348.330597	146.200000
348.424042	146.440000
348.517456	146.900000
348.610901	147.020000
348.704315	147.180000
348.797760	146.260000
348.891174	145.700000
348.984619	144.980000
349.078033	145.400000
349.171448	145.900000
349.264923	146.140000
349.358337	146.080000
349.451782	146.180000
349.545197	145.520000
349.638641	144.840000
349.732086	144.480000
349.825500	145.160000
349.918945	145.200000
350.012390	145.700000
350.105804	146.220000
350.199249	146.860000
350.292664	146.940000
350.386108	147.000000
350.479553	147.060000
350.572968	146.940000
350.666412	146.600000
350.759857	146.280000
350.853302	146.840000
350.946716	146.480000
351.040161	146.600000
351.133606	146.740000
351.227081	146.440000
351.320465	146.940000
351.413940	147.140000
351.507355	147.240000
351.600830	147.260000
351.694244	147.140000
351.787720	146.900000
351.881104	146.860000
351.974579	146.400000
352.067993	146.940000
352.161469	147.180000
352.254883	146.140000
352.348358	146.120000
352.441803	146.420000
352.535248	146.160000
352.628693	146.460000
352.722137	146.620000
352.815582	146.780000
352.909027	146.940000
353.002472	146.420000
353.095917	146.020000
353.189362	146.340000
353.282806	146.180000
353.376251	145.800000
353.469696	145.840000
353.563141	146.480000
353.656586	146.380000
353.750061	146.180000
353.843475	146.340000
353.936981	147.120000
354.030396	146.260000
354.123871	146.380000
354.217285	146.860000
354.310760	146.880000
354.404175	146.400000
354.497681	146.400000
354.591095	146.440000
354.684570	145.720000
354.777985	145.680000
354.871490	145.380000
354.964935	145.740000
355.058380	145.860000
355.151855	145.620000
355.245300	145.920000
355.338745	146.560000
355.432220	146.660000
355.525665	146.140000
355.619110	147.040000
355.712585	146.700000
355.806030	146.260000
355.899475	145.840000
355.992950	146.260000
356.086426	146.500000
356.179871	146.600000
356.273346	146.720000
356.366791	147.020000
356.460266	146.940000
356.553711	146.280000
356.647186	146.300000
356.740631	146.060000
356.834106	145.800000
356.927551	146.220000
357.021027	146.720000
357.114471	146.860000
357.207947	146.840000
357.301422	147.240000
357.394867	146.860000
357.488342	146.800000
357.581818	146.760000
357.675262	147.460000
357.768738	147.100000
357.862213	146.460000
357.955658	146.080000
358.049133	146.000000
358.142609	145.880000
358.236053	145.920000
358.329529	146.620000
358.423035	147.040000
358.516449	146.700000
358.609955	147.000000
358.703400	147.500000
358.796906	147.580000
358.890350	147.080000
358.983826	147.580000
359.077271	146.680000
359.170776	146.160000
359.264221	145.740000
359.357727	146.240000
359.451172	146.220000
359.544647	146.520000
359.638123	146.560000
359.731598	147.020000
359.825073	147.040000
359.918549	147.100000
360.012024	147.420000
360.105499	147.020000
360.198975	146.680000
360.292450	146.800000
360.385925	146.600000
360.479401	145.900000
360.572876	146.340000
360.666351	146.880000
360.759857	146.480000
360.853302	146.740000
360.946808	146.760000
361.040253	147.060000
361.133759	146.380000
361.227203	146.460000
361.320709	146.000000
361.414154	146.460000
361.507660	146.460000
361.601105	146.860000
361.694641	147.380000
361.788086	147.360000
361.881592	147.660000
361.975067	147.360000
362.068542	147.700000
362.162018	147.380000
362.255524	147.120000
362.348999	146.940000
362.442474	147.140000
362.535950	146.460000
362.629456	146.460000
362.722931	146.500000
362.816406	146.780000
362.909882	147.200000
363.003387	147.080000
363.096863	147.220000
363.190338	147.560000
363.283875	147.080000
363.377319	146.380000
363.470825	147.240000
363.564301	146.440000
363.657806	146.260000
363.751282	145.940000
363.844788	146.920000
363.938232	146.220000
364.031769	147.060000
364.125214	147.380000
364.218750	148.020000
364.312225	146.700000
364.405731	147.120000
364.499207	146.540000
364.592712	146.040000
364.686188	145.500000
364.779694	145.920000
364.873169	145.460000
364.966675	145.520000
365.060150	145.800000
365.153656	146.120000
365.247131	146.440000
365.340637	146.640000
365.434143	147.240000
365.527618	147.420000
365.621155	146.800000
365.714600	146.500000
365.808136	146.620000
365.901611	145.540000
365.995117	145.340000
366.088593	145.520000
366.182129	145.320000
366.275604	145.520000
366.369110	146.080000
366.462585	145.820000
366.556122	146.600000
366.649567	146.920000
366.743103	146.880000
366.836609	146.840000
366.930115	147.220000
367.023590	147.140000
367.117096	146.840000
367.210602	146.760000
367.304108	147.160000
367.397614	147.620000
367.491119	147.540000
367.584595	148.040000
367.678101	148.160000
367.771606	147.780000
367.865112	147.180000
367.958649	146.580000
368.052124	146.220000
368.145660	145.960000
368.239136	146.480000
368.332672	146.820000
368.426147	147.020000
368.519684	146.720000
368.613159	147.000000
368.706696	146.320000
368.800171	146.200000
368.893707	146.100000
368.987183	146.240000
369.080719	146.300000
369.174225	146.560000
369.267731	146.780000
369.361237	146.940000
369.454742	147.040000
369.548248	147.120000
369.641754	146.820000
369.735260	146.400000
369.828766	145.740000
369.922272	146.500000
370.015808	146.400000
370.109314	146.500000
370.202820	146.320000
370.296356	147.400000
370.389832	146.660000
370.483368	146.120000
370.576874	145.840000
370.670410	146.280000
370.763885	145.460000
370.857422	145.680000
370.950928	145.720000
371.044464	146.420000
371.137939	146.240000
371.231476	146.840000
371.324982	147.160000
371.418518	147.100000
371.512024	146.960000
371.605560	146.920000
371.699066	147.000000
371.792572	146.460000
371.886108	146.840000
371.979614	146.700000
372.073120	147.380000
372.166656	147.040000
372.260162	147.500000
372.353668	147.280000
372.447205	147.020000
372.540710	146.260000
372.634277	146.140000
372.727753	145.820000
372.821320	145.740000
372.914795	145.700000
373.008362	145.660000
373.101837	145.920000
373.195404	145.960000
373.288879	146.380000
373.382446	147.420000
373.475922	147.380000
373.569489	147.480000
373.662964	147.740000
373.756531	147.440000
373.850037	146.960000
373.943573	146.880000
374.037109	146.060000
374.130615	145.940000
374.224152	146.080000
374.317657	145.800000
374.411194	146.880000
374.504730	147.060000
374.598236	146.780000
374.691772	146.600000
374.785309	146.900000
374.878815	145.740000
374.972351	146.180000
375.065887	146.120000
375.159454	146.960000
375.252930	146.620000
375.346497	146.980000
375.440002	147.580000
375.533569	147.640000
375.627045	146.620000
375.720612	146.680000
375.814117	147.020000
375.907684	146.280000
376.001160	145.980000
376.094727	145.560000
376.188232	145.960000
376.281799	145.880000
376.375336	146.040000
376.468872	146.920000
376.562408	147.320000
376.655914	146.840000
376.749451	146.460000
376.842987	146.480000
376.936523	146.000000
377.030060	146.120000
377.123596	146.180000
377.217133	145.820000
377.310669	145.880000
377.404205	146.020000
377.497772	146.600000
377.591278	146.500000
377.684845	147.260000
377.778351	147.520000
377.871918	147.240000
377.965424	146.300000
378.058990	146.080000
378.152496	146.260000
378.246063	146.260000
378.339569	146.540000
378.433136	146.920000
378.526642	147.280000
378.620209	147.020000
378.713745	146.560000
378.807312	146.920000
378.900848	147.080000
378.994385	147.220000
379.087921	146.360000
379.181458	146.900000
379.274994	146.200000
379.368530	145.780000
379.462097	146.120000
379.555634	146.940000
379.649170	146.020000
379.742706	146.160000
379.836273	146.580000
379.929810	145.860000
380.023376	145.360000
380.116882	145.380000
380.210449	145.240000
380.303986	144.920000
380.397552	144.580000
380.491058	144.860000
380.584656	145.080000
380.678162	145.400000
380.771729	145.520000
380.865265	146.640000
380.958832	146.740000
381.052368	146.880000
381.145935	147.300000
381.239471	147.500000
381.333008	146.880000
381.426575	146.760000
381.520111	147.120000
381.613647	146.880000
381.707214	146.680000
381.800751	146.200000
381.894318	146.360000
381.987854	145.880000
382.081421	145.600000
382.174988	145.600000
382.268524	145.740000
382.362091	145.720000
382.455627	146.300000
382.549194	146.240000
382.642731	145.700000
382.736298	145.680000
382.829834	145.480000
382.923401	146.020000
383.016937	146.400000
383.110504	147.160000
383.204041	147.320000
383.297607	147.800000
383.391174	146.660000
383.484741	146.980000
383.578278	146.600000
383.671844	146.140000
383.765411	145.600000
383.858948	146.240000
383.952515	146.100000
384.046051	146.720000
384.139618	147.340000
384.233185	147.320000
384.326721	147.180000
384.420288	147.480000
384.513855	147.040000
384.607422	147.380000
384.700989	147.820000
384.794525	147.460000
384.888123	147.120000
384.981659	147.300000
385.075226	146.600000
385.168762	146.380000
385.262360	146.520000
385.355896	145.540000
385.449463	145.240000
385.542999	145.460000
385.636597	145.660000
385.730164	146.000000
385.823730	145.760000
385.917267	145.660000
386.010834	145.980000
386.104401	145.880000
386.197968	145.820000
386.291534	146.540000
386.385101	146.940000
386.478668	147.280000
386.572235	147.420000
386.665802	146.740000
386.759338	146.580000
386.852905	146.420000
386.946472	145.960000
387.040070	145.980000
387.133606	146.200000
387.227203	146.020000
387.320740	146.060000
387.414337	145.800000
387.507874	145.580000
387.601471	145.740000
387.695007	145.840000
387.788605	145.500000
387.882141	145.820000
387.975739	146.000000
388.069275	145.820000
388.162872	145.860000
388.256439	146.020000
388.350037	145.780000
388.443604	145.800000
388.537170	146.060000
388.630737	146.800000
388.724304	147.220000
388.817871	147.240000
388.911438	147.120000
389.005005	147.060000
389.098602	147.220000
389.192169	146.580000
389.285736	147.020000
389.379333	147.120000
389.472870	146.760000
389.566467	146.540000
389.660034	146.860000
389.753632	146.500000
389.847168	146.640000
389.940765	147.180000
390.034332	147.280000
390.127930	146.760000
390.221466	146.480000
390.315063	146.220000
390.408630	145.320000
390.502228	144.340000
390.595795	145.060000
390.689362	145.600000
390.782959	145.780000
390.876526	146.540000
390.970093	146.700000
391.063690	147.020000
391.157257	146.740000
391.250824	147.080000
391.344421	147.000000
391.437988	147.460000
391.531555	147.220000
391.625153	147.200000
391.718750	147.120000
391.812317	146.960000
391.905914	146.760000
391.999481	146.760000
392.093079	146.940000
392.186615	147.280000
392.280243	147.260000
392.373779	147.520000
392.467407	148.040000
392.560944	147.940000
392.654572	147.020000
392.748108	147.000000
392.841736	147.000000
392.935303	146.200000
393.028900	146.160000
393.122467	146.380000
393.216064	146.340000
393.309631	145.660000
393.403229	145.480000
393.496796	145.180000
393.590393	144.680000
393.683990	145.060000
393.777557	146.040000
393.871155	146.320000
393.964722	147.040000
394.058350	147.500000
394.151917	147.300000
394.245514	146.560000
394.339081	147.020000
394.432678	147.020000
394.526245	146.800000
394.619873	146.440000
394.713409	146.960000
394.807037	146.300000
394.900604	146.380000
394.994202	146.600000
395.087769	147.200000
395.181396	146.500000
395.274994	147.540000
395.368561	147.060000
395.462158	147.140000
395.555756	146.540000
395.649353	147.080000
395.742920	146.220000
395.836517	146.780000
395.930115	146.220000
396.023712	146.660000
396.117279	146.840000
396.210876	146.440000
396.304474	146.120000
396.398071	146.500000
396.491669	146.760000
396.585266	146.340000
396.678833	146.640000
396.772461	146.860000
396.866028	146.620000
396.959656	146.380000
397.053223	146.580000
397.146851	146.160000
397.240417	146.140000
397.334015	147.380000
397.427582	147.500000
397.521210	148.000000
397.614807	149.160000
397.708405	149.940000
397.802002	149.800000
397.895599	150.980000
397.989197	151.780000
398.082794	152.720000
398.176392	153.940000
398.269989	155.580000
398.363586	157.480000
398.457184	160.120000
398.550781	162.620000
398.644379	164.160000
398.737976	166.240000
398.831573	168.500000
398.925201	170.160000
399.018768	171.880000
399.112396	174.560000
399.205963	176.760000
399.299591	178.580000
399.393158	180.620000
399.486786	183.500000
399.580353	186.200000
399.673981	189.360000
399.767578	193.740000
399.861206	199.420000
399.954773	205.420000
400.048401	211.340000
400.141998	216.840000
400.235596	223.360000
400.329193	227.600000
400.422791	231.820000
400.516418	235.480000
400.610016	240.320000
400.703613	242.600000
400.797211	243.740000
400.890808	243.020000
400.984436	241.520000
401.078033	236.800000
401.171631	231.220000
401.265259	225.300000
401.358826	219.660000
401.452484	212.720000
401.546051	206.900000
401.639679	200.000000
401.733246	193.760000
401.826904	186.360000
401.920471	180.000000
402.014099	173.940000
402.107697	169.020000
402.201324	164.880000
402.294891	161.660000
402.388550	159.260000
402.482147	156.920000
402.575745	154.680000
402.669373	152.960000
402.762970	151.760000
402.856567	150.540000
402.950195	149.900000
403.043793	149.520000
403.137390	149.500000
403.231018	148.160000
403.324615	148.300000
403.418243	147.500000
403.511841	147.420000
403.605469	147.120000
403.699066	148.140000
403.792694	147.540000
403.886292	147.780000
403.979919	147.500000
404.073517	146.620000
404.167145	146.520000
404.260712	146.760000
404.354370	146.500000
404.447937	146.800000
404.541595	147.280000
404.635162	147.280000
404.728821	147.540000
404.822418	147.200000
404.916046	146.820000
405.009644	146.960000
405.103271	147.220000
405.196899	146.680000
405.290497	147.220000
405.384125	147.620000
405.477722	147.220000
405.571350	146.560000
405.664948	146.960000
405.758575	146.820000
405.852203	146.120000
405.945801	146.100000
406.039429	146.160000
406.133057	145.760000
406.226654	145.660000
406.320312	146.020000
406.413879	146.480000
406.507538	146.720000
406.601135	146.480000
406.694763	146.860000
406.788361	146.360000
406.882019	145.860000
406.975586	146.140000
407.069244	146.660000
407.162872	146.480000
407.256470	146.620000
407.350098	146.800000
407.443726	146.260000
407.537323	145.700000
407.630951	145.800000
407.724579	145.840000
407.818207	146.140000
407.911804	145.940000
408.005432	146.200000
408.099060	146.380000
408.192688	146.920000
408.286285	146.440000
408.379913	146.620000
408.473572	146.960000
408.567169	146.380000
408.660828	146.060000
408.754395	146.120000
408.848053	146.240000
408.941650	146.280000
409.035309	146.160000
409.128906	146.000000
409.222565	146.200000
409.316132	146.340000
409.409790	145.980000
409.503387	146.240000
409.597046	146.480000
409.690674	146.400000
409.784302	146.300000
409.877930	146.000000
409.971558	146.420000
410.065186	146.380000
410.158783	146.220000
410.252411	146.200000
410.346039	146.800000
410.439667	146.300000
410.533295	146.400000
410.626923	147.100000
410.720551	146.820000
410.814209	147.100000
410.907806	147.140000
411.001465	146.460000
411.095062	146.180000
411.188721	146.540000
411.282318	145.900000
411.375977	146.000000
411.469574	146.420000
411.563232	146.260000
411.656830	145.960000
411.750488	145.900000
411.844086	145.400000
411.937744	145.700000
412.031372	145.460000
412.125000	145.560000
412.218628	145.820000
412.312256	146.680000
412.405884	147.060000
412.499512	147.140000
412.593170	147.400000
412.686798	147.360000
412.780426	146.800000
412.874054	146.360000
412.967682	146.420000
413.061310	146.700000
413.154968	146.760000
413.248566	146.920000
413.342224	146.740000
413.435852	147.140000
413.529510	146.640000
413.623108	146.060000
413.716766	146.040000
413.810364	146.340000
413.904022	145.740000
413.997650	145.380000
414.091309	146.520000
414.184906	146.500000
414.278564	146.100000
414.372192	146.580000
414.465851	147.120000
414.559479	146.420000
414.653107	147.240000
414.746735	147.280000
414.840393	146.960000
414.934021	147.120000
415.027649	146.900000
415.121277	146.460000
415.214935	146.840000
415.308563	147.000000
415.402191	146.260000
415.495850	146.240000
415.589478	145.800000
415.683136	145.560000
415.776733	145.640000
415.870422	146.280000
415.964020	146.120000
416.057678	146.320000
416.151306	146.320000
416.244965	146.360000
416.338562	146.320000
416.432251	147.120000
416.525848	147.760000
416.619507	147.800000
416.713165	147.900000
416.806793	147.860000
416.900421	147.740000
416.994080	146.660000
417.087708	146.640000
417.181366	146.060000
417.274994	145.780000
417.368622	145.940000
417.462280	146.900000
417.555908	146.960000
417.649567	147.040000
417.743195	147.120000
417.836853	146.820000
417.930481	146.620000
418.024170	146.720000
418.117767	146.980000
418.211426	147.560000
418.305054	147.920000
418.398712	147.340000
418.492340	147.360000
418.585999	147.520000
418.679626	147.260000
418.773285	146.980000
418.866913	147.580000
418.960571	147.420000
419.054230	147.740000
419.147858	147.540000
419.241516	147.720000
419.335144	147.060000
419.428802	147.380000
419.522461	146.720000
419.616089	146.360000
419.709747	146.340000
419.803375	146.760000
419.897034	146.320000
419.990662	146.460000
420.084320	146.980000
420.177979	146.940000
420.271606	147.080000
420.365295	147.560000
420.458893	147.780000
420.552582	147.900000
420.646210	147.820000
420.739868	147.320000
420.833496	146.740000
420.927155	146.400000
421.020782	146.180000
421.114471	145.560000
421.208069	145.980000
421.301758	146.440000
421.395386	146.480000
421.489044	146.380000
421.582703	146.540000
421.676361	147.040000
421.769989	146.740000
421.863647	147.220000
421.957306	147.260000
422.050934	147.960000
422.144592	147.480000
422.238251	147.180000
422.331909	146.700000
422.425537	146.820000
422.519196	146.300000
422.612854	145.760000
422.706543	145.660000
422.800140	146.060000
422.893829	145.460000
422.987457	145.420000
423.081146	145.580000
423.174744	146.360000
423.268433	145.960000
423.362061	146.220000
423.455750	145.960000
423.549347	146.200000
423.643036	145.200000
423.736664	145.740000
423.830353	145.760000
423.924011	146.520000
424.017639	146.020000
424.111298	146.440000
424.204956	146.120000
424.298615	146.260000
424.392273	145.900000
424.485931	146.160000
424.579559	146.200000
424.673218	146.180000
424.766876	146.140000
424.860535	145.580000
424.954193	145.400000
425.047882	145.820000
425.141510	145.720000
425.235199	145.560000
425.328796	145.840000
425.422485	145.820000
425.516113	145.020000
425.609802	144.940000
425.703430	145.260000
425.797119	145.100000
425.890747	145.340000
425.984436	145.620000
426.078064	145.980000
426.171753	146.020000
426.265411	146.140000
426.359070	146.480000
426.452728	146.540000
426.546356	146.160000
426.640015	145.960000
426.733673	146.060000
426.827332	145.540000
426.920990	146.240000
427.014648	145.940000
427.108307	146.320000
427.201965	147.080000
427.295624	147.280000
427.389282	146.300000
427.482941	146.820000
427.576630	146.500000
427.670258	145.280000
427.763947	145.160000
427.857574	145.580000
427.951263	145.420000
428.044922	145.340000
428.138611	145.920000
428.232239	146.440000
428.325928	146.720000
428.419556	147.080000
428.513245	146.960000
428.606903	147.000000
428.700562	146.400000
428.794220	145.700000
428.887878	145.120000
428.981537	145.420000
429.075195	145.340000
429.168854	146.040000
429.262512	146.300000
429.356201	146.720000
429.449860	146.660000
429.543518	146.580000
429.637177	146.460000
429.730835	146.540000
429.824493	145.940000
429.918182	145.900000
430.011810	145.560000
430.105530	145.280000
430.199158	145.500000
430.292847	145.880000
430.386475	145.680000
430.480164	145.900000
430.573792	145.620000
430.667511	145.460000
430.761139	145.540000
430.854828	146.120000
430.948456	146.220000
431.042145	146.700000
431.135834	146.520000
431.229492	146.360000
431.323151	146.080000
431.416809	146.220000
431.510468	146.180000
431.604156	146.000000
431.697815	146.060000
431.791473	145.560000
431.885132	145.100000
431.978821	145.540000
432.072479	146.140000
432.166138	146.700000
432.259827	146.920000
432.353485	147.260000
432.447174	147.160000
432.540802	146.840000
432.634491	146.480000
432.728149	146.820000
432.821838	147.200000
432.915466	146.440000
433.009186	146.500000
433.102814	146.040000
433.196503	145.700000
433.290131	145.520000
433.383850	146.160000
433.477509	146.400000
433.571167	147.420000
433.664856	147.760000
433.758514	148.160000
433.852173	147.700000
433.945862	147.220000
434.039520	146.840000
434.133179	146.520000
434.226868	145.860000
434.320526	145.520000
434.414185	146.600000
434.507874	146.200000
434.601562	146.560000
434.695221	146.380000
434.788910	146.980000
434.882538	146.200000
434.976257	146.000000
435.069885	146.000000
435.163574	146.600000
435.257233	146.100000
435.350922	146.420000
435.444580	146.260000
435.538269	145.980000
435.631897	146.280000
435.725616	147.140000
435.819275	147.100000
435.912964	147.760000
436.006622	148.080000
436.100311	147.720000
436.193970	146.700000
436.287628	146.520000
436.381317	146.220000
436.474976	145.800000
436.568665	145.200000
436.662323	145.500000
436.756012	145.420000
436.849670	145.120000
436.943390	145.200000
437.037018	145.220000
437.130737	145.280000
437.224365	144.960000
437.318085	145.540000
437.411713	145.760000
437.505432	146.420000
437.599060	146.960000
437.692780	147.800000
437.786407	147.620000
437.880127	147.600000
437.973755	147.360000
438.067474	146.920000
438.161133	146.540000
438.254822	146.620000
438.348480	146.440000
438.442169	147.000000
438.535828	147.300000
438.629517	146.940000
438.723175	146.520000
438.816864	146.700000
438.910553	145.920000
439.004211	145.540000
439.097900	145.360000
439.191559	145.540000
439.285248	145.160000
439.378906	145.420000
439.472626	145.380000
439.566284	145.520000
439.659973	145.980000
439.753632	145.920000
439.847321	146.200000
439.940979	146.080000
440.034698	146.160000
440.128326	145.680000
440.222046	145.740000
440.315674	145.100000
440.409393	145.760000
440.503082	145.900000
440.596741	146.040000
440.690430	146.340000
440.784088	146.180000
440.877777	145.420000
440.971466	145.740000
441.065125	145.440000
441.158813	145.240000
441.252502	145.680000
441.346161	145.940000
441.439850	145.880000
441.533539	145.820000
441.627197	146.080000
441.720886	145.820000
441.814606	146.300000
441.908234	146.420000
442.001953	146.660000
442.095612	146.780000
442.189301	147.000000
442.282959	146.800000
442.376678	146.120000
442.470306	146.740000
442.564026	146.500000
442.657684	146.760000
442.751404	146.740000
442.845032	147.660000
442.938751	146.900000
443.032440	147.040000
443.126099	146.560000
443.219788	146.960000
443.313477	146.520000
443.407166	146.900000
443.500824	146.960000
443.594513	147.560000
443.688202	147.200000
443.781891	146.760000
443.875549	146.140000
443.969238	146.120000
444.062927	145.740000
444.156647	145.580000
444.250275	146.460000
444.343994	146.920000
444.437653	146.840000
444.531372	146.960000
444.625031	147.160000
444.718719	146.460000
444.812378	146.480000
444.906097	146.500000
444.999756	146.040000
445.093445	145.920000
445.187103	146.040000
445.280823	146.280000
445.374512	145.880000
445.468201	146.080000
445.561859	145.940000
445.655548	146.100000
445.749237	145.760000
445.842926	146.100000
445.936615	146.580000
446.030304	146.360000
446.123962	146.460000
446.217651	146.000000
446.311340	145.880000
446.405029	145.240000
446.498749	145.280000
446.592407	144.840000
446.686096	145.480000
446.779755	145.500000
446.873474	146.080000
446.967133	146.320000
447.060852	146.100000
447.154510	145.780000
447.248230	145.740000
447.341858	145.360000
447.435577	144.760000
447.529236	144.760000
447.622955	144.940000
447.716644	145.120000
447.810333	145.520000
447.904022	146.080000
447.997711	146.400000
448.091400	146.660000
448.185059	146.480000
448.278748	146.520000
448.372437	146.640000
448.466125	146.680000
448.559814	146.460000
448.653503	146.840000
448.747192	146.840000
448.840912	146.880000
448.934570	146.860000
449.028290	147.020000
449.121948	146.680000
449.215637	146.240000
449.309296	145.600000
449.403015	145.740000
449.496674	145.720000
449.590393	145.900000
449.684052	145.460000
449.777771	146.380000
449.871429	145.720000
449.965149	145.480000
450.058838	145.200000
450.152527	146.040000
450.246216	145.640000
450.339905	146.060000
450.433594	145.920000
450.527283	146.700000
450.620972	146.160000
450.714661	146.300000
450.808350	146.500000
450.902039	146.700000
450.995728	146.120000
451.089417	146.020000
451.183105	146.100000
451.276794	146.420000
451.370514	145.960000
451.464172	145.440000
451.557892	145.600000
451.651550	145.720000
451.745270	144.880000
451.838928	144.740000
451.932648	145.420000
452.026306	145.760000
452.120026	145.140000
452.213684	145.940000
452.307404	146.340000
452.401062	146.260000
452.494781	146.360000
452.588470	146.520000
452.682159	145.920000
452.775848	146.000000
452.869537	145.480000
452.963226	145.160000
453.056915	145.260000
453.150604	145.500000
453.244293	146.020000
453.337982	146.940000
453.431671	147.380000
453.525360	147.600000
453.619049	147.560000
453.712769	147.220000
453.806427	146.420000
453.900146	146.060000
453.993805	146.140000
454.087555	146.560000
454.181213	146.740000
454.274933	146.740000
454.368591	146.640000
454.462311	146.180000
454.555969	145.900000
454.649689	146.520000
454.743347	146.420000
454.837067	147.420000
454.930756	148.080000
455.024445	148.040000
455.118134	147.320000
455.211853	147.760000
455.305542	146.900000
455.399231	146.500000
455.492920	146.420000
455.586609	146.700000
455.680298	146.800000
455.773987	146.580000
455.867676	146.580000
455.961365	146.700000
456.055084	146.100000
456.148773	145.760000
456.242493	145.840000
456.336151	145.700000
456.429871	146.220000
456.523529	146.780000
456.617249	146.600000
456.710907	147.160000
456.804626	147.020000
456.898315	146.180000
456.992035	145.680000
457.085693	145.780000
457.179413	145.100000
457.273102	146.140000
457.366791	146.460000
457.460480	146.920000
457.554199	147.940000
457.647888	148.100000
457.741577	147.400000
457.835266	147.200000
457.928955	147.140000
458.022644	146.680000
458.116364	147.180000
458.210052	147.200000
458.303741	147.560000
458.397461	147.040000
458.491119	146.560000
458.584839	146.540000
458.678528	146.240000
458.772247	145.800000
458.865906	146.120000
458.959625	147.120000
459.053284	146.880000
459.147003	146.740000
459.240692	147.400000
459.334412	147.380000
459.428070	146.760000
459.521790	146.500000
459.615479	146.500000
459.709198	146.800000
459.802887	146.420000
459.896576	145.760000
459.990265	145.920000
460.083954	146.240000
460.177673	145.360000
460.271362	145.720000
460.365051	145.920000
460.458740	145.520000
460.552429	144.880000
460.646149	144.740000
460.739838	144.520000
460.833527	144.760000
460.927246	144.660000
461.020905	144.840000
461.114655	145.140000
461.208313	145.480000
461.302032	144.980000
461.395691	145.280000
461.489441	145.700000
461.583099	145.260000
461.676819	144.800000
461.770477	145.440000
461.864197	145.140000
461.957916	145.000000
462.051605	144.880000
462.145294	146.020000
462.238983	145.340000
462.332703	146.060000
462.426392	146.200000
462.520081	146.440000
462.613770	145.840000
462.707489	146.460000
462.801178	145.900000
462.894867	145.880000
462.988556	145.980000
463.082275	145.800000
463.175964	145.340000
463.269684	145.920000
463.363342	145.800000
463.457092	145.220000
463.550751	145.560000
463.644470	145.800000
463.738129	145.180000
463.831879	145.560000
463.925537	146.580000
464.019257	146.420000
464.112946	146.760000
464.206665	146.820000
464.300323	146.560000
464.394043	146.240000
464.487762	146.180000
464.581451	146.220000
464.675140	146.340000
464.768829	146.420000
464.862549	146.580000
464.956238	146.800000
465.049927	146.560000
465.143646	146.640000
465.237335	146.680000
465.331024	146.980000
465.424713	146.760000
465.518433	146.860000
465.612152	146.680000
465.705811	146.620000
465.799561	146.160000
465.893219	146.080000
465.986938	145.980000
466.080597	145.700000
466.174347	145.880000
466.268005	146.180000
466.361725	146.280000
466.455414	146.320000
466.549133	146.680000
466.642792	146.860000
466.736542	146.220000
466.830231	146.140000
466.923920	146.180000
467.017609	146.140000
467.111328	145.600000
467.205017	145.840000
467.298706	145.800000
467.392426	145.780000
467.486115	146.180000
467.579803	146.100000
467.673523	146.580000
467.767212	146.660000
467.860901	146.620000
467.954651	146.740000
468.048309	146.900000
468.142029	146.520000
468.235718	146.480000
468.329437	146.320000
468.423096	145.780000
468.516846	145.600000
468.610504	145.380000
468.704224	145.040000
468.797913	144.920000
468.891632	145.100000
468.985291	145.260000
469.079010	145.580000
469.172729	145.540000
469.266418	146.120000
469.360107	145.960000
469.453827	145.540000
469.547516	145.280000
469.641205	145.580000
469.734924	145.520000
469.828613	146.120000
469.922302	146.780000
470.016022	147.100000
470.109711	146.920000
470.203430	146.040000
470.297150	145.160000
470.390808	145.100000
470.484558	144.740000
470.578217	145.440000
470.671936	146.460000
470.765625	147.420000
470.859344	147.100000
470.953003	147.400000
471.046753	146.960000
471.140411	146.080000
471.234131	146.140000
471.327820	146.640000
471.421539	146.820000
471.515228	146.560000
471.608948	146.920000
471.702637	145.920000
471.796326	145.680000
471.890045	145.700000
471.983734	145.960000
472.077423	145.860000
472.171143	146.520000
472.264832	146.400000
472.358521	145.820000
472.452240	145.180000
472.545929	145.560000
472.639648	145.560000
472.733337	146.000000
472.827057	146.620000
472.920746	146.980000
473.014465	147.380000
473.108124	147.320000
473.201874	147.120000
473.295532	146.680000
473.389252	147.240000
473.482941	147.100000
473.576660	146.800000
473.670319	146.420000
473.764069	146.580000
473.857727	146.380000
473.951477	146.420000
474.045166	147.060000
474.138855	147.240000
474.232574	147.120000
474.326263	147.160000
474.419952	147.140000
474.513672	146.740000
474.607361	146.600000
474.701050	146.940000
474.794769	147.040000
474.888458	147.320000
474.982178	147.320000
475.075867	147.580000
475.169586	147.380000
475.263275	147.140000
475.356995	146.680000
475.450653	146.680000
475.544403	146.200000
475.638062	147.180000
475.731812	146.960000
475.825470	146.620000
475.919189	146.960000
476.012878	147.380000
476.106598	146.300000
476.200256	146.740000
476.294006	146.860000
476.387695	146.560000
476.481384	146.500000
476.575104	146.560000
476.668793	145.900000
476.762512	145.700000
476.856201	146.120000
476.949890	145.840000
477.043610	145.340000
477.137299	145.600000
477.230988	146.000000
477.324707	145.520000
477.418396	146.000000
477.512146	146.240000
477.605804	146.060000
477.699524	146.020000
477.793213	146.020000
477.886932	145.880000
477.980591	146.000000
478.074341	145.940000
478.167999	145.680000
478.261749	145.700000
478.355408	145.520000
478.449127	145.820000
478.542816	146.860000
478.636536	147.600000
478.730225	147.920000
478.823944	148.500000
478.917633	148.380000
479.011322	148.340000
479.105042	147.720000
479.198730	147.580000
479.292450	147.020000
479.386139	147.040000
479.479828	146.660000
479.573547	147.040000
479.667267	147.040000
479.760925	146.980000
479.854675	147.100000
479.948334	147.100000
480.042084	146.680000
480.135742	146.800000
480.229462	146.420000
480.323151	146.260000
480.416870	145.620000
480.510529	145.580000
480.604279	145.020000
480.697937	145.720000
480.791656	145.340000
480.885345	145.380000
480.979065	145.200000
481.072754	145.880000
481.166473	146.220000
481.260132	146.480000
481.353882	146.840000
481.447540	146.760000
481.541260	146.540000
481.635010	145.880000
481.728668	146.240000
481.822388	146.340000
481.916077	146.760000
482.009796	146.940000
482.103485	147.500000
482.197205	147.320000
482.290863	147.180000
482.384613	147.180000
482.478271	146.400000
482.571991	146.140000
482.665680	146.180000
482.759399	146.920000
482.853058	147.100000
482.946808	147.440000
483.040466	147.360000
483.134216	147.140000
483.227875	146.260000
483.321594	146.640000
483.415283	146.960000
483.509003	146.860000
483.602661	146.720000
483.696411	147.340000
483.790070	146.700000
483.883789	146.560000
483.977478	146.880000
484.071198	147.020000
484.164917	146.440000
484.258606	146.120000
484.352325	146.400000
484.445984	146.040000
484.539734	145.960000
484.633392	145.660000
484.727142	146.280000
484.820801	145.700000
484.914520	145.920000
485.008209	146.180000
485.101929	147.080000
485.195587	146.660000
485.289337	146.840000
485.382996	146.680000
485.476715	146.900000
485.570404	146.880000
485.664124	147.160000
485.757782	147.300000
485.851532	146.800000
485.945190	146.380000
486.038910	146.060000
486.132599	146.260000
486.226318	145.900000
486.319977	146.240000
486.413727	146.840000
486.507446	146.860000
486.601105	146.240000
486.694855	146.020000
486.788513	146.040000
486.882233	145.520000
486.975922	145.320000
487.069641	145.340000
487.163300	145.500000
487.257050	146.620000
487.350708	146.480000
487.444427	146.420000
487.538116	146.440000
487.631836	146.600000
487.725494	145.680000
487.819214	146.020000
487.912903	145.980000
488.006622	146.200000
488.100281	146.440000
488.194031	146.560000
488.287689	146.700000
488.381409	147.440000
488.475098	147.480000
488.568817	147.720000
488.662476	147.260000
488.756226	146.740000
488.849945	145.440000
488.943604	145.520000
489.037354	145.280000
489.131012	145.600000
489.224731	145.480000
489.318390	145.900000
489.412140	145.560000
489.505798	145.420000
489.599518	145.260000
489.693207	145.660000
489.786926	145.460000
489.880585	145.640000
489.974335	146.000000
490.067993	146.980000
490.161713	147.180000
490.255371	148.360000
490.349121	148.500000
490.442780	148.040000
490.536499	147.140000
490.630188	146.960000
490.723907	145.960000
490.817566	145.980000
490.911285	146.080000
491.004974	145.860000
491.098694	145.560000
491.192413	146.380000
491.286102	146.220000
491.379822	146.300000
491.473480	146.380000
491.567200	146.700000
491.660889	146.160000
491.754608	146.160000
491.848267	146.000000
491.941986	146.480000
492.035675	146.100000
492.129395	146.300000
492.223053	146.120000
492.316772	146.300000
492.410461	145.980000
492.504181	146.140000
492.597839	145.860000
492.691559	146.180000
492.785248	146.180000
492.878967	146.140000
492.972626	145.880000
493.066345	146.000000
493.160034	145.560000
493.253754	145.460000
493.347412	145.120000
493.441132	145.240000
493.534882	145.680000
493.628540	146.100000
493.722260	146.360000
493.815918	146.800000
493.909668	147.660000
494.003326	147.800000
494.097046	147.700000
494.190704	147.520000
494.284454	147.540000
494.378113	147.260000
494.471832	146.680000
494.565491	146.340000
494.659210	146.440000
494.752899	146.280000
494.846619	145.900000
494.940277	146.360000
495.033997	146.600000
495.127686	146.320000
495.221405	146.140000
495.315063	146.160000
495.408783	145.640000
495.502441	145.580000
495.596191	145.840000
495.689850	146.000000
495.783569	146.520000
495.877228	147.020000
495.970947	146.880000
496.064697	146.880000
496.158356	147.440000
496.252075	147.260000
496.345734	146.920000
496.439453	147.920000
496.533142	147.700000
496.626862	147.880000
496.720520	147.700000
496.814240	147.920000
496.907898	147.380000
497.001617	147.780000
497.095306	146.940000
497.189026	147.020000
497.282684	146.700000
497.376404	146.780000
497.470062	146.120000
497.563782	146.500000
497.657471	146.360000
497.751190	146.240000
497.844849	145.920000
497.938568	146.580000
498.032227	146.600000
498.125946	146.500000
498.219635	146.480000
498.313354	146.600000
498.407074	146.080000
498.500732	146.120000
498.594452	146.220000
498.688110	146.020000
498.781830	145.840000
498.875519	145.960000
498.969238	145.360000
499.062897	145.340000
499.156616	146.060000
499.250275	146.280000
499.343994	145.980000
499.437653	146.240000
499.531372	146.380000
499.625061	146.720000
499.718781	146.860000
499.812439	147.520000
499.906158	147.660000
499.999817	147.440000
500.093536	146.840000
500.187195	146.720000
500.280914	146.460000
500.374573	146.560000
500.468323	146.080000
500.561981	146.200000
500.655701	145.800000
500.749420	145.540000
500.843079	145.660000
500.936798	146.220000
501.030457	146.460000
501.124176	146.840000
501.217834	147.120000
501.311554	147.020000
501.405212	146.780000
501.498962	145.880000
501.592621	145.640000
501.686340	145.820000
501.779999	145.900000
501.873718	146.100000
501.967377	146.880000
502.061096	147.320000
502.154755	146.760000
502.248474	146.760000
502.342133	146.720000
502.435852	146.460000
502.529510	146.940000
502.623230	147.700000
502.716888	146.860000
502.810608	147.100000
502.904266	147.360000
502.997986	146.660000
503.091705	145.880000
503.185364	146.320000
503.279083	146.020000
503.372772	145.960000
503.466492	145.600000
503.560150	145.700000
503.653870	146.020000
503.747528	145.880000
503.841248	145.600000
503.934906	146.060000
504.028625	146.080000
504.122284	146.280000
504.216003	146.840000
504.309662	146.620000
504.403381	146.720000
504.497040	146.760000
504.590759	146.320000
504.684418	146.460000
504.778137	147.200000
504.871796	147.380000
504.965515	147.280000
505.059174	147.440000
505.152893	146.740000
505.246521	145.980000
505.340240	145.480000
505.433899	145.580000
505.527618	145.520000
505.621338	146.180000
505.714996	146.060000
505.808716	146.140000
505.902374	146.640000
505.996094	146.560000
506.089752	146.060000
506.183472	146.460000
506.277130	146.740000
506.370850	146.500000
506.464508	146.520000
506.558228	146.660000
506.651886	146.500000
506.745605	146.460000
506.839264	146.500000
506.932983	146.620000
507.026611	146.480000
507.120331	146.900000
507.213989	146.280000
507.307709	146.200000
507.401367	146.660000
507.495087	147.440000
507.588745	146.820000
507.682465	147.560000
507.776123	147.600000
507.869843	147.000000
507.963531	146.460000
508.057190	147.540000
508.150909	146.920000
508.244568	146.840000
508.338287	146.600000
508.431946	146.440000
508.525665	145.540000
508.619324	145.600000
508.713013	145.800000
508.806671	146.540000
508.900391	147.200000
508.994049	147.700000
509.087769	147.360000
509.181427	147.660000
509.275146	147.260000
509.368774	146.540000
509.462494	145.960000
509.556152	146.300000
509.649872	146.040000
509.743530	146.020000
509.837250	146.260000
509.930878	146.600000
510.024597	146.780000
510.118256	146.580000
510.211975	146.680000
510.305695	146.480000
510.399353	146.860000
510.493042	147.320000
510.586700	147.440000
510.680420	147.600000
510.774078	147.720000
510.867798	147.460000
510.961426	146.660000
511.055145	146.600000
511.148804	146.500000
511.242523	146.800000
511.336151	146.640000
511.429871	147.320000
511.523529	147.080000
511.617249	146.680000
511.710876	146.300000
511.804596	146.200000
511.898254	145.760000
511.991974	146.140000
512.085632	146.080000
512.179321	146.160000
512.272949	146.400000
512.366699	146.640000
512.460327	146.460000
512.554077	147.260000
512.647766	147.260000
512.741394	147.160000
512.835144	147.740000
512.928772	147.380000
513.022461	147.160000
513.116150	146.860000
513.209839	147.280000
513.303467	146.080000
513.397217	146.180000
513.490845	146.120000
513.584595	145.900000
513.678223	145.680000
513.771912	145.400000
513.865601	145.620000
513.959290	145.180000
514.052917	145.600000
514.146667	146.000000
514.240295	146.860000
514.333984	147.180000
514.427673	147.040000
514.521362	147.400000
514.614990	146.540000
514.708740	146.440000
514.802368	146.260000
514.896057	146.540000
514.989746	146.540000
515.083435	146.440000
515.177124	146.760000
515.270752	146.540000
515.364502	146.580000
515.458130	146.560000
515.551819	146.600000
515.645508	146.340000
515.739197	146.380000
515.832825	146.280000
515.926575	146.080000
516.020203	146.600000
516.113892	146.700000
516.207520	146.560000
516.301270	146.960000
516.394897	146.920000
516.488586	147.200000
516.582275	147.240000
516.675964	146.460000
516.769592	146.200000
516.863281	146.760000
516.956970	146.840000
517.050659	146.740000
517.144287	147.640000
517.238037	147.860000
517.331665	147.180000
517.425354	146.460000
517.519043	145.940000
517.612732	146.180000
517.706421	145.980000
517.800049	145.940000
517.893738	145.860000
517.987427	146.140000
518.081116	145.820000
518.174744	145.600000
518.268433	146.200000
518.362122	146.600000
518.455811	146.480000
518.549438	147.180000
518.643127	148.080000
518.736816	147.580000
518.830505	147.240000
518.924133	147.420000
519.017822	147.240000
519.111511	146.820000
519.205200	147.380000
519.298828	147.320000
519.392517	147.020000
519.486206	147.040000
519.579895	146.940000
519.673523	146.320000
519.767212	146.700000
519.860901	147.120000
519.954590	146.600000
520.048279	146.060000
520.141907	146.120000
520.235596	146.680000
520.329224	146.840000
520.422974	146.860000
520.516602	147.060000
520.610291	146.940000
520.703918	146.480000
520.797607	146.040000
520.891296	145.860000
520.984985	146.140000
521.078613	146.820000
521.172302	146.260000
521.265930	147.080000
521.359680	147.860000
521.453308	147.700000
521.546997	147.440000
521.640625	147.740000
521.734314	147.360000
521.827942	147.020000
521.921692	147.320000
522.015320	147.220000
522.109009	146.940000
522.202698	146.640000
522.296326	146.700000
522.390015	146.900000
522.483704	146.780000
522.577393	146.500000
522.671021	146.240000
522.764709	145.500000
522.858337	145.540000
522.952026	145.480000
523.045654	146.540000
523.139404	147.340000
523.233032	147.880000
523.326721	147.320000
523.420349	147.520000
523.514038	147.040000
523.607666	147.140000
523.701355	146.700000
523.795044	146.640000
523.888733	146.840000
523.982361	146.580000
524.076050	145.960000
524.169678	146.580000
524.263367	146.420000
524.356995	145.820000
524.450684	145.960000
524.544373	145.840000
524.638062	145.560000
524.731750	145.780000
524.825378	145.880000
524.919067	145.300000
525.012695	145.400000
525.106384	145.380000
525.200012	145.560000
525.293701	145.320000
525.387329	146.000000
525.481018	146.300000
525.574646	146.560000
525.668396	146.860000
525.762024	147.280000
525.855713	147.660000
525.949341	147.000000
526.043030	147.180000
526.136658	146.700000
526.230347	146.420000
526.323975	145.900000
526.417664	146.320000
526.511292	146.080000
526.604980	146.280000
526.698608	146.580000
526.792297	146.800000
526.885925	146.880000
526.979614	147.060000
527.073303	146.800000
527.166931	146.680000
527.260620	146.620000
527.354309	146.920000
527.447998	146.940000
527.541626	146.860000
527.635315	146.680000
527.728943	147.200000
527.822632	147.280000
527.916260	146.900000
528.009949	147.400000
528.103577	147.360000
528.197266	146.500000
528.290894	146.400000
528.384583	146.420000
528.478210	146.160000
528.571899	146.640000
528.665527	147.320000
528.759216	147.260000
528.852844	147.740000
528.946533	147.780000
529.040161	147.460000
529.133850	146.920000
529.227478	147.060000
529.321167	147.160000
529.414856	147.420000
529.508484	147.800000
529.602173	147.680000
529.695801	147.540000
529.789490	147.160000
529.883057	146.760000
529.976746	146.980000
530.070374	147.300000
530.164062	147.040000
530.257690	147.260000
530.351379	147.400000
530.445007	146.760000
530.538696	146.280000
530.632324	146.540000
530.726013	146.380000
530.819641	146.200000
530.913330	146.660000
531.006958	146.760000
531.100647	146.800000
531.194275	146.800000
531.287964	146.460000
531.381592	146.120000
531.475220	146.340000
531.568848	146.120000
531.662537	145.620000
531.756226	146.460000
531.849854	146.120000
531.943542	146.200000
532.037170	145.860000
532.130859	146.600000
532.224487	146.120000
532.318176	146.240000
532.411804	146.600000
532.505432	147.020000
532.599060	146.360000
532.692749	146.100000
532.786377	146.660000
532.880066	145.960000
532.973694	145.140000
533.067383	145.140000
533.161011	145.380000
533.254639	144.800000
533.348267	144.840000
533.441956	145.540000
533.535583	145.580000
533.629272	145.740000
533.722900	145.220000
533.816589	145.560000
533.910156	145.740000
534.003845	145.680000
534.097534	145.740000
534.191162	146.640000
534.284851	146.780000
534.378479	146.440000
534.472107	146.480000
534.565735	146.320000
534.659424	146.660000
534.753052	146.580000
534.846741	146.480000
534.940369	147.160000
535.033997	147.080000
535.127625	146.940000
535.221313	147.240000
535.314941	147.180000
535.408630	146.240000
535.502197	146.680000
535.595886	146.060000
535.689514	145.520000
535.783203	146.040000
535.876831	146.560000
535.970459	146.280000
536.064087	146.260000
536.157776	146.100000
536.251404	145.920000
536.345093	145.840000
536.438721	145.920000
536.532349	146.420000
536.626038	146.400000
536.719666	146.520000
536.813293	146.000000
536.906921	145.740000
537.000610	145.520000
537.094238	145.880000
537.187866	145.740000
537.281494	145.980000
537.375183	146.440000
537.468811	146.240000
537.562439	146.180000
537.656067	146.200000
537.749756	146.320000
537.843384	146.300000
537.937012	146.560000
538.030640	146.360000
538.124329	146.180000
538.217896	146.480000
538.311584	146.380000
538.405212	146.280000
538.498901	146.600000
538.592468	147.180000
538.686157	146.720000
538.779785	146.340000
538.873413	146.260000
538.967102	146.000000
539.060730	145.420000
539.154358	145.880000
539.247986	146.380000
539.341675	146.340000
539.435242	146.300000
539.528931	146.700000
539.622559	146.280000
539.716187	146.700000
539.809814	146.920000
539.903503	146.960000
539.997070	146.580000
540.090759	146.660000
540.184387	146.080000
540.278015	146.420000
540.371643	146.740000
540.465332	146.900000
540.558899	146.980000
540.652588	147.040000
540.746216	146.480000
540.839844	146.580000
540.933472	146.700000
541.027100	146.840000
541.120728	146.960000
541.214417	147.580000
541.308044	147.900000
541.401672	147.620000
541.495300	147.300000
541.588928	147.120000
541.682617	146.520000
541.776184	145.740000
541.869873	146.140000
541.963440	146.360000
542.057129	146.340000
542.150757	146.660000
542.244385	146.360000
542.338013	145.880000
542.431641	145.840000
542.525269	145.780000
542.618958	145.720000
542.712524	146.420000
542.806213	146.220000
542.899780	146.640000
542.993469	146.440000
543.087036	146.120000
543.180725	145.540000
543.274292	146.320000
543.367981	146.240000
543.461548	146.680000
543.555237	146.720000
543.648926	147.240000
543.742493	147.500000
543.836182	147.440000
543.929749	147.420000
544.023437	147.720000
544.117004	147.800000
544.210693	147.440000
544.304260	147.380000
544.397949	147.260000
544.491516	147.560000
544.585205	147.420000
544.678772	147.060000
544.772461	147.520000
544.866028	146.920000
544.959717	146.640000
545.053284	146.260000
545.146973	146.880000
545.240540	146.420000
545.334229	147.380000
545.427795	147.460000
545.521423	147.880000
545.615051	147.520000
545.708679	147.720000
545.802307	147.560000
545.895935	147.620000
545.989624	147.940000
546.083191	147.700000
546.176880	147.500000
546.270447	147.200000
546.364136	147.600000
546.457703	147.120000
546.551331	147.180000
546.644958	147.320000
546.738586	147.400000
546.832214	146.820000
546.925842	146.740000
547.019409	146.660000
547.113098	146.220000
547.206665	145.840000
547.300354	145.920000
547.393921	146.160000
547.487549	146.700000
547.581177	146.520000
547.674805	146.600000
547.768433	146.000000
547.862061	145.820000
547.955627	145.200000
548.049316	145.680000
548.142883	145.840000
548.236572	146.480000
548.330139	146.720000
548.423767	146.760000
548.517456	146.720000
548.611023	147.080000
548.704651	146.520000
548.798279	146.720000
548.891907	147.380000
548.985474	147.100000
549.079163	146.900000
549.172729	146.900000
549.266357	146.220000
549.359985	145.880000
549.453613	145.560000
549.547180	145.420000
549.640869	146.360000
549.734436	146.400000
549.828064	146.600000
549.921631	147.020000
550.015320	146.940000
550.108887	146.640000
550.202515	146.880000
550.296143	146.540000
550.389771	146.940000
550.483337	146.980000
550.576965	146.520000
550.670593	146.960000
550.764221	146.900000
550.857849	146.300000
550.951477	145.920000
551.045105	145.840000
551.138672	145.560000
551.232300	145.140000
551.325928	145.600000
551.419556	146.060000
551.513123	146.300000
551.606750	146.060000
551.700378	146.360000
551.794006	146.100000
551.887573	145.840000
551.981201	146.160000
552.074768	146.080000
552.168457	145.940000
552.262024	146.900000
552.355652	147.000000
552.449219	147.300000
552.542847	147.480000
552.636475	147.540000
552.730103	146.340000
552.823669	146.080000
552.917297	145.500000
553.010864	145.480000
553.104553	145.620000
553.198181	145.580000
553.291748	146.440000
553.385376	146.620000
553.478943	146.400000
553.572571	146.520000
553.666199	146.880000
553.759827	146.140000
553.853394	145.640000
553.947021	145.800000
554.040588	145.680000
554.134216	145.540000
554.227783	146.520000
554.321411	147.440000
554.415039	146.840000
554.508667	146.680000
554.602234	147.100000
554.695862	146.120000
554.789429	145.880000
554.883057	146.400000
554.976624	146.500000
555.070251	146.280000
555.163818	146.260000
555.257507	146.020000
555.351074	146.060000
555.444702	147.320000
555.538330	147.060000
555.631897	147.560000
555.725525	147.580000
555.819092	147.580000
555.912720	146.240000
556.006287	146.720000
556.099915	146.280000
556.193481	146.340000
556.287109	146.680000
556.380676	146.500000
556.474304	146.580000
556.567871	146.880000
556.661499	146.240000
556.755066	146.100000
556.848694	146.580000
556.942261	146.440000
557.035889	146.680000
557.129517	147.100000
557.223145	147.400000
557.316711	147.340000
557.410339	147.160000
557.503906	146.800000
557.597473	147.040000
557.691040	146.780000
557.784668	146.840000
557.878296	147.120000
557.971863	147.260000
558.065491	147.420000
558.159058	146.960000
558.252686	147.660000
558.346252	148.240000
558.439880	147.820000
558.533447	147.080000
558.627075	147.140000
558.720642	146.420000
558.814270	145.620000
558.907837	146.020000
559.001465	145.940000
559.095032	146.620000
559.188660	146.920000
559.282227	146.720000
559.375854	147.160000
559.469360	147.180000
559.562988	147.140000
559.656555	146.780000
559.750183	147.100000
559.843750	147.060000
559.937378	147.440000
560.030945	147.120000
560.124573	0.000000
560.218140	0.000000
560.311707	0.000000
560.405334	0.000000
560.498901	0.000000
560.592529	0.000000
560.686096	0.000000
560.779724	0.000000
560.873291	0.000000
560.966858	0.000000
561.060425	0.000000
561.154053	0.000000
561.247620	0.000000
561.341248	0.000000
561.434814	0.000000
561.528381	0.000000
561.621948	0.000000
561.715576	0.000000
561.809143	0.000000
561.902771	0.000000
561.996277	0.000000
562.089905	0.000000
562.183472	0.000000
562.277100	0.000000
