Model Number: SPM-002-B   
Serial Number: 70087108
Firmware Version: 004.15.4
Exposure Time: 100000.000000us
Data Taken on: 11-12-2020 18:53:14.395
Wavelength	Amplitude
221.570786	0.000000
221.663406	0.000000
221.756027	0.000000
221.848648	0.000000
221.941269	0.000000
222.033905	0.000000
222.126526	0.000000
222.219162	0.000000
222.311798	0.000000
222.404419	0.000000
222.497055	0.000000
222.589676	0.000000
222.682312	0.000000
222.774933	0.000000
222.867569	0.000000
222.960205	0.000000
223.052841	0.000000
223.145462	0.000000
223.238098	0.000000
223.330734	0.000000
223.423386	0.000000
223.516022	0.000000
223.608658	0.000000
223.701309	0.000000
223.793945	0.000000
223.886581	0.000000
223.979218	0.000000
224.071869	0.000000
224.164505	0.000000
224.257156	0.000000
224.349792	0.000000
224.442444	0.000000
224.535095	0.000000
224.627747	0.000000
224.720398	0.000000
224.813034	0.000000
224.905685	0.000000
224.998337	146.060000
225.090988	145.640000
225.183640	145.320000
225.276291	144.860000
225.368942	145.260000
225.461594	145.920000
225.554245	146.300000
225.646912	146.700000
225.739578	147.500000
225.832230	148.020000
225.924896	147.120000
226.017548	147.380000
226.110199	147.600000
226.202866	146.900000
226.295532	146.420000
226.388184	146.640000
226.480850	146.140000
226.573517	145.440000
226.666168	145.560000
226.758835	145.840000
226.851501	146.420000
226.944183	146.580000
227.036850	146.400000
227.129517	146.320000
227.222183	146.480000
227.314850	146.240000
227.407516	146.380000
227.500198	147.480000
227.592865	147.160000
227.685532	146.560000
227.778214	146.200000
227.870880	146.640000
227.963562	146.820000
228.056229	147.460000
228.148926	147.580000
228.241592	148.700000
228.334274	148.060000
228.426956	147.560000
228.519638	147.380000
228.612305	147.020000
228.704987	146.460000
228.797668	146.580000
228.890350	146.220000
228.983032	145.560000
229.075714	146.520000
229.168396	146.180000
229.261108	145.900000
229.353790	146.240000
229.446472	146.980000
229.539169	146.760000
229.631851	146.400000
229.724533	146.540000
229.817230	146.420000
229.909912	147.240000
230.002609	146.760000
230.095306	146.920000
230.187988	146.960000
230.280685	146.940000
230.373383	145.660000
230.466095	145.820000
230.558792	146.180000
230.651474	146.380000
230.744171	146.320000
230.836868	146.240000
230.929581	146.340000
231.022278	146.320000
231.114975	146.420000
231.207672	146.100000
231.300369	146.760000
231.393082	146.820000
231.485779	146.400000
231.578506	146.440000
231.671204	146.620000
231.763916	146.580000
231.856613	146.300000
231.949326	146.820000
232.042023	146.400000
232.134735	146.600000
232.227448	146.140000
232.320160	146.760000
232.412872	146.600000
232.505585	147.660000
232.598297	148.060000
232.691010	148.260000
232.783722	147.720000
232.876450	148.320000
232.969162	147.460000
233.061874	146.980000
233.154587	146.460000
233.247314	146.460000
233.340027	145.720000
233.432739	146.220000
233.525467	145.840000
233.618179	146.580000
233.710907	146.420000
233.803635	146.960000
233.896347	146.300000
233.989090	147.300000
234.081818	146.860000
234.174545	147.180000
234.267258	146.800000
234.359985	146.940000
234.452713	146.620000
234.545441	146.720000
234.638168	146.640000
234.730896	146.880000
234.823639	146.660000
234.916367	146.820000
235.009094	146.840000
235.101822	146.660000
235.194580	146.640000
235.287308	146.860000
235.380051	146.300000
235.472778	146.580000
235.565521	146.880000
235.658249	146.380000
235.750992	146.460000
235.843719	146.540000
235.936462	146.820000
236.029205	146.620000
236.121948	146.760000
236.214691	147.080000
236.307449	147.640000
236.400192	147.100000
236.492935	146.820000
236.585678	147.000000
236.678421	146.820000
236.771164	146.620000
236.863907	147.240000
236.956665	147.600000
237.049408	149.240000
237.142151	148.660000
237.234909	149.040000
237.327652	148.740000
237.420410	148.380000
237.513153	146.940000
237.605927	147.120000
237.698669	146.480000
237.791428	145.700000
237.884186	146.480000
237.976944	146.180000
238.069702	146.540000
238.162445	146.160000
238.255203	146.620000
238.347961	146.740000
238.440720	146.800000
238.533478	146.480000
238.626266	146.160000
238.719025	146.180000
238.811783	145.740000
238.904541	145.580000
238.997314	145.340000
239.090073	145.700000
239.182831	146.040000
239.275604	146.680000
239.368362	146.580000
239.461136	147.220000
239.553909	147.460000
239.646667	147.120000
239.739441	146.540000
239.832214	147.100000
239.925003	147.080000
240.017761	147.520000
240.110535	148.160000
240.203308	147.700000
240.296082	147.580000
240.388855	147.460000
240.481628	147.260000
240.574417	147.220000
240.667191	147.360000
240.759964	146.780000
240.852737	146.620000
240.945526	146.200000
241.038315	145.800000
241.131088	146.060000
241.223877	146.380000
241.316650	146.240000
241.409439	146.860000
241.502228	146.480000
241.595001	146.780000
241.687790	146.720000
241.780579	146.940000
241.873367	146.960000
241.966141	147.560000
242.058929	146.900000
242.151718	147.060000
242.244507	147.480000
242.337311	146.480000
242.430099	146.680000
242.522903	146.880000
242.615692	146.660000
242.708481	146.360000
242.801270	147.080000
242.894073	146.620000
242.986862	146.880000
243.079651	147.460000
243.172455	147.260000
243.265244	147.360000
243.358063	147.020000
243.450867	147.120000
243.543655	146.820000
243.636459	146.980000
243.729263	147.400000
243.822067	147.620000
243.914856	147.900000
244.007660	148.100000
244.100464	147.880000
244.193268	147.260000
244.286072	147.360000
244.378876	146.680000
244.471680	146.120000
244.564499	146.240000
244.657318	146.700000
244.750122	147.020000
244.842926	146.680000
244.935745	147.200000
245.028549	146.880000
245.121368	146.460000
245.214172	146.140000
245.306992	146.920000
245.399796	146.700000
245.492615	147.120000
245.585434	147.200000
245.678253	147.200000
245.771072	146.820000
245.863892	146.960000
245.956711	147.100000
246.049530	146.860000
246.142349	146.820000
246.235168	147.320000
246.327988	147.780000
246.420807	147.420000
246.513626	147.660000
246.606445	147.620000
246.699280	147.000000
246.792099	146.440000
246.884918	146.280000
246.977753	145.880000
247.070587	146.180000
247.163422	146.600000
247.256241	146.520000
247.349075	147.280000
247.441895	147.320000
247.534729	147.040000
247.627563	146.640000
247.720383	147.240000
247.813217	146.880000
247.906052	146.900000
247.998886	146.760000
248.091736	146.460000
248.184570	145.920000
248.277405	145.960000
248.370239	146.660000
248.463074	147.480000
248.555908	148.100000
248.648743	148.020000
248.741592	147.840000
248.834427	147.140000
248.927261	146.260000
249.020111	146.440000
249.112946	147.380000
249.205795	147.240000
249.298630	147.420000
249.391495	147.420000
249.484344	147.160000
249.577179	146.340000
249.670029	146.600000
249.762878	147.000000
249.855728	147.380000
249.948563	147.320000
250.041412	147.080000
250.134262	147.240000
250.227112	147.080000
250.319962	146.960000
250.412827	146.960000
250.505692	146.940000
250.598541	146.960000
250.691391	146.620000
250.784241	146.700000
250.877106	146.960000
250.969955	146.960000
251.062805	147.120000
251.155670	147.780000
251.248520	147.640000
251.341385	147.720000
251.434235	147.760000
251.527100	147.320000
251.619965	146.660000
251.712814	147.240000
251.805695	147.160000
251.898560	147.200000
251.991425	147.440000
252.084290	148.180000
252.177155	147.520000
252.270020	147.200000
252.362885	147.240000
252.455750	147.040000
252.548615	146.380000
252.641479	146.460000
252.734360	146.400000
252.827240	146.160000
252.920105	146.240000
253.012970	146.180000
253.105850	146.060000
253.198715	145.780000
253.291595	145.800000
253.384460	145.420000
253.477341	145.620000
253.570221	145.920000
253.663086	145.760000
253.755966	146.680000
253.848846	146.780000
253.941727	146.720000
254.034592	146.480000
254.127472	146.440000
254.220367	145.940000
254.313248	146.380000
254.406128	146.040000
254.499008	146.300000
254.591904	147.280000
254.684784	147.760000
254.777664	147.760000
254.870544	147.640000
254.963440	147.340000
255.056335	147.300000
255.149216	146.820000
255.242111	146.860000
255.334991	147.280000
255.427887	147.420000
255.520767	147.000000
255.613663	147.140000
255.706558	146.500000
255.799438	146.580000
255.892334	146.160000
255.985229	146.340000
256.078125	146.300000
256.171021	146.500000
256.263916	146.960000
256.356812	147.340000
256.449707	147.200000
256.542603	146.820000
256.635498	147.580000
256.728394	146.880000
256.821289	146.600000
256.914215	146.620000
257.007080	146.900000
257.100006	146.580000
257.192932	147.000000
257.285828	147.560000
257.378723	147.260000
257.471619	147.120000
257.564545	146.660000
257.657440	146.340000
257.750336	146.500000
257.843262	146.700000
257.936157	147.800000
258.029053	148.140000
258.121979	148.380000
258.214874	148.040000
258.307800	147.980000
258.400696	146.520000
258.493622	146.300000
258.586517	145.520000
258.679443	145.800000
258.772339	145.320000
258.865265	145.620000
258.958160	145.420000
259.051086	146.460000
259.144012	146.160000
259.236938	146.980000
259.329834	147.140000
259.422791	147.120000
259.515717	146.440000
259.608612	146.100000
259.701538	146.540000
259.794464	146.240000
259.887390	146.260000
259.980316	146.640000
260.073212	146.740000
260.166138	145.620000
260.259064	146.360000
260.351990	147.100000
260.444916	147.020000
260.537842	147.440000
260.630768	148.060000
260.723694	147.660000
260.816620	147.200000
260.909546	146.860000
261.002472	146.320000
261.095398	146.060000
261.188354	146.020000
261.281281	145.700000
261.374207	146.000000
261.467133	146.680000
261.560089	146.960000
261.653015	146.880000
261.745972	147.560000
261.838867	147.920000
261.931824	147.760000
262.024780	147.180000
262.117706	147.480000
262.210663	147.760000
262.303589	147.360000
262.396515	147.520000
262.489471	148.200000
262.582397	147.680000
262.675354	146.780000
262.768280	146.960000
262.861237	146.860000
262.954163	146.740000
263.047119	147.200000
263.140045	147.240000
263.233002	147.020000
263.325958	146.840000
263.418884	146.220000
263.511841	146.240000
263.604797	146.040000
263.697723	146.140000
263.790680	146.040000
263.883636	146.660000
263.976593	146.320000
264.069550	146.820000
264.162476	146.580000
264.255463	146.700000
264.348419	146.320000
264.441376	146.600000
264.534332	145.920000
264.627289	146.020000
264.720245	146.520000
264.813202	146.280000
264.906158	146.420000
264.999115	147.280000
265.092072	147.360000
265.185028	147.600000
265.277985	147.880000
265.370941	147.740000
265.463898	147.600000
265.556854	147.340000
265.649811	146.200000
265.742798	146.380000
265.835754	146.460000
265.928711	146.540000
266.021667	146.680000
266.114655	147.200000
266.207611	147.320000
266.300568	146.580000
266.393585	145.980000
266.486511	146.360000
266.579498	145.540000
266.672485	145.340000
266.765442	145.600000
266.858429	146.340000
266.951385	145.760000
267.044342	146.200000
267.137329	146.260000
267.230316	146.560000
267.323273	146.020000
267.416260	147.040000
267.509216	147.080000
267.602203	147.100000
267.695160	147.400000
267.788147	147.720000
267.881134	146.920000
267.974091	147.000000
268.067078	146.760000
268.160065	146.240000
268.253052	146.000000
268.346008	146.100000
268.438995	145.800000
268.531982	145.900000
268.624969	146.000000
268.717987	146.460000
268.810944	146.220000
268.903961	146.700000
268.996948	146.680000
269.089905	147.060000
269.182892	146.800000
269.275879	147.680000
269.368866	147.200000
269.461853	147.400000
269.554871	146.940000
269.647858	147.160000
269.740845	147.080000
269.833832	147.640000
269.926819	147.280000
270.019806	147.540000
270.112793	146.960000
270.205811	146.620000
270.298798	146.380000
270.391785	147.040000
270.484772	146.660000
270.577789	146.700000
270.670776	146.260000
270.763763	146.500000
270.856750	146.580000
270.949768	146.540000
271.042786	146.760000
271.135773	147.040000
271.228790	147.100000
271.321808	146.420000
271.414795	146.240000
271.507782	145.820000
271.600800	145.700000
271.693817	145.600000
271.786804	146.140000
271.879822	146.760000
271.972809	146.920000
272.065826	147.080000
272.158844	146.680000
272.251831	146.620000
272.344849	146.480000
272.437866	146.320000
272.530853	146.540000
272.623871	146.800000
272.716888	146.260000
272.809906	146.420000
272.902893	146.340000
272.995911	145.820000
273.088928	145.800000
273.181946	146.000000
273.274963	145.620000
273.367981	145.960000
273.460999	146.180000
273.554047	146.700000
273.647003	147.360000
273.740051	147.340000
273.833069	147.400000
273.926086	147.500000
274.019135	146.860000
274.112152	146.100000
274.205170	146.480000
274.298187	146.760000
274.391205	146.540000
274.484222	146.560000
274.577240	146.860000
274.670258	146.340000
274.763306	146.100000
274.856323	146.480000
274.949341	146.700000
275.042358	146.980000
275.135406	147.080000
275.228424	147.180000
275.321442	147.100000
275.414490	146.700000
275.507507	146.960000
275.600525	147.520000
275.693573	147.320000
275.786591	146.920000
275.879669	147.420000
275.972656	146.880000
276.065735	146.560000
276.158752	147.040000
276.251801	147.760000
276.344818	147.580000
276.437866	147.680000
276.530884	147.380000
276.623932	146.480000
276.716980	146.520000
276.809998	146.600000
276.903046	146.380000
276.996094	147.260000
277.089111	148.120000
277.182159	148.320000
277.275208	148.040000
277.368256	148.200000
277.461304	147.660000
277.554321	146.460000
277.647369	145.960000
277.740417	145.860000
277.833466	145.560000
277.926514	145.400000
278.019562	146.640000
278.112610	146.100000
278.205688	146.180000
278.298706	146.460000
278.391785	146.260000
278.484833	145.760000
278.577881	145.980000
278.670929	146.380000
278.763977	146.440000
278.857025	147.140000
278.950073	147.060000
279.043121	146.920000
279.136169	146.700000
279.229248	146.120000
279.322296	145.820000
279.415344	146.020000
279.508392	146.040000
279.601440	146.020000
279.694519	146.280000
279.787567	146.080000
279.880615	145.960000
279.973694	145.880000
280.066742	145.920000
280.159790	146.180000
280.252869	145.980000
280.345917	145.940000
280.438995	146.020000
280.532074	146.120000
280.625122	146.380000
280.718201	147.540000
280.811279	147.660000
280.904327	147.720000
280.997406	147.920000
281.090454	147.660000
281.183533	146.700000
281.276581	146.600000
281.369659	146.600000
281.462738	146.540000
281.555786	146.740000
281.648865	146.800000
281.741943	146.900000
281.835022	147.380000
281.928070	146.860000
282.021149	146.480000
282.114227	146.160000
282.207306	146.160000
282.300385	146.280000
282.393433	146.820000
282.486511	146.980000
282.579590	147.860000
282.672668	147.940000
282.765747	147.060000
282.858856	146.780000
282.951904	146.840000
283.045013	146.460000
283.138062	146.700000
283.231171	147.180000
283.324249	147.420000
283.417328	147.300000
283.510406	146.860000
283.603485	146.460000
283.696564	146.360000
283.789642	146.360000
283.882751	146.140000
283.975830	146.980000
284.068909	146.940000
284.161987	147.560000
284.255066	147.020000
284.348175	147.280000
284.441254	147.200000
284.534332	147.560000
284.627441	146.960000
284.720520	147.060000
284.813599	146.960000
284.906708	146.460000
284.999786	145.700000
285.092896	145.480000
285.185974	146.520000
285.279053	146.440000
285.372192	146.600000
285.465240	147.200000
285.558380	147.340000
285.651459	146.540000
285.744568	147.260000
285.837677	146.960000
285.930756	147.060000
286.023865	147.040000
286.116943	146.620000
286.210052	146.440000
286.303162	146.360000
286.396240	146.060000
286.489349	145.900000
286.582458	146.300000
286.675568	145.940000
286.768646	146.420000
286.861755	146.760000
286.954865	147.340000
287.047974	147.120000
287.141083	146.900000
287.234161	146.520000
287.327271	146.180000
287.420380	146.500000
287.513519	146.480000
287.606598	146.680000
287.699738	147.180000
287.792816	147.420000
287.885956	147.040000
287.979034	147.100000
288.072174	147.340000
288.165283	146.880000
288.258392	147.020000
288.351501	146.260000
288.444611	146.640000
288.537720	146.800000
288.630859	146.840000
288.723969	146.860000
288.817078	147.600000
288.910187	147.500000
289.003296	146.880000
289.096436	146.800000
289.189545	146.360000
289.282654	145.720000
289.375763	145.780000
289.468903	146.300000
289.562012	146.620000
289.655121	146.800000
289.748260	147.240000
289.841400	147.300000
289.934509	146.960000
290.027649	147.120000
290.120728	146.940000
290.213898	146.840000
290.306976	146.700000
290.400146	147.060000
290.493256	146.440000
290.586395	146.880000
290.679535	147.160000
290.772644	147.060000
290.865784	146.080000
290.958893	146.300000
291.052032	145.800000
291.145172	145.660000
291.238281	145.420000
291.331421	145.920000
291.424561	146.440000
291.517670	146.440000
291.610809	146.700000
291.703949	146.640000
291.797089	147.040000
291.890228	146.460000
291.983337	146.400000
292.076477	146.200000
292.169617	146.600000
292.262756	146.540000
292.355927	146.480000
292.449036	146.520000
292.542206	146.480000
292.635315	146.320000
292.728485	146.360000
292.821625	146.220000
292.914764	147.160000
293.007904	147.160000
293.101044	147.220000
293.194183	146.960000
293.287323	146.960000
293.380463	146.280000
293.473602	146.300000
293.566742	146.660000
293.659882	147.260000
293.753021	147.900000
293.846191	147.980000
293.939331	147.640000
294.032471	147.440000
294.125610	146.660000
294.218781	146.560000
294.311920	146.900000
294.405060	147.140000
294.498230	146.740000
294.591370	147.300000
294.684540	146.800000
294.777679	146.100000
294.870850	146.500000
294.963959	146.820000
295.057159	146.400000
295.150299	146.980000
295.243469	147.300000
295.336609	146.880000
295.429779	147.000000
295.522919	147.640000
295.616089	147.680000
295.709229	148.120000
295.802399	148.280000
295.895569	147.800000
295.988708	147.400000
296.081879	147.320000
296.175018	146.660000
296.268188	146.500000
296.361359	147.040000
296.454529	147.020000
296.547668	146.820000
296.640839	147.160000
296.734009	146.700000
296.827179	146.440000
296.920319	146.880000
297.013519	146.780000
297.106659	146.980000
297.199860	147.340000
297.292999	147.440000
297.386200	146.840000
297.479309	146.740000
297.572510	146.560000
297.665680	146.460000
297.758850	146.240000
297.852020	146.040000
297.945190	146.000000
298.038361	145.400000
298.131531	146.240000
298.224701	146.280000
298.317871	146.300000
298.411072	145.940000
298.504242	146.060000
298.597412	145.380000
298.690582	145.900000
298.783752	145.960000
298.876923	146.560000
298.970093	146.840000
299.063293	147.360000
299.156464	147.420000
299.249634	147.700000
299.342834	148.140000
299.436005	148.440000
299.529205	148.240000
299.622345	147.840000
299.715576	147.340000
299.808716	146.620000
299.901917	146.420000
299.995117	146.740000
300.088287	146.800000
300.181488	146.660000
300.274658	146.840000
300.367828	146.680000
300.461029	146.360000
300.554199	146.580000
300.647400	146.760000
300.740601	147.200000
300.833771	147.100000
300.926971	147.240000
301.020142	146.280000
301.113342	146.280000
301.206512	145.660000
301.299713	145.940000
301.392914	145.860000
301.486084	146.840000
301.579285	146.940000
301.672516	147.600000
301.765686	147.340000
301.858887	146.980000
301.952057	146.700000
302.045288	146.760000
302.138458	146.500000
302.231659	146.500000
302.324860	146.540000
302.418060	146.240000
302.511261	145.960000
302.604462	146.140000
302.697662	145.840000
302.790863	145.560000
302.884064	145.520000
302.977264	146.000000
303.070465	145.960000
303.163666	146.820000
303.256866	147.280000
303.350067	147.500000
303.443268	147.460000
303.536469	147.520000
303.629669	146.860000
303.722870	147.100000
303.816071	146.840000
303.909271	146.560000
304.002472	145.760000
304.095673	145.820000
304.188934	144.980000
304.282104	145.900000
304.375336	146.080000
304.468506	146.300000
304.561768	146.280000
304.654968	147.180000
304.748169	146.540000
304.841370	146.560000
304.934601	146.800000
305.027802	146.520000
305.121002	145.960000
305.214233	145.840000
305.307434	145.640000
305.400665	146.160000
305.493866	146.260000
305.587097	146.680000
305.680298	146.820000
305.773499	147.380000
305.866730	147.080000
305.959930	147.760000
306.053162	147.700000
306.146393	147.480000
306.239594	146.600000
306.332825	146.500000
306.426025	146.320000
306.519287	145.840000
306.612488	146.240000
306.705719	146.480000
306.798920	146.580000
306.892181	146.220000
306.985352	145.900000
307.078613	145.420000
307.171844	145.780000
307.265045	145.060000
307.358276	144.900000
307.451508	145.540000
307.544739	145.780000
307.637970	145.520000
307.731201	145.780000
307.824402	146.400000
307.917633	146.760000
308.010864	147.440000
308.104095	147.960000
308.197327	148.280000
308.290558	148.160000
308.383789	147.640000
308.477020	146.740000
308.570251	146.060000
308.663483	145.520000
308.756714	145.460000
308.849976	145.580000
308.943176	146.360000
309.036438	146.240000
309.129639	146.380000
309.222900	146.440000
309.316101	146.260000
309.409393	145.560000
309.502625	145.740000
309.595856	145.840000
309.689087	145.800000
309.782318	145.920000
309.875580	146.040000
309.968811	146.380000
310.062042	146.140000
310.155273	145.760000
310.248535	146.060000
310.341766	146.000000
310.434998	145.620000
310.528259	145.900000
310.621490	146.320000
310.714722	145.740000
310.807983	145.960000
310.901215	146.100000
310.994476	146.240000
311.087708	145.880000
311.181000	146.060000
311.274200	145.540000
311.367462	145.620000
311.460693	145.100000
311.553986	146.240000
311.647186	146.640000
311.740479	147.540000
311.833710	147.160000
311.926971	147.620000
312.020203	146.360000
312.113464	146.060000
312.206726	145.260000
312.299957	145.680000
312.393219	146.100000
312.486481	146.520000
312.579712	146.220000
312.672974	146.420000
312.766235	146.260000
312.859497	145.740000
312.952759	145.680000
313.045990	146.600000
313.139252	146.040000
313.232513	146.380000
313.325775	146.600000
313.419037	146.520000
313.512299	145.680000
313.605530	146.580000
313.698822	146.680000
313.792053	146.620000
313.885345	146.160000
313.978577	146.240000
314.071869	145.820000
314.165131	145.700000
314.258392	146.120000
314.351654	146.640000
314.444916	146.380000
314.538177	146.740000
314.631439	147.080000
314.724701	146.760000
314.817993	146.560000
314.911255	147.080000
315.004517	146.700000
315.097778	146.240000
315.191040	146.380000
315.284302	146.820000
315.377594	146.520000
315.470856	146.640000
315.564117	146.220000
315.657379	145.420000
315.750671	144.740000
315.843933	145.060000
315.937195	144.400000
316.030518	144.600000
316.123749	145.140000
316.217041	145.940000
316.310303	145.960000
316.403595	146.840000
316.496857	147.120000
316.590149	147.400000
316.683411	146.580000
316.776703	146.260000
316.869965	145.980000
316.963257	145.580000
317.056519	144.860000
317.149811	145.340000
317.243073	145.540000
317.336365	145.720000
317.429626	146.100000
317.522919	146.840000
317.616180	146.900000
317.709473	146.700000
317.802765	146.560000
317.896027	146.280000
317.989319	146.460000
318.082611	146.360000
318.175873	146.360000
318.269165	146.360000
318.362488	146.360000
318.455750	145.760000
318.549042	146.140000
318.642303	146.520000
318.735626	146.100000
318.828888	146.840000
318.922211	146.900000
319.015472	147.280000
319.108765	146.700000
319.202057	146.780000
319.295349	146.120000
319.388641	146.140000
319.481934	145.680000
319.575226	145.380000
319.668518	145.880000
319.761810	146.140000
319.855103	146.040000
319.948395	146.160000
320.041687	146.780000
320.134979	146.700000
320.228271	146.480000
320.321564	146.400000
320.414856	146.060000
320.508148	145.660000
320.601440	145.660000
320.694763	145.520000
320.788025	146.360000
320.881348	146.460000
320.974640	146.560000
321.067963	146.160000
321.161224	146.480000
321.254547	145.640000
321.347839	146.180000
321.441162	146.060000
321.534454	146.360000
321.627747	145.860000
321.721069	146.420000
321.814362	146.280000
321.907654	146.360000
322.000946	146.260000
322.094269	147.140000
322.187561	146.380000
322.280884	146.260000
322.374176	146.560000
322.467468	147.000000
322.560791	146.900000
322.654083	147.580000
322.747406	147.320000
322.840698	147.420000
322.934021	147.480000
323.027344	147.520000
323.120636	147.300000
323.213959	147.360000
323.307251	146.920000
323.400574	146.340000
323.493866	145.600000
323.587219	145.580000
323.680511	145.760000
323.773834	145.940000
323.867157	146.000000
323.960449	146.200000
324.053772	146.040000
324.147095	146.020000
324.240387	146.520000
324.333710	146.700000
324.427032	146.980000
324.520355	147.100000
324.613647	146.640000
324.706970	146.220000
324.800293	146.180000
324.893616	146.300000
324.986938	146.800000
325.080231	146.560000
325.173553	146.940000
325.266876	147.300000
325.360199	147.160000
325.453522	146.480000
325.546875	146.700000
325.640167	146.780000
325.733521	147.140000
325.826813	147.220000
325.920166	147.440000
326.013489	147.380000
326.106812	146.720000
326.200134	145.940000
326.293457	145.660000
326.386780	145.720000
326.480103	145.620000
326.573425	145.580000
326.666748	145.800000
326.760071	146.220000
326.853424	146.040000
326.946747	146.320000
327.040070	147.320000
327.133392	147.140000
327.226715	146.440000
327.320068	146.260000
327.413391	146.720000
327.506714	145.880000
327.600037	145.880000
327.693390	146.040000
327.786713	146.080000
327.880066	145.660000
327.973358	146.040000
328.066742	146.440000
328.160034	146.680000
328.253418	147.320000
328.346710	147.220000
328.440063	146.700000
328.533417	145.980000
328.626740	146.380000
328.720093	145.940000
328.813416	145.980000
328.906769	146.340000
329.000092	147.020000
329.093445	146.540000
329.186768	146.600000
329.280121	147.020000
329.373444	147.020000
329.466797	146.840000
329.560120	146.960000
329.653473	146.860000
329.746796	146.420000
329.840149	146.320000
329.933502	146.320000
330.026825	146.420000
330.120178	146.400000
330.213562	146.500000
330.306854	146.640000
330.400238	146.540000
330.493561	146.420000
330.586945	147.140000
330.680237	147.520000
330.773621	147.620000
330.866974	147.920000
330.960327	148.160000
331.053680	147.660000
331.147003	147.500000
331.240356	147.500000
331.333710	146.880000
331.427063	146.560000
331.520416	146.580000
331.613770	146.420000
331.707123	146.120000
331.800476	146.680000
331.893829	147.580000
331.987152	147.440000
332.080505	147.580000
332.173859	147.600000
332.267212	146.960000
332.360565	146.260000
332.453918	146.300000
332.547333	146.420000
332.640656	146.720000
332.734039	146.980000
332.827362	146.620000
332.920746	146.960000
333.014069	146.980000
333.107452	147.560000
333.200806	147.820000
333.294159	148.340000
333.387543	147.660000
333.480896	147.300000
333.574249	146.460000
333.667603	146.160000
333.760956	146.260000
333.854340	146.460000
333.947693	146.460000
334.041046	146.780000
334.134430	147.140000
334.227783	146.520000
334.321136	146.680000
334.414520	146.360000
334.507874	146.220000
334.601227	146.180000
334.694611	146.420000
334.787964	146.500000
334.881348	146.880000
334.974701	146.740000
335.068085	146.240000
335.161438	146.420000
335.254822	146.120000
335.348175	146.180000
335.441559	146.140000
335.534943	147.040000
335.628296	147.040000
335.721680	147.240000
335.815033	147.380000
335.908417	147.520000
336.001770	147.200000
336.095154	146.780000
336.188538	146.280000
336.281891	145.980000
336.375275	145.300000
336.468658	144.820000
336.562012	145.120000
336.655396	145.860000
336.748779	146.100000
336.842133	146.540000
336.935516	146.980000
337.028900	146.880000
337.122284	146.440000
337.215637	146.280000
337.309021	146.380000
337.402435	145.980000
337.495789	145.940000
337.589203	146.120000
337.682526	146.160000
337.775940	146.500000
337.869324	146.820000
337.962708	146.280000
338.056091	146.660000
338.149475	146.000000
338.242859	145.840000
338.336243	145.340000
338.429626	145.920000
338.523010	145.520000
338.616394	145.820000
338.709778	146.120000
338.803162	146.720000
338.896545	146.880000
338.989929	146.660000
339.083313	146.840000
339.176697	146.320000
339.270081	145.900000
339.363464	145.980000
339.456848	146.320000
339.550232	145.960000
339.643616	145.840000
339.737030	145.960000
339.830383	145.820000
339.923828	146.000000
340.017181	146.300000
340.110596	146.500000
340.203949	146.560000
340.297363	146.200000
340.390778	146.120000
340.484161	146.200000
340.577545	146.100000
340.670959	146.080000
340.764343	146.360000
340.857727	146.120000
340.951111	145.740000
341.044525	146.020000
341.137909	145.600000
341.231293	145.340000
341.324707	145.120000
341.418091	145.700000
341.511505	145.660000
341.604889	145.920000
341.698303	146.260000
341.791687	146.820000
341.885071	146.380000
341.978485	145.960000
342.071899	146.360000
342.165283	146.320000
342.258698	146.220000
342.352081	146.900000
342.445496	147.760000
342.538879	147.520000
342.632324	147.520000
342.725708	147.440000
342.819122	146.880000
342.912506	146.300000
343.005920	146.180000
343.099335	146.780000
343.192719	146.660000
343.286133	146.560000
343.379547	146.640000
343.472931	146.660000
343.566345	146.140000
343.659760	146.280000
343.753143	146.080000
343.846558	145.680000
343.939972	145.880000
344.033386	146.400000
344.126770	146.220000
344.220184	146.660000
344.313599	147.260000
344.407043	147.440000
344.500427	146.360000
344.593872	146.920000
344.687225	146.480000
344.780670	146.000000
344.874054	145.600000
344.967499	146.300000
345.060913	146.320000
345.154327	146.580000
345.247742	146.600000
345.341156	146.700000
345.434570	146.260000
345.527985	146.060000
345.621399	146.240000
345.714813	146.200000
345.808228	146.380000
345.901642	146.440000
345.995056	145.840000
346.088470	145.620000
346.181885	146.060000
346.275299	145.500000
346.368713	145.560000
346.462128	145.700000
346.555573	146.040000
346.648987	145.860000
346.742401	146.200000
346.835815	146.140000
346.929260	145.860000
347.022644	145.860000
347.116119	146.200000
347.209503	146.480000
347.302948	147.300000
347.396362	148.140000
347.489807	148.020000
347.583221	148.300000
347.676636	147.960000
347.770050	147.200000
347.863495	146.500000
347.956909	146.700000
348.050323	145.940000
348.143768	145.840000
348.237183	145.580000
348.330597	146.240000
348.424042	146.300000
348.517456	146.660000
348.610901	147.080000
348.704315	147.040000
348.797760	146.120000
348.891174	145.360000
348.984619	144.700000
349.078033	144.820000
349.171448	145.300000
349.264923	145.500000
349.358337	145.740000
349.451782	146.220000
349.545197	145.600000
349.638641	145.280000
349.732086	145.040000
349.825500	145.500000
349.918945	145.160000
350.012390	145.700000
350.105804	146.160000
350.199249	146.380000
350.292664	146.620000
350.386108	146.960000
350.479553	147.200000
350.572968	147.060000
350.666412	147.420000
350.759857	147.400000
350.853302	147.520000
350.946716	147.040000
351.040161	147.000000
351.133606	146.860000
351.227081	146.360000
351.320465	147.000000
351.413940	147.200000
351.507355	147.360000
351.600830	147.560000
351.694244	147.360000
351.787720	146.980000
351.881104	146.780000
351.974579	146.380000
352.067993	146.980000
352.161469	147.140000
352.254883	146.160000
352.348358	146.160000
352.441803	146.140000
352.535248	145.640000
352.628693	146.280000
352.722137	146.800000
352.815582	147.020000
352.909027	147.300000
353.002472	146.960000
353.095917	146.340000
353.189362	146.540000
353.282806	146.560000
353.376251	146.280000
353.469696	146.320000
353.563141	147.240000
353.656586	146.840000
353.750061	146.380000
353.843475	146.500000
353.936981	147.080000
354.030396	146.260000
354.123871	146.540000
354.217285	147.360000
354.310760	147.640000
354.404175	147.300000
354.497681	146.780000
354.591095	146.860000
354.684570	145.900000
354.777985	145.400000
354.871490	145.100000
354.964935	146.100000
355.058380	146.040000
355.151855	146.340000
355.245300	147.100000
355.338745	147.660000
355.432220	147.360000
355.525665	146.920000
355.619110	147.180000
355.712585	146.740000
355.806030	146.240000
355.899475	145.760000
355.992950	146.580000
356.086426	146.780000
356.179871	146.700000
356.273346	146.720000
356.366791	147.000000
356.460266	146.620000
356.553711	146.060000
356.647186	146.320000
356.740631	146.260000
356.834106	145.940000
356.927551	146.000000
357.021027	146.160000
357.114471	146.080000
357.207947	146.260000
357.301422	146.740000
357.394867	146.860000
357.488342	147.200000
357.581818	147.040000
357.675262	147.180000
357.768738	147.220000
357.862213	146.380000
357.955658	146.220000
358.049133	146.080000
358.142609	146.160000
358.236053	145.840000
358.329529	146.660000
358.423035	147.000000
358.516449	146.860000
358.609955	147.080000
358.703400	147.720000
358.796906	147.680000
358.890350	147.140000
358.983826	147.800000
359.077271	147.140000
359.170776	146.720000
359.264221	146.320000
359.357727	146.500000
359.451172	146.500000
359.544647	146.860000
359.638123	146.740000
359.731598	147.200000
359.825073	147.460000
359.918549	147.100000
360.012024	147.060000
360.105499	146.580000
360.198975	146.360000
360.292450	146.180000
360.385925	146.020000
360.479401	145.340000
360.572876	145.820000
360.666351	146.100000
360.759857	146.260000
360.853302	146.800000
360.946808	146.780000
361.040253	147.020000
361.133759	146.720000
361.227203	146.460000
361.320709	145.940000
361.414154	146.620000
361.507660	146.700000
361.601105	147.160000
361.694641	147.880000
361.788086	147.960000
361.881592	148.000000
361.975067	147.500000
362.068542	147.560000
362.162018	147.120000
362.255524	146.620000
362.348999	146.380000
362.442474	146.660000
362.535950	145.980000
362.629456	145.760000
362.722931	146.160000
362.816406	146.640000
362.909882	146.780000
363.003387	146.780000
363.096863	147.100000
363.190338	147.020000
363.283875	146.660000
363.377319	146.640000
363.470825	147.120000
363.564301	146.440000
363.657806	146.860000
363.751282	146.640000
363.844788	147.220000
363.938232	146.880000
364.031769	147.620000
364.125214	147.620000
364.218750	148.300000
364.312225	147.120000
364.405731	147.160000
364.499207	146.500000
364.592712	145.880000
364.686188	145.460000
364.779694	145.980000
364.873169	145.800000
364.966675	146.040000
365.060150	146.460000
365.153656	146.800000
365.247131	146.860000
365.340637	147.240000
365.434143	147.620000
365.527618	147.600000
365.621155	146.540000
365.714600	145.940000
365.808136	145.680000
365.901611	144.520000
365.995117	144.340000
366.088593	144.720000
366.182129	144.960000
366.275604	145.220000
366.369110	145.580000
366.462585	145.440000
366.556122	146.240000
366.649567	146.680000
366.743103	146.920000
366.836609	146.900000
366.930115	147.380000
367.023590	146.940000
367.117096	146.600000
367.210602	146.260000
367.304108	147.120000
367.397614	147.360000
367.491119	147.600000
367.584595	147.700000
367.678101	147.740000
367.771606	147.220000
367.865112	147.080000
367.958649	146.480000
368.052124	146.040000
368.145660	145.960000
368.239136	146.420000
368.332672	146.360000
368.426147	146.840000
368.519684	146.960000
368.613159	147.200000
368.706696	146.400000
368.800171	146.140000
368.893707	145.820000
368.987183	145.880000
369.080719	145.820000
369.174225	146.180000
369.267731	146.240000
369.361237	146.280000
369.454742	146.200000
369.548248	146.560000
369.641754	146.180000
369.735260	146.080000
369.828766	145.380000
369.922272	146.120000
370.015808	145.600000
370.109314	145.680000
370.202820	145.520000
370.296356	146.900000
370.389832	146.320000
370.483368	145.980000
370.576874	145.800000
370.670410	146.100000
370.763885	144.820000
370.857422	145.140000
370.950928	145.180000
371.044464	146.140000
371.137939	146.200000
371.231476	146.900000
371.324982	147.460000
371.418518	147.620000
371.512024	147.340000
371.605560	147.340000
371.699066	147.460000
371.792572	146.760000
371.886108	147.220000
371.979614	146.920000
372.073120	147.320000
372.166656	147.200000
372.260162	147.520000
372.353668	146.940000
372.447205	146.860000
372.540710	146.760000
372.634277	146.540000
372.727753	146.440000
372.821320	146.740000
372.914795	147.120000
373.008362	146.740000
373.101837	146.940000
373.195404	146.380000
373.288879	146.260000
373.382446	146.580000
373.475922	146.620000
373.569489	147.420000
373.662964	148.300000
373.756531	148.580000
373.850037	148.540000
373.943573	148.560000
374.037109	147.300000
374.130615	147.300000
374.224152	147.120000
374.317657	146.760000
374.411194	147.520000
374.504730	147.440000
374.598236	146.840000
374.691772	146.580000
374.785309	146.560000
374.878815	145.460000
374.972351	146.320000
375.065887	146.260000
375.159454	147.180000
375.252930	146.880000
375.346497	147.260000
375.440002	147.520000
375.533569	147.640000
375.627045	146.760000
375.720612	146.900000
375.814117	147.240000
375.907684	146.760000
376.001160	146.600000
376.094727	146.460000
376.188232	147.140000
376.281799	147.060000
376.375336	146.840000
376.468872	147.600000
376.562408	148.180000
376.655914	147.580000
376.749451	147.220000
376.842987	147.500000
376.936523	146.800000
377.030060	146.440000
377.123596	146.740000
377.217133	146.420000
377.310669	146.300000
377.404205	146.940000
377.497772	147.500000
377.591278	147.440000
377.684845	148.380000
377.778351	148.520000
377.871918	147.800000
377.965424	146.900000
378.058990	146.660000
378.152496	146.060000
378.246063	146.340000
378.339569	146.880000
378.433136	147.180000
378.526642	147.200000
378.620209	147.180000
378.713745	146.440000
378.807312	146.740000
378.900848	146.840000
378.994385	146.940000
379.087921	146.080000
379.181458	146.580000
379.274994	145.580000
379.368530	145.220000
379.462097	145.200000
379.555634	146.340000
379.649170	145.920000
379.742706	145.760000
379.836273	146.200000
379.929810	145.940000
380.023376	145.520000
380.116882	145.420000
380.210449	145.740000
380.303986	145.240000
380.397552	144.700000
380.491058	144.740000
380.584656	144.860000
380.678162	145.120000
380.771729	145.280000
380.865265	146.540000
380.958832	146.760000
381.052368	147.040000
381.145935	147.480000
381.239471	147.820000
381.333008	147.440000
381.426575	147.180000
381.520111	147.280000
381.613647	147.320000
381.707214	147.160000
381.800751	146.540000
381.894318	147.000000
381.987854	146.420000
382.081421	145.940000
382.174988	145.900000
382.268524	146.000000
382.362091	145.720000
382.455627	146.680000
382.549194	146.480000
382.642731	145.920000
382.736298	146.120000
382.829834	146.220000
382.923401	146.320000
383.016937	146.840000
383.110504	147.360000
383.204041	147.260000
383.297607	147.520000
383.391174	146.620000
383.484741	146.860000
383.578278	146.500000
383.671844	146.160000
383.765411	145.420000
383.858948	146.020000
383.952515	145.760000
384.046051	146.600000
384.139618	147.220000
384.233185	147.640000
384.326721	147.340000
384.420288	147.940000
384.513855	147.600000
384.607422	147.700000
384.700989	147.660000
384.794525	147.400000
384.888123	146.880000
384.981659	146.920000
385.075226	146.480000
385.168762	146.280000
385.262360	146.240000
385.355896	145.200000
385.449463	145.000000
385.542999	144.900000
385.636597	145.780000
385.730164	145.960000
385.823730	146.320000
385.917267	146.100000
386.010834	146.560000
386.104401	146.160000
386.197968	146.440000
386.291534	146.680000
386.385101	146.880000
386.478668	146.920000
386.572235	146.580000
386.665802	145.880000
386.759338	145.640000
386.852905	145.640000
386.946472	145.540000
387.040070	145.900000
387.133606	146.140000
387.227203	146.280000
387.320740	146.600000
387.414337	146.260000
387.507874	145.960000
387.601471	146.180000
387.695007	146.040000
387.788605	145.660000
387.882141	145.880000
387.975739	146.000000
388.069275	145.720000
388.162872	146.180000
388.256439	146.120000
388.350037	145.920000
388.443604	145.520000
388.537170	145.700000
388.630737	145.980000
388.724304	146.380000
388.817871	146.280000
388.911438	146.520000
389.005005	146.720000
389.098602	146.960000
389.192169	146.240000
389.285736	147.040000
389.379333	147.120000
389.472870	146.680000
389.566467	146.080000
389.660034	146.200000
389.753632	145.580000
389.847168	145.760000
389.940765	146.280000
390.034332	146.520000
390.127930	146.280000
390.221466	146.420000
390.315063	146.220000
390.408630	145.220000
390.502228	144.480000
390.595795	145.020000
390.689362	145.040000
390.782959	145.360000
390.876526	146.140000
390.970093	146.200000
391.063690	146.780000
391.157257	147.060000
391.250824	147.240000
391.344421	147.000000
391.437988	147.360000
391.531555	147.060000
391.625153	146.900000
391.718750	146.980000
391.812317	147.160000
391.905914	146.760000
391.999481	146.700000
392.093079	146.640000
392.186615	146.580000
392.280243	146.720000
392.373779	147.300000
392.467407	147.600000
392.560944	147.460000
392.654572	147.000000
392.748108	146.840000
392.841736	146.820000
392.935303	146.380000
393.028900	146.600000
393.122467	146.720000
393.216064	146.440000
393.309631	145.860000
393.403229	145.620000
393.496796	145.140000
393.590393	144.520000
393.683990	145.060000
393.777557	145.860000
393.871155	146.160000
393.964722	146.920000
394.058350	147.320000
394.151917	147.260000
394.245514	146.820000
394.339081	146.960000
394.432678	146.700000
394.526245	146.900000
394.619873	146.460000
394.713409	146.580000
394.807037	146.360000
394.900604	146.440000
394.994202	146.240000
395.087769	146.540000
395.181396	146.220000
395.274994	147.220000
395.368561	146.680000
395.462158	147.120000
395.555756	146.940000
395.649353	147.180000
395.742920	146.300000
395.836517	146.980000
395.930115	146.180000
396.023712	146.320000
396.117279	146.560000
396.210876	146.340000
396.304474	146.080000
396.398071	146.400000
396.491669	146.640000
396.585266	146.160000
396.678833	146.000000
396.772461	146.180000
396.866028	146.100000
396.959656	146.200000
397.053223	146.640000
397.146851	146.560000
397.240417	146.840000
397.334015	147.760000
397.427582	147.760000
397.521210	147.920000
397.614807	149.040000
397.708405	149.360000
397.802002	149.600000
397.895599	150.720000
397.989197	151.660000
398.082794	152.340000
398.176392	153.740000
398.269989	155.020000
398.363586	156.520000
398.457184	158.940000
398.550781	161.360000
398.644379	163.100000
398.737976	165.440000
398.831573	167.600000
398.925201	169.160000
399.018768	170.900000
399.112396	173.180000
399.205963	175.140000
399.299591	177.120000
399.393158	179.220000
399.486786	182.100000
399.580353	184.260000
399.673981	187.360000
399.767578	191.040000
399.861206	196.000000
399.954773	202.000000
400.048401	208.640000
400.141998	214.080000
400.235596	220.360000
400.329193	224.940000
400.422791	229.020000
400.516418	232.000000
400.610016	236.200000
400.703613	238.700000
400.797211	239.600000
400.890808	238.760000
400.984436	237.320000
401.078033	233.300000
401.171631	228.620000
401.265259	223.520000
401.358826	218.300000
401.452484	211.880000
401.546051	205.880000
401.639679	198.660000
401.733246	192.200000
401.826904	184.820000
401.920471	178.440000
402.014099	172.280000
402.107697	167.220000
402.201324	163.380000
402.294891	160.320000
402.388550	157.920000
402.482147	156.220000
402.575745	154.540000
402.669373	152.680000
402.762970	151.540000
402.856567	150.540000
402.950195	149.560000
403.043793	148.800000
403.137390	148.820000
403.231018	147.480000
403.324615	147.900000
403.418243	147.400000
403.511841	147.960000
403.605469	147.700000
403.699066	148.080000
403.792694	147.540000
403.886292	147.440000
403.979919	146.860000
404.073517	146.320000
404.167145	146.600000
404.260712	146.480000
404.354370	146.420000
404.447937	146.320000
404.541595	146.300000
404.635162	146.180000
404.728821	146.680000
404.822418	146.320000
404.916046	146.180000
405.009644	146.360000
405.103271	146.860000
405.196899	146.300000
405.290497	146.560000
405.384125	147.120000
405.477722	146.880000
405.571350	146.080000
405.664948	146.040000
405.758575	146.000000
405.852203	145.420000
405.945801	145.660000
406.039429	145.780000
406.133057	145.560000
406.226654	145.580000
406.320312	145.580000
406.413879	145.780000
406.507538	146.220000
406.601135	145.860000
406.694763	146.280000
406.788361	146.260000
406.882019	145.840000
406.975586	146.100000
407.069244	147.080000
407.162872	146.940000
407.256470	147.160000
407.350098	147.020000
407.443726	146.260000
407.537323	145.500000
407.630951	145.760000
407.724579	145.460000
407.818207	146.360000
407.911804	146.300000
408.005432	146.500000
408.099060	146.680000
408.192688	146.860000
408.286285	146.040000
408.379913	146.080000
408.473572	146.140000
408.567169	144.960000
408.660828	145.100000
408.754395	145.240000
408.848053	145.240000
408.941650	145.520000
409.035309	145.540000
409.128906	145.300000
409.222565	145.420000
409.316132	145.640000
409.409790	145.020000
409.503387	145.500000
409.597046	145.620000
409.690674	145.680000
409.784302	145.600000
409.877930	145.740000
409.971558	145.940000
410.065186	145.960000
410.158783	145.660000
410.252411	145.680000
410.346039	146.100000
410.439667	146.120000
410.533295	146.280000
410.626923	146.760000
410.720551	146.660000
410.814209	147.060000
410.907806	147.140000
411.001465	146.620000
411.095062	146.420000
411.188721	146.680000
411.282318	145.960000
411.375977	145.360000
411.469574	145.880000
411.563232	145.980000
411.656830	145.380000
411.750488	145.580000
411.844086	145.560000
411.937744	145.640000
412.031372	145.320000
412.125000	145.740000
412.218628	145.580000
412.312256	146.580000
412.405884	146.660000
412.499512	146.620000
412.593170	146.920000
412.686798	147.060000
412.780426	146.280000
412.874054	146.120000
412.967682	146.220000
413.061310	146.560000
413.154968	146.440000
413.248566	146.540000
413.342224	146.520000
413.435852	146.720000
413.529510	146.040000
413.623108	145.760000
413.716766	145.800000
413.810364	146.300000
413.904022	146.020000
413.997650	145.760000
414.091309	146.960000
414.184906	146.740000
414.278564	146.040000
414.372192	146.300000
414.465851	146.800000
414.559479	145.800000
414.653107	146.780000
414.746735	146.800000
414.840393	146.660000
414.934021	146.840000
415.027649	146.820000
415.121277	146.220000
415.214935	146.440000
415.308563	146.200000
415.402191	145.560000
415.495850	145.540000
415.589478	145.260000
415.683136	145.000000
415.776733	145.360000
415.870422	146.020000
415.964020	145.980000
416.057678	146.180000
416.151306	146.040000
416.244965	146.000000
416.338562	145.760000
416.432251	146.200000
416.525848	146.740000
416.619507	147.420000
416.713165	147.880000
416.806793	147.660000
416.900421	147.720000
416.994080	146.940000
417.087708	146.460000
417.181366	145.880000
417.274994	146.360000
417.368622	146.440000
417.462280	147.380000
417.555908	147.540000
417.649567	147.460000
417.743195	146.960000
417.836853	146.780000
417.930481	146.660000
418.024170	146.540000
418.117767	147.080000
418.211426	147.480000
418.305054	147.580000
418.398712	146.560000
418.492340	146.760000
418.585999	146.740000
418.679626	146.820000
418.773285	146.420000
418.866913	147.280000
418.960571	147.340000
419.054230	147.220000
419.147858	147.140000
419.241516	147.580000
419.335144	147.040000
419.428802	146.960000
419.522461	146.760000
419.616089	146.100000
419.709747	146.140000
419.803375	146.240000
419.897034	145.800000
419.990662	145.580000
420.084320	146.080000
420.177979	146.020000
420.271606	146.340000
420.365295	146.980000
420.458893	147.300000
420.552582	147.380000
420.646210	147.260000
420.739868	146.740000
420.833496	146.220000
420.927155	145.800000
421.020782	145.420000
421.114471	144.900000
421.208069	145.220000
421.301758	145.460000
421.395386	145.520000
421.489044	145.620000
421.582703	145.880000
421.676361	146.240000
421.769989	146.020000
421.863647	146.400000
421.957306	146.380000
422.050934	146.580000
422.144592	146.160000
422.238251	145.680000
422.331909	145.400000
422.425537	145.420000
422.519196	145.340000
422.612854	145.260000
422.706543	145.600000
422.800140	146.020000
422.893829	145.680000
422.987457	145.080000
423.081146	145.300000
423.174744	146.040000
423.268433	145.620000
423.362061	145.760000
423.455750	146.440000
423.549347	146.440000
423.643036	145.680000
423.736664	146.440000
423.830353	146.600000
423.924011	146.680000
424.017639	146.220000
424.111298	146.420000
424.204956	146.000000
424.298615	146.240000
424.392273	146.040000
424.485931	146.480000
424.579559	146.640000
424.673218	146.180000
424.766876	146.060000
424.860535	145.900000
424.954193	145.640000
425.047882	146.120000
425.141510	146.600000
425.235199	146.360000
425.328796	146.260000
425.422485	146.200000
425.516113	145.280000
425.609802	145.120000
425.703430	145.360000
425.797119	145.460000
425.890747	145.800000
425.984436	145.960000
426.078064	146.080000
426.171753	146.220000
426.265411	146.120000
426.359070	146.000000
426.452728	145.880000
426.546356	145.560000
426.640015	145.440000
426.733673	145.360000
426.827332	145.180000
426.920990	145.960000
427.014648	145.920000
427.108307	146.060000
427.201965	146.680000
427.295624	147.000000
427.389282	146.560000
427.482941	146.820000
427.576630	146.580000
427.670258	145.660000
427.763947	145.200000
427.857574	145.200000
427.951263	145.080000
428.044922	145.140000
428.138611	145.540000
428.232239	146.540000
428.325928	146.920000
428.419556	147.340000
428.513245	146.980000
428.606903	147.180000
428.700562	146.240000
428.794220	145.580000
428.887878	145.000000
428.981537	145.500000
429.075195	145.520000
429.168854	146.020000
429.262512	146.360000
429.356201	146.660000
429.449860	146.160000
429.543518	146.080000
429.637177	146.080000
429.730835	145.720000
429.824493	145.640000
429.918182	146.300000
430.011810	145.760000
430.105530	145.120000
430.199158	145.560000
430.292847	145.380000
430.386475	145.060000
430.480164	145.240000
430.573792	145.020000
430.667511	144.920000
430.761139	145.020000
430.854828	145.340000
430.948456	145.500000
431.042145	146.300000
431.135834	146.080000
431.229492	146.380000
431.323151	146.400000
431.416809	146.440000
431.510468	146.320000
431.604156	146.220000
431.697815	146.100000
431.791473	145.680000
431.885132	145.460000
431.978821	145.900000
432.072479	146.360000
432.166138	146.520000
432.259827	146.400000
432.353485	147.020000
432.447174	146.820000
432.540802	146.280000
432.634491	146.300000
432.728149	146.580000
432.821838	146.640000
432.915466	146.100000
433.009186	146.180000
433.102814	145.700000
433.196503	145.600000
433.290131	145.420000
433.383850	145.940000
433.477509	146.080000
433.571167	146.800000
433.664856	147.280000
433.758514	147.680000
433.852173	147.260000
433.945862	147.300000
434.039520	146.980000
434.133179	146.260000
434.226868	145.880000
434.320526	145.500000
434.414185	145.980000
434.507874	145.580000
434.601562	146.040000
434.695221	145.840000
434.788910	146.380000
434.882538	146.320000
434.976257	146.520000
435.069885	146.660000
435.163574	146.820000
435.257233	146.420000
435.350922	146.320000
435.444580	146.020000
435.538269	145.360000
435.631897	145.740000
435.725616	146.480000
435.819275	146.640000
435.912964	147.000000
436.006622	147.620000
436.100311	147.280000
436.193970	146.500000
436.287628	146.080000
436.381317	145.800000
436.474976	145.180000
436.568665	144.880000
436.662323	145.140000
436.756012	144.880000
436.849670	144.880000
436.943390	144.920000
437.037018	145.240000
437.130737	145.140000
437.224365	145.440000
437.318085	145.740000
437.411713	145.860000
437.505432	145.900000
437.599060	146.440000
437.692780	146.800000
437.786407	146.520000
437.880127	146.820000
437.973755	146.400000
438.067474	145.860000
438.161133	145.500000
438.254822	145.860000
438.348480	145.580000
438.442169	146.180000
438.535828	146.760000
438.629517	146.600000
438.723175	146.020000
438.816864	146.600000
438.910553	146.200000
439.004211	145.800000
439.097900	145.680000
439.191559	145.900000
439.285248	145.040000
439.378906	145.260000
439.472626	145.300000
439.566284	145.460000
439.659973	145.900000
439.753632	146.280000
439.847321	146.800000
439.940979	146.700000
440.034698	146.740000
440.128326	145.960000
440.222046	145.760000
440.315674	144.700000
440.409393	144.700000
440.503082	144.560000
440.596741	144.900000
440.690430	145.080000
440.784088	145.260000
440.877777	145.080000
440.971466	145.040000
441.065125	145.360000
441.158813	145.160000
441.252502	145.380000
441.346161	145.660000
441.439850	146.040000
441.533539	145.700000
441.627197	146.140000
441.720886	145.740000
441.814606	145.700000
441.908234	146.080000
442.001953	146.120000
442.095612	145.880000
442.189301	146.300000
442.282959	146.560000
442.376678	145.520000
442.470306	146.080000
442.564026	145.740000
442.657684	145.660000
442.751404	145.500000
442.845032	146.520000
442.938751	145.720000
443.032440	146.420000
443.126099	145.960000
443.219788	146.420000
443.313477	146.100000
443.407166	146.680000
443.500824	146.120000
443.594513	146.900000
443.688202	146.660000
443.781891	145.980000
443.875549	145.380000
443.969238	145.580000
444.062927	145.620000
444.156647	145.300000
444.250275	146.140000
444.343994	146.780000
444.437653	146.800000
444.531372	146.440000
444.625031	146.560000
444.718719	145.920000
444.812378	145.440000
444.906097	145.120000
444.999756	144.580000
445.093445	144.640000
445.187103	144.920000
445.280823	145.260000
445.374512	144.860000
445.468201	145.360000
445.561859	145.060000
445.655548	144.980000
445.749237	144.680000
445.842926	145.380000
445.936615	145.720000
446.030304	145.600000
446.123962	145.840000
446.217651	145.660000
446.311340	146.020000
446.405029	145.540000
446.498749	145.540000
446.592407	145.280000
446.686096	145.640000
446.779755	145.300000
446.873474	145.480000
446.967133	145.760000
447.060852	145.760000
447.154510	145.640000
447.248230	145.680000
447.341858	145.760000
447.435577	145.480000
447.529236	145.160000
447.622955	145.060000
447.716644	145.200000
447.810333	145.360000
447.904022	146.060000
447.997711	146.340000
448.091400	146.740000
448.185059	146.460000
448.278748	146.320000
448.372437	145.780000
448.466125	146.280000
448.559814	146.320000
448.653503	147.080000
448.747192	147.360000
448.840912	147.620000
448.934570	147.320000
449.028290	147.440000
449.121948	146.700000
449.215637	146.120000
449.309296	145.720000
449.403015	145.620000
449.496674	145.100000
449.590393	145.200000
449.684052	145.360000
449.777771	146.360000
449.871429	146.020000
449.965149	146.080000
450.058838	146.220000
450.152527	146.380000
450.246216	145.660000
450.339905	145.780000
450.433594	145.580000
450.527283	146.240000
450.620972	145.920000
450.714661	146.120000
450.808350	146.340000
450.902039	146.720000
450.995728	146.000000
451.089417	145.820000
451.183105	145.680000
451.276794	146.000000
451.370514	145.680000
451.464172	145.140000
451.557892	145.360000
451.651550	145.500000
451.745270	144.920000
451.838928	144.600000
451.932648	145.080000
452.026306	145.500000
452.120026	145.060000
452.213684	145.540000
452.307404	146.100000
452.401062	146.140000
452.494781	146.260000
452.588470	146.680000
452.682159	146.360000
452.775848	146.200000
452.869537	145.600000
452.963226	145.040000
453.056915	144.500000
453.150604	144.440000
453.244293	144.700000
453.337982	145.520000
453.431671	146.040000
453.525360	147.060000
453.619049	147.120000
453.712769	147.360000
453.806427	147.020000
453.900146	146.760000
453.993805	145.980000
454.087555	146.580000
454.181213	146.420000
454.274933	146.400000
454.368591	146.260000
454.462311	146.400000
454.555969	145.820000
454.649689	146.460000
454.743347	146.400000
454.837067	146.900000
454.930756	147.180000
455.024445	147.380000
455.118134	146.740000
455.211853	146.980000
455.305542	146.520000
455.399231	146.200000
455.492920	145.840000
455.586609	145.960000
455.680298	146.180000
455.773987	146.080000
455.867676	146.240000
455.961365	146.740000
456.055084	146.420000
456.148773	145.960000
456.242493	146.240000
456.336151	146.060000
456.429871	146.200000
456.523529	146.420000
456.617249	146.340000
456.710907	146.780000
456.804626	146.820000
456.898315	146.280000
456.992035	146.080000
457.085693	145.940000
457.179413	145.420000
457.273102	146.120000
457.366791	146.200000
457.460480	146.520000
457.554199	147.180000
457.647888	147.000000
457.741577	146.140000
457.835266	146.280000
457.928955	146.080000
458.022644	146.240000
458.116364	146.640000
458.210052	146.740000
458.303741	146.780000
458.397461	146.400000
458.491119	145.620000
458.584839	145.440000
458.678528	145.340000
458.772247	145.140000
458.865906	145.220000
458.959625	146.080000
459.053284	146.200000
459.147003	146.080000
459.240692	146.660000
459.334412	146.940000
459.428070	146.720000
459.521790	146.280000
459.615479	146.340000
459.709198	146.380000
459.802887	146.120000
459.896576	145.860000
459.990265	146.300000
460.083954	146.800000
460.177673	145.980000
460.271362	146.100000
460.365051	145.700000
460.458740	145.260000
460.552429	144.820000
460.646149	145.140000
460.739838	144.840000
460.833527	145.180000
460.927246	145.100000
461.020905	145.040000
461.114655	145.280000
461.208313	145.820000
461.302032	145.380000
461.395691	145.860000
461.489441	145.740000
461.583099	145.300000
461.676819	145.100000
461.770477	145.940000
461.864197	145.360000
461.957916	145.580000
462.051605	145.260000
462.145294	146.000000
462.238983	145.540000
462.332703	146.340000
462.426392	147.100000
462.520081	147.660000
462.613770	146.960000
462.707489	146.900000
462.801178	146.340000
462.894867	145.680000
462.988556	145.500000
463.082275	145.680000
463.175964	145.400000
463.269684	145.780000
463.363342	145.900000
463.457092	145.380000
463.550751	145.460000
463.644470	146.080000
463.738129	145.800000
463.831879	145.780000
463.925537	146.740000
464.019257	146.880000
464.112946	146.640000
464.206665	146.740000
464.300323	146.560000
464.394043	146.180000
464.487762	145.920000
464.581451	146.100000
464.675140	145.880000
464.768829	146.200000
464.862549	146.280000
464.956238	146.500000
465.049927	146.560000
465.143646	146.760000
465.237335	146.380000
465.331024	146.800000
465.424713	146.340000
465.518433	146.120000
465.612152	146.080000
465.705811	146.280000
465.799561	145.660000
465.893219	145.540000
465.986938	145.600000
466.080597	145.360000
466.174347	145.520000
466.268005	145.860000
466.361725	146.060000
466.455414	146.240000
466.549133	146.240000
466.642792	146.400000
466.736542	146.280000
466.830231	146.380000
466.923920	146.080000
467.017609	146.320000
467.111328	145.800000
467.205017	145.340000
467.298706	145.380000
467.392426	145.640000
467.486115	145.660000
467.579803	145.460000
467.673523	146.100000
467.767212	145.920000
467.860901	145.920000
467.954651	146.140000
468.048309	146.600000
468.142029	145.980000
468.235718	146.220000
468.329437	145.960000
468.423096	145.920000
468.516846	145.640000
468.610504	145.820000
468.704224	145.480000
468.797913	145.300000
468.891632	145.380000
468.985291	145.620000
469.079010	145.740000
469.172729	145.420000
469.266418	146.240000
469.360107	146.120000
469.453827	145.780000
469.547516	145.740000
469.641205	146.500000
469.734924	146.060000
469.828613	146.340000
469.922302	146.780000
470.016022	146.800000
470.109711	146.400000
470.203430	145.920000
470.297150	145.060000
470.390808	145.180000
470.484558	145.120000
470.578217	145.660000
470.671936	146.340000
470.765625	147.140000
470.859344	146.740000
470.953003	147.160000
471.046753	146.640000
471.140411	146.060000
471.234131	146.200000
471.327820	146.720000
471.421539	146.380000
471.515228	146.160000
471.608948	146.340000
471.702637	145.660000
471.796326	145.220000
471.890045	145.620000
471.983734	145.980000
472.077423	145.960000
472.171143	146.100000
472.264832	145.940000
472.358521	145.540000
472.452240	145.240000
472.545929	145.820000
472.639648	146.120000
472.733337	146.780000
472.827057	147.240000
472.920746	147.540000
473.014465	147.500000
473.108124	147.500000
473.201874	147.240000
473.295532	146.820000
473.389252	147.100000
473.482941	147.040000
473.576660	146.520000
473.670319	146.180000
473.764069	146.320000
473.857727	146.500000
473.951477	146.640000
474.045166	147.640000
474.138855	147.520000
474.232574	147.580000
474.326263	147.320000
474.419952	147.440000
474.513672	146.880000
474.607361	147.040000
474.701050	147.040000
474.794769	147.180000
474.888458	147.260000
474.982178	147.300000
475.075867	147.780000
475.169586	147.820000
475.263275	147.700000
475.356995	147.320000
475.450653	147.160000
475.544403	146.780000
475.638062	147.380000
475.731812	146.780000
475.825470	146.580000
475.919189	147.020000
476.012878	146.940000
476.106598	146.100000
476.200256	146.620000
476.294006	146.480000
476.387695	145.940000
476.481384	145.840000
476.575104	146.140000
476.668793	145.880000
476.762512	145.800000
476.856201	146.520000
476.949890	146.540000
477.043610	146.000000
477.137299	145.920000
477.230988	146.080000
477.324707	145.440000
477.418396	146.040000
477.512146	146.200000
477.605804	146.340000
477.699524	146.420000
477.793213	146.500000
477.886932	145.960000
477.980591	145.860000
478.074341	145.720000
478.167999	145.460000
478.261749	145.400000
478.355408	145.480000
478.449127	146.160000
478.542816	147.240000
478.636536	147.900000
478.730225	148.280000
478.823944	148.620000
478.917633	148.140000
479.011322	147.800000
479.105042	147.300000
479.198730	147.380000
479.292450	147.020000
479.386139	147.540000
479.479828	147.260000
479.573547	147.480000
479.667267	147.420000
479.760925	147.480000
479.854675	147.260000
479.948334	147.440000
480.042084	147.020000
480.135742	146.900000
480.229462	146.640000
480.323151	146.660000
480.416870	145.960000
480.510529	146.260000
480.604279	145.600000
480.697937	146.260000
480.791656	145.900000
480.885345	145.960000
480.979065	145.760000
481.072754	146.340000
481.166473	146.540000
481.260132	146.600000
481.353882	146.800000
481.447540	146.940000
481.541260	147.080000
481.635010	146.240000
481.728668	146.240000
481.822388	145.940000
481.916077	145.820000
482.009796	145.600000
482.103485	146.120000
482.197205	145.960000
482.290863	146.400000
482.384613	146.200000
482.478271	145.900000
482.571991	145.780000
482.665680	146.100000
482.759399	146.600000
482.853058	147.280000
482.946808	147.320000
483.040466	146.840000
483.134216	146.380000
483.227875	145.680000
483.321594	146.040000
483.415283	146.160000
483.509003	146.520000
483.602661	146.740000
483.696411	147.140000
483.790070	146.240000
483.883789	146.180000
483.977478	146.380000
484.071198	146.700000
484.164917	146.320000
484.258606	146.460000
484.352325	146.760000
484.445984	146.740000
484.539734	146.420000
484.633392	146.140000
484.727142	146.540000
484.820801	146.420000
484.914520	146.340000
485.008209	146.380000
485.101929	146.800000
485.195587	146.380000
485.289337	146.040000
485.382996	145.940000
485.476715	145.880000
485.570404	146.260000
485.664124	146.360000
485.757782	147.100000
485.851532	147.060000
485.945190	147.200000
486.038910	146.920000
486.132599	147.400000
486.226318	146.680000
486.319977	146.620000
486.413727	146.980000
486.507446	146.700000
486.601105	145.860000
486.694855	146.000000
486.788513	145.860000
486.882233	145.500000
486.975922	145.560000
487.069641	145.660000
487.163300	145.640000
487.257050	147.020000
487.350708	146.820000
487.444427	146.660000
487.538116	146.560000
487.631836	146.380000
487.725494	145.420000
487.819214	145.580000
487.912903	145.380000
488.006622	145.880000
488.100281	146.160000
488.194031	145.900000
488.287689	146.320000
488.381409	147.460000
488.475098	147.400000
488.568817	147.600000
488.662476	147.380000
488.756226	146.780000
488.849945	145.700000
488.943604	145.780000
489.037354	145.900000
489.131012	145.920000
489.224731	145.780000
489.318390	146.060000
489.412140	145.860000
489.505798	145.520000
489.599518	145.400000
489.693207	145.920000
489.786926	145.600000
489.880585	145.300000
489.974335	145.760000
490.067993	147.160000
490.161713	147.280000
490.255371	147.960000
490.349121	148.300000
490.442780	147.560000
490.536499	146.380000
490.630188	146.020000
490.723907	145.820000
490.817566	145.840000
490.911285	145.960000
491.004974	145.980000
491.098694	145.580000
491.192413	145.920000
491.286102	145.740000
491.379822	145.980000
491.473480	146.200000
491.567200	146.440000
491.660889	145.700000
491.754608	145.760000
491.848267	145.620000
491.941986	145.400000
492.035675	145.500000
492.129395	145.780000
492.223053	145.700000
492.316772	145.880000
492.410461	145.880000
492.504181	145.820000
492.597839	145.880000
492.691559	145.980000
492.785248	145.940000
492.878967	145.880000
492.972626	145.900000
493.066345	145.640000
493.160034	145.500000
493.253754	145.600000
493.347412	145.280000
493.441132	145.460000
493.534882	146.100000
493.628540	146.320000
493.722260	146.500000
493.815918	147.100000
493.909668	147.260000
494.003326	147.240000
494.097046	146.920000
494.190704	146.540000
494.284454	146.760000
494.378113	146.660000
494.471832	146.200000
494.565491	146.460000
494.659210	146.300000
494.752899	145.900000
494.846619	145.760000
494.940277	145.840000
495.033997	145.420000
495.127686	145.520000
495.221405	145.300000
495.315063	145.620000
495.408783	145.680000
495.502441	146.240000
495.596191	146.400000
495.689850	146.360000
495.783569	146.460000
495.877228	146.620000
495.970947	146.080000
496.064697	146.200000
496.158356	147.080000
496.252075	146.760000
496.345734	146.420000
496.439453	147.420000
496.533142	147.360000
496.626862	147.520000
496.720520	147.600000
496.814240	147.980000
496.907898	147.460000
497.001617	147.420000
497.095306	146.520000
497.189026	146.180000
497.282684	145.960000
497.376404	146.200000
497.470062	145.720000
497.563782	145.920000
497.657471	146.020000
497.751190	145.780000
497.844849	145.440000
497.938568	145.980000
498.032227	145.880000
498.125946	145.940000
498.219635	145.700000
498.313354	145.820000
498.407074	145.620000
498.500732	146.040000
498.594452	146.240000
498.688110	146.280000
498.781830	145.940000
498.875519	145.960000
498.969238	145.440000
499.062897	145.000000
499.156616	145.780000
499.250275	146.080000
499.343994	145.620000
499.437653	146.000000
499.531372	146.600000
499.625061	146.620000
499.718781	146.700000
499.812439	147.420000
499.906158	147.060000
499.999817	146.560000
500.093536	146.140000
500.187195	146.180000
500.280914	145.980000
500.374573	146.320000
500.468323	146.100000
500.561981	146.140000
500.655701	145.720000
500.749420	145.720000
500.843079	146.040000
500.936798	146.420000
501.030457	146.940000
501.124176	147.280000
501.217834	147.180000
501.311554	146.880000
501.405212	146.640000
501.498962	145.940000
501.592621	145.760000
501.686340	146.260000
501.779999	146.240000
501.873718	146.580000
501.967377	146.700000
502.061096	146.700000
502.154755	145.940000
502.248474	145.780000
502.342133	145.740000
502.435852	145.640000
502.529510	146.220000
502.623230	146.860000
502.716888	146.380000
502.810608	146.680000
502.904266	147.100000
502.997986	146.640000
503.091705	146.080000
503.185364	146.380000
503.279083	145.960000
503.372772	145.920000
503.466492	145.640000
503.560150	145.880000
503.653870	146.460000
503.747528	146.560000
503.841248	146.400000
503.934906	146.680000
504.028625	146.240000
504.122284	145.920000
504.216003	146.440000
504.309662	145.940000
504.403381	146.120000
504.497040	146.400000
504.590759	145.880000
504.684418	145.820000
504.778137	146.680000
504.871796	146.820000
504.965515	146.520000
505.059174	146.980000
505.152893	146.260000
505.246521	145.540000
505.340240	144.840000
505.433899	145.240000
505.527618	145.300000
505.621338	145.680000
505.714996	145.640000
505.808716	145.920000
505.902374	146.540000
505.996094	146.380000
506.089752	145.940000
506.183472	146.180000
506.277130	146.340000
506.370850	145.960000
506.464508	145.820000
506.558228	146.160000
506.651886	146.180000
506.745605	146.160000
506.839264	146.120000
506.932983	146.280000
507.026611	146.100000
507.120331	146.620000
507.213989	145.980000
507.307709	145.880000
507.401367	146.340000
507.495087	147.260000
507.588745	146.480000
507.682465	147.420000
507.776123	147.220000
507.869843	146.680000
507.963531	145.880000
508.057190	146.380000
508.150909	145.740000
508.244568	145.980000
508.338287	145.760000
508.431946	145.700000
508.525665	145.300000
508.619324	145.160000
508.713013	145.340000
508.806671	145.760000
508.900391	146.540000
508.994049	146.860000
509.087769	146.900000
509.181427	146.840000
509.275146	146.600000
509.368774	145.880000
509.462494	145.960000
509.556152	146.040000
509.649872	146.240000
509.743530	146.360000
509.837250	146.480000
509.930878	146.380000
510.024597	146.380000
510.118256	145.940000
510.211975	145.600000
510.305695	145.340000
510.399353	145.520000
510.493042	146.100000
510.586700	146.400000
510.680420	147.400000
510.774078	147.440000
510.867798	147.500000
510.961426	147.000000
511.055145	146.700000
511.148804	146.140000
511.242523	146.660000
511.336151	146.460000
511.429871	146.860000
511.523529	146.860000
511.617249	146.180000
511.710876	145.760000
511.804596	145.340000
511.898254	145.380000
511.991974	145.560000
512.085632	145.860000
512.179321	145.980000
512.272949	146.600000
512.366699	146.640000
512.460327	146.560000
512.554077	147.800000
512.647766	147.800000
512.741394	147.500000
512.835144	147.700000
512.928772	147.460000
513.022461	146.840000
513.116150	146.480000
513.209839	146.980000
513.303467	146.440000
513.397217	146.420000
513.490845	146.060000
513.584595	145.960000
513.678223	145.260000
513.771912	144.800000
513.865601	145.000000
513.959290	144.760000
514.052917	145.060000
514.146667	145.820000
514.240295	146.320000
514.333984	146.900000
514.427673	146.980000
514.521362	147.320000
514.614990	146.460000
514.708740	146.200000
514.802368	145.780000
514.896057	146.140000
514.989746	146.800000
515.083435	146.940000
515.177124	147.620000
515.270752	147.200000
515.364502	147.100000
515.458130	146.740000
515.551819	146.660000
515.645508	146.000000
515.739197	146.280000
515.832825	146.420000
515.926575	145.960000
516.020203	146.560000
516.113892	147.300000
516.207520	147.200000
516.301270	147.160000
516.394897	147.200000
516.488586	147.360000
516.582275	147.180000
516.675964	146.740000
516.769592	146.640000
516.863281	147.300000
516.956970	147.220000
517.050659	146.920000
517.144287	147.440000
517.238037	147.220000
517.331665	146.600000
517.425354	146.180000
517.519043	145.800000
517.612732	146.180000
517.706421	146.460000
517.800049	146.440000
517.893738	146.180000
517.987427	146.340000
518.081116	145.920000
518.174744	145.380000
518.268433	145.520000
518.362122	146.160000
518.455811	146.380000
518.549438	147.100000
518.643127	148.240000
518.736816	147.900000
518.830505	147.240000
518.924133	147.020000
519.017822	146.560000
519.111511	145.620000
519.205200	146.180000
519.298828	146.460000
519.392517	146.360000
519.486206	146.660000
519.579895	146.960000
519.673523	146.540000
519.767212	146.300000
519.860901	146.900000
519.954590	146.260000
520.048279	145.920000
520.141907	145.680000
520.235596	146.620000
520.329224	146.660000
520.422974	146.780000
520.516602	146.820000
520.610291	146.740000
520.703918	146.340000
520.797607	145.700000
520.891296	145.560000
520.984985	145.720000
521.078613	146.420000
521.172302	145.940000
521.265930	146.960000
521.359680	147.560000
521.453308	147.480000
521.546997	147.080000
521.640625	147.480000
521.734314	146.620000
521.827942	146.140000
521.921692	146.800000
522.015320	147.020000
522.109009	146.580000
522.202698	146.540000
522.296326	146.580000
522.390015	146.380000
522.483704	146.300000
522.577393	146.520000
522.671021	146.580000
522.764709	146.260000
522.858337	146.180000
522.952026	146.040000
523.045654	146.480000
523.139404	147.220000
523.233032	147.920000
523.326721	147.560000
523.420349	147.560000
523.514038	146.700000
523.607666	146.680000
523.701355	146.160000
523.795044	146.260000
523.888733	146.320000
523.982361	147.120000
524.076050	146.400000
524.169678	146.580000
524.263367	146.200000
524.356995	146.100000
524.450684	145.520000
524.544373	145.500000
524.638062	145.620000
524.731750	146.040000
524.825378	145.920000
524.919067	145.580000
525.012695	145.520000
525.106384	145.200000
525.200012	145.420000
525.293701	145.380000
525.387329	145.860000
525.481018	146.500000
525.574646	146.600000
525.668396	146.580000
525.762024	146.880000
525.855713	146.980000
525.949341	146.140000
526.043030	146.380000
526.136658	146.180000
526.230347	146.040000
526.323975	145.960000
526.417664	146.020000
526.511292	146.020000
526.604980	146.300000
526.698608	146.180000
526.792297	146.160000
526.885925	146.580000
526.979614	146.660000
527.073303	146.340000
527.166931	146.520000
527.260620	146.720000
527.354309	147.060000
527.447998	146.840000
527.541626	146.440000
527.635315	146.580000
527.728943	147.240000
527.822632	147.120000
527.916260	146.980000
528.009949	147.460000
528.103577	146.880000
528.197266	145.940000
528.290894	145.900000
528.384583	146.020000
528.478210	145.840000
528.571899	146.440000
528.665527	146.780000
528.759216	146.640000
528.852844	147.120000
528.946533	147.200000
529.040161	147.020000
529.133850	146.680000
529.227478	146.820000
529.321167	146.620000
529.414856	147.000000
529.508484	147.480000
529.602173	147.280000
529.695801	147.180000
529.789490	147.020000
529.883057	146.780000
529.976746	146.640000
530.070374	147.160000
530.164062	147.040000
530.257690	147.140000
530.351379	147.240000
530.445007	146.820000
530.538696	146.200000
530.632324	146.660000
530.726013	146.640000
530.819641	146.860000
530.913330	147.260000
531.006958	147.880000
531.100647	147.480000
531.194275	147.340000
531.287964	146.840000
531.381592	146.480000
531.475220	146.200000
531.568848	146.140000
531.662537	145.980000
531.756226	146.300000
531.849854	146.300000
531.943542	146.420000
532.037170	146.020000
532.130859	146.340000
532.224487	146.120000
532.318176	145.940000
532.411804	146.400000
532.505432	146.940000
532.599060	146.940000
532.692749	146.680000
532.786377	147.180000
532.880066	146.400000
532.973694	145.820000
533.067383	145.640000
533.161011	146.020000
533.254639	145.720000
533.348267	145.640000
533.441956	146.060000
533.535583	146.000000
533.629272	145.880000
533.722900	145.460000
533.816589	145.780000
533.910156	145.940000
534.003845	145.680000
534.097534	145.760000
534.191162	146.700000
534.284851	146.740000
534.378479	146.320000
534.472107	146.460000
534.565735	146.560000
534.659424	146.320000
534.753052	146.540000
534.846741	146.540000
534.940369	146.940000
535.033997	146.640000
535.127625	146.360000
535.221313	146.500000
535.314941	146.440000
535.408630	145.780000
535.502197	146.080000
535.595886	146.060000
535.689514	145.620000
535.783203	146.200000
535.876831	146.860000
535.970459	146.880000
536.064087	146.900000
536.157776	146.860000
536.251404	146.660000
536.345093	146.260000
536.438721	146.000000
536.532349	146.020000
536.626038	145.920000
536.719666	146.300000
536.813293	146.020000
536.906921	146.060000
537.000610	146.200000
537.094238	146.080000
537.187866	145.780000
537.281494	145.840000
537.375183	146.020000
537.468811	145.740000
537.562439	145.940000
537.656067	146.060000
537.749756	146.480000
537.843384	147.000000
537.937012	147.100000
538.030640	146.900000
538.124329	146.780000
538.217896	147.100000
538.311584	146.640000
538.405212	146.680000
538.498901	147.000000
538.592468	147.220000
538.686157	146.320000
538.779785	145.540000
538.873413	145.480000
538.967102	145.400000
539.060730	145.080000
539.154358	145.580000
539.247986	146.180000
539.341675	146.220000
539.435242	145.980000
539.528931	146.060000
539.622559	145.560000
539.716187	145.860000
539.809814	145.700000
539.903503	145.800000
539.997070	145.360000
540.090759	145.960000
540.184387	145.720000
540.278015	146.180000
540.371643	146.420000
540.465332	147.000000
540.558899	146.480000
540.652588	146.480000
540.746216	145.820000
540.839844	146.040000
540.933472	145.960000
541.027100	145.940000
541.120728	146.040000
541.214417	146.620000
541.308044	146.620000
541.401672	146.260000
541.495300	146.600000
541.588928	146.440000
541.682617	146.240000
541.776184	145.960000
541.869873	146.320000
541.963440	146.340000
542.057129	146.400000
542.150757	146.280000
542.244385	145.860000
542.338013	145.300000
542.431641	145.180000
542.525269	144.940000
542.618958	145.500000
542.712524	145.940000
542.806213	146.000000
542.899780	146.060000
542.993469	145.780000
543.087036	145.280000
543.180725	144.860000
543.274292	145.560000
543.367981	145.780000
543.461548	146.560000
543.555237	146.500000
543.648926	147.120000
543.742493	147.380000
543.836182	147.480000
543.929749	147.220000
544.023437	147.120000
544.117004	146.860000
544.210693	146.420000
544.304260	146.300000
544.397949	146.140000
544.491516	146.300000
544.585205	146.480000
544.678772	146.180000
544.772461	146.320000
544.866028	146.340000
544.959717	146.520000
545.053284	146.120000
545.146973	146.240000
545.240540	146.180000
545.334229	146.740000
545.427795	146.760000
545.521423	147.060000
545.615051	147.120000
545.708679	147.440000
545.802307	147.040000
545.895935	147.320000
545.989624	147.980000
546.083191	147.900000
546.176880	147.400000
546.270447	147.040000
546.364136	147.100000
546.457703	146.100000
546.551331	146.000000
546.644958	146.120000
546.738586	146.500000
546.832214	145.800000
546.925842	145.940000
547.019409	146.360000
547.113098	146.100000
547.206665	145.720000
547.300354	146.120000
547.393921	146.400000
547.487549	146.480000
547.581177	146.560000
547.674805	146.740000
547.768433	146.200000
547.862061	146.220000
547.955627	145.600000
548.049316	146.180000
548.142883	146.500000
548.236572	147.220000
548.330139	147.160000
548.423767	147.440000
548.517456	147.100000
548.611023	147.200000
548.704651	146.420000
548.798279	146.480000
548.891907	146.580000
548.985474	146.360000
549.079163	146.380000
549.172729	146.600000
549.266357	145.800000
549.359985	145.700000
549.453613	145.380000
549.547180	145.280000
549.640869	145.800000
549.734436	146.240000
549.828064	146.620000
549.921631	146.780000
550.015320	146.260000
550.108887	146.560000
550.202515	146.900000
550.296143	146.200000
550.389771	146.180000
550.483337	146.500000
550.576965	145.940000
550.670593	146.060000
550.764221	146.720000
550.857849	146.860000
550.951477	146.420000
551.045105	146.220000
551.138672	146.180000
551.232300	145.420000
551.325928	145.680000
551.419556	146.300000
551.513123	146.600000
551.606750	146.260000
551.700378	146.660000
551.794006	146.440000
551.887573	146.020000
551.981201	146.340000
552.074768	146.200000
552.168457	145.820000
552.262024	146.840000
552.355652	147.000000
552.449219	147.260000
552.542847	147.700000
552.636475	147.760000
552.730103	146.760000
552.823669	146.600000
552.917297	145.800000
553.010864	145.600000
553.104553	146.020000
553.198181	145.720000
553.291748	146.500000
553.385376	146.780000
553.478943	146.460000
553.572571	145.980000
553.666199	146.420000
553.759827	145.700000
553.853394	145.000000
553.947021	145.420000
554.040588	145.700000
554.134216	145.580000
554.227783	146.200000
554.321411	147.400000
554.415039	146.860000
554.508667	146.880000
554.602234	147.120000
554.695862	146.540000
554.789429	146.000000
554.883057	146.240000
554.976624	146.080000
555.070251	145.920000
555.163818	145.840000
555.257507	146.060000
555.351074	146.180000
555.444702	147.360000
555.538330	146.760000
555.631897	147.340000
555.725525	146.720000
555.819092	146.560000
555.912720	145.440000
556.006287	145.980000
556.099915	145.520000
556.193481	145.940000
556.287109	146.280000
556.380676	146.260000
556.474304	146.420000
556.567871	146.460000
556.661499	145.780000
556.755066	145.780000
556.848694	146.000000
556.942261	145.700000
557.035889	145.860000
557.129517	146.400000
557.223145	146.600000
557.316711	146.740000
557.410339	147.180000
557.503906	147.080000
557.597473	147.180000
557.691040	147.120000
557.784668	146.880000
557.878296	146.680000
557.971863	146.820000
558.065491	146.980000
558.159058	146.620000
558.252686	147.480000
558.346252	147.920000
558.439880	147.480000
558.533447	147.200000
558.627075	146.900000
558.720642	146.120000
558.814270	145.780000
558.907837	145.740000
559.001465	145.480000
559.095032	146.200000
559.188660	146.080000
559.282227	145.480000
559.375854	146.260000
559.469360	145.980000
559.562988	146.280000
559.656555	146.400000
559.750183	146.820000
559.843750	146.560000
559.937378	147.040000
560.030945	146.680000
560.124573	0.000000
560.218140	0.000000
560.311707	0.000000
560.405334	0.000000
560.498901	0.000000
560.592529	0.000000
560.686096	0.000000
560.779724	0.000000
560.873291	0.000000
560.966858	0.000000
561.060425	0.000000
561.154053	0.000000
561.247620	0.000000
561.341248	0.000000
561.434814	0.000000
561.528381	0.000000
561.621948	0.000000
561.715576	0.000000
561.809143	0.000000
561.902771	0.000000
561.996277	0.000000
562.089905	0.000000
562.183472	0.000000
562.277100	0.000000
