Model Number: SPM-002-B   
Serial Number: 70087108
Firmware Version: 004.15.4
Exposure Time: 100000.000000us
Data Taken on: 11-12-2020 18:53:20.219
Wavelength	Amplitude
221.570786	0.000000
221.663406	0.000000
221.756027	0.000000
221.848648	0.000000
221.941269	0.000000
222.033905	0.000000
222.126526	0.000000
222.219162	0.000000
222.311798	0.000000
222.404419	0.000000
222.497055	0.000000
222.589676	0.000000
222.682312	0.000000
222.774933	0.000000
222.867569	0.000000
222.960205	0.000000
223.052841	0.000000
223.145462	0.000000
223.238098	0.000000
223.330734	0.000000
223.423386	0.000000
223.516022	0.000000
223.608658	0.000000
223.701309	0.000000
223.793945	0.000000
223.886581	0.000000
223.979218	0.000000
224.071869	0.000000
224.164505	0.000000
224.257156	0.000000
224.349792	0.000000
224.442444	0.000000
224.535095	0.000000
224.627747	0.000000
224.720398	0.000000
224.813034	0.000000
224.905685	0.000000
224.998337	146.200000
225.090988	145.920000
225.183640	145.840000
225.276291	145.660000
225.368942	146.020000
225.461594	146.860000
225.554245	146.920000
225.646912	147.100000
225.739578	147.940000
225.832230	148.160000
225.924896	147.260000
226.017548	147.660000
226.110199	147.960000
226.202866	146.940000
226.295532	146.980000
226.388184	146.920000
226.480850	146.560000
226.573517	145.920000
226.666168	146.360000
226.758835	146.680000
226.851501	147.400000
226.944183	147.420000
227.036850	147.040000
227.129517	147.060000
227.222183	146.880000
227.314850	146.840000
227.407516	147.280000
227.500198	148.380000
227.592865	147.980000
227.685532	147.520000
227.778214	147.100000
227.870880	147.100000
227.963562	147.380000
228.056229	148.020000
228.148926	148.300000
228.241592	149.020000
228.334274	148.440000
228.426956	147.880000
228.519638	147.700000
228.612305	147.140000
228.704987	147.100000
228.797668	147.180000
228.890350	146.900000
228.983032	146.400000
229.075714	147.100000
229.168396	146.420000
229.261108	146.280000
229.353790	146.620000
229.446472	146.620000
229.539169	146.500000
229.631851	146.360000
229.724533	146.600000
229.817230	146.440000
229.909912	147.840000
230.002609	147.740000
230.095306	147.780000
230.187988	148.000000
230.280685	148.060000
230.373383	146.820000
230.466095	146.780000
230.558792	147.100000
230.651474	146.900000
230.744171	146.620000
230.836868	146.740000
230.929581	146.800000
231.022278	146.900000
231.114975	146.860000
231.207672	146.840000
231.300369	147.080000
231.393082	147.200000
231.485779	146.940000
231.578506	146.940000
231.671204	147.020000
231.763916	147.080000
231.856613	147.000000
231.949326	146.980000
232.042023	146.860000
232.134735	146.580000
232.227448	146.040000
232.320160	146.340000
232.412872	146.560000
232.505585	147.300000
232.598297	147.720000
232.691010	147.980000
232.783722	147.320000
232.876450	147.680000
232.969162	146.860000
233.061874	146.200000
233.154587	145.720000
233.247314	145.980000
233.340027	145.280000
233.432739	145.780000
233.525467	145.920000
233.618179	146.580000
233.710907	146.420000
233.803635	147.220000
233.896347	147.220000
233.989090	148.320000
234.081818	148.100000
234.174545	148.360000
234.267258	147.620000
234.359985	147.740000
234.452713	147.160000
234.545441	147.000000
234.638168	146.720000
234.730896	147.200000
234.823639	146.920000
234.916367	147.360000
235.009094	147.660000
235.101822	147.620000
235.194580	147.540000
235.287308	147.800000
235.380051	147.040000
235.472778	147.180000
235.565521	147.440000
235.658249	147.200000
235.750992	147.200000
235.843719	147.340000
235.936462	147.240000
236.029205	146.960000
236.121948	146.560000
236.214691	146.540000
236.307449	147.180000
236.400192	146.660000
236.492935	146.640000
236.585678	146.900000
236.678421	146.700000
236.771164	146.280000
236.863907	147.040000
236.956665	147.240000
237.049408	148.800000
237.142151	148.680000
237.234909	149.200000
237.327652	148.780000
237.420410	148.340000
237.513153	147.280000
237.605927	147.060000
237.698669	146.800000
237.791428	146.340000
237.884186	147.200000
237.976944	146.700000
238.069702	147.160000
238.162445	146.360000
238.255203	146.740000
238.347961	146.740000
238.440720	146.700000
238.533478	146.320000
238.626266	146.340000
238.719025	146.620000
238.811783	146.460000
238.904541	146.320000
238.997314	146.160000
239.090073	145.980000
239.182831	145.840000
239.275604	146.540000
239.368362	146.500000
239.461136	146.900000
239.553909	146.940000
239.646667	146.920000
239.739441	146.200000
239.832214	146.380000
239.925003	146.380000
240.017761	147.320000
240.110535	147.860000
240.203308	147.480000
240.296082	147.840000
240.388855	147.900000
240.481628	147.700000
240.574417	147.600000
240.667191	147.900000
240.759964	147.440000
240.852737	147.100000
240.945526	146.800000
241.038315	146.480000
241.131088	146.440000
241.223877	146.600000
241.316650	146.400000
241.409439	146.820000
241.502228	146.320000
241.595001	146.800000
241.687790	146.540000
241.780579	146.740000
241.873367	146.980000
241.966141	147.340000
242.058929	146.820000
242.151718	147.420000
242.244507	148.100000
242.337311	147.020000
242.430099	147.780000
242.522903	147.800000
242.615692	147.120000
242.708481	147.040000
242.801270	147.540000
242.894073	147.160000
242.986862	147.360000
243.079651	148.060000
243.172455	147.800000
243.265244	147.920000
243.358063	147.100000
243.450867	147.040000
243.543655	146.700000
243.636459	146.500000
243.729263	146.660000
243.822067	147.220000
243.914856	147.460000
244.007660	147.600000
244.100464	147.600000
244.193268	147.260000
244.286072	147.200000
244.378876	146.700000
244.471680	146.660000
244.564499	146.980000
244.657318	147.500000
244.750122	147.600000
244.842926	147.240000
244.935745	147.460000
245.028549	147.120000
245.121368	146.740000
245.214172	146.900000
245.306992	147.420000
245.399796	146.740000
245.492615	146.780000
245.585434	146.580000
245.678253	146.140000
245.771072	146.200000
245.863892	146.860000
245.956711	147.180000
246.049530	147.220000
246.142349	147.100000
246.235168	147.000000
246.327988	147.380000
246.420807	146.640000
246.513626	146.700000
246.606445	146.480000
246.699280	146.540000
246.792099	146.020000
246.884918	146.140000
246.977753	145.800000
247.070587	146.160000
247.163422	146.300000
247.256241	146.340000
247.349075	146.620000
247.441895	146.960000
247.534729	146.960000
247.627563	146.500000
247.720383	147.280000
247.813217	147.320000
247.906052	147.160000
247.998886	147.520000
248.091736	147.640000
248.184570	146.780000
248.277405	146.940000
248.370239	147.860000
248.463074	148.400000
248.555908	148.700000
248.648743	148.920000
248.741592	148.680000
248.834427	147.960000
248.927261	146.600000
249.020111	146.600000
249.112946	146.860000
249.205795	146.540000
249.298630	146.480000
249.391495	147.060000
249.484344	146.700000
249.577179	146.680000
249.670029	147.240000
249.762878	147.860000
249.855728	147.860000
249.948563	148.220000
250.041412	147.780000
250.134262	147.940000
250.227112	147.880000
250.319962	147.920000
250.412827	147.680000
250.505692	147.280000
250.598541	146.940000
250.691391	146.300000
250.784241	146.320000
250.877106	146.680000
250.969955	146.600000
251.062805	146.960000
251.155670	147.480000
251.248520	147.100000
251.341385	147.260000
251.434235	147.680000
251.527100	147.500000
251.619965	147.100000
251.712814	148.000000
251.805695	147.740000
251.898560	147.800000
251.991425	147.620000
252.084290	147.660000
252.177155	146.880000
252.270020	146.560000
252.362885	146.620000
252.455750	147.140000
252.548615	147.040000
252.641479	146.880000
252.734360	146.840000
252.827240	146.640000
252.920105	146.340000
253.012970	146.180000
253.105850	146.420000
253.198715	146.100000
253.291595	146.200000
253.384460	146.000000
253.477341	146.300000
253.570221	146.660000
253.663086	146.940000
253.755966	147.580000
253.848846	147.580000
253.941727	147.780000
254.034592	147.680000
254.127472	147.160000
254.220367	146.780000
254.313248	146.860000
254.406128	146.380000
254.499008	146.520000
254.591904	147.460000
254.684784	147.840000
254.777664	147.840000
254.870544	147.640000
254.963440	147.120000
255.056335	147.240000
255.149216	146.720000
255.242111	147.080000
255.334991	147.500000
255.427887	147.740000
255.520767	147.580000
255.613663	147.820000
255.706558	147.240000
255.799438	147.180000
255.892334	147.040000
255.985229	146.940000
256.078125	146.920000
256.171021	147.240000
256.263916	147.800000
256.356812	148.080000
256.449707	148.220000
256.542603	147.800000
256.635498	148.220000
256.728394	147.780000
256.821289	147.620000
256.914215	147.740000
257.007080	148.040000
257.100006	147.820000
257.192932	148.160000
257.285828	148.200000
257.378723	147.960000
257.471619	147.840000
257.564545	147.260000
257.657440	147.140000
257.750336	147.400000
257.843262	147.040000
257.936157	147.980000
258.029053	148.440000
258.121979	148.600000
258.214874	148.120000
258.307800	148.220000
258.400696	146.720000
258.493622	146.540000
258.586517	145.820000
258.679443	146.280000
258.772339	146.040000
258.865265	146.500000
258.958160	146.320000
259.051086	146.960000
259.144012	146.740000
259.236938	147.460000
259.329834	147.680000
259.422791	147.720000
259.515717	146.920000
259.608612	146.780000
259.701538	146.940000
259.794464	146.720000
259.887390	146.720000
259.980316	146.960000
260.073212	147.100000
260.166138	145.940000
260.259064	146.220000
260.351990	146.800000
260.444916	147.220000
260.537842	147.380000
260.630768	148.360000
260.723694	148.240000
260.816620	147.740000
260.909546	147.440000
261.002472	146.980000
261.095398	146.200000
261.188354	146.360000
261.281281	146.080000
261.374207	146.060000
261.467133	146.680000
261.560089	147.200000
261.653015	146.800000
261.745972	147.660000
261.838867	148.340000
261.931824	148.740000
262.024780	148.280000
262.117706	148.600000
262.210663	148.580000
262.303589	148.260000
262.396515	148.060000
262.489471	149.080000
262.582397	149.240000
262.675354	148.540000
262.768280	148.200000
262.861237	147.900000
262.954163	147.260000
263.047119	147.040000
263.140045	146.940000
263.233002	147.140000
263.325958	147.100000
263.418884	146.920000
263.511841	147.060000
263.604797	147.280000
263.697723	147.380000
263.790680	147.160000
263.883636	147.600000
263.976593	147.260000
264.069550	147.300000
264.162476	146.940000
264.255463	147.280000
264.348419	146.840000
264.441376	147.020000
264.534332	146.560000
264.627289	146.760000
264.720245	147.060000
264.813202	146.720000
264.906158	146.640000
264.999115	147.420000
265.092072	147.180000
265.185028	147.400000
265.277985	148.280000
265.370941	148.220000
265.463898	147.760000
265.556854	147.740000
265.649811	146.660000
265.742798	146.260000
265.835754	146.420000
265.928711	146.840000
266.021667	147.140000
266.114655	147.780000
266.207611	148.200000
266.300568	147.640000
266.393585	147.280000
266.486511	147.660000
266.579498	146.980000
266.672485	146.380000
266.765442	146.760000
266.858429	147.100000
266.951385	146.320000
267.044342	146.540000
267.137329	146.660000
267.230316	146.800000
267.323273	146.420000
267.416260	147.260000
267.509216	147.120000
267.602203	147.120000
267.695160	147.300000
267.788147	147.460000
267.881134	146.660000
267.974091	147.060000
268.067078	147.000000
268.160065	146.740000
268.253052	146.820000
268.346008	147.040000
268.438995	146.560000
268.531982	146.700000
268.624969	146.740000
268.717987	146.780000
268.810944	146.740000
268.903961	146.980000
268.996948	146.660000
269.089905	146.720000
269.182892	146.680000
269.275879	146.840000
269.368866	146.520000
269.461853	146.980000
269.554871	146.820000
269.647858	146.500000
269.740845	146.660000
269.833832	147.240000
269.926819	146.960000
270.019806	146.960000
270.112793	146.920000
270.205811	146.980000
270.298798	146.620000
270.391785	147.500000
270.484772	147.340000
270.577789	147.480000
270.670776	147.100000
270.763763	147.100000
270.856750	146.920000
270.949768	147.060000
271.042786	147.140000
271.135773	147.200000
271.228790	147.580000
271.321808	146.660000
271.414795	146.280000
271.507782	146.000000
271.600800	145.680000
271.693817	145.560000
271.786804	146.380000
271.879822	146.920000
271.972809	147.100000
272.065826	147.880000
272.158844	147.460000
272.251831	147.900000
272.344849	147.660000
272.437866	147.480000
272.530853	147.440000
272.623871	147.900000
272.716888	146.740000
272.809906	147.320000
272.902893	147.040000
272.995911	146.300000
273.088928	146.360000
273.181946	146.640000
273.274963	146.120000
273.367981	146.560000
273.460999	146.920000
273.554047	146.800000
273.647003	147.400000
273.740051	147.280000
273.833069	147.680000
273.926086	147.960000
274.019135	147.900000
274.112152	147.500000
274.205170	147.740000
274.298187	147.800000
274.391205	147.200000
274.484222	147.440000
274.577240	147.460000
274.670258	147.320000
274.763306	147.020000
274.856323	147.600000
274.949341	147.360000
275.042358	147.720000
275.135406	147.660000
275.228424	148.000000
275.321442	147.980000
275.414490	148.140000
275.507507	148.080000
275.600525	148.800000
275.693573	148.160000
275.786591	147.720000
275.879669	147.620000
275.972656	147.140000
276.065735	146.720000
276.158752	147.340000
276.251801	147.960000
276.344818	147.920000
276.437866	148.100000
276.530884	147.720000
276.623932	146.780000
276.716980	146.820000
276.809998	146.920000
276.903046	146.900000
276.996094	147.780000
277.089111	148.720000
277.182159	149.040000
277.275208	148.720000
277.368256	148.680000
277.461304	148.160000
277.554321	147.220000
277.647369	146.580000
277.740417	146.700000
277.833466	146.540000
277.926514	146.400000
278.019562	147.100000
278.112610	146.360000
278.205688	146.360000
278.298706	146.580000
278.391785	146.480000
278.484833	146.140000
278.577881	146.440000
278.670929	146.920000
278.763977	146.820000
278.857025	147.160000
278.950073	147.380000
279.043121	147.200000
279.136169	146.860000
279.229248	146.540000
279.322296	146.480000
279.415344	146.240000
279.508392	146.660000
279.601440	146.420000
279.694519	146.360000
279.787567	146.240000
279.880615	146.360000
279.973694	146.440000
280.066742	146.720000
280.159790	147.040000
280.252869	146.520000
280.345917	146.520000
280.438995	146.220000
280.532074	146.040000
280.625122	146.420000
280.718201	147.600000
280.811279	147.720000
280.904327	147.840000
280.997406	147.940000
281.090454	147.740000
281.183533	146.940000
281.276581	146.880000
281.369659	146.720000
281.462738	146.720000
281.555786	146.880000
281.648865	147.100000
281.741943	146.960000
281.835022	147.460000
281.928070	147.240000
282.021149	146.720000
282.114227	146.500000
282.207306	146.440000
282.300385	146.720000
282.393433	147.040000
282.486511	147.240000
282.579590	147.620000
282.672668	147.920000
282.765747	147.360000
282.858856	147.020000
282.951904	147.140000
283.045013	147.120000
283.138062	147.340000
283.231171	147.320000
283.324249	147.600000
283.417328	147.540000
283.510406	147.160000
283.603485	146.860000
283.696564	146.740000
283.789642	146.660000
283.882751	146.360000
283.975830	146.980000
284.068909	146.840000
284.161987	147.780000
284.255066	147.500000
284.348175	147.740000
284.441254	147.420000
284.534332	147.960000
284.627441	147.060000
284.720520	146.980000
284.813599	146.980000
284.906708	147.160000
284.999786	146.300000
285.092896	146.280000
285.185974	147.300000
285.279053	146.760000
285.372192	146.620000
285.465240	147.560000
285.558380	147.640000
285.651459	147.080000
285.744568	148.100000
285.837677	147.560000
285.930756	147.020000
286.023865	147.080000
286.116943	146.660000
286.210052	146.560000
286.303162	146.700000
286.396240	146.760000
286.489349	146.460000
286.582458	146.980000
286.675568	146.760000
286.768646	147.100000
286.861755	147.560000
286.954865	148.260000
287.047974	147.540000
287.141083	147.240000
287.234161	147.020000
287.327271	146.400000
287.420380	146.560000
287.513519	146.560000
287.606598	146.720000
287.699738	146.760000
287.792816	146.880000
287.885956	146.520000
287.979034	147.020000
288.072174	147.080000
288.165283	146.820000
288.258392	147.140000
288.351501	146.680000
288.444611	146.760000
288.537720	147.220000
288.630859	147.300000
288.723969	147.180000
288.817078	147.640000
288.910187	147.600000
289.003296	146.920000
289.096436	146.640000
289.189545	146.580000
289.282654	146.440000
289.375763	146.720000
289.468903	146.960000
289.562012	147.620000
289.655121	147.360000
289.748260	147.400000
289.841400	147.720000
289.934509	147.780000
290.027649	147.600000
290.120728	147.760000
290.213898	147.760000
290.306976	147.340000
290.400146	147.440000
290.493256	147.420000
290.586395	147.480000
290.679535	147.800000
290.772644	147.480000
290.865784	146.880000
290.958893	146.700000
291.052032	146.380000
291.145172	146.160000
291.238281	145.740000
291.331421	145.960000
291.424561	146.480000
291.517670	146.700000
291.610809	146.720000
291.703949	146.940000
291.797089	147.180000
291.890228	146.720000
291.983337	146.660000
292.076477	146.600000
292.169617	146.980000
292.262756	146.860000
292.355927	146.860000
292.449036	146.660000
292.542206	146.740000
292.635315	146.880000
292.728485	147.100000
292.821625	146.880000
292.914764	148.160000
293.007904	148.160000
293.101044	147.780000
293.194183	147.640000
293.287323	147.760000
293.380463	146.720000
293.473602	146.340000
293.566742	146.760000
293.659882	147.140000
293.753021	147.340000
293.846191	147.200000
293.939331	146.980000
294.032471	146.740000
294.125610	146.260000
294.218781	146.860000
294.311920	147.480000
294.405060	147.900000
294.498230	147.860000
294.591370	148.000000
294.684540	147.120000
294.777679	146.520000
294.870850	146.880000
294.963959	147.000000
295.057159	146.820000
295.150299	147.300000
295.243469	147.440000
295.336609	146.720000
295.429779	146.560000
295.522919	146.980000
295.616089	146.920000
295.709229	147.320000
295.802399	147.620000
295.895569	147.340000
295.988708	146.960000
296.081879	146.800000
296.175018	146.280000
296.268188	146.300000
296.361359	146.780000
296.454529	147.080000
296.547668	147.000000
296.640839	147.560000
296.734009	147.380000
296.827179	147.460000
296.920319	147.380000
297.013519	147.280000
297.106659	147.360000
297.199860	147.360000
297.292999	146.940000
297.386200	146.780000
297.479309	146.840000
297.572510	146.240000
297.665680	146.420000
297.758850	146.700000
297.852020	146.520000
297.945190	146.680000
298.038361	146.600000
298.131531	147.340000
298.224701	147.000000
298.317871	146.900000
298.411072	146.340000
298.504242	146.120000
298.597412	145.400000
298.690582	145.760000
298.783752	145.680000
298.876923	146.280000
298.970093	146.680000
299.063293	146.940000
299.156464	147.320000
299.249634	147.580000
299.342834	147.680000
299.436005	148.000000
299.529205	147.520000
299.622345	147.300000
299.715576	146.920000
299.808716	146.460000
299.901917	146.360000
299.995117	146.980000
300.088287	147.040000
300.181488	147.140000
300.274658	147.140000
300.367828	146.740000
300.461029	146.680000
300.554199	146.740000
300.647400	147.100000
300.740601	147.720000
300.833771	147.800000
300.926971	147.880000
301.020142	147.340000
301.113342	147.320000
301.206512	146.980000
301.299713	147.400000
301.392914	147.300000
301.486084	147.800000
301.579285	147.740000
301.672516	148.240000
301.765686	147.720000
301.858887	147.500000
301.952057	147.200000
302.045288	147.140000
302.138458	146.900000
302.231659	146.760000
302.324860	146.720000
302.418060	146.360000
302.511261	146.240000
302.604462	146.200000
302.697662	146.220000
302.790863	146.120000
302.884064	146.060000
302.977264	146.360000
303.070465	146.380000
303.163666	147.520000
303.256866	147.860000
303.350067	148.380000
303.443268	148.440000
303.536469	148.900000
303.629669	147.700000
303.722870	147.800000
303.816071	147.340000
303.909271	147.320000
304.002472	146.520000
304.095673	146.860000
304.188934	145.860000
304.282104	147.020000
304.375336	147.020000
304.468506	146.900000
304.561768	146.700000
304.654968	147.660000
304.748169	146.680000
304.841370	146.180000
304.934601	146.520000
305.027802	146.200000
305.121002	145.820000
305.214233	145.860000
305.307434	146.060000
305.400665	146.500000
305.493866	146.700000
305.587097	146.700000
305.680298	146.700000
305.773499	147.300000
305.866730	147.100000
305.959930	147.740000
306.053162	148.200000
306.146393	147.920000
306.239594	147.200000
306.332825	146.940000
306.426025	147.060000
306.519287	146.400000
306.612488	146.940000
306.705719	147.120000
306.798920	147.180000
306.892181	146.520000
306.985352	146.460000
307.078613	146.020000
307.171844	146.340000
307.265045	146.260000
307.358276	146.140000
307.451508	146.560000
307.544739	147.140000
307.637970	146.680000
307.731201	146.660000
307.824402	146.960000
307.917633	147.100000
308.010864	147.440000
308.104095	147.820000
308.197327	147.760000
308.290558	148.040000
308.383789	147.340000
308.477020	146.440000
308.570251	146.000000
308.663483	145.500000
308.756714	145.220000
308.849976	145.600000
308.943176	146.340000
309.036438	146.740000
309.129639	146.840000
309.222900	146.880000
309.316101	146.900000
309.409393	146.180000
309.502625	145.640000
309.595856	145.960000
309.689087	146.180000
309.782318	145.920000
309.875580	146.320000
309.968811	146.600000
310.062042	146.620000
310.155273	146.560000
310.248535	147.020000
310.341766	146.720000
310.434998	146.380000
310.528259	146.200000
310.621490	146.140000
310.714722	145.620000
310.807983	145.900000
310.901215	146.000000
310.994476	146.060000
311.087708	145.640000
311.181000	146.100000
311.274200	145.640000
311.367462	145.940000
311.460693	145.960000
311.553986	146.640000
311.647186	146.860000
311.740479	147.440000
311.833710	147.280000
311.926971	147.240000
312.020203	146.600000
312.113464	146.260000
312.206726	145.840000
312.299957	146.000000
312.393219	146.420000
312.486481	146.700000
312.579712	146.740000
312.672974	146.640000
312.766235	146.720000
312.859497	146.400000
312.952759	146.360000
313.045990	147.040000
313.139252	146.680000
313.232513	146.480000
313.325775	146.660000
313.419037	146.480000
313.512299	145.400000
313.605530	146.340000
313.698822	146.500000
313.792053	146.560000
313.885345	146.320000
313.978577	146.640000
314.071869	146.160000
314.165131	146.340000
314.258392	146.500000
314.351654	146.780000
314.444916	146.300000
314.538177	146.680000
314.631439	146.660000
314.724701	146.300000
314.817993	146.180000
314.911255	146.620000
315.004517	146.300000
315.097778	146.100000
315.191040	146.700000
315.284302	147.060000
315.377594	146.840000
315.470856	146.800000
315.564117	146.400000
315.657379	145.800000
315.750671	145.460000
315.843933	145.800000
315.937195	145.380000
316.030518	145.260000
316.123749	145.260000
316.217041	146.340000
316.310303	146.440000
316.403595	147.020000
316.496857	147.760000
316.590149	147.920000
316.683411	146.980000
316.776703	146.620000
316.869965	146.220000
316.963257	145.820000
317.056519	145.160000
317.149811	145.120000
317.243073	145.440000
317.336365	145.860000
317.429626	146.380000
317.522919	147.320000
317.616180	147.180000
317.709473	146.620000
317.802765	146.340000
317.896027	145.860000
317.989319	145.680000
318.082611	145.980000
318.175873	146.100000
318.269165	146.260000
318.362488	146.240000
318.455750	145.940000
318.549042	146.260000
318.642303	146.980000
318.735626	146.820000
318.828888	146.960000
318.922211	146.880000
319.015472	147.260000
319.108765	146.420000
319.202057	145.920000
319.295349	145.920000
319.388641	145.840000
319.481934	145.320000
319.575226	145.640000
319.668518	146.420000
319.761810	146.700000
319.855103	147.020000
319.948395	147.000000
320.041687	147.000000
320.134979	146.940000
320.228271	146.720000
320.321564	146.760000
320.414856	146.520000
320.508148	146.260000
320.601440	146.200000
320.694763	145.980000
320.788025	146.360000
320.881348	146.400000
320.974640	146.400000
321.067963	146.040000
321.161224	145.960000
321.254547	145.220000
321.347839	145.800000
321.441162	146.080000
321.534454	146.500000
321.627747	146.680000
321.721069	147.400000
321.814362	147.280000
321.907654	147.180000
322.000946	147.200000
322.094269	148.080000
322.187561	147.440000
322.280884	147.600000
322.374176	147.580000
322.467468	147.780000
322.560791	147.100000
322.654083	147.780000
322.747406	147.820000
322.840698	148.380000
322.934021	148.480000
323.027344	148.680000
323.120636	148.380000
323.213959	147.960000
323.307251	147.040000
323.400574	146.700000
323.493866	146.500000
323.587219	146.680000
323.680511	147.000000
323.773834	147.460000
323.867157	147.240000
323.960449	147.220000
324.053772	146.860000
324.147095	146.660000
324.240387	147.060000
324.333710	147.420000
324.427032	147.500000
324.520355	147.560000
324.613647	147.420000
324.706970	147.000000
324.800293	146.800000
324.893616	146.980000
324.986938	147.320000
325.080231	147.240000
325.173553	147.500000
325.266876	148.100000
325.360199	147.800000
325.453522	147.280000
325.546875	147.060000
325.640167	147.480000
325.733521	147.420000
325.826813	147.660000
325.920166	147.620000
326.013489	147.580000
326.106812	146.240000
326.200134	145.360000
326.293457	144.880000
326.386780	145.020000
326.480103	145.120000
326.573425	145.460000
326.666748	145.880000
326.760071	146.340000
326.853424	146.480000
326.946747	146.640000
327.040070	147.660000
327.133392	147.600000
327.226715	146.980000
327.320068	146.460000
327.413391	147.060000
327.506714	146.000000
327.600037	145.920000
327.693390	146.460000
327.786713	146.580000
327.880066	145.780000
327.973358	146.420000
328.066742	146.820000
328.160034	146.820000
328.253418	147.260000
328.346710	147.220000
328.440063	146.760000
328.533417	146.180000
328.626740	146.420000
328.720093	146.200000
328.813416	146.300000
328.906769	146.180000
329.000092	146.760000
329.093445	146.380000
329.186768	146.400000
329.280121	146.800000
329.373444	147.460000
329.466797	147.020000
329.560120	146.900000
329.653473	146.880000
329.746796	146.360000
329.840149	146.080000
329.933502	146.220000
330.026825	146.260000
330.120178	146.140000
330.213562	146.520000
330.306854	146.260000
330.400238	146.100000
330.493561	146.100000
330.586945	146.780000
330.680237	146.760000
330.773621	146.720000
330.866974	146.740000
330.960327	146.820000
331.053680	146.260000
331.147003	146.320000
331.240356	146.840000
331.333710	146.900000
331.427063	146.640000
331.520416	146.820000
331.613770	146.560000
331.707123	146.660000
331.800476	146.940000
331.893829	148.080000
331.987152	148.080000
332.080505	148.120000
332.173859	147.620000
332.267212	147.160000
332.360565	146.440000
332.453918	146.340000
332.547333	146.100000
332.640656	146.780000
332.734039	146.940000
332.827362	146.920000
332.920746	147.200000
333.014069	147.800000
333.107452	147.680000
333.200806	148.080000
333.294159	147.960000
333.387543	147.120000
333.480896	146.440000
333.574249	146.060000
333.667603	145.800000
333.760956	146.000000
333.854340	146.480000
333.947693	146.720000
334.041046	146.940000
334.134430	147.100000
334.227783	146.560000
334.321136	146.400000
334.414520	146.200000
334.507874	146.400000
334.601227	146.200000
334.694611	146.340000
334.787964	146.540000
334.881348	147.000000
334.974701	146.580000
335.068085	146.260000
335.161438	146.660000
335.254822	146.680000
335.348175	146.580000
335.441559	146.420000
335.534943	147.220000
335.628296	146.840000
335.721680	146.920000
335.815033	147.120000
335.908417	147.400000
336.001770	147.260000
336.095154	147.400000
336.188538	147.020000
336.281891	146.540000
336.375275	146.200000
336.468658	145.660000
336.562012	145.620000
336.655396	145.900000
336.748779	146.400000
336.842133	146.640000
336.935516	147.020000
337.028900	146.820000
337.122284	146.560000
337.215637	146.540000
337.309021	146.340000
337.402435	145.800000
337.495789	145.900000
337.589203	145.960000
337.682526	145.780000
337.775940	146.140000
337.869324	146.700000
337.962708	146.400000
338.056091	146.920000
338.149475	146.240000
338.242859	146.140000
338.336243	145.820000
338.429626	146.460000
338.523010	146.380000
338.616394	146.720000
338.709778	147.000000
338.803162	147.380000
338.896545	147.120000
338.989929	146.620000
339.083313	146.840000
339.176697	146.440000
339.270081	146.000000
339.363464	146.520000
339.456848	147.120000
339.550232	146.680000
339.643616	146.640000
339.737030	146.840000
339.830383	146.280000
339.923828	145.900000
340.017181	146.240000
340.110596	146.380000
340.203949	146.300000
340.297363	146.260000
340.390778	146.360000
340.484161	146.240000
340.577545	145.960000
340.670959	146.300000
340.764343	146.320000
340.857727	146.420000
340.951111	146.320000
341.044525	146.840000
341.137909	146.320000
341.231293	146.280000
341.324707	145.800000
341.418091	146.740000
341.511505	146.900000
341.604889	147.320000
341.698303	147.680000
341.791687	148.120000
341.885071	147.340000
341.978485	146.900000
342.071899	146.940000
342.165283	146.840000
342.258698	146.680000
342.352081	147.140000
342.445496	147.600000
342.538879	147.340000
342.632324	147.320000
342.725708	147.460000
342.819122	146.960000
342.912506	146.440000
343.005920	146.220000
343.099335	146.580000
343.192719	146.500000
343.286133	146.440000
343.379547	146.700000
343.472931	146.940000
343.566345	146.540000
343.659760	146.980000
343.753143	146.880000
343.846558	146.460000
343.939972	146.460000
344.033386	147.040000
344.126770	146.420000
344.220184	146.920000
344.313599	147.340000
344.407043	147.320000
344.500427	146.480000
344.593872	147.160000
344.687225	146.640000
344.780670	146.160000
344.874054	146.040000
344.967499	146.600000
345.060913	146.160000
345.154327	146.240000
345.247742	146.140000
345.341156	145.900000
345.434570	145.240000
345.527985	145.240000
345.621399	145.380000
345.714813	145.520000
345.808228	146.200000
345.901642	145.980000
345.995056	145.820000
346.088470	145.820000
346.181885	146.060000
346.275299	145.460000
346.368713	145.780000
346.462128	145.620000
346.555573	145.800000
346.648987	145.720000
346.742401	146.040000
346.835815	146.640000
346.929260	146.540000
347.022644	146.460000
347.116119	146.620000
347.209503	146.880000
347.302948	147.340000
347.396362	148.180000
347.489807	148.280000
347.583221	148.900000
347.676636	148.340000
347.770050	147.160000
347.863495	146.380000
347.956909	146.400000
348.050323	145.720000
348.143768	145.840000
348.237183	145.860000
348.330597	146.320000
348.424042	146.700000
348.517456	146.980000
348.610901	147.160000
348.704315	147.280000
348.797760	147.020000
348.891174	146.240000
348.984619	145.740000
349.078033	145.960000
349.171448	146.720000
349.264923	146.440000
349.358337	146.340000
349.451782	146.440000
349.545197	146.160000
349.638641	145.640000
349.732086	145.540000
349.825500	146.180000
349.918945	145.900000
350.012390	146.340000
350.105804	146.380000
350.199249	146.640000
350.292664	147.060000
350.386108	147.680000
350.479553	147.820000
350.572968	147.940000
350.666412	148.100000
350.759857	147.780000
350.853302	148.100000
350.946716	147.320000
351.040161	147.200000
351.133606	147.320000
351.227081	147.060000
351.320465	147.520000
351.413940	147.860000
351.507355	147.920000
351.600830	147.860000
351.694244	147.700000
351.787720	147.060000
351.881104	147.040000
351.974579	146.900000
352.067993	147.440000
352.161469	147.480000
352.254883	146.840000
352.348358	146.760000
352.441803	146.760000
352.535248	146.360000
352.628693	146.580000
352.722137	146.500000
352.815582	146.440000
352.909027	146.620000
353.002472	146.380000
353.095917	146.140000
353.189362	146.580000
353.282806	146.600000
353.376251	146.380000
353.469696	145.840000
353.563141	146.440000
353.656586	146.360000
353.750061	146.100000
353.843475	145.980000
353.936981	146.880000
354.030396	146.100000
354.123871	145.980000
354.217285	146.820000
354.310760	147.080000
354.404175	146.880000
354.497681	146.660000
354.591095	146.740000
354.684570	145.760000
354.777985	145.440000
354.871490	145.000000
354.964935	145.500000
355.058380	145.600000
355.151855	145.880000
355.245300	146.400000
355.338745	147.020000
355.432220	146.940000
355.525665	146.520000
355.619110	147.240000
355.712585	147.020000
355.806030	146.640000
355.899475	146.400000
355.992950	147.100000
356.086426	146.760000
356.179871	146.820000
356.273346	147.100000
356.366791	147.440000
356.460266	147.520000
356.553711	147.240000
356.647186	147.160000
356.740631	146.880000
356.834106	146.640000
356.927551	146.380000
357.021027	146.600000
357.114471	146.900000
357.207947	147.060000
357.301422	147.520000
357.394867	147.820000
357.488342	148.080000
357.581818	148.020000
357.675262	147.980000
357.768738	147.740000
357.862213	146.920000
357.955658	146.920000
358.049133	146.620000
358.142609	147.000000
358.236053	146.740000
358.329529	147.040000
358.423035	147.120000
358.516449	146.900000
358.609955	147.060000
358.703400	147.920000
358.796906	148.080000
358.890350	147.460000
358.983826	147.960000
359.077271	147.180000
359.170776	146.500000
359.264221	146.120000
359.357727	146.380000
359.451172	146.500000
359.544647	146.680000
359.638123	146.740000
359.731598	147.360000
359.825073	147.440000
359.918549	146.840000
360.012024	146.960000
360.105499	146.440000
360.198975	146.240000
360.292450	146.100000
360.385925	146.600000
360.479401	146.240000
360.572876	146.800000
360.666351	146.980000
360.759857	146.820000
360.853302	146.480000
360.946808	145.920000
361.040253	145.900000
361.133759	145.540000
361.227203	145.740000
361.320709	145.480000
361.414154	146.560000
361.507660	146.700000
361.601105	147.340000
361.694641	147.960000
361.788086	148.340000
361.881592	148.460000
361.975067	147.940000
362.068542	148.000000
362.162018	147.720000
362.255524	147.100000
362.348999	147.020000
362.442474	147.500000
362.535950	146.780000
362.629456	146.280000
362.722931	146.620000
362.816406	146.820000
362.909882	146.980000
363.003387	146.700000
363.096863	147.220000
363.190338	147.120000
363.283875	146.700000
363.377319	146.660000
363.470825	147.380000
363.564301	146.660000
363.657806	146.980000
363.751282	146.860000
363.844788	147.400000
363.938232	147.020000
364.031769	147.860000
364.125214	148.060000
364.218750	148.420000
364.312225	147.280000
364.405731	147.380000
364.499207	146.700000
364.592712	146.480000
364.686188	146.340000
364.779694	146.660000
364.873169	146.460000
364.966675	146.500000
365.060150	146.320000
365.153656	146.540000
365.247131	146.540000
365.340637	146.920000
365.434143	147.560000
365.527618	147.620000
365.621155	146.680000
365.714600	146.520000
365.808136	146.300000
365.901611	145.320000
365.995117	145.260000
366.088593	145.740000
366.182129	145.800000
366.275604	146.160000
366.369110	146.840000
366.462585	146.840000
366.556122	147.420000
366.649567	147.700000
366.743103	147.520000
366.836609	146.880000
366.930115	147.200000
367.023590	146.920000
367.117096	146.620000
367.210602	146.420000
367.304108	147.220000
367.397614	147.480000
367.491119	147.480000
367.584595	147.860000
367.678101	148.440000
367.771606	147.840000
367.865112	147.320000
367.958649	146.900000
368.052124	146.620000
368.145660	146.020000
368.239136	146.760000
368.332672	146.940000
368.426147	147.120000
368.519684	146.940000
368.613159	147.420000
368.706696	146.600000
368.800171	146.700000
368.893707	146.620000
368.987183	146.820000
369.080719	146.540000
369.174225	146.620000
369.267731	146.860000
369.361237	147.100000
369.454742	147.140000
369.548248	147.600000
369.641754	147.620000
369.735260	147.100000
369.828766	146.320000
369.922272	146.640000
370.015808	146.040000
370.109314	146.240000
370.202820	146.200000
370.296356	147.720000
370.389832	147.420000
370.483368	147.220000
370.576874	146.900000
370.670410	147.260000
370.763885	145.800000
370.857422	145.740000
370.950928	145.860000
371.044464	146.820000
371.137939	146.800000
371.231476	147.680000
371.324982	148.080000
371.418518	148.300000
371.512024	147.780000
371.605560	147.420000
371.699066	147.240000
371.792572	146.820000
371.886108	146.760000
371.979614	146.360000
372.073120	146.900000
372.166656	146.860000
372.260162	147.300000
372.353668	147.380000
372.447205	147.400000
372.540710	147.220000
372.634277	147.080000
372.727753	147.020000
372.821320	146.860000
372.914795	147.000000
373.008362	146.860000
373.101837	147.140000
373.195404	146.780000
373.288879	146.980000
373.382446	147.760000
373.475922	147.640000
373.569489	147.980000
373.662964	148.720000
373.756531	148.480000
373.850037	148.260000
373.943573	148.520000
374.037109	147.540000
374.130615	147.060000
374.224152	147.120000
374.317657	146.620000
374.411194	147.200000
374.504730	147.260000
374.598236	147.140000
374.691772	146.900000
374.785309	147.100000
374.878815	146.080000
374.972351	146.840000
375.065887	146.640000
375.159454	147.540000
375.252930	147.220000
375.346497	147.680000
375.440002	147.900000
375.533569	148.080000
375.627045	146.980000
375.720612	147.160000
375.814117	147.260000
375.907684	146.660000
376.001160	146.080000
376.094727	146.000000
376.188232	146.760000
376.281799	146.780000
376.375336	146.620000
376.468872	147.820000
376.562408	148.340000
376.655914	147.660000
376.749451	147.480000
376.842987	147.900000
376.936523	147.500000
377.030060	147.520000
377.123596	147.700000
377.217133	147.360000
377.310669	147.400000
377.404205	147.340000
377.497772	147.620000
377.591278	147.380000
377.684845	148.220000
377.778351	148.200000
377.871918	147.960000
377.965424	147.040000
378.058990	146.800000
378.152496	146.140000
378.246063	146.240000
378.339569	146.420000
378.433136	146.740000
378.526642	146.720000
378.620209	146.880000
378.713745	146.260000
378.807312	146.860000
378.900848	146.780000
378.994385	147.320000
379.087921	146.600000
379.181458	147.180000
379.274994	146.180000
379.368530	146.140000
379.462097	146.300000
379.555634	147.160000
379.649170	146.540000
379.742706	146.820000
379.836273	147.260000
379.929810	146.720000
380.023376	146.420000
380.116882	146.640000
380.210449	146.660000
380.303986	146.240000
380.397552	145.800000
380.491058	145.900000
380.584656	146.100000
380.678162	146.100000
380.771729	146.560000
380.865265	147.660000
380.958832	147.800000
381.052368	147.800000
381.145935	148.100000
381.239471	148.100000
381.333008	147.700000
381.426575	147.480000
381.520111	147.800000
381.613647	147.760000
381.707214	147.480000
381.800751	147.080000
381.894318	147.140000
381.987854	146.480000
382.081421	146.160000
382.174988	146.380000
382.268524	145.940000
382.362091	145.840000
382.455627	146.540000
382.549194	146.240000
382.642731	145.580000
382.736298	145.980000
382.829834	145.880000
382.923401	146.020000
383.016937	146.520000
383.110504	147.200000
383.204041	147.240000
383.297607	147.340000
383.391174	146.300000
383.484741	146.760000
383.578278	146.140000
383.671844	146.140000
383.765411	145.800000
383.858948	146.540000
383.952515	146.180000
384.046051	146.720000
384.139618	146.820000
384.233185	147.300000
384.326721	147.100000
384.420288	147.500000
384.513855	147.380000
384.607422	147.640000
384.700989	147.840000
384.794525	147.460000
384.888123	147.240000
384.981659	147.480000
385.075226	146.900000
385.168762	146.520000
385.262360	146.460000
385.355896	145.500000
385.449463	145.000000
385.542999	145.060000
385.636597	145.560000
385.730164	146.140000
385.823730	146.320000
385.917267	146.520000
386.010834	147.080000
386.104401	146.900000
386.197968	147.200000
386.291534	147.800000
386.385101	147.940000
386.478668	148.080000
386.572235	147.880000
386.665802	147.040000
386.759338	146.700000
386.852905	146.560000
386.946472	146.040000
387.040070	146.300000
387.133606	146.640000
387.227203	146.140000
387.320740	146.580000
387.414337	146.380000
387.507874	145.820000
387.601471	145.700000
387.695007	146.040000
387.788605	145.720000
387.882141	145.940000
387.975739	146.180000
388.069275	146.020000
388.162872	146.140000
388.256439	146.080000
388.350037	145.900000
388.443604	145.800000
388.537170	145.900000
388.630737	146.560000
388.724304	146.680000
388.817871	146.920000
388.911438	147.000000
389.005005	147.180000
389.098602	147.160000
389.192169	146.580000
389.285736	146.960000
389.379333	147.100000
389.472870	146.520000
389.566467	146.080000
389.660034	146.520000
389.753632	145.920000
389.847168	146.120000
389.940765	146.620000
390.034332	147.000000
390.127930	146.520000
390.221466	146.580000
390.315063	146.140000
390.408630	145.580000
390.502228	144.660000
390.595795	144.820000
390.689362	145.140000
390.782959	145.640000
390.876526	146.280000
390.970093	146.440000
391.063690	147.200000
391.157257	147.140000
391.250824	147.340000
391.344421	147.280000
391.437988	147.980000
391.531555	147.960000
391.625153	148.020000
391.718750	148.100000
391.812317	148.040000
391.905914	147.460000
391.999481	147.520000
392.093079	147.500000
392.186615	147.440000
392.280243	147.160000
392.373779	147.440000
392.467407	147.540000
392.560944	147.360000
392.654572	146.920000
392.748108	147.240000
392.841736	147.220000
392.935303	146.740000
393.028900	146.700000
393.122467	146.880000
393.216064	146.380000
393.309631	145.900000
393.403229	145.720000
393.496796	145.580000
393.590393	144.660000
393.683990	145.160000
393.777557	145.920000
393.871155	146.040000
393.964722	146.520000
394.058350	147.320000
394.151917	147.400000
394.245514	146.920000
394.339081	147.540000
394.432678	147.620000
394.526245	147.080000
394.619873	146.520000
394.713409	146.640000
394.807037	146.100000
394.900604	146.200000
394.994202	146.600000
395.087769	147.320000
395.181396	147.220000
395.274994	147.820000
395.368561	147.180000
395.462158	147.240000
395.555756	146.380000
395.649353	146.460000
395.742920	145.700000
395.836517	146.300000
395.930115	145.700000
396.023712	146.300000
396.117279	146.760000
396.210876	146.500000
396.304474	146.380000
396.398071	146.900000
396.491669	146.940000
396.585266	146.180000
396.678833	146.280000
396.772461	146.440000
396.866028	146.380000
396.959656	146.320000
397.053223	146.880000
397.146851	146.820000
397.240417	147.080000
397.334015	147.880000
397.427582	148.360000
397.521210	148.840000
397.614807	149.660000
397.708405	149.940000
397.802002	149.960000
397.895599	150.860000
397.989197	151.600000
398.082794	152.580000
398.176392	153.660000
398.269989	155.600000
398.363586	157.000000
398.457184	159.400000
398.550781	161.740000
398.644379	163.580000
398.737976	165.160000
398.831573	167.240000
398.925201	168.300000
399.018768	169.700000
399.112396	171.160000
399.205963	173.100000
399.299591	174.100000
399.393158	175.300000
399.486786	177.200000
399.580353	179.120000
399.673981	180.220000
399.767578	182.960000
399.861206	186.640000
399.954773	190.620000
400.048401	194.840000
400.141998	199.340000
400.235596	204.560000
400.329193	207.780000
400.422791	210.820000
400.516418	213.140000
400.610016	216.180000
400.703613	217.460000
400.797211	218.480000
400.890808	217.720000
400.984436	217.400000
401.078033	214.220000
401.171631	210.460000
401.265259	206.160000
401.358826	202.520000
401.452484	197.220000
401.546051	192.920000
401.639679	187.500000
401.733246	182.640000
401.826904	177.120000
401.920471	171.960000
402.014099	167.060000
402.107697	163.800000
402.201324	161.120000
402.294891	158.720000
402.388550	157.000000
402.482147	155.700000
402.575745	153.700000
402.669373	151.840000
402.762970	150.840000
402.856567	150.080000
402.950195	149.540000
403.043793	149.000000
403.137390	149.180000
403.231018	148.040000
403.324615	148.120000
403.418243	147.320000
403.511841	147.680000
403.605469	147.140000
403.699066	147.520000
403.792694	147.320000
403.886292	147.840000
403.979919	147.520000
404.073517	147.240000
404.167145	147.620000
404.260712	147.520000
404.354370	147.180000
404.447937	147.420000
404.541595	147.760000
404.635162	148.060000
404.728821	148.480000
404.822418	148.160000
404.916046	147.760000
405.009644	148.000000
405.103271	147.660000
405.196899	147.120000
405.290497	147.260000
405.384125	147.620000
405.477722	147.060000
405.571350	146.820000
405.664948	147.080000
405.758575	147.020000
405.852203	146.680000
405.945801	146.720000
406.039429	146.680000
406.133057	146.300000
406.226654	146.360000
406.320312	146.260000
406.413879	146.640000
406.507538	147.140000
406.601135	146.800000
406.694763	147.000000
406.788361	146.960000
406.882019	146.520000
406.975586	146.440000
407.069244	147.280000
407.162872	147.400000
407.256470	147.460000
407.350098	147.680000
407.443726	147.300000
407.537323	146.840000
407.630951	146.920000
407.724579	146.640000
407.818207	147.020000
407.911804	146.820000
408.005432	146.760000
408.099060	146.900000
408.192688	147.240000
408.286285	146.940000
408.379913	146.840000
408.473572	146.920000
408.567169	146.240000
408.660828	146.480000
408.754395	146.200000
408.848053	146.300000
408.941650	146.480000
409.035309	146.380000
409.128906	146.180000
409.222565	146.340000
409.316132	146.500000
409.409790	146.260000
409.503387	146.340000
409.597046	146.640000
409.690674	146.920000
409.784302	147.040000
409.877930	146.700000
409.971558	146.960000
410.065186	146.680000
410.158783	146.240000
410.252411	146.220000
410.346039	146.920000
410.439667	146.740000
410.533295	146.940000
410.626923	147.480000
410.720551	147.200000
410.814209	147.380000
410.907806	147.660000
411.001465	146.740000
411.095062	146.620000
411.188721	146.760000
411.282318	146.020000
411.375977	145.720000
411.469574	146.400000
411.563232	145.880000
411.656830	145.680000
411.750488	145.780000
411.844086	145.700000
411.937744	145.880000
412.031372	145.960000
412.125000	146.100000
412.218628	146.100000
412.312256	147.220000
412.405884	147.680000
412.499512	147.780000
412.593170	147.880000
412.686798	148.260000
412.780426	147.200000
412.874054	146.820000
412.967682	147.000000
413.061310	147.500000
413.154968	147.600000
413.248566	147.840000
413.342224	147.540000
413.435852	147.880000
413.529510	147.260000
413.623108	146.680000
413.716766	146.480000
413.810364	146.700000
413.904022	146.040000
413.997650	146.020000
414.091309	146.700000
414.184906	146.620000
414.278564	146.340000
414.372192	146.660000
414.465851	146.760000
414.559479	146.440000
414.653107	147.260000
414.746735	147.360000
414.840393	147.460000
414.934021	147.740000
415.027649	147.260000
415.121277	146.880000
415.214935	147.280000
415.308563	147.400000
415.402191	146.780000
415.495850	146.900000
415.589478	146.400000
415.683136	145.840000
415.776733	146.040000
415.870422	146.800000
415.964020	146.600000
416.057678	146.780000
416.151306	147.040000
416.244965	146.820000
416.338562	146.620000
416.432251	147.500000
416.525848	148.200000
416.619507	148.340000
416.713165	148.520000
416.806793	148.300000
416.900421	148.080000
416.994080	147.420000
417.087708	147.320000
417.181366	147.020000
417.274994	147.060000
417.368622	147.400000
417.462280	148.100000
417.555908	148.040000
417.649567	147.680000
417.743195	147.640000
417.836853	147.120000
417.930481	147.240000
418.024170	147.440000
418.117767	148.060000
418.211426	148.340000
418.305054	148.540000
418.398712	147.480000
418.492340	147.340000
418.585999	147.420000
418.679626	147.240000
418.773285	147.160000
418.866913	148.080000
418.960571	148.260000
419.054230	148.320000
419.147858	148.460000
419.241516	148.480000
419.335144	148.080000
419.428802	147.740000
419.522461	147.300000
419.616089	146.820000
419.709747	146.840000
419.803375	146.920000
419.897034	146.960000
419.990662	147.000000
420.084320	147.540000
420.177979	147.700000
420.271606	147.700000
420.365295	148.260000
420.458893	148.380000
420.552582	148.440000
420.646210	148.400000
420.739868	148.040000
420.833496	147.400000
420.927155	146.780000
421.020782	146.400000
421.114471	145.700000
421.208069	146.080000
421.301758	146.460000
421.395386	146.780000
421.489044	146.580000
421.582703	146.960000
421.676361	147.160000
421.769989	146.720000
421.863647	147.080000
421.957306	147.180000
422.050934	147.300000
422.144592	147.180000
422.238251	147.060000
422.331909	146.620000
422.425537	146.680000
422.519196	146.520000
422.612854	146.120000
422.706543	145.920000
422.800140	146.320000
422.893829	146.040000
422.987457	145.740000
423.081146	145.840000
423.174744	146.400000
423.268433	145.860000
423.362061	145.760000
423.455750	145.920000
423.549347	145.880000
423.643036	145.280000
423.736664	145.860000
423.830353	146.460000
423.924011	146.880000
424.017639	146.600000
424.111298	146.640000
424.204956	146.380000
424.298615	146.040000
424.392273	145.600000
424.485931	145.640000
424.579559	145.960000
424.673218	145.840000
424.766876	145.920000
424.860535	145.740000
424.954193	145.720000
425.047882	146.260000
425.141510	146.380000
425.235199	146.460000
425.328796	146.480000
425.422485	146.680000
425.516113	145.780000
425.609802	145.900000
425.703430	146.100000
425.797119	146.160000
425.890747	146.060000
425.984436	146.340000
426.078064	146.240000
426.171753	146.220000
426.265411	146.200000
426.359070	146.580000
426.452728	146.500000
426.546356	146.420000
426.640015	146.200000
426.733673	146.300000
426.827332	145.940000
426.920990	146.780000
427.014648	146.400000
427.108307	146.440000
427.201965	146.880000
427.295624	146.980000
427.389282	145.860000
427.482941	146.220000
427.576630	146.020000
427.670258	145.260000
427.763947	145.220000
427.857574	145.460000
427.951263	145.560000
428.044922	145.560000
428.138611	146.000000
428.232239	146.400000
428.325928	147.120000
428.419556	147.280000
428.513245	147.020000
428.606903	147.160000
428.700562	146.560000
428.794220	145.800000
428.887878	145.440000
428.981537	145.880000
429.075195	145.900000
429.168854	146.180000
429.262512	146.400000
429.356201	146.780000
429.449860	146.800000
429.543518	146.620000
429.637177	147.000000
429.730835	147.140000
429.824493	146.780000
429.918182	146.900000
430.011810	146.540000
430.105530	145.940000
430.199158	146.220000
430.292847	146.260000
430.386475	146.000000
430.480164	145.980000
430.573792	145.720000
430.667511	145.180000
430.761139	145.480000
430.854828	146.020000
430.948456	146.100000
431.042145	146.760000
431.135834	146.480000
431.229492	146.600000
431.323151	146.720000
431.416809	146.880000
431.510468	146.600000
431.604156	146.940000
431.697815	146.600000
431.791473	145.720000
431.885132	145.440000
431.978821	145.820000
432.072479	146.300000
432.166138	146.760000
432.259827	146.920000
432.353485	147.540000
432.447174	147.580000
432.540802	147.200000
432.634491	147.020000
432.728149	147.280000
432.821838	147.700000
432.915466	147.380000
433.009186	147.580000
433.102814	147.020000
433.196503	146.800000
433.290131	146.160000
433.383850	146.760000
433.477509	146.620000
433.571167	147.480000
433.664856	147.800000
433.758514	148.320000
433.852173	147.640000
433.945862	147.620000
434.039520	147.160000
434.133179	146.620000
434.226868	146.280000
434.320526	145.820000
434.414185	146.280000
434.507874	146.200000
434.601562	146.600000
434.695221	146.340000
434.788910	146.920000
434.882538	146.720000
434.976257	146.260000
435.069885	146.200000
435.163574	146.300000
435.257233	145.900000
435.350922	145.560000
435.444580	145.500000
435.538269	145.260000
435.631897	145.560000
435.725616	146.340000
435.819275	146.800000
435.912964	147.560000
436.006622	148.120000
436.100311	148.060000
436.193970	147.100000
436.287628	146.760000
436.381317	146.340000
436.474976	145.740000
436.568665	145.280000
436.662323	145.600000
436.756012	145.400000
436.849670	145.300000
436.943390	145.200000
437.037018	145.240000
437.130737	145.400000
437.224365	145.520000
437.318085	145.660000
437.411713	146.100000
437.505432	146.660000
437.599060	147.000000
437.692780	147.620000
437.786407	147.520000
437.880127	147.480000
437.973755	147.120000
438.067474	146.560000
438.161133	146.320000
438.254822	146.760000
438.348480	146.760000
438.442169	147.160000
438.535828	147.520000
438.629517	147.340000
438.723175	146.860000
438.816864	147.100000
438.910553	146.680000
439.004211	146.560000
439.097900	146.280000
439.191559	146.600000
439.285248	145.940000
439.378906	146.360000
439.472626	146.100000
439.566284	146.140000
439.659973	146.320000
439.753632	146.300000
439.847321	146.660000
439.940979	147.060000
440.034698	147.140000
440.128326	146.580000
440.222046	146.840000
440.315674	145.660000
440.409393	145.640000
440.503082	145.760000
440.596741	146.080000
440.690430	146.400000
440.784088	146.680000
440.877777	146.220000
440.971466	145.980000
441.065125	145.700000
441.158813	145.200000
441.252502	145.360000
441.346161	145.560000
441.439850	146.000000
441.533539	146.060000
441.627197	146.440000
441.720886	146.280000
441.814606	146.640000
441.908234	146.900000
442.001953	147.100000
442.095612	147.060000
442.189301	147.080000
442.282959	147.120000
442.376678	146.080000
442.470306	146.740000
442.564026	146.620000
442.657684	147.080000
442.751404	146.780000
442.845032	148.020000
442.938751	147.080000
443.032440	147.420000
443.126099	146.840000
443.219788	147.480000
443.313477	147.160000
443.407166	147.500000
443.500824	147.420000
443.594513	147.860000
443.688202	147.400000
443.781891	146.600000
443.875549	146.120000
443.969238	146.160000
444.062927	146.040000
444.156647	146.460000
444.250275	147.340000
444.343994	147.840000
444.437653	147.940000
444.531372	147.840000
444.625031	147.100000
444.718719	146.440000
444.812378	146.480000
444.906097	146.260000
444.999756	145.960000
445.093445	145.960000
445.187103	146.460000
445.280823	146.800000
445.374512	146.160000
445.468201	146.600000
445.561859	146.600000
445.655548	146.080000
445.749237	145.400000
445.842926	145.860000
445.936615	146.260000
446.030304	146.240000
446.123962	146.500000
446.217651	146.380000
446.311340	146.500000
446.405029	145.820000
446.498749	145.740000
446.592407	145.480000
446.686096	145.920000
446.779755	146.060000
446.873474	146.260000
446.967133	146.620000
447.060852	146.380000
447.154510	146.320000
447.248230	146.200000
447.341858	146.200000
447.435577	145.860000
447.529236	146.380000
447.622955	146.180000
447.716644	146.360000
447.810333	146.440000
447.904022	147.160000
447.997711	146.820000
448.091400	147.080000
448.185059	146.840000
448.278748	147.160000
448.372437	146.540000
448.466125	146.840000
448.559814	146.820000
448.653503	147.220000
448.747192	147.240000
448.840912	147.600000
448.934570	147.520000
449.028290	147.840000
449.121948	147.620000
449.215637	147.100000
449.309296	146.580000
449.403015	146.820000
449.496674	146.600000
449.590393	146.700000
449.684052	146.440000
449.777771	147.420000
449.871429	146.480000
449.965149	146.460000
450.058838	146.380000
450.152527	146.920000
450.246216	146.480000
450.339905	146.960000
450.433594	146.720000
450.527283	147.540000
450.620972	147.080000
450.714661	147.140000
450.808350	147.300000
450.902039	147.560000
450.995728	146.540000
451.089417	146.440000
451.183105	146.180000
451.276794	147.100000
451.370514	146.700000
451.464172	146.120000
451.557892	146.280000
451.651550	146.800000
451.745270	145.800000
451.838928	145.580000
451.932648	146.280000
452.026306	146.920000
452.120026	146.420000
452.213684	146.780000
452.307404	146.980000
452.401062	147.160000
452.494781	147.060000
452.588470	147.040000
452.682159	146.600000
452.775848	146.840000
452.869537	146.140000
452.963226	145.720000
453.056915	145.780000
453.150604	146.120000
453.244293	146.560000
453.337982	147.640000
453.431671	148.180000
453.525360	148.720000
453.619049	148.720000
453.712769	148.500000
453.806427	147.600000
453.900146	146.920000
453.993805	146.320000
454.087555	146.620000
454.181213	146.660000
454.274933	146.660000
454.368591	146.660000
454.462311	146.700000
454.555969	146.180000
454.649689	146.420000
454.743347	146.240000
454.837067	147.160000
454.930756	147.640000
455.024445	147.720000
455.118134	147.160000
455.211853	147.780000
455.305542	146.800000
455.399231	146.500000
455.492920	146.240000
455.586609	146.560000
455.680298	146.660000
455.773987	146.760000
455.867676	146.700000
455.961365	147.140000
456.055084	146.740000
456.148773	146.440000
456.242493	146.620000
456.336151	146.380000
456.429871	146.800000
456.523529	147.380000
456.617249	146.980000
456.710907	147.700000
456.804626	147.880000
456.898315	147.240000
456.992035	147.160000
457.085693	147.240000
457.179413	146.380000
457.273102	147.240000
457.366791	147.300000
457.460480	147.100000
457.554199	147.920000
457.647888	147.820000
457.741577	146.900000
457.835266	146.900000
457.928955	147.020000
458.022644	146.840000
458.116364	147.220000
458.210052	147.240000
458.303741	147.420000
458.397461	146.760000
458.491119	146.260000
458.584839	146.220000
458.678528	146.060000
458.772247	145.500000
458.865906	146.080000
458.959625	146.980000
459.053284	146.700000
459.147003	146.560000
459.240692	147.560000
459.334412	147.400000
459.428070	146.960000
459.521790	147.200000
459.615479	147.300000
459.709198	147.180000
459.802887	146.820000
459.896576	146.320000
459.990265	146.280000
460.083954	146.560000
460.177673	145.760000
460.271362	145.980000
460.365051	146.040000
460.458740	145.880000
460.552429	145.360000
460.646149	145.780000
460.739838	145.680000
460.833527	145.880000
460.927246	145.820000
461.020905	145.720000
461.114655	145.500000
461.208313	145.580000
461.302032	145.080000
461.395691	145.460000
461.489441	145.820000
461.583099	145.620000
461.676819	145.140000
461.770477	145.700000
461.864197	145.260000
461.957916	145.060000
462.051605	144.960000
462.145294	146.320000
462.238983	146.020000
462.332703	146.500000
462.426392	147.280000
462.520081	147.400000
462.613770	146.520000
462.707489	146.860000
462.801178	146.360000
462.894867	146.160000
462.988556	146.360000
463.082275	146.560000
463.175964	145.980000
463.269684	146.340000
463.363342	145.900000
463.457092	145.540000
463.550751	145.920000
463.644470	146.280000
463.738129	146.100000
463.831879	146.420000
463.925537	146.960000
464.019257	146.620000
464.112946	146.500000
464.206665	146.320000
464.300323	146.080000
464.394043	145.920000
464.487762	145.800000
464.581451	145.980000
464.675140	146.120000
464.768829	146.640000
464.862549	146.680000
464.956238	146.980000
465.049927	147.120000
465.143646	147.540000
465.237335	146.840000
465.331024	147.280000
465.424713	147.120000
465.518433	147.000000
465.612152	146.520000
465.705811	146.900000
465.799561	146.340000
465.893219	146.100000
465.986938	146.200000
466.080597	146.200000
466.174347	146.280000
466.268005	146.640000
466.361725	146.740000
466.455414	146.700000
466.549133	146.640000
466.642792	146.620000
466.736542	146.200000
466.830231	146.400000
466.923920	146.420000
467.017609	146.820000
467.111328	146.580000
467.205017	146.820000
467.298706	146.560000
467.392426	146.680000
467.486115	146.620000
467.579803	146.540000
467.673523	146.600000
467.767212	146.920000
467.860901	146.700000
467.954651	146.760000
468.048309	147.020000
468.142029	146.700000
468.235718	146.600000
468.329437	146.280000
468.423096	146.140000
468.516846	146.160000
468.610504	146.100000
468.704224	145.820000
468.797913	145.920000
468.891632	146.100000
468.985291	145.820000
469.079010	146.160000
469.172729	145.900000
469.266418	146.400000
469.360107	146.320000
469.453827	146.140000
469.547516	146.100000
469.641205	146.780000
469.734924	146.660000
469.828613	146.940000
469.922302	147.400000
470.016022	147.200000
470.109711	146.680000
470.203430	146.100000
470.297150	145.260000
470.390808	145.360000
470.484558	145.460000
470.578217	146.360000
470.671936	147.220000
470.765625	148.120000
470.859344	147.760000
470.953003	147.940000
471.046753	147.180000
471.140411	146.300000
471.234131	146.360000
471.327820	147.040000
471.421539	147.000000
471.515228	146.580000
471.608948	147.000000
471.702637	146.260000
471.796326	145.580000
471.890045	145.580000
471.983734	146.200000
472.077423	146.140000
472.171143	146.260000
472.264832	146.280000
472.358521	146.100000
472.452240	145.540000
472.545929	145.940000
472.639648	146.440000
472.733337	147.020000
472.827057	147.020000
472.920746	147.220000
473.014465	147.420000
473.108124	147.120000
473.201874	146.780000
473.295532	147.020000
473.389252	147.760000
473.482941	147.420000
473.576660	147.020000
473.670319	147.000000
473.764069	147.140000
473.857727	146.960000
473.951477	147.220000
474.045166	147.960000
474.138855	147.720000
474.232574	147.380000
474.326263	147.380000
474.419952	147.240000
474.513672	147.020000
474.607361	147.060000
474.701050	147.320000
474.794769	147.400000
474.888458	147.440000
474.982178	147.660000
475.075867	147.960000
475.169586	147.860000
475.263275	147.480000
475.356995	147.240000
475.450653	146.860000
475.544403	146.380000
475.638062	147.020000
475.731812	146.640000
475.825470	146.420000
475.919189	146.440000
476.012878	147.020000
476.106598	145.960000
476.200256	146.620000
476.294006	147.100000
476.387695	147.260000
476.481384	146.900000
476.575104	147.060000
476.668793	146.680000
476.762512	146.120000
476.856201	146.420000
476.949890	146.260000
477.043610	146.160000
477.137299	146.240000
477.230988	146.820000
477.324707	146.200000
477.418396	146.700000
477.512146	146.720000
477.605804	146.520000
477.699524	146.460000
477.793213	146.300000
477.886932	146.060000
477.980591	146.240000
478.074341	146.380000
478.167999	145.960000
478.261749	146.120000
478.355408	145.860000
478.449127	146.020000
478.542816	146.900000
478.636536	147.580000
478.730225	148.040000
478.823944	148.600000
478.917633	148.500000
479.011322	148.180000
479.105042	147.980000
479.198730	148.120000
479.292450	147.800000
479.386139	147.920000
479.479828	147.880000
479.573547	148.060000
479.667267	147.480000
479.760925	147.480000
479.854675	147.580000
479.948334	147.500000
480.042084	147.020000
480.135742	147.520000
480.229462	147.160000
480.323151	147.060000
480.416870	146.320000
480.510529	146.180000
480.604279	145.600000
480.697937	146.280000
480.791656	145.760000
480.885345	146.180000
480.979065	146.300000
481.072754	146.980000
481.166473	147.060000
481.260132	147.300000
481.353882	147.380000
481.447540	147.360000
481.541260	147.140000
481.635010	146.420000
481.728668	146.540000
481.822388	146.320000
481.916077	146.620000
482.009796	146.680000
482.103485	147.180000
482.197205	147.260000
482.290863	147.400000
482.384613	146.920000
482.478271	146.240000
482.571991	146.220000
482.665680	146.060000
482.759399	146.960000
482.853058	147.360000
482.946808	147.600000
483.040466	147.100000
483.134216	147.040000
483.227875	145.880000
483.321594	146.260000
483.415283	146.260000
483.509003	146.520000
483.602661	146.320000
483.696411	146.820000
483.790070	146.340000
483.883789	146.480000
483.977478	146.800000
484.071198	146.800000
484.164917	146.360000
484.258606	146.000000
484.352325	146.280000
484.445984	146.040000
484.539734	146.240000
484.633392	145.840000
484.727142	146.620000
484.820801	146.300000
484.914520	146.200000
485.008209	146.460000
485.101929	147.180000
485.195587	146.660000
485.289337	146.900000
485.382996	147.220000
485.476715	147.300000
485.570404	147.580000
485.664124	147.520000
485.757782	147.720000
485.851532	147.100000
485.945190	146.820000
486.038910	146.800000
486.132599	147.380000
486.226318	146.780000
486.319977	146.880000
486.413727	147.340000
486.507446	146.780000
486.601105	146.280000
486.694855	146.260000
486.788513	146.320000
486.882233	146.000000
486.975922	145.900000
487.069641	145.800000
487.163300	145.600000
487.257050	146.900000
487.350708	146.280000
487.444427	146.240000
487.538116	146.180000
487.631836	146.360000
487.725494	145.180000
487.819214	145.560000
487.912903	145.680000
488.006622	145.960000
488.100281	146.480000
488.194031	146.800000
488.287689	147.540000
488.381409	148.480000
488.475098	148.520000
488.568817	148.420000
488.662476	147.840000
488.756226	147.000000
488.849945	145.640000
488.943604	145.600000
489.037354	145.680000
489.131012	146.040000
489.224731	146.120000
489.318390	146.760000
489.412140	146.700000
489.505798	146.560000
489.599518	146.500000
489.693207	146.920000
489.786926	146.380000
489.880585	146.260000
489.974335	146.200000
490.067993	146.740000
490.161713	146.800000
490.255371	147.760000
490.349121	147.780000
490.442780	147.620000
490.536499	146.780000
490.630188	146.600000
490.723907	145.800000
490.817566	145.920000
490.911285	146.060000
491.004974	146.320000
491.098694	145.960000
491.192413	147.060000
491.286102	146.900000
491.379822	146.860000
491.473480	147.020000
491.567200	147.240000
491.660889	145.900000
491.754608	145.820000
491.848267	145.640000
491.941986	145.500000
492.035675	145.420000
492.129395	146.400000
492.223053	146.340000
492.316772	146.640000
492.410461	146.760000
492.504181	146.900000
492.597839	146.240000
492.691559	146.620000
492.785248	146.860000
492.878967	147.120000
492.972626	146.580000
493.066345	146.780000
493.160034	146.060000
493.253754	145.820000
493.347412	145.020000
493.441132	145.360000
493.534882	145.720000
493.628540	146.280000
493.722260	146.460000
493.815918	147.040000
493.909668	147.620000
494.003326	148.080000
494.097046	148.180000
494.190704	147.860000
494.284454	147.840000
494.378113	147.680000
494.471832	146.960000
494.565491	146.780000
494.659210	146.860000
494.752899	146.760000
494.846619	146.540000
494.940277	146.800000
495.033997	146.640000
495.127686	146.460000
495.221405	146.220000
495.315063	146.560000
495.408783	146.560000
495.502441	146.700000
495.596191	147.020000
495.689850	147.040000
495.783569	146.980000
495.877228	146.960000
495.970947	146.660000
496.064697	146.560000
496.158356	147.600000
496.252075	147.480000
496.345734	147.080000
496.439453	147.980000
496.533142	147.780000
496.626862	147.700000
496.720520	147.460000
496.814240	147.820000
496.907898	147.600000
497.001617	147.920000
497.095306	147.020000
497.189026	147.300000
497.282684	147.300000
497.376404	147.300000
497.470062	147.180000
497.563782	147.280000
497.657471	147.060000
497.751190	146.660000
497.844849	146.320000
497.938568	146.480000
498.032227	146.860000
498.125946	147.000000
498.219635	147.060000
498.313354	147.180000
498.407074	146.600000
498.500732	146.440000
498.594452	146.500000
498.688110	146.240000
498.781830	146.000000
498.875519	146.100000
498.969238	145.820000
499.062897	145.480000
499.156616	146.000000
499.250275	146.380000
499.343994	146.240000
499.437653	146.320000
499.531372	146.660000
499.625061	147.300000
499.718781	147.300000
499.812439	147.940000
499.906158	147.880000
499.999817	147.480000
500.093536	146.720000
500.187195	146.580000
500.280914	146.300000
500.374573	146.660000
500.468323	146.460000
500.561981	146.580000
500.655701	146.220000
500.749420	146.160000
500.843079	146.220000
500.936798	146.700000
501.030457	146.840000
501.124176	147.080000
501.217834	146.840000
501.311554	146.460000
501.405212	146.240000
501.498962	145.580000
501.592621	145.700000
501.686340	146.440000
501.779999	146.640000
501.873718	146.920000
501.967377	147.380000
502.061096	147.740000
502.154755	147.020000
502.248474	146.980000
502.342133	146.780000
502.435852	146.680000
502.529510	146.760000
502.623230	147.240000
502.716888	146.900000
502.810608	146.920000
502.904266	147.620000
502.997986	147.240000
503.091705	146.840000
503.185364	146.860000
503.279083	146.860000
503.372772	146.580000
503.466492	146.140000
503.560150	146.300000
503.653870	146.860000
503.747528	146.820000
503.841248	146.460000
503.934906	146.880000
504.028625	146.680000
504.122284	146.620000
504.216003	147.340000
504.309662	147.020000
504.403381	147.000000
504.497040	147.200000
504.590759	146.780000
504.684418	146.640000
504.778137	147.260000
504.871796	147.640000
504.965515	147.460000
505.059174	147.940000
505.152893	147.200000
505.246521	146.780000
505.340240	146.280000
505.433899	146.380000
505.527618	146.240000
505.621338	147.040000
505.714996	147.180000
505.808716	147.260000
505.902374	147.720000
505.996094	147.740000
506.089752	147.220000
506.183472	147.480000
506.277130	147.580000
506.370850	147.360000
506.464508	147.060000
506.558228	147.100000
506.651886	146.700000
506.745605	146.740000
506.839264	146.800000
506.932983	147.200000
507.026611	147.000000
507.120331	147.480000
507.213989	146.680000
507.307709	146.820000
507.401367	146.740000
507.495087	147.720000
507.588745	147.120000
507.682465	148.560000
507.776123	148.280000
507.869843	148.120000
507.963531	147.700000
508.057190	148.020000
508.150909	146.860000
508.244568	146.940000
508.338287	146.560000
508.431946	146.420000
508.525665	146.200000
508.619324	146.460000
508.713013	146.700000
508.806671	147.240000
508.900391	147.740000
508.994049	147.880000
509.087769	147.680000
509.181427	147.580000
509.275146	147.280000
509.368774	146.420000
509.462494	146.400000
509.556152	146.560000
509.649872	146.660000
509.743530	146.860000
509.837250	147.160000
509.930878	147.180000
510.024597	146.860000
510.118256	146.600000
510.211975	146.520000
510.305695	146.060000
510.399353	146.200000
510.493042	146.900000
510.586700	146.960000
510.680420	147.420000
510.774078	147.560000
510.867798	147.700000
510.961426	147.220000
511.055145	147.120000
511.148804	146.700000
511.242523	147.420000
511.336151	147.180000
511.429871	147.460000
511.523529	147.320000
511.617249	147.060000
511.710876	146.580000
511.804596	146.460000
511.898254	146.600000
511.991974	146.760000
512.085632	146.800000
512.179321	147.020000
512.272949	146.960000
512.366699	147.200000
512.460327	147.080000
512.554077	148.120000
512.647766	148.000000
512.741394	147.900000
512.835144	148.160000
512.928772	148.220000
513.022461	147.440000
513.116150	147.220000
513.209839	148.080000
513.303467	147.160000
513.397217	146.800000
513.490845	146.800000
513.584595	146.500000
513.678223	145.660000
513.771912	145.320000
513.865601	145.720000
513.959290	145.380000
514.052917	145.720000
514.146667	146.460000
514.240295	147.040000
514.333984	146.940000
514.427673	147.100000
514.521362	147.220000
514.614990	146.440000
514.708740	146.580000
514.802368	147.020000
514.896057	147.280000
514.989746	147.620000
515.083435	147.820000
515.177124	148.060000
515.270752	147.600000
515.364502	147.300000
515.458130	147.480000
515.551819	147.320000
515.645508	146.820000
515.739197	147.060000
515.832825	147.180000
515.926575	146.360000
516.020203	146.540000
516.113892	147.160000
516.207520	146.800000
516.301270	147.040000
516.394897	147.280000
516.488586	147.780000
516.582275	147.480000
516.675964	147.160000
516.769592	146.720000
516.863281	147.400000
516.956970	147.360000
517.050659	147.040000
517.144287	147.420000
517.238037	147.520000
517.331665	146.740000
517.425354	146.380000
517.519043	146.460000
517.612732	146.780000
517.706421	146.580000
517.800049	146.440000
517.893738	145.920000
517.987427	145.960000
518.081116	145.600000
518.174744	145.780000
518.268433	146.240000
518.362122	147.120000
518.455811	146.860000
518.549438	147.460000
518.643127	148.260000
518.736816	147.860000
518.830505	147.400000
518.924133	147.320000
519.017822	147.200000
519.111511	146.360000
519.205200	146.740000
519.298828	146.740000
519.392517	146.780000
519.486206	146.860000
519.579895	147.020000
519.673523	146.740000
519.767212	146.640000
519.860901	147.220000
519.954590	146.560000
520.048279	146.340000
520.141907	146.060000
520.235596	147.100000
520.329224	146.880000
520.422974	147.140000
520.516602	147.060000
520.610291	147.120000
520.703918	146.600000
520.797607	146.620000
520.891296	146.540000
520.984985	146.880000
521.078613	147.520000
521.172302	146.840000
521.265930	147.520000
521.359680	148.140000
521.453308	147.940000
521.546997	147.620000
521.640625	147.900000
521.734314	147.020000
521.827942	146.520000
521.921692	146.700000
522.015320	146.800000
522.109009	146.540000
522.202698	146.720000
522.296326	146.620000
522.390015	147.000000
522.483704	147.260000
522.577393	147.260000
522.671021	146.780000
522.764709	146.340000
522.858337	146.460000
522.952026	146.260000
523.045654	146.960000
523.139404	147.960000
523.233032	148.500000
523.326721	148.020000
523.420349	147.800000
523.514038	147.200000
523.607666	147.200000
523.701355	146.980000
523.795044	147.180000
523.888733	147.380000
523.982361	147.680000
524.076050	146.920000
524.169678	147.440000
524.263367	146.880000
524.356995	146.300000
524.450684	146.020000
524.544373	145.900000
524.638062	145.480000
524.731750	145.760000
524.825378	146.240000
524.919067	145.920000
525.012695	146.260000
525.106384	145.880000
525.200012	146.420000
525.293701	146.040000
525.387329	146.500000
525.481018	146.420000
525.574646	147.180000
525.668396	146.500000
525.762024	146.960000
525.855713	147.060000
525.949341	146.680000
526.043030	146.280000
526.136658	146.300000
526.230347	146.040000
526.323975	145.740000
526.417664	145.760000
526.511292	145.700000
526.604980	145.820000
526.698608	146.000000
526.792297	146.340000
526.885925	146.820000
526.979614	147.200000
527.073303	147.080000
527.166931	146.880000
527.260620	146.720000
527.354309	146.940000
527.447998	146.780000
527.541626	146.680000
527.635315	146.700000
527.728943	147.080000
527.822632	147.000000
527.916260	146.800000
528.009949	147.080000
528.103577	147.000000
528.197266	146.600000
528.290894	146.460000
528.384583	146.540000
528.478210	146.720000
528.571899	146.920000
528.665527	147.060000
528.759216	147.260000
528.852844	147.880000
528.946533	147.500000
529.040161	147.420000
529.133850	147.220000
529.227478	147.460000
529.321167	147.220000
529.414856	147.580000
529.508484	147.780000
529.602173	147.640000
529.695801	147.140000
529.789490	146.880000
529.883057	146.580000
529.976746	146.720000
530.070374	147.020000
530.164062	146.940000
530.257690	147.260000
530.351379	147.480000
530.445007	147.260000
530.538696	146.860000
530.632324	147.080000
530.726013	147.020000
530.819641	147.020000
530.913330	147.060000
531.006958	147.460000
531.100647	147.700000
531.194275	147.480000
531.287964	147.280000
531.381592	147.040000
531.475220	146.700000
531.568848	146.260000
531.662537	145.980000
531.756226	146.600000
531.849854	146.660000
531.943542	146.660000
532.037170	146.500000
532.130859	146.860000
532.224487	146.060000
532.318176	145.840000
532.411804	146.500000
532.505432	146.780000
532.599060	146.500000
532.692749	146.480000
532.786377	146.980000
532.880066	145.980000
532.973694	145.280000
533.067383	145.260000
533.161011	145.240000
533.254639	144.960000
533.348267	145.100000
533.441956	145.800000
533.535583	146.040000
533.629272	146.440000
533.722900	146.000000
533.816589	146.100000
533.910156	146.100000
534.003845	145.680000
534.097534	145.500000
534.191162	146.320000
534.284851	146.800000
534.378479	146.560000
534.472107	146.500000
534.565735	146.400000
534.659424	146.280000
534.753052	146.300000
534.846741	146.040000
534.940369	146.740000
535.033997	146.900000
535.127625	147.020000
535.221313	147.260000
535.314941	147.580000
535.408630	146.860000
535.502197	147.300000
535.595886	146.780000
535.689514	146.520000
535.783203	146.940000
535.876831	147.600000
535.970459	147.240000
536.064087	147.480000
536.157776	147.420000
536.251404	147.340000
536.345093	146.780000
536.438721	146.800000
536.532349	147.060000
536.626038	146.900000
536.719666	146.940000
536.813293	146.800000
536.906921	146.800000
537.000610	146.640000
537.094238	146.620000
537.187866	146.440000
537.281494	146.740000
537.375183	147.060000
537.468811	146.760000
537.562439	146.820000
537.656067	146.760000
537.749756	146.840000
537.843384	146.920000
537.937012	147.380000
538.030640	147.160000
538.124329	147.040000
538.217896	147.420000
538.311584	147.320000
538.405212	147.140000
538.498901	147.720000
538.592468	148.320000
538.686157	147.580000
538.779785	146.820000
538.873413	146.760000
538.967102	146.280000
539.060730	145.540000
539.154358	146.240000
539.247986	146.780000
539.341675	146.860000
539.435242	146.800000
539.528931	147.420000
539.622559	146.880000
539.716187	147.280000
539.809814	147.260000
539.903503	147.220000
539.997070	146.580000
540.090759	146.700000
540.184387	146.220000
540.278015	146.480000
540.371643	146.660000
540.465332	147.140000
540.558899	147.140000
540.652588	147.280000
540.746216	146.860000
540.839844	147.300000
540.933472	147.120000
541.027100	147.140000
541.120728	146.940000
541.214417	147.160000
541.308044	147.280000
541.401672	147.200000
541.495300	147.100000
541.588928	147.140000
541.682617	147.100000
541.776184	146.240000
541.869873	146.300000
541.963440	146.640000
542.057129	146.760000
542.150757	146.660000
542.244385	146.900000
542.338013	146.480000
542.431641	146.280000
542.525269	146.080000
542.618958	146.320000
542.712524	146.620000
542.806213	146.700000
542.899780	146.900000
542.993469	146.780000
543.087036	146.300000
543.180725	145.700000
543.274292	146.400000
543.367981	146.420000
543.461548	146.600000
543.555237	146.820000
543.648926	147.600000
543.742493	147.820000
543.836182	147.620000
543.929749	147.680000
544.023437	147.760000
544.117004	147.640000
544.210693	147.360000
544.304260	147.480000
544.397949	147.340000
544.491516	147.420000
544.585205	147.140000
544.678772	146.660000
544.772461	146.780000
544.866028	146.820000
544.959717	146.960000
545.053284	146.860000
545.146973	147.260000
545.240540	147.280000
545.334229	147.800000
545.427795	148.100000
545.521423	148.360000
545.615051	148.180000
545.708679	148.340000
545.802307	148.000000
545.895935	147.780000
545.989624	148.360000
546.083191	148.200000
546.176880	147.980000
546.270447	147.680000
546.364136	147.780000
546.457703	147.160000
546.551331	147.240000
546.644958	147.320000
546.738586	147.740000
546.832214	147.280000
546.925842	147.240000
547.019409	147.800000
547.113098	147.260000
547.206665	146.980000
547.300354	147.060000
547.393921	147.300000
547.487549	147.080000
547.581177	147.280000
547.674805	147.060000
547.768433	146.560000
547.862061	146.220000
547.955627	145.400000
548.049316	145.980000
548.142883	146.340000
548.236572	147.220000
548.330139	147.760000
548.423767	148.000000
548.517456	147.960000
548.611023	148.100000
548.704651	147.200000
548.798279	146.900000
548.891907	147.560000
548.985474	147.140000
549.079163	147.260000
549.172729	147.520000
549.266357	147.220000
549.359985	146.980000
549.453613	146.620000
549.547180	146.420000
549.640869	146.780000
549.734436	146.720000
549.828064	146.980000
549.921631	147.000000
550.015320	146.360000
550.108887	146.540000
550.202515	146.780000
550.296143	146.340000
550.389771	146.700000
550.483337	147.420000
550.576965	147.080000
550.670593	147.520000
550.764221	147.740000
550.857849	147.160000
550.951477	146.560000
551.045105	146.360000
551.138672	146.000000
551.232300	145.620000
551.325928	146.280000
551.419556	146.600000
551.513123	146.820000
551.606750	146.540000
551.700378	146.680000
551.794006	146.400000
551.887573	146.300000
551.981201	146.620000
552.074768	146.600000
552.168457	146.260000
552.262024	147.480000
552.355652	147.400000
552.449219	147.700000
552.542847	148.040000
552.636475	148.020000
552.730103	146.680000
552.823669	146.740000
552.917297	146.100000
553.010864	146.000000
553.104553	146.600000
553.198181	146.560000
553.291748	146.920000
553.385376	147.240000
553.478943	147.200000
553.572571	147.120000
553.666199	147.340000
553.759827	146.900000
553.853394	146.180000
553.947021	146.140000
554.040588	145.920000
554.134216	146.140000
554.227783	146.800000
554.321411	147.600000
554.415039	146.980000
554.508667	147.040000
554.602234	147.140000
554.695862	146.400000
554.789429	146.120000
554.883057	146.580000
554.976624	146.600000
555.070251	146.500000
555.163818	146.420000
555.257507	146.500000
555.351074	146.900000
555.444702	147.740000
555.538330	147.320000
555.631897	147.900000
555.725525	147.740000
555.819092	147.500000
555.912720	146.460000
556.006287	147.040000
556.099915	146.760000
556.193481	146.780000
556.287109	146.860000
556.380676	146.900000
556.474304	146.860000
556.567871	147.040000
556.661499	146.520000
556.755066	146.440000
556.848694	146.700000
556.942261	146.200000
557.035889	146.380000
557.129517	146.780000
557.223145	147.240000
557.316711	147.220000
557.410339	147.680000
557.503906	147.580000
557.597473	147.880000
557.691040	147.620000
557.784668	147.300000
557.878296	147.240000
557.971863	146.960000
558.065491	146.980000
558.159058	146.560000
558.252686	147.380000
558.346252	147.560000
558.439880	147.420000
558.533447	147.040000
558.627075	146.920000
558.720642	146.440000
558.814270	146.320000
558.907837	146.480000
559.001465	146.180000
559.095032	146.880000
559.188660	147.020000
559.282227	146.640000
559.375854	147.000000
559.469360	146.920000
559.562988	146.780000
559.656555	146.880000
559.750183	147.280000
559.843750	147.340000
559.937378	147.560000
560.030945	147.360000
560.124573	0.000000
560.218140	0.000000
560.311707	0.000000
560.405334	0.000000
560.498901	0.000000
560.592529	0.000000
560.686096	0.000000
560.779724	0.000000
560.873291	0.000000
560.966858	0.000000
561.060425	0.000000
561.154053	0.000000
561.247620	0.000000
561.341248	0.000000
561.434814	0.000000
561.528381	0.000000
561.621948	0.000000
561.715576	0.000000
561.809143	0.000000
561.902771	0.000000
561.996277	0.000000
562.089905	0.000000
562.183472	0.000000
562.277100	0.000000
