Model Number: SPM-002-B   
Serial Number: 70087108
Firmware Version: 004.15.4
Exposure Time: 100000.000000us
Data Taken on: 11-12-2020 18:53:42.658
Wavelength	Amplitude
221.570786	0.000000
221.663406	0.000000
221.756027	0.000000
221.848648	0.000000
221.941269	0.000000
222.033905	0.000000
222.126526	0.000000
222.219162	0.000000
222.311798	0.000000
222.404419	0.000000
222.497055	0.000000
222.589676	0.000000
222.682312	0.000000
222.774933	0.000000
222.867569	0.000000
222.960205	0.000000
223.052841	0.000000
223.145462	0.000000
223.238098	0.000000
223.330734	0.000000
223.423386	0.000000
223.516022	0.000000
223.608658	0.000000
223.701309	0.000000
223.793945	0.000000
223.886581	0.000000
223.979218	0.000000
224.071869	0.000000
224.164505	0.000000
224.257156	0.000000
224.349792	0.000000
224.442444	0.000000
224.535095	0.000000
224.627747	0.000000
224.720398	0.000000
224.813034	0.000000
224.905685	0.000000
224.998337	146.400000
225.090988	146.100000
225.183640	145.940000
225.276291	145.720000
225.368942	145.940000
225.461594	146.600000
225.554245	146.700000
225.646912	146.460000
225.739578	146.920000
225.832230	147.180000
225.924896	146.040000
226.017548	146.520000
226.110199	147.340000
226.202866	146.640000
226.295532	146.460000
226.388184	146.760000
226.480850	146.140000
226.573517	145.360000
226.666168	145.880000
226.758835	145.900000
226.851501	146.420000
226.944183	146.460000
227.036850	146.300000
227.129517	146.220000
227.222183	146.480000
227.314850	146.200000
227.407516	146.700000
227.500198	147.520000
227.592865	147.280000
227.685532	146.700000
227.778214	146.600000
227.870880	146.840000
227.963562	147.280000
228.056229	147.640000
228.148926	148.020000
228.241592	148.780000
228.334274	148.200000
228.426956	147.360000
228.519638	147.320000
228.612305	146.760000
228.704987	146.500000
228.797668	146.500000
228.890350	146.320000
228.983032	145.740000
229.075714	146.700000
229.168396	146.160000
229.261108	146.100000
229.353790	146.320000
229.446472	146.660000
229.539169	146.040000
229.631851	145.760000
229.724533	146.060000
229.817230	146.300000
229.909912	147.220000
230.002609	147.280000
230.095306	147.360000
230.187988	147.260000
230.280685	146.960000
230.373383	145.860000
230.466095	145.540000
230.558792	145.920000
230.651474	145.700000
230.744171	145.320000
230.836868	145.500000
230.929581	146.000000
231.022278	146.040000
231.114975	146.060000
231.207672	146.220000
231.300369	146.560000
231.393082	146.360000
231.485779	146.100000
231.578506	145.980000
231.671204	146.280000
231.763916	145.960000
231.856613	145.960000
231.949326	146.160000
232.042023	146.300000
232.134735	146.260000
232.227448	146.240000
232.320160	146.520000
232.412872	146.400000
232.505585	147.080000
232.598297	147.400000
232.691010	147.420000
232.783722	147.060000
232.876450	147.960000
232.969162	147.180000
233.061874	146.580000
233.154587	146.280000
233.247314	146.620000
233.340027	145.860000
233.432739	146.480000
233.525467	146.500000
233.618179	146.840000
233.710907	146.320000
233.803635	146.500000
233.896347	146.320000
233.989090	147.120000
234.081818	147.300000
234.174545	147.760000
234.267258	147.420000
234.359985	147.580000
234.452713	147.360000
234.545441	146.800000
234.638168	146.300000
234.730896	146.840000
234.823639	146.580000
234.916367	146.840000
235.009094	147.020000
235.101822	147.340000
235.194580	147.140000
235.287308	146.960000
235.380051	146.100000
235.472778	146.360000
235.565521	146.700000
235.658249	146.320000
235.750992	146.520000
235.843719	146.780000
235.936462	146.980000
236.029205	146.380000
236.121948	146.300000
236.214691	146.560000
236.307449	147.560000
236.400192	147.100000
236.492935	147.080000
236.585678	147.280000
236.678421	146.960000
236.771164	146.140000
236.863907	146.540000
236.956665	146.740000
237.049408	148.320000
237.142151	147.700000
237.234909	148.260000
237.327652	148.240000
237.420410	148.240000
237.513153	147.100000
237.605927	147.300000
237.698669	146.780000
237.791428	146.320000
237.884186	146.780000
237.976944	146.180000
238.069702	146.480000
238.162445	145.960000
238.255203	146.420000
238.347961	146.420000
238.440720	146.540000
238.533478	146.480000
238.626266	146.440000
238.719025	146.380000
238.811783	146.180000
238.904541	146.080000
238.997314	146.000000
239.090073	146.100000
239.182831	146.220000
239.275604	146.780000
239.368362	146.700000
239.461136	146.880000
239.553909	146.840000
239.646667	146.660000
239.739441	146.240000
239.832214	146.460000
239.925003	146.660000
240.017761	147.480000
240.110535	147.820000
240.203308	147.300000
240.296082	147.420000
240.388855	147.060000
240.481628	147.100000
240.574417	147.060000
240.667191	147.240000
240.759964	146.960000
240.852737	147.200000
240.945526	146.560000
241.038315	146.440000
241.131088	146.880000
241.223877	147.520000
241.316650	147.140000
241.409439	147.340000
241.502228	146.900000
241.595001	147.060000
241.687790	146.600000
241.780579	146.660000
241.873367	146.980000
241.966141	147.140000
242.058929	146.380000
242.151718	146.500000
242.244507	147.120000
242.337311	146.160000
242.430099	146.840000
242.522903	147.300000
242.615692	147.020000
242.708481	146.600000
242.801270	147.140000
242.894073	146.760000
242.986862	146.780000
243.079651	147.240000
243.172455	147.260000
243.265244	147.500000
243.358063	147.060000
243.450867	147.220000
243.543655	147.340000
243.636459	147.640000
243.729263	147.700000
243.822067	148.020000
243.914856	147.940000
244.007660	147.520000
244.100464	147.180000
244.193268	146.660000
244.286072	146.640000
244.378876	146.400000
244.471680	146.280000
244.564499	146.640000
244.657318	147.720000
244.750122	148.120000
244.842926	147.700000
244.935745	148.060000
245.028549	147.340000
245.121368	146.360000
245.214172	146.180000
245.306992	146.840000
245.399796	146.500000
245.492615	147.160000
245.585434	147.360000
245.678253	146.800000
245.771072	146.460000
245.863892	146.800000
245.956711	146.940000
246.049530	146.660000
246.142349	146.780000
246.235168	146.940000
246.327988	147.240000
246.420807	146.600000
246.513626	146.820000
246.606445	147.060000
246.699280	146.840000
246.792099	146.580000
246.884918	146.380000
246.977753	145.940000
247.070587	145.980000
247.163422	146.340000
247.256241	146.280000
247.349075	146.920000
247.441895	147.400000
247.534729	146.980000
247.627563	146.620000
247.720383	147.060000
247.813217	146.880000
247.906052	146.820000
247.998886	147.100000
248.091736	146.960000
248.184570	146.480000
248.277405	146.500000
248.370239	147.420000
248.463074	148.180000
248.555908	148.460000
248.648743	148.300000
248.741592	148.460000
248.834427	147.580000
248.927261	146.660000
249.020111	147.100000
249.112946	147.760000
249.205795	147.240000
249.298630	147.280000
249.391495	147.120000
249.484344	146.780000
249.577179	146.400000
249.670029	146.820000
249.762878	147.360000
249.855728	147.700000
249.948563	147.840000
250.041412	147.320000
250.134262	147.600000
250.227112	147.440000
250.319962	147.760000
250.412827	147.660000
250.505692	147.540000
250.598541	147.360000
250.691391	146.760000
250.784241	146.540000
250.877106	146.660000
250.969955	146.820000
251.062805	147.320000
251.155670	147.860000
251.248520	147.540000
251.341385	147.700000
251.434235	147.640000
251.527100	147.100000
251.619965	146.860000
251.712814	147.820000
251.805695	147.360000
251.898560	147.800000
251.991425	148.020000
252.084290	148.340000
252.177155	147.580000
252.270020	147.500000
252.362885	147.320000
252.455750	147.260000
252.548615	146.900000
252.641479	146.780000
252.734360	146.860000
252.827240	146.660000
252.920105	146.680000
253.012970	146.520000
253.105850	146.620000
253.198715	146.360000
253.291595	146.560000
253.384460	146.020000
253.477341	146.080000
253.570221	146.160000
253.663086	146.100000
253.755966	146.800000
253.848846	147.300000
253.941727	147.460000
254.034592	147.700000
254.127472	147.240000
254.220367	146.800000
254.313248	146.660000
254.406128	146.380000
254.499008	146.200000
254.591904	147.400000
254.684784	148.060000
254.777664	148.180000
254.870544	148.080000
254.963440	147.960000
255.056335	147.880000
255.149216	147.000000
255.242111	147.560000
255.334991	147.980000
255.427887	147.880000
255.520767	147.660000
255.613663	148.140000
255.706558	147.240000
255.799438	146.960000
255.892334	146.920000
255.985229	146.880000
256.078125	146.480000
256.171021	146.660000
256.263916	147.260000
256.356812	147.400000
256.449707	147.560000
256.542603	147.520000
256.635498	148.000000
256.728394	147.400000
256.821289	147.060000
256.914215	147.380000
257.007080	147.480000
257.100006	147.300000
257.192932	147.880000
257.285828	148.300000
257.378723	147.880000
257.471619	147.760000
257.564545	147.300000
257.657440	147.160000
257.750336	147.420000
257.843262	147.060000
257.936157	147.900000
258.029053	148.280000
258.121979	148.160000
258.214874	147.740000
258.307800	147.880000
258.400696	146.800000
258.493622	146.560000
258.586517	145.900000
258.679443	146.380000
258.772339	145.940000
258.865265	146.180000
258.958160	146.080000
259.051086	147.140000
259.144012	146.800000
259.236938	147.640000
259.329834	147.700000
259.422791	147.580000
259.515717	146.920000
259.608612	146.700000
259.701538	146.760000
259.794464	146.480000
259.887390	146.620000
259.980316	146.320000
260.073212	146.380000
260.166138	145.300000
260.259064	145.820000
260.351990	146.060000
260.444916	146.220000
260.537842	146.360000
260.630768	147.240000
260.723694	147.060000
260.816620	147.060000
260.909546	147.140000
261.002472	146.880000
261.095398	146.320000
261.188354	146.060000
261.281281	145.480000
261.374207	145.520000
261.467133	146.180000
261.560089	146.600000
261.653015	146.580000
261.745972	147.400000
261.838867	147.620000
261.931824	147.480000
262.024780	147.000000
262.117706	147.080000
262.210663	146.980000
262.303589	146.820000
262.396515	146.800000
262.489471	147.480000
262.582397	147.520000
262.675354	147.000000
262.768280	147.100000
262.861237	146.980000
262.954163	146.760000
263.047119	146.760000
263.140045	146.660000
263.233002	146.380000
263.325958	146.400000
263.418884	146.160000
263.511841	145.960000
263.604797	146.120000
263.697723	146.120000
263.790680	146.080000
263.883636	146.620000
263.976593	146.460000
264.069550	146.480000
264.162476	146.320000
264.255463	146.280000
264.348419	145.980000
264.441376	146.740000
264.534332	146.440000
264.627289	146.440000
264.720245	146.820000
264.813202	146.100000
264.906158	145.940000
264.999115	146.800000
265.092072	147.100000
265.185028	147.220000
265.277985	147.800000
265.370941	147.460000
265.463898	146.780000
265.556854	146.300000
265.649811	145.340000
265.742798	145.560000
265.835754	145.880000
265.928711	146.320000
266.021667	146.640000
266.114655	147.180000
266.207611	147.340000
266.300568	146.700000
266.393585	146.280000
266.486511	146.680000
266.579498	145.880000
266.672485	145.600000
266.765442	145.600000
266.858429	146.120000
266.951385	145.620000
267.044342	146.200000
267.137329	146.220000
267.230316	146.820000
267.323273	146.360000
267.416260	146.980000
267.509216	146.940000
267.602203	146.740000
267.695160	146.740000
267.788147	146.780000
267.881134	146.160000
267.974091	146.460000
268.067078	146.560000
268.160065	146.200000
268.253052	145.900000
268.346008	146.360000
268.438995	145.940000
268.531982	146.080000
268.624969	146.100000
268.717987	146.500000
268.810944	146.080000
268.903961	146.240000
268.996948	145.800000
269.089905	146.340000
269.182892	146.700000
269.275879	146.960000
269.368866	146.400000
269.461853	146.900000
269.554871	146.820000
269.647858	146.500000
269.740845	146.840000
269.833832	147.480000
269.926819	146.740000
270.019806	146.720000
270.112793	146.640000
270.205811	146.460000
270.298798	146.360000
270.391785	147.500000
270.484772	146.860000
270.577789	146.800000
270.670776	146.420000
270.763763	146.120000
270.856750	145.680000
270.949768	145.840000
271.042786	145.760000
271.135773	146.080000
271.228790	146.460000
271.321808	146.080000
271.414795	145.840000
271.507782	145.540000
271.600800	144.980000
271.693817	144.800000
271.786804	145.420000
271.879822	145.880000
271.972809	146.300000
272.065826	146.920000
272.158844	146.700000
272.251831	146.800000
272.344849	146.800000
272.437866	146.300000
272.530853	146.120000
272.623871	146.620000
272.716888	145.680000
272.809906	145.960000
272.902893	146.300000
272.995911	146.060000
273.088928	145.780000
273.181946	146.160000
273.274963	145.800000
273.367981	145.880000
273.460999	146.020000
273.554047	146.140000
273.647003	146.740000
273.740051	146.860000
273.833069	147.060000
273.926086	147.120000
274.019135	147.160000
274.112152	146.740000
274.205170	146.780000
274.298187	146.880000
274.391205	146.340000
274.484222	146.420000
274.577240	146.200000
274.670258	145.880000
274.763306	145.660000
274.856323	146.360000
274.949341	146.360000
275.042358	146.920000
275.135406	147.020000
275.228424	146.940000
275.321442	146.880000
275.414490	146.420000
275.507507	146.500000
275.600525	146.780000
275.693573	146.800000
275.786591	146.360000
275.879669	146.860000
275.972656	146.360000
276.065735	146.280000
276.158752	146.540000
276.251801	147.280000
276.344818	147.260000
276.437866	147.400000
276.530884	147.100000
276.623932	146.460000
276.716980	146.460000
276.809998	146.560000
276.903046	146.540000
276.996094	147.280000
277.089111	147.920000
277.182159	148.160000
277.275208	147.600000
277.368256	147.500000
277.461304	147.380000
277.554321	146.800000
277.647369	146.500000
277.740417	146.980000
277.833466	146.940000
277.926514	146.480000
278.019562	147.300000
278.112610	146.560000
278.205688	146.500000
278.298706	146.640000
278.391785	146.240000
278.484833	145.580000
278.577881	145.680000
278.670929	145.900000
278.763977	145.980000
278.857025	146.620000
278.950073	146.840000
279.043121	146.780000
279.136169	146.600000
279.229248	146.440000
279.322296	146.600000
279.415344	146.440000
279.508392	146.440000
279.601440	146.140000
279.694519	146.040000
279.787567	145.920000
279.880615	145.880000
279.973694	145.900000
280.066742	146.020000
280.159790	146.000000
280.252869	145.540000
280.345917	145.760000
280.438995	146.020000
280.532074	146.240000
280.625122	146.780000
280.718201	147.580000
280.811279	147.380000
280.904327	147.280000
280.997406	147.000000
281.090454	146.760000
281.183533	146.100000
281.276581	146.020000
281.369659	145.900000
281.462738	146.200000
281.555786	146.360000
281.648865	146.200000
281.741943	146.160000
281.835022	146.640000
281.928070	146.420000
282.021149	146.080000
282.114227	146.400000
282.207306	146.680000
282.300385	147.060000
282.393433	147.220000
282.486511	147.400000
282.579590	147.820000
282.672668	147.880000
282.765747	147.240000
282.858856	147.020000
282.951904	147.000000
283.045013	146.860000
283.138062	147.120000
283.231171	147.340000
283.324249	147.780000
283.417328	147.800000
283.510406	147.460000
283.603485	147.200000
283.696564	147.120000
283.789642	147.100000
283.882751	146.880000
283.975830	147.400000
284.068909	147.000000
284.161987	147.380000
284.255066	146.540000
284.348175	146.720000
284.441254	146.440000
284.534332	147.220000
284.627441	146.960000
284.720520	147.120000
284.813599	147.160000
284.906708	147.240000
284.999786	146.400000
285.092896	146.200000
285.185974	147.340000
285.279053	146.860000
285.372192	147.060000
285.465240	148.040000
285.558380	147.660000
285.651459	147.040000
285.744568	148.040000
285.837677	147.480000
285.930756	147.080000
286.023865	147.640000
286.116943	147.400000
286.210052	147.140000
286.303162	147.520000
286.396240	147.080000
286.489349	146.720000
286.582458	146.900000
286.675568	146.480000
286.768646	146.060000
286.861755	146.740000
286.954865	147.420000
287.047974	147.060000
287.141083	146.900000
287.234161	146.860000
287.327271	146.600000
287.420380	146.860000
287.513519	146.920000
287.606598	147.080000
287.699738	147.340000
287.792816	147.080000
287.885956	146.500000
287.979034	146.420000
288.072174	146.460000
288.165283	146.400000
288.258392	146.660000
288.351501	146.160000
288.444611	146.480000
288.537720	146.700000
288.630859	146.620000
288.723969	146.780000
288.817078	147.280000
288.910187	146.980000
289.003296	146.580000
289.096436	146.360000
289.189545	146.160000
289.282654	145.620000
289.375763	145.900000
289.468903	146.180000
289.562012	146.480000
289.655121	146.340000
289.748260	146.620000
289.841400	146.920000
289.934509	147.200000
290.027649	147.280000
290.120728	147.180000
290.213898	147.140000
290.306976	146.920000
290.400146	146.620000
290.493256	146.160000
290.586395	146.480000
290.679535	147.080000
290.772644	146.740000
290.865784	146.240000
290.958893	146.480000
291.052032	146.180000
291.145172	145.960000
291.238281	145.900000
291.331421	146.080000
291.424561	146.460000
291.517670	146.220000
291.610809	146.120000
291.703949	146.360000
291.797089	146.720000
291.890228	146.260000
291.983337	146.340000
292.076477	146.420000
292.169617	146.540000
292.262756	146.540000
292.355927	146.560000
292.449036	146.460000
292.542206	146.380000
292.635315	146.520000
292.728485	146.500000
292.821625	146.080000
292.914764	147.500000
293.007904	147.500000
293.101044	147.460000
293.194183	147.340000
293.287323	147.800000
293.380463	146.680000
293.473602	146.320000
293.566742	146.540000
293.659882	147.120000
293.753021	147.220000
293.846191	146.920000
293.939331	146.520000
294.032471	146.220000
294.125610	145.540000
294.218781	145.880000
294.311920	146.600000
294.405060	147.120000
294.498230	147.020000
294.591370	147.200000
294.684540	146.560000
294.777679	145.960000
294.870850	146.360000
294.963959	146.240000
295.057159	146.000000
295.150299	146.480000
295.243469	146.640000
295.336609	146.040000
295.429779	146.140000
295.522919	146.360000
295.616089	146.300000
295.709229	146.720000
295.802399	147.060000
295.895569	147.040000
295.988708	146.880000
296.081879	146.840000
296.175018	146.240000
296.268188	146.200000
296.361359	146.820000
296.454529	147.020000
296.547668	146.920000
296.640839	147.400000
296.734009	147.320000
296.827179	147.120000
296.920319	147.360000
297.013519	147.060000
297.106659	147.000000
297.199860	146.760000
297.292999	146.380000
297.386200	146.000000
297.479309	146.180000
297.572510	146.260000
297.665680	146.220000
297.758850	146.140000
297.852020	146.160000
297.945190	145.780000
298.038361	145.260000
298.131531	146.420000
298.224701	146.260000
298.317871	145.920000
298.411072	145.800000
298.504242	145.840000
298.597412	144.980000
298.690582	145.460000
298.783752	145.640000
298.876923	146.340000
298.970093	146.240000
299.063293	146.460000
299.156464	146.420000
299.249634	146.580000
299.342834	146.860000
299.436005	147.280000
299.529205	147.160000
299.622345	147.160000
299.715576	146.880000
299.808716	146.160000
299.901917	146.200000
299.995117	146.540000
300.088287	146.620000
300.181488	146.740000
300.274658	146.680000
300.367828	146.320000
300.461029	146.080000
300.554199	146.180000
300.647400	146.040000
300.740601	146.740000
300.833771	146.740000
300.926971	147.120000
301.020142	146.680000
301.113342	146.820000
301.206512	146.440000
301.299713	146.940000
301.392914	146.660000
301.486084	147.020000
301.579285	146.920000
301.672516	147.340000
301.765686	146.880000
301.858887	146.720000
301.952057	146.540000
302.045288	146.600000
302.138458	146.440000
302.231659	146.460000
302.324860	146.020000
302.418060	145.820000
302.511261	145.680000
302.604462	145.840000
302.697662	145.600000
302.790863	145.760000
302.884064	145.700000
302.977264	146.000000
303.070465	146.180000
303.163666	147.220000
303.256866	147.780000
303.350067	147.920000
303.443268	147.940000
303.536469	147.820000
303.629669	147.140000
303.722870	146.960000
303.816071	146.640000
303.909271	146.720000
304.002472	145.820000
304.095673	145.520000
304.188934	144.860000
304.282104	145.960000
304.375336	145.800000
304.468506	146.180000
304.561768	145.900000
304.654968	146.740000
304.748169	146.080000
304.841370	146.040000
304.934601	146.280000
305.027802	146.380000
305.121002	145.980000
305.214233	146.000000
305.307434	146.140000
305.400665	146.660000
305.493866	146.680000
305.587097	146.960000
305.680298	146.600000
305.773499	146.880000
305.866730	146.220000
305.959930	147.020000
306.053162	147.300000
306.146393	147.100000
306.239594	146.300000
306.332825	146.520000
306.426025	146.620000
306.519287	145.680000
306.612488	146.020000
306.705719	146.400000
306.798920	146.200000
306.892181	145.620000
306.985352	145.480000
307.078613	145.220000
307.171844	145.360000
307.265045	145.100000
307.358276	144.580000
307.451508	145.320000
307.544739	145.880000
307.637970	145.380000
307.731201	145.460000
307.824402	146.640000
307.917633	146.660000
308.010864	147.160000
308.104095	148.000000
308.197327	148.360000
308.290558	147.920000
308.383789	147.700000
308.477020	147.000000
308.570251	145.960000
308.663483	145.420000
308.756714	145.300000
308.849976	145.360000
308.943176	145.740000
309.036438	145.860000
309.129639	146.020000
309.222900	145.780000
309.316101	145.600000
309.409393	145.140000
309.502625	144.960000
309.595856	144.820000
309.689087	145.320000
309.782318	145.160000
309.875580	145.380000
309.968811	146.180000
310.062042	146.280000
310.155273	146.080000
310.248535	146.740000
310.341766	146.580000
310.434998	145.960000
310.528259	145.960000
310.621490	146.080000
310.714722	145.240000
310.807983	145.340000
310.901215	145.680000
310.994476	145.720000
311.087708	145.280000
311.181000	145.600000
311.274200	145.200000
311.367462	145.220000
311.460693	145.120000
311.553986	145.920000
311.647186	146.480000
311.740479	147.080000
311.833710	147.020000
311.926971	147.220000
312.020203	146.360000
312.113464	145.740000
312.206726	145.200000
312.299957	145.560000
312.393219	145.900000
312.486481	146.340000
312.579712	146.460000
312.672974	146.720000
312.766235	146.400000
312.859497	146.080000
312.952759	145.700000
313.045990	146.400000
313.139252	145.980000
313.232513	146.220000
313.325775	146.140000
313.419037	146.140000
313.512299	145.240000
313.605530	145.920000
313.698822	145.800000
313.792053	145.980000
313.885345	145.800000
313.978577	146.060000
314.071869	145.640000
314.165131	145.740000
314.258392	146.020000
314.351654	146.400000
314.444916	145.820000
314.538177	146.180000
314.631439	146.340000
314.724701	145.820000
314.817993	145.660000
314.911255	146.320000
315.004517	145.620000
315.097778	145.440000
315.191040	145.920000
315.284302	146.600000
315.377594	146.580000
315.470856	146.960000
315.564117	146.520000
315.657379	145.980000
315.750671	145.320000
315.843933	145.340000
315.937195	144.860000
316.030518	144.820000
316.123749	144.860000
316.217041	145.580000
316.310303	145.440000
316.403595	145.780000
316.496857	146.060000
316.590149	146.660000
316.683411	145.960000
316.776703	145.800000
316.869965	146.040000
316.963257	145.920000
317.056519	144.880000
317.149811	144.820000
317.243073	145.040000
317.336365	144.920000
317.429626	145.460000
317.522919	146.380000
317.616180	146.400000
317.709473	146.140000
317.802765	146.360000
317.896027	145.820000
317.989319	145.940000
318.082611	145.940000
318.175873	145.800000
318.269165	145.420000
318.362488	145.460000
318.455750	145.040000
318.549042	145.360000
318.642303	146.120000
318.735626	146.040000
318.828888	146.140000
318.922211	145.780000
319.015472	146.420000
319.108765	145.740000
319.202057	145.660000
319.295349	145.920000
319.388641	146.340000
319.481934	145.600000
319.575226	145.540000
319.668518	145.940000
319.761810	146.000000
319.855103	145.820000
319.948395	145.880000
320.041687	146.160000
320.134979	146.000000
320.228271	145.800000
320.321564	145.780000
320.414856	145.600000
320.508148	145.260000
320.601440	145.080000
320.694763	144.680000
320.788025	145.380000
320.881348	145.620000
320.974640	145.640000
321.067963	145.320000
321.161224	145.620000
321.254547	144.660000
321.347839	145.080000
321.441162	145.120000
321.534454	145.580000
321.627747	145.220000
321.721069	146.160000
321.814362	145.860000
321.907654	146.160000
322.000946	146.160000
322.094269	146.900000
322.187561	146.300000
322.280884	146.680000
322.374176	146.500000
322.467468	146.920000
322.560791	146.820000
322.654083	147.280000
322.747406	147.060000
322.840698	147.320000
322.934021	147.340000
323.027344	147.540000
323.120636	147.100000
323.213959	146.860000
323.307251	146.360000
323.400574	145.860000
323.493866	145.080000
323.587219	145.400000
323.680511	145.520000
323.773834	145.800000
323.867157	146.200000
323.960449	146.660000
324.053772	146.280000
324.147095	146.280000
324.240387	146.780000
324.333710	146.340000
324.427032	146.520000
324.520355	146.660000
324.613647	146.340000
324.706970	145.860000
324.800293	145.940000
324.893616	145.760000
324.986938	146.000000
325.080231	145.960000
325.173553	146.320000
325.266876	146.980000
325.360199	146.920000
325.453522	146.600000
325.546875	146.360000
325.640167	146.320000
325.733521	146.280000
325.826813	146.380000
325.920166	146.120000
326.013489	146.200000
326.106812	145.320000
326.200134	144.720000
326.293457	144.100000
326.386780	143.900000
326.480103	144.040000
326.573425	144.360000
326.666748	144.620000
326.760071	145.280000
326.853424	146.060000
326.946747	146.080000
327.040070	147.000000
327.133392	146.720000
327.226715	146.240000
327.320068	145.760000
327.413391	146.240000
327.506714	145.240000
327.600037	145.160000
327.693390	145.520000
327.786713	145.380000
327.880066	145.080000
327.973358	145.900000
328.066742	146.540000
328.160034	146.400000
328.253418	146.840000
328.346710	146.660000
328.440063	146.060000
328.533417	145.640000
328.626740	146.000000
328.720093	145.700000
328.813416	145.700000
328.906769	145.600000
329.000092	145.920000
329.093445	145.860000
329.186768	145.740000
329.280121	146.120000
329.373444	146.540000
329.466797	146.360000
329.560120	146.220000
329.653473	146.580000
329.746796	146.160000
329.840149	145.920000
329.933502	145.880000
330.026825	145.800000
330.120178	145.620000
330.213562	145.620000
330.306854	145.620000
330.400238	145.560000
330.493561	145.180000
330.586945	145.800000
330.680237	146.320000
330.773621	146.500000
330.866974	146.380000
330.960327	146.780000
331.053680	146.100000
331.147003	146.040000
331.240356	146.100000
331.333710	146.180000
331.427063	145.620000
331.520416	145.820000
331.613770	145.500000
331.707123	145.520000
331.800476	145.820000
331.893829	147.160000
331.987152	147.040000
332.080505	147.060000
332.173859	146.760000
332.267212	146.260000
332.360565	145.460000
332.453918	145.180000
332.547333	144.980000
332.640656	145.180000
332.734039	145.560000
332.827362	145.780000
332.920746	146.560000
333.014069	146.900000
333.107452	147.360000
333.200806	147.420000
333.294159	147.280000
333.387543	146.540000
333.480896	145.900000
333.574249	145.240000
333.667603	144.840000
333.760956	144.880000
333.854340	145.120000
333.947693	145.640000
334.041046	145.880000
334.134430	146.200000
334.227783	145.780000
334.321136	145.500000
334.414520	145.460000
334.507874	145.780000
334.601227	145.760000
334.694611	145.860000
334.787964	146.140000
334.881348	146.300000
334.974701	146.020000
335.068085	145.600000
335.161438	146.080000
335.254822	146.020000
335.348175	145.740000
335.441559	145.320000
335.534943	146.100000
335.628296	146.000000
335.721680	146.220000
335.815033	146.720000
335.908417	147.260000
336.001770	147.020000
336.095154	146.880000
336.188538	146.320000
336.281891	145.680000
336.375275	145.120000
336.468658	145.040000
336.562012	145.260000
336.655396	145.860000
336.748779	146.360000
336.842133	146.760000
336.935516	146.920000
337.028900	146.480000
337.122284	146.340000
337.215637	146.300000
337.309021	145.760000
337.402435	145.340000
337.495789	145.300000
337.589203	145.140000
337.682526	144.900000
337.775940	145.600000
337.869324	146.140000
337.962708	145.800000
338.056091	146.180000
338.149475	145.760000
338.242859	145.880000
338.336243	145.160000
338.429626	145.540000
338.523010	145.620000
338.616394	145.920000
338.709778	145.700000
338.803162	145.960000
338.896545	145.860000
338.989929	145.160000
339.083313	145.360000
339.176697	145.080000
339.270081	144.940000
339.363464	145.400000
339.456848	146.040000
339.550232	145.440000
339.643616	145.420000
339.737030	145.560000
339.830383	145.580000
339.923828	145.520000
340.017181	146.040000
340.110596	146.600000
340.203949	146.560000
340.297363	145.900000
340.390778	145.600000
340.484161	145.400000
340.577545	145.060000
340.670959	145.260000
340.764343	145.500000
340.857727	145.580000
340.951111	145.160000
341.044525	145.260000
341.137909	145.000000
341.231293	145.040000
341.324707	144.840000
341.418091	145.600000
341.511505	145.500000
341.604889	145.640000
341.698303	145.620000
341.791687	145.540000
341.885071	145.200000
341.978485	145.000000
342.071899	144.960000
342.165283	144.960000
342.258698	145.400000
342.352081	145.800000
342.445496	146.380000
342.538879	146.340000
342.632324	146.220000
342.725708	146.000000
342.819122	145.440000
342.912506	144.800000
343.005920	144.720000
343.099335	145.660000
343.192719	145.780000
343.286133	145.780000
343.379547	146.320000
343.472931	146.640000
343.566345	145.640000
343.659760	145.680000
343.753143	145.740000
343.846558	145.280000
343.939972	145.180000
344.033386	146.060000
344.126770	146.020000
344.220184	146.540000
344.313599	147.220000
344.407043	147.060000
344.500427	146.320000
344.593872	146.780000
344.687225	146.580000
344.780670	145.700000
344.874054	145.480000
344.967499	146.060000
345.060913	145.760000
345.154327	145.480000
345.247742	145.500000
345.341156	145.740000
345.434570	145.420000
345.527985	145.200000
345.621399	145.280000
345.714813	145.520000
345.808228	145.560000
345.901642	145.120000
345.995056	145.020000
346.088470	145.200000
346.181885	145.420000
346.275299	145.260000
346.368713	145.540000
346.462128	145.460000
346.555573	145.540000
346.648987	145.680000
346.742401	145.600000
346.835815	145.920000
346.929260	145.660000
347.022644	145.680000
347.116119	145.760000
347.209503	146.180000
347.302948	146.740000
347.396362	147.740000
347.489807	147.900000
347.583221	148.300000
347.676636	147.960000
347.770050	146.940000
347.863495	146.420000
347.956909	146.020000
348.050323	145.280000
348.143768	145.380000
348.237183	145.100000
348.330597	145.520000
348.424042	146.020000
348.517456	146.260000
348.610901	146.760000
348.704315	147.220000
348.797760	146.520000
348.891174	145.740000
348.984619	145.260000
349.078033	145.300000
349.171448	145.880000
349.264923	145.680000
349.358337	145.680000
349.451782	145.560000
349.545197	144.900000
349.638641	144.180000
349.732086	144.220000
349.825500	144.960000
349.918945	145.200000
350.012390	145.820000
350.105804	146.500000
350.199249	146.680000
350.292664	146.600000
350.386108	146.700000
350.479553	147.000000
350.572968	146.680000
350.666412	147.000000
350.759857	146.860000
350.853302	147.320000
350.946716	146.600000
351.040161	146.400000
351.133606	146.440000
351.227081	146.440000
351.320465	147.120000
351.413940	147.260000
351.507355	147.580000
351.600830	147.300000
351.694244	146.860000
351.787720	146.180000
351.881104	145.860000
351.974579	145.780000
352.067993	146.760000
352.161469	147.180000
352.254883	146.440000
352.348358	146.680000
352.441803	146.420000
352.535248	145.880000
352.628693	146.120000
352.722137	146.440000
352.815582	146.560000
352.909027	146.660000
353.002472	146.240000
353.095917	145.920000
353.189362	146.240000
353.282806	146.200000
353.376251	145.900000
353.469696	145.660000
353.563141	146.240000
353.656586	145.920000
353.750061	145.460000
353.843475	145.760000
353.936981	146.460000
354.030396	145.740000
354.123871	146.020000
354.217285	146.880000
354.310760	147.360000
354.404175	147.460000
354.497681	147.300000
354.591095	147.080000
354.684570	146.180000
354.777985	145.440000
354.871490	144.880000
354.964935	145.360000
355.058380	145.360000
355.151855	145.440000
355.245300	146.000000
355.338745	146.300000
355.432220	146.320000
355.525665	145.800000
355.619110	146.260000
355.712585	145.780000
355.806030	145.740000
355.899475	145.560000
355.992950	146.160000
356.086426	146.460000
356.179871	146.700000
356.273346	146.580000
356.366791	146.480000
356.460266	146.760000
356.553711	146.480000
356.647186	146.600000
356.740631	146.460000
356.834106	146.440000
356.927551	146.260000
357.021027	145.820000
357.114471	146.000000
357.207947	146.000000
357.301422	146.080000
357.394867	146.140000
357.488342	146.800000
357.581818	146.480000
357.675262	147.000000
357.768738	146.960000
357.862213	146.160000
357.955658	146.020000
358.049133	146.240000
358.142609	146.360000
358.236053	146.260000
358.329529	146.640000
358.423035	147.080000
358.516449	146.460000
358.609955	146.420000
358.703400	147.160000
358.796906	147.380000
358.890350	146.380000
358.983826	147.160000
359.077271	146.400000
359.170776	145.700000
359.264221	145.400000
359.357727	146.020000
359.451172	146.220000
359.544647	146.620000
359.638123	146.640000
359.731598	147.000000
359.825073	147.220000
359.918549	146.820000
360.012024	146.880000
360.105499	146.840000
360.198975	146.860000
360.292450	146.480000
360.385925	146.600000
360.479401	146.160000
360.572876	146.340000
360.666351	146.540000
360.759857	146.520000
360.853302	146.420000
360.946808	146.300000
361.040253	146.300000
361.133759	146.040000
361.227203	146.020000
361.320709	145.500000
361.414154	146.020000
361.507660	146.300000
361.601105	146.440000
361.694641	147.200000
361.788086	147.560000
361.881592	147.980000
361.975067	147.440000
362.068542	147.820000
362.162018	147.280000
362.255524	146.840000
362.348999	146.560000
362.442474	146.860000
362.535950	145.980000
362.629456	145.840000
362.722931	146.000000
362.816406	146.300000
362.909882	146.880000
363.003387	147.080000
363.096863	147.200000
363.190338	147.340000
363.283875	146.900000
363.377319	146.180000
363.470825	146.820000
363.564301	146.300000
363.657806	146.140000
363.751282	145.920000
363.844788	146.660000
363.938232	145.960000
364.031769	146.880000
364.125214	147.180000
364.218750	148.080000
364.312225	146.980000
364.405731	147.300000
364.499207	146.520000
364.592712	146.380000
364.686188	145.540000
364.779694	146.320000
364.873169	146.400000
364.966675	146.540000
365.060150	146.540000
365.153656	147.140000
365.247131	146.640000
365.340637	146.720000
365.434143	147.240000
365.527618	147.300000
365.621155	146.180000
365.714600	146.520000
365.808136	146.220000
365.901611	145.420000
365.995117	145.280000
366.088593	145.740000
366.182129	145.480000
366.275604	145.740000
366.369110	145.840000
366.462585	145.780000
366.556122	146.620000
366.649567	146.580000
366.743103	146.420000
366.836609	146.180000
366.930115	146.400000
367.023590	146.260000
367.117096	146.520000
367.210602	146.300000
367.304108	147.340000
367.397614	147.960000
367.491119	148.020000
367.584595	148.040000
367.678101	148.640000
367.771606	148.020000
367.865112	147.480000
367.958649	146.540000
368.052124	146.340000
368.145660	145.880000
368.239136	146.680000
368.332672	146.680000
368.426147	147.320000
368.519684	147.100000
368.613159	147.400000
368.706696	146.420000
368.800171	146.140000
368.893707	145.580000
368.987183	145.820000
369.080719	145.560000
369.174225	145.540000
369.267731	145.760000
369.361237	146.100000
369.454742	146.060000
369.548248	146.540000
369.641754	146.600000
369.735260	146.380000
369.828766	145.580000
369.922272	146.500000
370.015808	146.020000
370.109314	145.840000
370.202820	145.740000
370.296356	147.080000
370.389832	146.060000
370.483368	145.840000
370.576874	145.880000
370.670410	146.500000
370.763885	145.380000
370.857422	145.580000
370.950928	145.580000
371.044464	146.360000
371.137939	146.000000
371.231476	146.600000
371.324982	147.120000
371.418518	147.340000
371.512024	146.940000
371.605560	146.900000
371.699066	146.980000
371.792572	146.320000
371.886108	146.820000
371.979614	146.620000
372.073120	147.140000
372.166656	147.040000
372.260162	147.500000
372.353668	146.900000
372.447205	146.980000
372.540710	146.800000
372.634277	146.740000
372.727753	146.760000
372.821320	146.840000
372.914795	146.880000
373.008362	146.920000
373.101837	146.980000
373.195404	146.520000
373.288879	146.420000
373.382446	147.280000
373.475922	146.880000
373.569489	147.340000
373.662964	147.760000
373.756531	147.920000
373.850037	147.200000
373.943573	147.380000
374.037109	146.600000
374.130615	146.660000
374.224152	146.700000
374.317657	146.540000
374.411194	147.160000
374.504730	147.200000
374.598236	146.660000
374.691772	146.260000
374.785309	146.240000
374.878815	145.340000
374.972351	145.760000
375.065887	145.880000
375.159454	146.900000
375.252930	146.780000
375.346497	146.900000
375.440002	147.500000
375.533569	147.700000
375.627045	146.740000
375.720612	146.900000
375.814117	147.300000
375.907684	146.440000
376.001160	146.000000
376.094727	145.580000
376.188232	146.160000
376.281799	146.080000
376.375336	146.240000
376.468872	147.160000
376.562408	147.740000
376.655914	147.240000
376.749451	147.320000
376.842987	147.300000
376.936523	146.700000
377.030060	146.640000
377.123596	146.720000
377.217133	146.260000
377.310669	146.280000
377.404205	146.820000
377.497772	147.360000
377.591278	147.260000
377.684845	148.100000
377.778351	148.240000
377.871918	147.940000
377.965424	147.140000
378.058990	147.000000
378.152496	146.560000
378.246063	146.720000
378.339569	146.860000
378.433136	146.880000
378.526642	147.240000
378.620209	147.300000
378.713745	146.860000
378.807312	147.260000
378.900848	147.400000
378.994385	147.480000
379.087921	146.660000
379.181458	146.920000
379.274994	145.980000
379.368530	146.020000
379.462097	145.840000
379.555634	146.400000
379.649170	145.980000
379.742706	146.000000
379.836273	146.000000
379.929810	145.760000
380.023376	145.500000
380.116882	145.420000
380.210449	145.500000
380.303986	145.300000
380.397552	145.020000
380.491058	145.580000
380.584656	145.680000
380.678162	146.080000
380.771729	146.280000
380.865265	147.240000
380.958832	146.820000
381.052368	147.040000
381.145935	147.020000
381.239471	147.240000
381.333008	146.740000
381.426575	146.820000
381.520111	147.080000
381.613647	147.140000
381.707214	146.800000
381.800751	146.280000
381.894318	146.360000
381.987854	145.800000
382.081421	145.260000
382.174988	145.760000
382.268524	145.820000
382.362091	145.880000
382.455627	146.500000
382.549194	146.520000
382.642731	145.720000
382.736298	145.660000
382.829834	145.380000
382.923401	145.740000
383.016937	146.120000
383.110504	146.860000
383.204041	147.300000
383.297607	147.780000
383.391174	146.800000
383.484741	147.000000
383.578278	146.600000
383.671844	146.060000
383.765411	145.300000
383.858948	145.780000
383.952515	145.620000
384.046051	146.120000
384.139618	146.620000
384.233185	147.280000
384.326721	147.340000
384.420288	147.760000
384.513855	147.520000
384.607422	147.680000
384.700989	147.480000
384.794525	147.240000
384.888123	147.020000
384.981659	147.180000
385.075226	146.760000
385.168762	146.500000
385.262360	146.380000
385.355896	145.580000
385.449463	145.280000
385.542999	145.260000
385.636597	145.940000
385.730164	146.140000
385.823730	145.960000
385.917267	145.840000
386.010834	146.300000
386.104401	146.180000
386.197968	146.640000
386.291534	147.280000
386.385101	147.400000
386.478668	147.220000
386.572235	146.900000
386.665802	146.160000
386.759338	145.860000
386.852905	145.480000
386.946472	145.220000
387.040070	145.240000
387.133606	145.260000
387.227203	144.940000
387.320740	145.340000
387.414337	145.220000
387.507874	145.120000
387.601471	145.300000
387.695007	145.840000
387.788605	145.840000
387.882141	146.140000
387.975739	146.240000
388.069275	145.960000
388.162872	146.000000
388.256439	145.940000
388.350037	145.820000
388.443604	145.600000
388.537170	145.880000
388.630737	146.320000
388.724304	146.380000
388.817871	146.320000
388.911438	146.480000
389.005005	146.740000
389.098602	146.940000
389.192169	146.700000
389.285736	147.180000
389.379333	147.300000
389.472870	146.480000
389.566467	145.920000
389.660034	146.180000
389.753632	145.660000
389.847168	145.880000
389.940765	146.460000
390.034332	146.540000
390.127930	146.040000
390.221466	146.080000
390.315063	145.440000
390.408630	144.920000
390.502228	144.060000
390.595795	144.340000
390.689362	144.640000
390.782959	145.020000
390.876526	145.620000
390.970093	146.060000
391.063690	146.720000
391.157257	146.740000
391.250824	147.000000
391.344421	146.680000
391.437988	146.840000
391.531555	146.680000
391.625153	146.540000
391.718750	146.660000
391.812317	146.660000
391.905914	146.400000
391.999481	146.480000
392.093079	146.540000
392.186615	146.840000
392.280243	146.980000
392.373779	147.320000
392.467407	147.520000
392.560944	147.440000
392.654572	146.780000
392.748108	146.600000
392.841736	146.600000
392.935303	146.020000
393.028900	145.900000
393.122467	145.780000
393.216064	145.720000
393.309631	145.180000
393.403229	144.860000
393.496796	144.400000
393.590393	144.040000
393.683990	144.400000
393.777557	145.180000
393.871155	145.480000
393.964722	146.500000
394.058350	146.960000
394.151917	147.060000
394.245514	146.740000
394.339081	147.300000
394.432678	147.280000
394.526245	147.060000
394.619873	146.560000
394.713409	146.460000
394.807037	145.920000
394.900604	145.840000
394.994202	145.940000
395.087769	146.300000
395.181396	146.020000
395.274994	146.640000
395.368561	145.800000
395.462158	146.280000
395.555756	145.760000
395.649353	146.360000
395.742920	145.480000
395.836517	146.600000
395.930115	145.620000
396.023712	146.280000
396.117279	146.100000
396.210876	145.980000
396.304474	145.700000
396.398071	146.200000
396.491669	146.140000
396.585266	146.200000
396.678833	146.400000
396.772461	146.440000
396.866028	146.460000
396.959656	146.680000
397.053223	146.900000
397.146851	146.880000
397.240417	147.000000
397.334015	147.800000
397.427582	147.720000
397.521210	147.740000
397.614807	148.480000
397.708405	148.740000
397.802002	148.740000
397.895599	149.820000
397.989197	150.740000
398.082794	151.500000
398.176392	152.860000
398.269989	154.180000
398.363586	155.620000
398.457184	157.740000
398.550781	159.760000
398.644379	161.000000
398.737976	162.700000
398.831573	164.080000
398.925201	164.940000
399.018768	165.780000
399.112396	166.840000
399.205963	167.980000
399.299591	168.500000
399.393158	169.040000
399.486786	169.900000
399.580353	170.300000
399.673981	170.380000
399.767578	171.480000
399.861206	173.260000
399.954773	175.720000
400.048401	178.200000
400.141998	180.680000
400.235596	183.500000
400.329193	185.400000
400.422791	186.400000
400.516418	187.500000
400.610016	189.280000
400.703613	190.480000
400.797211	190.640000
400.890808	190.660000
400.984436	190.400000
401.078033	188.560000
401.171631	185.640000
401.265259	182.900000
401.358826	180.320000
401.452484	177.460000
401.546051	174.660000
401.639679	171.580000
401.733246	168.960000
401.826904	165.820000
401.920471	162.240000
402.014099	159.760000
402.107697	157.580000
402.201324	155.880000
402.294891	154.360000
402.388550	153.520000
402.482147	152.380000
402.575745	151.180000
402.669373	149.520000
402.762970	148.660000
402.856567	148.140000
402.950195	147.680000
403.043793	147.560000
403.137390	148.260000
403.231018	147.640000
403.324615	147.800000
403.418243	147.140000
403.511841	147.340000
403.605469	147.000000
403.699066	147.320000
403.792694	147.380000
403.886292	147.700000
403.979919	147.700000
404.073517	147.500000
404.167145	147.940000
404.260712	147.680000
404.354370	147.640000
404.447937	147.740000
404.541595	148.100000
404.635162	147.980000
404.728821	148.340000
404.822418	147.900000
404.916046	147.120000
405.009644	147.060000
405.103271	146.960000
405.196899	146.340000
405.290497	146.560000
405.384125	147.160000
405.477722	146.480000
405.571350	146.040000
405.664948	146.100000
405.758575	145.680000
405.852203	144.940000
405.945801	145.300000
406.039429	145.660000
406.133057	145.680000
406.226654	145.780000
406.320312	146.280000
406.413879	146.220000
406.507538	146.220000
406.601135	145.860000
406.694763	146.680000
406.788361	146.180000
406.882019	146.080000
406.975586	146.220000
407.069244	146.940000
407.162872	146.700000
407.256470	146.900000
407.350098	146.880000
407.443726	146.460000
407.537323	146.060000
407.630951	146.040000
407.724579	145.760000
407.818207	146.280000
407.911804	146.460000
408.005432	146.280000
408.099060	146.420000
408.192688	146.900000
408.286285	146.260000
408.379913	146.000000
408.473572	146.360000
408.567169	145.500000
408.660828	145.580000
408.754395	145.640000
408.848053	145.520000
408.941650	145.440000
409.035309	145.660000
409.128906	145.580000
409.222565	145.940000
409.316132	146.540000
409.409790	146.120000
409.503387	146.120000
409.597046	146.040000
409.690674	145.940000
409.784302	146.000000
409.877930	145.940000
409.971558	146.180000
410.065186	146.220000
410.158783	145.940000
410.252411	145.600000
410.346039	146.280000
410.439667	146.300000
410.533295	146.420000
410.626923	146.800000
410.720551	146.480000
410.814209	146.300000
410.907806	146.560000
411.001465	145.900000
411.095062	145.840000
411.188721	146.320000
411.282318	146.040000
411.375977	145.620000
411.469574	146.200000
411.563232	146.080000
411.656830	145.880000
411.750488	146.080000
411.844086	145.900000
411.937744	145.880000
412.031372	145.680000
412.125000	145.760000
412.218628	145.880000
412.312256	146.740000
412.405884	147.160000
412.499512	147.520000
412.593170	147.760000
412.686798	147.800000
412.780426	147.020000
412.874054	146.900000
412.967682	146.720000
413.061310	147.000000
413.154968	147.320000
413.248566	147.720000
413.342224	147.400000
413.435852	147.500000
413.529510	146.820000
413.623108	145.980000
413.716766	145.760000
413.810364	146.140000
413.904022	145.940000
413.997650	145.900000
414.091309	146.700000
414.184906	146.520000
414.278564	146.020000
414.372192	146.520000
414.465851	146.760000
414.559479	146.260000
414.653107	147.320000
414.746735	147.140000
414.840393	146.620000
414.934021	146.740000
415.027649	146.220000
415.121277	145.460000
415.214935	145.880000
415.308563	146.000000
415.402191	145.460000
415.495850	145.840000
415.589478	145.780000
415.683136	145.580000
415.776733	145.580000
415.870422	146.180000
415.964020	145.920000
416.057678	146.080000
416.151306	146.040000
416.244965	146.080000
416.338562	145.820000
416.432251	146.620000
416.525848	147.340000
416.619507	148.020000
416.713165	148.140000
416.806793	148.120000
416.900421	147.980000
416.994080	147.120000
417.087708	146.800000
417.181366	146.360000
417.274994	146.620000
417.368622	146.660000
417.462280	147.180000
417.555908	147.120000
417.649567	147.440000
417.743195	147.080000
417.836853	147.020000
417.930481	147.080000
418.024170	146.920000
418.117767	147.360000
418.211426	148.000000
418.305054	148.180000
418.398712	147.220000
418.492340	147.240000
418.585999	147.180000
418.679626	146.860000
418.773285	146.640000
418.866913	147.500000
418.960571	147.820000
419.054230	147.760000
419.147858	147.540000
419.241516	147.520000
419.335144	146.860000
419.428802	146.660000
419.522461	146.220000
419.616089	145.880000
419.709747	145.960000
419.803375	146.280000
419.897034	145.860000
419.990662	145.980000
420.084320	146.860000
420.177979	147.280000
420.271606	147.400000
420.365295	148.120000
420.458893	148.440000
420.552582	148.060000
420.646210	147.700000
420.739868	147.520000
420.833496	147.160000
420.927155	146.880000
421.020782	146.960000
421.114471	146.440000
421.208069	146.400000
421.301758	146.480000
421.395386	146.360000
421.489044	146.000000
421.582703	146.340000
421.676361	146.780000
421.769989	146.580000
421.863647	147.040000
421.957306	147.180000
422.050934	147.500000
422.144592	147.380000
422.238251	147.120000
422.331909	146.880000
422.425537	146.740000
422.519196	146.140000
422.612854	145.780000
422.706543	145.440000
422.800140	145.740000
422.893829	145.400000
422.987457	145.100000
423.081146	145.240000
423.174744	146.220000
423.268433	145.740000
423.362061	146.060000
423.455750	146.280000
423.549347	146.700000
423.643036	146.020000
423.736664	146.320000
423.830353	146.400000
423.924011	146.920000
424.017639	146.020000
424.111298	146.200000
424.204956	145.740000
424.298615	145.980000
424.392273	146.180000
424.485931	146.640000
424.579559	146.540000
424.673218	146.720000
424.766876	146.820000
424.860535	146.340000
424.954193	145.900000
425.047882	146.540000
425.141510	146.520000
425.235199	146.380000
425.328796	146.020000
425.422485	146.060000
425.516113	145.400000
425.609802	145.480000
425.703430	145.220000
425.797119	145.520000
425.890747	145.840000
425.984436	145.960000
426.078064	145.840000
426.171753	146.140000
426.265411	145.860000
426.359070	146.100000
426.452728	145.980000
426.546356	146.020000
426.640015	145.720000
426.733673	145.900000
426.827332	145.320000
426.920990	146.200000
427.014648	145.920000
427.108307	146.200000
427.201965	146.700000
427.295624	147.120000
427.389282	146.140000
427.482941	146.500000
427.576630	146.460000
427.670258	145.900000
427.763947	145.600000
427.857574	145.780000
427.951263	145.720000
428.044922	145.100000
428.138611	145.180000
428.232239	145.620000
428.325928	145.860000
428.419556	146.280000
428.513245	146.640000
428.606903	146.940000
428.700562	146.460000
428.794220	145.740000
428.887878	144.880000
428.981537	145.100000
429.075195	144.980000
429.168854	145.520000
429.262512	146.120000
429.356201	146.540000
429.449860	146.620000
429.543518	146.620000
429.637177	146.760000
429.730835	146.760000
429.824493	146.760000
429.918182	146.840000
430.011810	146.380000
430.105530	145.580000
430.199158	145.920000
430.292847	146.120000
430.386475	145.820000
430.480164	145.900000
430.573792	145.840000
430.667511	145.500000
430.761139	145.460000
430.854828	145.800000
430.948456	146.040000
431.042145	146.560000
431.135834	146.260000
431.229492	146.260000
431.323151	146.260000
431.416809	146.300000
431.510468	146.000000
431.604156	146.060000
431.697815	145.840000
431.791473	145.220000
431.885132	144.720000
431.978821	145.300000
432.072479	145.560000
432.166138	146.240000
432.259827	146.400000
432.353485	146.900000
432.447174	146.700000
432.540802	146.440000
432.634491	146.060000
432.728149	146.240000
432.821838	146.800000
432.915466	146.440000
433.009186	146.700000
433.102814	146.180000
433.196503	146.200000
433.290131	145.660000
433.383850	146.180000
433.477509	146.380000
433.571167	147.220000
433.664856	147.500000
433.758514	148.120000
433.852173	147.800000
433.945862	147.280000
434.039520	147.020000
434.133179	146.340000
434.226868	145.680000
434.320526	145.280000
434.414185	146.360000
434.507874	145.940000
434.601562	146.520000
434.695221	146.620000
434.788910	147.120000
434.882538	146.860000
434.976257	146.480000
435.069885	146.180000
435.163574	146.460000
435.257233	145.880000
435.350922	145.540000
435.444580	145.880000
435.538269	145.880000
435.631897	145.860000
435.725616	146.740000
435.819275	146.880000
435.912964	147.580000
436.006622	147.900000
436.100311	147.620000
436.193970	146.720000
436.287628	146.380000
436.381317	145.820000
436.474976	145.240000
436.568665	144.920000
436.662323	145.280000
436.756012	145.520000
436.849670	145.160000
436.943390	145.560000
437.037018	145.740000
437.130737	146.000000
437.224365	145.780000
437.318085	146.100000
437.411713	146.120000
437.505432	146.120000
437.599060	146.380000
437.692780	147.120000
437.786407	147.160000
437.880127	147.120000
437.973755	147.240000
438.067474	146.640000
438.161133	145.920000
438.254822	146.240000
438.348480	146.180000
438.442169	146.540000
438.535828	147.020000
438.629517	146.900000
438.723175	146.440000
438.816864	146.740000
438.910553	145.980000
439.004211	145.660000
439.097900	145.700000
439.191559	145.960000
439.285248	145.440000
439.378906	145.920000
439.472626	145.700000
439.566284	145.440000
439.659973	145.660000
439.753632	145.660000
439.847321	146.180000
439.940979	146.600000
440.034698	146.920000
440.128326	146.280000
440.222046	146.480000
440.315674	145.540000
440.409393	145.440000
440.503082	145.320000
440.596741	145.680000
440.690430	145.540000
440.784088	145.560000
440.877777	145.160000
440.971466	145.420000
441.065125	145.520000
441.158813	145.580000
441.252502	145.960000
441.346161	146.380000
441.439850	146.420000
441.533539	145.980000
441.627197	146.120000
441.720886	146.020000
441.814606	146.280000
441.908234	146.540000
442.001953	146.760000
442.095612	146.900000
442.189301	147.040000
442.282959	146.760000
442.376678	146.060000
442.470306	146.520000
442.564026	146.260000
442.657684	146.500000
442.751404	146.760000
442.845032	147.800000
442.938751	147.260000
443.032440	147.460000
443.126099	147.060000
443.219788	147.100000
443.313477	146.700000
443.407166	146.940000
443.500824	146.820000
443.594513	146.940000
443.688202	146.960000
443.781891	146.240000
443.875549	145.900000
443.969238	145.860000
444.062927	145.720000
444.156647	145.520000
444.250275	146.180000
444.343994	146.740000
444.437653	146.840000
444.531372	147.100000
444.625031	147.040000
444.718719	146.640000
444.812378	146.800000
444.906097	146.820000
444.999756	146.320000
445.093445	146.340000
445.187103	146.580000
445.280823	146.500000
445.374512	146.100000
445.468201	146.400000
445.561859	145.960000
445.655548	145.900000
445.749237	145.520000
445.842926	145.860000
445.936615	146.340000
446.030304	146.420000
446.123962	146.560000
446.217651	146.480000
446.311340	146.460000
446.405029	145.820000
446.498749	145.680000
446.592407	145.360000
446.686096	145.800000
446.779755	145.920000
446.873474	146.280000
446.967133	146.880000
447.060852	146.780000
447.154510	146.500000
447.248230	146.520000
447.341858	146.380000
447.435577	145.860000
447.529236	145.920000
447.622955	145.520000
447.716644	145.560000
447.810333	145.820000
447.904022	146.280000
447.997711	146.260000
448.091400	146.760000
448.185059	146.560000
448.278748	146.380000
448.372437	145.940000
448.466125	146.140000
448.559814	145.920000
448.653503	146.440000
448.747192	146.660000
448.840912	147.220000
448.934570	147.120000
449.028290	147.400000
449.121948	146.580000
449.215637	146.140000
449.309296	145.600000
449.403015	145.860000
449.496674	145.860000
449.590393	146.200000
449.684052	146.140000
449.777771	147.100000
449.871429	146.540000
449.965149	146.240000
450.058838	146.340000
450.152527	146.880000
450.246216	146.680000
450.339905	146.900000
450.433594	146.760000
450.527283	147.240000
450.620972	146.600000
450.714661	146.100000
450.808350	146.500000
450.902039	146.760000
450.995728	146.460000
451.089417	146.500000
451.183105	146.760000
451.276794	146.940000
451.370514	146.580000
451.464172	145.780000
451.557892	145.880000
451.651550	146.140000
451.745270	145.580000
451.838928	145.260000
451.932648	146.000000
452.026306	146.360000
452.120026	145.600000
452.213684	146.020000
452.307404	146.560000
452.401062	146.560000
452.494781	146.620000
452.588470	146.940000
452.682159	146.360000
452.775848	146.520000
452.869537	145.960000
452.963226	145.440000
453.056915	145.460000
453.150604	145.780000
453.244293	145.900000
453.337982	147.000000
453.431671	147.820000
453.525360	148.220000
453.619049	148.120000
453.712769	148.060000
453.806427	147.340000
453.900146	146.540000
453.993805	146.320000
454.087555	146.700000
454.181213	146.900000
454.274933	146.740000
454.368591	146.760000
454.462311	146.540000
454.555969	145.940000
454.649689	146.100000
454.743347	146.200000
454.837067	146.980000
454.930756	147.600000
455.024445	148.240000
455.118134	148.040000
455.211853	148.260000
455.305542	147.720000
455.399231	146.980000
455.492920	146.460000
455.586609	146.480000
455.680298	146.480000
455.773987	146.360000
455.867676	146.660000
455.961365	147.160000
456.055084	146.800000
456.148773	146.520000
456.242493	146.640000
456.336151	146.520000
456.429871	146.680000
456.523529	147.200000
456.617249	146.880000
456.710907	147.700000
456.804626	147.600000
456.898315	146.880000
456.992035	146.460000
457.085693	146.740000
457.179413	145.820000
457.273102	146.640000
457.366791	146.880000
457.460480	147.300000
457.554199	147.900000
457.647888	147.980000
457.741577	147.440000
457.835266	147.500000
457.928955	147.280000
458.022644	147.060000
458.116364	147.100000
458.210052	146.880000
458.303741	147.120000
458.397461	146.480000
458.491119	145.940000
458.584839	145.900000
458.678528	145.840000
458.772247	145.500000
458.865906	146.120000
458.959625	147.360000
459.053284	147.540000
459.147003	147.680000
459.240692	148.180000
459.334412	148.240000
459.428070	147.100000
459.521790	146.780000
459.615479	146.680000
459.709198	146.780000
459.802887	146.380000
459.896576	146.400000
459.990265	146.620000
460.083954	146.920000
460.177673	146.240000
460.271362	146.420000
460.365051	146.580000
460.458740	146.460000
460.552429	145.760000
460.646149	145.980000
460.739838	145.400000
460.833527	145.420000
460.927246	145.520000
461.020905	145.880000
461.114655	145.740000
461.208313	146.260000
461.302032	145.880000
461.395691	145.800000
461.489441	145.680000
461.583099	145.820000
461.676819	145.580000
461.770477	146.320000
461.864197	146.100000
461.957916	146.080000
462.051605	145.680000
462.145294	146.580000
462.238983	145.860000
462.332703	146.380000
462.426392	147.040000
462.520081	147.240000
462.613770	146.720000
462.707489	147.380000
462.801178	147.240000
462.894867	146.720000
462.988556	146.420000
463.082275	146.280000
463.175964	145.560000
463.269684	145.540000
463.363342	145.460000
463.457092	145.240000
463.550751	145.600000
463.644470	145.880000
463.738129	145.760000
463.831879	146.120000
463.925537	147.060000
464.019257	146.680000
464.112946	146.600000
464.206665	146.500000
464.300323	146.220000
464.394043	145.780000
464.487762	145.840000
464.581451	146.160000
464.675140	145.960000
464.768829	146.220000
464.862549	146.460000
464.956238	146.780000
465.049927	146.820000
465.143646	147.180000
465.237335	146.600000
465.331024	146.920000
465.424713	146.760000
465.518433	146.800000
465.612152	146.580000
465.705811	147.000000
465.799561	146.640000
465.893219	146.220000
465.986938	146.160000
466.080597	145.960000
466.174347	145.940000
466.268005	145.940000
466.361725	146.200000
466.455414	145.920000
466.549133	146.020000
466.642792	146.280000
466.736542	145.620000
466.830231	145.820000
466.923920	146.140000
467.017609	146.340000
467.111328	145.600000
467.205017	146.120000
467.298706	145.900000
467.392426	145.820000
467.486115	146.040000
467.579803	146.220000
467.673523	146.340000
467.767212	146.440000
467.860901	146.300000
467.954651	146.420000
468.048309	146.880000
468.142029	146.740000
468.235718	146.880000
468.329437	146.560000
468.423096	146.160000
468.516846	145.760000
468.610504	145.400000
468.704224	144.860000
468.797913	144.880000
468.891632	145.220000
468.985291	145.340000
469.079010	145.480000
469.172729	145.480000
469.266418	146.400000
469.360107	146.460000
469.453827	146.020000
469.547516	146.460000
469.641205	146.920000
469.734924	146.600000
469.828613	146.760000
469.922302	147.480000
470.016022	147.200000
470.109711	147.120000
470.203430	146.400000
470.297150	145.440000
470.390808	145.620000
470.484558	145.240000
470.578217	145.440000
470.671936	146.420000
470.765625	147.360000
470.859344	146.740000
470.953003	147.200000
471.046753	146.880000
471.140411	146.060000
471.234131	145.900000
471.327820	146.460000
471.421539	146.420000
471.515228	146.080000
471.608948	146.260000
471.702637	145.700000
471.796326	145.400000
471.890045	145.820000
471.983734	146.240000
472.077423	146.180000
472.171143	146.400000
472.264832	146.380000
472.358521	145.980000
472.452240	145.660000
472.545929	146.360000
472.639648	146.620000
472.733337	147.120000
472.827057	147.160000
472.920746	147.600000
473.014465	147.460000
473.108124	147.640000
473.201874	147.140000
473.295532	147.220000
473.389252	147.620000
473.482941	147.580000
473.576660	146.960000
473.670319	147.100000
473.764069	147.240000
473.857727	146.980000
473.951477	147.000000
474.045166	147.840000
474.138855	147.760000
474.232574	147.440000
474.326263	147.220000
474.419952	147.500000
474.513672	146.880000
474.607361	146.720000
474.701050	147.180000
474.794769	147.660000
474.888458	147.540000
474.982178	147.780000
475.075867	148.160000
475.169586	147.900000
475.263275	147.560000
475.356995	147.340000
475.450653	147.020000
475.544403	146.600000
475.638062	147.360000
475.731812	146.860000
475.825470	146.600000
475.919189	146.880000
476.012878	147.000000
476.106598	146.340000
476.200256	147.040000
476.294006	146.880000
476.387695	146.900000
476.481384	147.100000
476.575104	147.020000
476.668793	146.660000
476.762512	146.560000
476.856201	146.940000
476.949890	146.580000
477.043610	146.100000
477.137299	146.020000
477.230988	146.320000
477.324707	145.780000
477.418396	146.460000
477.512146	146.880000
477.605804	146.820000
477.699524	147.000000
477.793213	146.880000
477.886932	146.400000
477.980591	146.040000
478.074341	146.120000
478.167999	145.580000
478.261749	145.560000
478.355408	145.380000
478.449127	145.780000
478.542816	146.460000
478.636536	147.280000
478.730225	147.420000
478.823944	147.580000
478.917633	147.780000
479.011322	147.360000
479.105042	147.060000
479.198730	147.420000
479.292450	147.420000
479.386139	147.140000
479.479828	147.300000
479.573547	147.520000
479.667267	147.240000
479.760925	147.480000
479.854675	147.680000
479.948334	147.660000
480.042084	147.020000
480.135742	146.980000
480.229462	146.180000
480.323151	146.000000
480.416870	145.020000
480.510529	145.260000
480.604279	144.980000
480.697937	145.740000
480.791656	145.200000
480.885345	145.740000
480.979065	145.760000
481.072754	146.380000
481.166473	146.400000
481.260132	146.900000
481.353882	146.820000
481.447540	146.800000
481.541260	146.500000
481.635010	146.140000
481.728668	145.840000
481.822388	145.820000
481.916077	145.760000
482.009796	145.640000
482.103485	145.920000
482.197205	146.140000
482.290863	146.160000
482.384613	145.960000
482.478271	145.780000
482.571991	145.580000
482.665680	145.540000
482.759399	146.340000
482.853058	146.760000
482.946808	146.520000
483.040466	146.380000
483.134216	146.380000
483.227875	145.440000
483.321594	145.920000
483.415283	146.400000
483.509003	146.340000
483.602661	146.180000
483.696411	146.660000
483.790070	145.980000
483.883789	145.740000
483.977478	146.020000
484.071198	146.020000
484.164917	145.720000
484.258606	145.640000
484.352325	146.180000
484.445984	146.100000
484.539734	146.380000
484.633392	145.960000
484.727142	146.160000
484.820801	145.860000
484.914520	145.880000
485.008209	145.940000
485.101929	146.920000
485.195587	146.620000
485.289337	146.460000
485.382996	146.640000
485.476715	146.680000
485.570404	146.720000
485.664124	146.900000
485.757782	147.600000
485.851532	147.100000
485.945190	147.000000
486.038910	146.720000
486.132599	147.160000
486.226318	146.420000
486.319977	146.660000
486.413727	147.020000
486.507446	146.560000
486.601105	145.640000
486.694855	145.680000
486.788513	145.400000
486.882233	145.020000
486.975922	145.500000
487.069641	145.780000
487.163300	145.740000
487.257050	146.940000
487.350708	146.640000
487.444427	146.260000
487.538116	146.260000
487.631836	145.960000
487.725494	145.340000
487.819214	145.680000
487.912903	145.440000
488.006622	145.840000
488.100281	146.260000
488.194031	146.260000
488.287689	146.580000
488.381409	147.460000
488.475098	147.520000
488.568817	147.700000
488.662476	147.380000
488.756226	146.600000
488.849945	145.700000
488.943604	145.620000
489.037354	145.720000
489.131012	145.580000
489.224731	145.780000
489.318390	145.920000
489.412140	145.600000
489.505798	145.440000
489.599518	145.460000
489.693207	145.660000
489.786926	145.740000
489.880585	145.820000
489.974335	146.160000
490.067993	146.920000
490.161713	146.880000
490.255371	147.560000
490.349121	147.780000
490.442780	147.160000
490.536499	146.380000
490.630188	146.520000
490.723907	145.880000
490.817566	145.660000
490.911285	145.780000
491.004974	145.780000
491.098694	145.500000
491.192413	146.220000
491.286102	146.180000
491.379822	146.540000
491.473480	147.000000
491.567200	147.100000
491.660889	146.280000
491.754608	146.460000
491.848267	146.180000
491.941986	145.840000
492.035675	145.820000
492.129395	146.260000
492.223053	146.060000
492.316772	146.240000
492.410461	146.180000
492.504181	146.260000
492.597839	145.960000
492.691559	146.220000
492.785248	146.260000
492.878967	146.580000
492.972626	146.340000
493.066345	146.280000
493.160034	145.840000
493.253754	145.680000
493.347412	145.100000
493.441132	145.120000
493.534882	145.820000
493.628540	146.380000
493.722260	146.620000
493.815918	147.240000
493.909668	147.960000
494.003326	147.800000
494.097046	147.680000
494.190704	147.400000
494.284454	147.240000
494.378113	147.260000
494.471832	147.140000
494.565491	146.820000
494.659210	146.940000
494.752899	146.940000
494.846619	146.440000
494.940277	146.300000
495.033997	146.240000
495.127686	145.920000
495.221405	145.820000
495.315063	145.920000
495.408783	146.020000
495.502441	146.600000
495.596191	146.540000
495.689850	146.220000
495.783569	146.580000
495.877228	146.420000
495.970947	145.860000
496.064697	146.240000
496.158356	147.280000
496.252075	146.940000
496.345734	146.760000
496.439453	147.600000
496.533142	147.440000
496.626862	147.680000
496.720520	147.760000
496.814240	148.020000
496.907898	147.540000
497.001617	147.840000
497.095306	146.840000
497.189026	146.600000
497.282684	146.740000
497.376404	147.120000
497.470062	146.820000
497.563782	146.780000
497.657471	146.840000
497.751190	146.520000
497.844849	146.040000
497.938568	146.400000
498.032227	146.340000
498.125946	146.360000
498.219635	146.060000
498.313354	146.460000
498.407074	146.020000
498.500732	146.340000
498.594452	146.440000
498.688110	146.580000
498.781830	145.900000
498.875519	145.720000
498.969238	145.600000
499.062897	145.360000
499.156616	145.860000
499.250275	146.120000
499.343994	146.060000
499.437653	145.780000
499.531372	145.860000
499.625061	146.380000
499.718781	146.580000
499.812439	147.140000
499.906158	147.460000
499.999817	147.480000
500.093536	146.480000
500.187195	146.240000
500.280914	146.040000
500.374573	146.420000
500.468323	146.240000
500.561981	146.440000
500.655701	146.160000
500.749420	146.120000
500.843079	146.000000
500.936798	146.120000
501.030457	146.220000
501.124176	146.720000
501.217834	146.560000
501.311554	146.200000
501.405212	146.040000
501.498962	145.460000
501.592621	145.360000
501.686340	145.660000
501.779999	145.600000
501.873718	145.880000
501.967377	146.500000
502.061096	146.840000
502.154755	146.340000
502.248474	146.660000
502.342133	146.760000
502.435852	146.620000
502.529510	146.840000
502.623230	147.440000
502.716888	146.760000
502.810608	146.780000
502.904266	147.100000
502.997986	146.140000
503.091705	145.640000
503.185364	145.960000
503.279083	145.820000
503.372772	145.620000
503.466492	145.480000
503.560150	146.020000
503.653870	146.640000
503.747528	146.560000
503.841248	146.400000
503.934906	146.760000
504.028625	146.100000
504.122284	145.820000
504.216003	146.660000
504.309662	146.500000
504.403381	146.820000
504.497040	147.080000
504.590759	146.540000
504.684418	146.360000
504.778137	146.960000
504.871796	147.100000
504.965515	146.920000
505.059174	147.400000
505.152893	146.880000
505.246521	146.160000
505.340240	145.760000
505.433899	145.860000
505.527618	145.720000
505.621338	145.920000
505.714996	146.140000
505.808716	146.060000
505.902374	146.860000
505.996094	147.040000
506.089752	146.700000
506.183472	146.660000
506.277130	146.940000
506.370850	146.620000
506.464508	146.240000
506.558228	146.440000
506.651886	146.180000
506.745605	146.100000
506.839264	146.000000
506.932983	146.260000
507.026611	146.400000
507.120331	147.020000
507.213989	146.720000
507.307709	146.660000
507.401367	146.980000
507.495087	147.700000
507.588745	147.200000
507.682465	147.940000
507.776123	147.780000
507.869843	147.500000
507.963531	146.940000
508.057190	147.600000
508.150909	146.940000
508.244568	147.120000
508.338287	146.500000
508.431946	146.020000
508.525665	145.540000
508.619324	145.480000
508.713013	145.500000
508.806671	146.780000
508.900391	147.540000
508.994049	147.740000
509.087769	147.460000
509.181427	147.420000
509.275146	146.380000
509.368774	145.440000
509.462494	145.260000
509.556152	145.780000
509.649872	146.260000
509.743530	146.760000
509.837250	147.020000
509.930878	147.120000
510.024597	147.060000
510.118256	146.260000
510.211975	146.240000
510.305695	145.900000
510.399353	146.260000
510.493042	146.600000
510.586700	147.000000
510.680420	147.280000
510.774078	147.460000
510.867798	147.420000
510.961426	146.860000
511.055145	146.540000
511.148804	146.260000
511.242523	146.800000
511.336151	146.560000
511.429871	146.860000
511.523529	146.800000
511.617249	146.160000
511.710876	145.880000
511.804596	145.620000
511.898254	145.540000
511.991974	145.840000
512.085632	146.080000
512.179321	146.240000
512.272949	146.800000
512.366699	147.240000
512.460327	147.220000
512.554077	148.260000
512.647766	148.120000
512.741394	147.880000
512.835144	147.820000
512.928772	147.580000
513.022461	146.840000
513.116150	146.700000
513.209839	147.160000
513.303467	146.680000
513.397217	146.720000
513.490845	146.800000
513.584595	146.540000
513.678223	145.740000
513.771912	145.320000
513.865601	145.520000
513.959290	145.500000
514.052917	145.660000
514.146667	146.460000
514.240295	147.260000
514.333984	147.240000
514.427673	146.900000
514.521362	147.280000
514.614990	146.420000
514.708740	146.380000
514.802368	146.580000
514.896057	146.840000
514.989746	147.420000
515.083435	147.700000
515.177124	147.700000
515.270752	147.380000
515.364502	147.300000
515.458130	146.820000
515.551819	146.520000
515.645508	146.200000
515.739197	146.080000
515.832825	146.240000
515.926575	145.860000
516.020203	146.400000
516.113892	147.120000
516.207520	147.180000
516.301270	147.040000
516.394897	147.280000
516.488586	147.380000
516.582275	146.960000
516.675964	146.560000
516.769592	146.400000
516.863281	147.060000
516.956970	147.180000
517.050659	146.920000
517.144287	147.400000
517.238037	147.560000
517.331665	146.540000
517.425354	146.180000
517.519043	145.960000
517.612732	146.160000
517.706421	145.880000
517.800049	145.820000
517.893738	145.280000
517.987427	145.380000
518.081116	145.080000
518.174744	145.180000
518.268433	145.580000
518.362122	146.540000
518.455811	146.460000
518.549438	146.760000
518.643127	147.460000
518.736816	147.060000
518.830505	146.280000
518.924133	146.400000
519.017822	146.440000
519.111511	145.980000
519.205200	146.540000
519.298828	146.880000
519.392517	146.480000
519.486206	146.640000
519.579895	146.680000
519.673523	146.080000
519.767212	145.920000
519.860901	146.600000
519.954590	146.120000
520.048279	145.620000
520.141907	145.760000
520.235596	146.600000
520.329224	146.760000
520.422974	146.940000
520.516602	147.380000
520.610291	146.840000
520.703918	146.160000
520.797607	145.820000
520.891296	145.700000
520.984985	145.620000
521.078613	146.720000
521.172302	146.360000
521.265930	147.160000
521.359680	147.820000
521.453308	147.760000
521.546997	147.420000
521.640625	147.720000
521.734314	147.240000
521.827942	146.880000
521.921692	147.100000
522.015320	147.260000
522.109009	147.060000
522.202698	146.840000
522.296326	146.620000
522.390015	147.000000
522.483704	146.740000
522.577393	146.680000
522.671021	146.500000
522.764709	146.140000
522.858337	146.260000
522.952026	146.340000
523.045654	147.020000
523.139404	147.780000
523.233032	148.080000
523.326721	147.500000
523.420349	147.420000
523.514038	146.880000
523.607666	146.880000
523.701355	146.480000
523.795044	146.380000
523.888733	146.580000
523.982361	146.660000
524.076050	145.900000
524.169678	146.440000
524.263367	146.100000
524.356995	145.720000
524.450684	145.480000
524.544373	145.520000
524.638062	145.500000
524.731750	145.980000
524.825378	146.160000
524.919067	146.020000
525.012695	146.480000
525.106384	146.120000
525.200012	145.960000
525.293701	145.820000
525.387329	146.440000
525.481018	146.200000
525.574646	146.680000
525.668396	147.100000
525.762024	147.660000
525.855713	147.480000
525.949341	147.000000
526.043030	146.980000
526.136658	146.660000
526.230347	146.320000
526.323975	145.860000
526.417664	145.980000
526.511292	145.880000
526.604980	146.100000
526.698608	146.180000
526.792297	146.620000
526.885925	147.160000
526.979614	147.420000
527.073303	147.200000
527.166931	146.940000
527.260620	147.100000
527.354309	147.180000
527.447998	146.920000
527.541626	146.780000
527.635315	146.680000
527.728943	147.240000
527.822632	147.080000
527.916260	147.100000
528.009949	147.240000
528.103577	147.320000
528.197266	146.020000
528.290894	145.940000
528.384583	145.860000
528.478210	145.980000
528.571899	146.360000
528.665527	147.420000
528.759216	147.520000
528.852844	147.960000
528.946533	147.660000
529.040161	147.420000
529.133850	146.740000
529.227478	146.580000
529.321167	146.420000
529.414856	147.260000
529.508484	147.680000
529.602173	147.420000
529.695801	147.480000
529.789490	147.260000
529.883057	146.600000
529.976746	146.320000
530.070374	146.920000
530.164062	146.760000
530.257690	146.980000
530.351379	147.260000
530.445007	147.220000
530.538696	146.560000
530.632324	147.080000
530.726013	146.800000
530.819641	146.620000
530.913330	146.680000
531.006958	146.800000
531.100647	146.200000
531.194275	146.280000
531.287964	146.100000
531.381592	145.800000
531.475220	145.920000
531.568848	146.260000
531.662537	146.240000
531.756226	146.500000
531.849854	146.860000
531.943542	146.840000
532.037170	146.160000
532.130859	146.740000
532.224487	146.260000
532.318176	145.820000
532.411804	146.240000
532.505432	146.640000
532.599060	145.980000
532.692749	145.980000
532.786377	146.740000
532.880066	146.100000
532.973694	145.760000
533.067383	145.740000
533.161011	146.080000
533.254639	145.360000
533.348267	145.540000
533.441956	146.000000
533.535583	145.740000
533.629272	145.700000
533.722900	145.520000
533.816589	145.660000
533.910156	145.840000
534.003845	145.720000
534.097534	145.960000
534.191162	146.640000
534.284851	147.120000
534.378479	146.580000
534.472107	146.780000
534.565735	146.420000
534.659424	146.360000
534.753052	146.160000
534.846741	146.020000
534.940369	146.580000
535.033997	146.780000
535.127625	146.620000
535.221313	146.920000
535.314941	147.020000
535.408630	146.340000
535.502197	146.500000
535.595886	146.180000
535.689514	145.780000
535.783203	146.460000
535.876831	147.020000
535.970459	146.760000
536.064087	146.620000
536.157776	146.700000
536.251404	146.520000
536.345093	146.200000
536.438721	146.240000
536.532349	146.720000
536.626038	146.380000
536.719666	146.680000
536.813293	146.620000
536.906921	146.620000
537.000610	146.820000
537.094238	146.860000
537.187866	146.460000
537.281494	146.660000
537.375183	146.760000
537.468811	146.340000
537.562439	146.680000
537.656067	146.600000
537.749756	146.540000
537.843384	146.940000
537.937012	147.260000
538.030640	146.700000
538.124329	146.520000
538.217896	146.860000
538.311584	146.680000
538.405212	146.240000
538.498901	146.800000
538.592468	147.660000
538.686157	147.020000
538.779785	146.160000
538.873413	146.300000
538.967102	145.980000
539.060730	145.480000
539.154358	146.100000
539.247986	146.960000
539.341675	146.980000
539.435242	146.940000
539.528931	147.020000
539.622559	146.280000
539.716187	146.480000
539.809814	146.460000
539.903503	146.600000
539.997070	146.340000
540.090759	146.560000
540.184387	146.180000
540.278015	146.820000
540.371643	146.880000
540.465332	147.320000
540.558899	147.400000
540.652588	147.440000
540.746216	146.820000
540.839844	147.360000
540.933472	146.680000
541.027100	146.520000
541.120728	146.640000
541.214417	146.700000
541.308044	146.500000
541.401672	146.720000
541.495300	146.800000
541.588928	146.480000
541.682617	146.520000
541.776184	145.960000
541.869873	146.140000
541.963440	146.200000
542.057129	146.140000
542.150757	146.140000
542.244385	146.120000
542.338013	145.820000
542.431641	145.760000
542.525269	145.920000
542.618958	146.140000
542.712524	146.680000
542.806213	146.460000
542.899780	146.820000
542.993469	146.380000
543.087036	146.020000
543.180725	145.280000
543.274292	145.740000
543.367981	145.920000
543.461548	146.520000
543.555237	146.480000
543.648926	147.020000
543.742493	147.680000
543.836182	147.280000
543.929749	147.100000
544.023437	147.140000
544.117004	147.120000
544.210693	146.900000
544.304260	147.340000
544.397949	147.200000
544.491516	147.700000
544.585205	147.800000
544.678772	147.080000
544.772461	146.980000
544.866028	146.640000
544.959717	146.380000
545.053284	145.720000
545.146973	146.100000
545.240540	145.980000
545.334229	147.020000
545.427795	147.300000
545.521423	147.780000
545.615051	147.560000
545.708679	148.000000
545.802307	147.380000
545.895935	147.300000
545.989624	147.940000
546.083191	147.940000
546.176880	147.520000
546.270447	147.100000
546.364136	147.300000
546.457703	146.860000
546.551331	146.860000
546.644958	147.240000
546.738586	147.660000
546.832214	146.880000
546.925842	146.400000
547.019409	146.560000
547.113098	145.980000
547.206665	145.880000
547.300354	146.020000
547.393921	146.620000
547.487549	146.860000
547.581177	146.540000
547.674805	146.740000
547.768433	146.220000
547.862061	145.980000
547.955627	145.220000
548.049316	145.960000
548.142883	146.220000
548.236572	147.320000
548.330139	147.500000
548.423767	147.800000
548.517456	147.440000
548.611023	147.660000
548.704651	146.920000
548.798279	146.920000
548.891907	147.540000
548.985474	147.440000
549.079163	147.380000
549.172729	147.300000
549.266357	146.820000
549.359985	146.240000
549.453613	145.880000
549.547180	145.300000
549.640869	145.840000
549.734436	145.880000
549.828064	146.340000
549.921631	146.460000
550.015320	146.060000
550.108887	146.080000
550.202515	146.480000
550.296143	146.200000
550.389771	146.580000
550.483337	147.080000
550.576965	147.020000
550.670593	147.000000
550.764221	147.060000
550.857849	147.020000
550.951477	146.760000
551.045105	146.260000
551.138672	146.060000
551.232300	145.800000
551.325928	146.120000
551.419556	146.400000
551.513123	146.700000
551.606750	146.340000
551.700378	146.380000
551.794006	145.960000
551.887573	145.700000
551.981201	146.080000
552.074768	146.180000
552.168457	145.920000
552.262024	146.840000
552.355652	146.900000
552.449219	147.060000
552.542847	147.440000
552.636475	147.400000
552.730103	146.100000
552.823669	145.980000
552.917297	145.500000
553.010864	145.260000
553.104553	145.780000
553.198181	145.680000
553.291748	146.420000
553.385376	146.720000
553.478943	146.680000
553.572571	146.580000
553.666199	147.120000
553.759827	146.480000
553.853394	145.740000
553.947021	145.720000
554.040588	145.300000
554.134216	145.240000
554.227783	145.780000
554.321411	146.820000
554.415039	146.380000
554.508667	146.720000
554.602234	146.920000
554.695862	146.220000
554.789429	145.720000
554.883057	146.160000
554.976624	146.160000
555.070251	145.900000
555.163818	145.860000
555.257507	145.920000
555.351074	146.260000
555.444702	147.460000
555.538330	147.480000
555.631897	148.300000
555.725525	148.240000
555.819092	147.840000
555.912720	146.320000
556.006287	146.680000
556.099915	146.100000
556.193481	146.180000
556.287109	146.320000
556.380676	146.100000
556.474304	145.900000
556.567871	146.100000
556.661499	145.740000
556.755066	145.800000
556.848694	146.300000
556.942261	146.320000
557.035889	146.440000
557.129517	146.920000
557.223145	147.260000
557.316711	147.220000
557.410339	147.320000
557.503906	147.040000
557.597473	146.900000
557.691040	146.500000
557.784668	146.920000
557.878296	146.960000
557.971863	147.160000
558.065491	147.340000
558.159058	147.400000
558.252686	147.660000
558.346252	148.220000
558.439880	147.700000
558.533447	147.320000
558.627075	146.800000
558.720642	145.960000
558.814270	145.240000
558.907837	145.340000
559.001465	145.260000
559.095032	146.340000
559.188660	146.400000
559.282227	146.140000
559.375854	146.760000
559.469360	146.400000
559.562988	146.340000
559.656555	146.560000
559.750183	146.900000
559.843750	146.940000
559.937378	147.380000
560.030945	147.160000
560.124573	0.000000
560.218140	0.000000
560.311707	0.000000
560.405334	0.000000
560.498901	0.000000
560.592529	0.000000
560.686096	0.000000
560.779724	0.000000
560.873291	0.000000
560.966858	0.000000
561.060425	0.000000
561.154053	0.000000
561.247620	0.000000
561.341248	0.000000
561.434814	0.000000
561.528381	0.000000
561.621948	0.000000
561.715576	0.000000
561.809143	0.000000
561.902771	0.000000
561.996277	0.000000
562.089905	0.000000
562.183472	0.000000
562.277100	0.000000
