Model Number: SPM-001-M   
Serial Number: 10090201
Firmware Version: 004.17.6
Exposure Time: 500000.000000us
Data Taken on: 10-03-2021 10:33:22.998
Wavelength	Amplitude
733.770752	0.000000
733.808716	0.000000
733.846619	0.000000
733.884583	0.000000
733.922546	0.000000
733.960449	0.000000
733.998413	0.000000
734.036377	0.000000
734.074219	0.000000
734.112183	0.000000
734.150085	0.000000
734.188049	0.000000
734.226013	0.000000
734.263916	0.000000
734.301819	0.000000
734.339783	0.000000
734.377686	0.000000
734.415588	0.000000
734.453552	0.000000
734.491455	0.000000
734.529419	0.000000
734.567322	0.000000
734.605225	0.000000
734.643127	0.000000
734.681091	0.000000
734.718994	0.000000
734.756897	0.000000
734.794800	0.000000
734.832703	0.000000
734.870667	0.000000
734.908508	0.000000
734.946472	0.000000
734.984375	0.000000
735.022278	0.000000
735.060181	0.000000
735.098083	0.000000
735.135986	0.000000
735.173889	0.000000
735.211792	0.000000
735.249695	0.000000
735.287598	0.000000
735.325439	0.000000
735.363403	0.000000
735.401306	0.000000
735.439148	0.000000
735.477051	0.000000
735.515015	0.000000
735.552856	0.000000
735.590759	0.000000
735.628662	0.000000
735.666504	0.000000
735.704407	0.000000
735.742310	0.000000
735.780212	0.000000
735.818115	0.000000
735.856018	0.000000
735.893860	0.000000
735.931763	0.000000
735.969604	0.000000
736.007507	0.000000
736.045410	0.000000
736.083252	0.000000
736.121094	0.000000
736.158997	0.000000
736.196838	0.000000
736.234741	0.000000
736.272644	0.000000
736.310486	0.000000
736.348389	0.000000
736.386230	0.000000
736.424072	0.000000
736.461975	0.000000
736.499878	0.000000
736.537720	0.000000
736.575562	0.000000
736.613403	0.000000
736.651306	0.000000
736.689148	0.000000
736.726990	0.000000
736.764893	0.000000
736.802734	0.000000
736.840576	0.000000
736.878418	0.000000
736.916321	0.000000
736.954102	0.000000
736.992004	0.000000
737.029846	0.000000
737.067688	0.000000
737.105530	0.000000
737.143372	0.000000
737.181213	0.000000
737.219116	0.000000
737.256897	0.000000
737.294739	0.000000
737.332642	0.000000
737.370422	0.000000
737.408325	0.000000
737.446167	0.000000
737.483948	0.000000
737.521790	0.000000
737.559692	0.000000
737.597473	0.000000
737.635315	0.000000
737.673157	0.000000
737.710999	0.000000
737.748840	0.000000
737.786621	0.000000
737.824463	0.000000
737.862305	0.000000
737.900085	0.000000
737.937927	0.000000
737.975769	0.000000
738.013550	0.000000
738.051392	0.000000
738.089233	0.000000
738.127014	0.000000
738.164856	0.000000
738.202698	0.000000
738.240479	0.000000
738.278320	0.000000
738.316162	0.000000
738.353943	0.000000
738.391785	0.000000
738.429565	0.000000
738.467407	0.000000
738.505188	0.000000
738.542969	0.000000
738.580811	0.000000
738.618652	0.000000
738.656372	0.000000
738.694214	0.000000
738.732056	0.000000
738.769836	0.000000
738.807617	0.000000
738.845459	0.000000
738.883240	0.000000
738.921021	0.000000
738.958862	0.000000
738.996582	0.000000
739.034424	0.000000
739.072205	0.000000
739.109985	0.000000
739.147827	0.000000
739.185547	0.000000
739.223389	0.000000
739.261169	0.000000
739.298889	0.000000
739.336731	0.000000
739.374512	0.000000
739.412292	0.000000
739.450073	0.000000
739.487854	0.000000
739.525635	0.000000
739.563416	0.000000
739.601135	0.000000
739.638977	0.000000
739.676758	0.000000
739.714478	0.000000
739.752258	0.000000
739.790100	0.000000
739.827820	0.000000
739.865601	0.000000
739.903381	0.000000
739.941101	0.000000
739.978882	196.300000
740.016724	191.800000
740.054443	198.100000
740.092224	188.800000
740.130005	189.400000
740.167725	189.400000
740.205505	190.600000
740.243225	199.600000
740.281006	193.900000
740.318787	183.900000
740.356506	199.100000
740.394287	195.800000
740.432068	187.400000
740.469727	187.400000
740.507507	196.100000
740.545288	192.100000
740.583008	195.600000
740.620789	193.300000
740.658569	184.400000
740.696228	191.100000
740.734009	198.800000
740.771790	180.000000
740.809509	196.600000
740.847229	187.600000
740.884949	189.900000
740.922729	185.200000
740.960449	190.800000
740.998169	187.100000
741.035950	190.200000
741.073669	194.400000
741.111389	192.500000
741.149170	201.400000
741.186890	202.700000
741.224609	196.700000
741.262329	193.700000
741.300110	202.900000
741.337769	188.000000
741.375549	186.600000
741.413208	194.600000
741.450989	188.400000
741.488708	190.900000
741.526367	192.200000
741.564148	197.200000
741.601868	197.600000
741.639526	192.300000
741.677307	193.900000
741.715027	195.700000
741.752686	189.000000
741.790466	201.000000
741.828186	194.900000
741.865845	188.500000
741.903564	183.200000
741.941345	192.800000
741.979004	188.500000
742.016724	195.500000
742.054382	194.300000
742.092102	198.800000
742.129822	186.100000
742.167480	190.800000
742.205200	192.400000
742.242920	194.300000
742.280640	198.400000
742.318359	189.000000
742.356079	190.400000
742.393738	196.300000
742.431396	192.900000
742.469116	195.800000
742.506775	182.200000
742.544495	194.700000
742.582214	197.800000
742.619873	191.900000
742.657593	201.000000
742.695251	196.500000
742.732971	192.500000
742.770630	195.500000
742.808289	192.400000
742.846008	192.400000
742.883728	195.900000
742.921326	192.800000
742.959045	190.800000
742.996765	193.200000
743.034424	193.200000
743.072083	191.200000
743.109802	193.000000
743.147400	186.000000
743.185120	193.000000
743.222839	192.200000
743.260437	197.700000
743.298157	196.100000
743.335754	185.000000
743.373474	189.800000
743.411133	184.200000
743.448792	192.300000
743.486450	193.500000
743.524170	185.700000
743.561768	193.100000
743.599487	199.200000
743.637146	204.100000
743.674744	192.100000
743.712463	189.700000
743.750122	193.500000
743.787720	195.200000
743.825439	189.100000
743.863037	190.600000
743.900696	192.400000
743.938416	216.800000
743.976013	192.000000
744.013672	200.700000
744.051331	197.500000
744.088928	200.000000
744.126587	198.900000
744.164307	193.300000
744.201904	189.400000
744.239563	196.200000
744.277222	195.000000
744.314819	191.800000
744.352478	201.600000
744.390137	194.900000
744.427734	195.600000
744.465393	191.100000
744.502991	187.900000
744.540649	195.200000
744.578308	194.100000
744.615906	187.000000
744.653564	183.200000
744.691223	197.600000
744.728821	185.900000
744.766418	191.600000
744.804077	197.100000
744.841675	190.500000
744.879333	185.500000
744.916992	192.700000
744.954529	189.300000
744.992187	198.500000
745.029785	191.200000
745.067444	189.300000
745.105042	193.700000
745.142639	195.600000
745.180298	201.100000
745.217896	188.900000
745.255493	191.600000
745.293152	197.700000
745.330750	197.500000
745.368347	202.800000
745.405945	196.800000
745.443604	194.700000
745.481140	195.900000
745.518799	191.300000
745.556396	196.700000
745.593994	197.800000
745.631592	193.100000
745.669189	188.400000
745.706787	195.000000
745.744385	189.300000
745.781982	193.900000
745.819580	191.300000
745.857178	192.200000
745.894775	193.200000
745.932373	194.300000
745.969971	193.400000
746.007568	184.100000
746.045166	201.900000
746.082764	198.900000
746.120300	196.200000
746.157898	196.200000
746.195557	191.900000
746.233093	185.800000
746.270691	196.400000
746.308228	194.800000
746.345825	198.000000
746.383423	196.500000
746.420959	189.300000
746.458557	189.500000
746.496155	190.100000
746.533691	191.800000
746.571289	187.100000
746.608887	192.700000
746.646423	194.400000
746.684021	193.700000
746.721619	191.400000
746.759155	195.300000
746.796753	186.800000
746.834351	186.000000
746.871826	189.300000
746.909424	199.200000
746.946960	195.100000
746.984558	191.900000
747.022156	189.800000
747.059631	200.700000
747.097229	195.000000
747.134827	192.800000
747.172363	201.400000
747.209900	194.400000
747.247498	188.200000
747.285034	200.600000
747.322571	200.500000
747.360168	192.500000
747.397644	187.100000
747.435242	195.800000
747.472778	199.500000
747.510315	191.500000
747.547913	189.100000
747.585388	200.600000
747.622925	193.000000
747.660522	183.600000
747.697998	188.200000
747.735596	192.500000
747.773132	190.200000
747.810669	192.600000
747.848206	195.900000
747.885742	186.200000
747.923279	186.700000
747.960815	195.500000
747.998352	192.300000
748.035889	197.600000
748.073425	198.700000
748.110901	190.400000
748.148437	187.900000
748.185974	194.800000
748.223511	203.800000
748.261047	195.800000
748.298584	195.400000
748.336060	192.200000
748.373596	197.200000
748.411133	212.100000
748.448608	188.500000
748.486145	196.500000
748.523682	199.600000
748.561218	200.300000
748.598755	193.400000
748.636292	197.300000
748.673706	191.800000
748.711243	198.900000
748.748718	195.400000
748.786255	192.700000
748.823792	193.300000
748.861267	188.200000
748.898804	195.400000
748.936340	196.000000
748.973816	191.800000
749.011292	198.400000
749.048828	194.800000
749.086304	196.500000
749.123840	204.700000
749.161316	188.600000
749.198792	203.200000
749.236328	199.200000
749.273743	194.400000
749.311279	190.000000
749.348816	195.500000
749.386230	194.100000
749.423767	181.300000
749.461304	194.200000
749.498718	194.600000
749.536255	199.600000
749.573730	205.000000
749.611206	198.600000
749.648682	193.000000
749.686218	192.800000
749.723633	197.100000
749.761169	191.300000
749.798645	188.500000
749.836060	192.500000
749.873596	189.300000
749.911011	193.000000
749.948547	200.100000
749.986023	194.300000
750.023437	191.800000
750.060913	186.500000
750.098450	187.500000
750.135864	191.800000
750.173340	194.300000
750.210815	198.700000
750.248291	188.000000
750.285767	193.900000
750.323242	199.900000
750.360657	195.200000
750.398132	189.600000
750.435608	198.300000
750.473022	189.700000
750.510498	188.700000
750.547974	188.900000
750.585449	191.000000
750.622925	183.100000
750.660339	202.100000
750.697815	193.000000
750.735291	191.500000
750.772644	194.500000
750.810120	195.300000
750.847595	195.500000
750.885010	189.500000
750.922485	202.000000
750.959961	191.900000
750.997375	199.300000
751.034851	196.600000
751.072266	198.100000
751.109680	187.500000
751.147156	198.800000
751.184570	196.600000
751.221985	195.300000
751.259460	185.500000
751.296875	193.600000
751.334290	194.500000
751.371765	197.600000
751.409180	195.500000
751.446594	198.700000
751.484070	195.700000
751.521423	194.500000
751.558899	195.000000
751.596375	201.600000
751.633728	200.500000
751.671204	206.000000
751.708618	188.800000
751.746033	194.100000
751.783447	187.800000
751.820801	188.500000
751.858276	196.800000
751.895691	192.900000
751.933105	192.300000
751.970520	189.700000
752.007935	191.900000
752.045349	197.300000
752.082764	194.000000
752.120178	191.700000
752.157532	189.900000
752.195007	191.400000
752.232422	197.200000
752.269775	198.500000
752.307190	196.100000
752.344543	189.900000
752.382019	193.000000
752.419434	193.600000
752.456787	195.300000
752.494202	197.000000
752.531616	196.000000
752.568970	198.300000
752.606384	194.600000
752.643799	195.100000
752.681152	202.500000
752.718567	197.500000
752.755981	185.200000
752.793335	195.900000
752.830750	185.000000
752.868164	199.300000
752.905518	188.400000
752.942932	198.800000
752.980225	188.500000
753.017639	197.100000
753.055054	190.600000
753.092407	196.400000
753.129822	199.200000
753.167175	202.500000
753.204529	191.800000
753.241943	191.400000
753.279358	187.000000
753.316650	198.700000
753.354065	195.300000
753.391479	198.000000
753.428772	201.100000
753.466187	197.200000
753.503479	188.300000
753.540894	192.300000
753.578308	188.900000
753.615601	188.600000
753.653015	193.800000
753.690369	191.600000
753.727722	188.800000
753.765076	187.000000
753.802490	188.800000
753.839783	185.600000
753.877136	191.300000
753.914551	209.300000
753.951843	187.900000
753.989258	197.100000
754.026611	195.100000
754.063904	194.700000
754.101257	189.900000
754.138611	186.200000
754.175964	195.000000
754.213318	205.900000
754.250610	186.500000
754.288025	190.700000
754.325378	187.900000
754.362671	199.600000
754.400024	191.700000
754.437378	202.300000
754.474670	203.500000
754.512085	189.500000
754.549438	194.800000
754.586731	191.600000
754.624084	193.100000
754.661438	189.200000
754.698730	202.300000
754.736084	191.100000
754.773376	191.800000
754.810730	195.200000
754.848083	192.400000
754.885315	196.900000
754.922668	186.500000
754.960022	186.800000
754.997314	197.600000
755.034668	193.600000
755.072021	193.800000
755.109253	190.100000
755.146606	201.300000
755.183960	191.500000
755.221252	202.500000
755.258545	199.300000
755.295898	199.700000
755.333191	201.000000
755.370544	197.900000
755.407776	193.100000
755.445129	196.200000
755.482422	199.700000
755.519714	191.600000
755.557068	187.500000
755.594360	186.200000
755.631653	198.800000
755.668945	204.800000
755.706299	197.800000
755.743530	207.100000
755.780884	204.600000
755.818176	201.200000
755.855408	200.800000
755.892761	197.300000
755.930054	196.200000
755.967346	198.600000
756.004639	199.600000
756.041870	196.600000
756.079224	201.300000
756.116516	193.200000
756.153748	201.100000
756.191040	204.600000
756.228394	198.500000
756.265625	191.500000
756.302917	197.400000
756.340210	193.200000
756.377441	202.600000
756.414795	205.300000
756.452087	196.700000
756.489319	189.600000
756.526611	199.500000
756.563843	196.400000
756.601135	209.000000
756.638428	204.400000
756.675659	198.300000
756.712952	202.400000
756.750244	200.600000
756.787476	198.900000
756.824768	207.000000
756.862061	195.400000
756.899292	244.900000
756.936584	203.300000
756.973816	209.300000
757.011047	210.200000
757.048340	201.500000
757.085632	199.300000
757.122864	215.100000
757.160156	197.200000
757.197327	203.400000
757.234619	203.600000
757.271912	198.500000
757.309082	204.300000
757.346375	198.700000
757.383667	206.000000
757.420837	201.800000
757.458130	201.000000
757.495422	200.100000
757.532593	203.600000
757.569885	193.000000
757.607117	198.200000
757.644348	202.700000
757.681580	215.300000
757.718811	188.900000
757.756042	201.100000
757.793335	199.500000
757.830505	206.100000
757.867798	199.000000
757.905029	198.500000
757.942200	203.000000
757.979492	198.800000
758.016724	199.800000
758.053894	199.700000
758.091187	221.200000
758.128418	203.300000
758.165588	201.000000
758.202820	213.800000
758.240112	200.800000
758.277283	214.600000
758.314514	204.000000
758.351685	200.000000
758.388916	212.400000
758.426147	211.200000
758.463379	213.700000
758.500610	208.200000
758.537842	204.400000
758.575012	212.100000
758.612244	200.200000
758.649475	217.600000
758.686646	198.400000
758.723877	214.100000
758.761108	213.000000
758.798279	205.300000
758.835510	208.200000
758.872742	212.200000
758.909851	207.800000
758.947083	209.400000
758.984253	208.200000
759.021484	212.500000
759.058716	210.400000
759.095886	211.200000
759.133057	206.300000
759.170288	210.300000
759.207458	202.400000
759.244690	218.200000
759.281860	216.700000
759.319031	208.200000
759.356262	206.400000
759.393433	206.200000
759.430603	207.300000
759.467773	206.800000
759.505005	215.100000
759.542175	213.400000
759.579346	207.200000
759.616516	208.800000
759.653687	212.000000
759.690918	205.100000
759.728027	211.300000
759.765259	209.200000
759.802429	213.300000
759.839539	212.000000
759.876770	215.700000
759.913940	219.600000
759.951111	210.300000
759.988281	210.700000
760.025452	207.500000
760.062561	205.500000
760.099792	218.800000
760.136963	214.300000
760.174072	209.400000
760.211243	202.800000
760.248413	206.200000
760.285583	206.100000
760.322754	221.800000
760.359863	218.000000
760.397034	219.000000
760.434204	210.900000
760.471375	212.200000
760.508545	211.000000
760.545715	211.200000
760.582825	206.800000
760.619995	218.500000
760.657166	204.800000
760.694275	219.700000
760.731445	215.100000
760.768555	216.100000
760.805664	216.500000
760.842834	216.800000
760.879944	218.700000
760.917114	217.000000
760.954285	213.800000
760.991394	210.000000
761.028564	221.800000
761.065674	218.200000
761.102783	211.500000
761.139954	220.700000
761.177124	220.700000
761.214172	223.800000
761.251343	217.100000
761.288452	217.200000
761.325562	221.800000
761.362732	215.300000
761.399841	217.900000
761.436951	220.600000
761.474121	214.000000
761.511169	218.900000
761.548340	225.400000
761.585449	224.300000
761.622559	224.200000
761.659668	221.300000
761.696838	227.900000
761.733887	221.800000
761.771057	220.100000
761.808167	222.500000
761.845276	227.000000
761.882385	236.200000
761.919434	224.000000
761.956604	243.000000
761.993713	222.000000
762.030762	230.300000
762.067871	224.000000
762.105042	223.600000
762.142090	233.500000
762.179199	227.300000
762.216309	231.600000
762.253418	243.300000
762.290527	238.600000
762.327637	233.700000
762.364685	223.900000
762.401794	234.900000
762.438904	235.300000
762.475952	226.300000
762.513062	225.100000
762.550110	226.000000
762.587219	243.000000
762.624329	240.700000
762.661377	234.300000
762.698486	232.000000
762.735596	232.200000
762.772644	227.500000
762.809753	225.100000
762.846863	233.300000
762.883911	236.000000
762.921021	237.700000
762.958069	233.000000
762.995117	242.900000
763.032227	243.300000
763.069336	234.500000
763.106323	229.900000
763.143433	229.700000
763.180481	237.700000
763.217590	239.100000
763.254639	234.300000
763.291687	236.400000
763.328735	244.100000
763.365845	237.000000
763.402893	234.500000
763.439941	239.300000
763.477051	241.600000
763.514038	243.900000
763.551147	236.000000
763.588196	240.900000
763.625244	237.500000
763.662292	246.400000
763.699402	248.400000
763.736389	243.700000
763.773499	252.600000
763.810486	246.600000
763.847534	243.800000
763.884644	247.000000
763.921631	242.900000
763.958679	254.500000
763.995728	244.000000
764.032776	253.600000
764.069824	239.000000
764.106873	250.200000
764.143860	255.100000
764.180969	244.800000
764.218018	253.900000
764.255005	245.700000
764.292053	248.200000
764.329102	258.800000
764.366089	257.300000
764.403137	257.100000
764.440125	246.200000
764.477173	251.600000
764.514221	255.300000
764.551208	251.600000
764.588257	245.900000
764.625305	255.700000
764.662292	262.000000
764.699341	265.100000
764.736389	256.600000
764.773376	272.100000
764.810425	259.800000
764.847473	265.100000
764.884399	261.700000
764.921448	269.300000
764.958435	266.700000
764.995483	257.700000
765.032532	274.200000
765.069458	260.000000
765.106506	262.200000
765.143555	258.200000
765.180481	264.700000
765.217529	271.500000
765.254578	256.000000
765.291504	266.200000
765.328552	263.400000
765.365540	260.900000
765.402527	277.800000
765.439575	260.600000
765.476501	258.100000
765.513550	257.900000
765.550537	264.000000
765.587463	271.200000
765.624512	261.300000
765.661499	253.200000
765.698486	272.300000
765.735474	260.700000
765.772461	264.000000
765.809448	271.700000
765.846436	272.000000
765.883423	273.500000
765.920410	269.000000
765.957397	264.100000
765.994385	270.100000
766.031311	280.000000
766.068359	273.400000
766.105286	271.400000
766.142273	278.600000
766.179260	274.100000
766.216187	267.600000
766.253174	265.000000
766.290161	274.400000
766.327148	275.500000
766.364136	275.200000
766.401123	293.700000
766.438049	271.300000
766.475037	286.600000
766.512024	281.800000
766.548950	295.800000
766.585937	288.500000
766.622864	286.200000
766.659790	283.400000
766.696777	273.400000
766.733704	289.900000
766.770691	280.400000
766.807678	294.900000
766.844604	288.600000
766.881531	288.000000
766.918518	294.700000
766.955444	297.000000
766.992432	289.600000
767.029358	291.800000
767.066284	295.900000
767.103271	293.100000
767.140198	322.800000
767.177124	308.700000
767.214050	299.600000
767.251038	302.100000
767.287964	299.300000
767.324890	292.800000
767.361816	300.900000
767.398743	305.800000
767.435730	300.200000
767.472595	305.100000
767.509583	310.600000
767.546509	298.500000
767.583374	305.100000
767.620361	298.100000
767.657288	304.800000
767.694214	306.500000
767.731140	305.300000
767.768066	306.000000
767.804993	313.700000
767.841919	304.500000
767.878845	310.400000
767.915710	318.200000
767.952698	311.600000
767.989563	315.800000
768.026489	319.400000
768.063416	311.200000
768.100281	308.800000
768.137207	324.700000
768.174133	321.100000
768.211060	322.000000
768.247986	319.200000
768.284912	320.700000
768.321777	322.900000
768.358704	320.400000
768.395630	323.900000
768.432495	318.100000
768.469421	324.600000
768.506348	332.300000
768.543152	336.000000
768.580078	332.200000
768.616943	331.800000
768.653870	334.200000
768.690796	335.900000
768.727661	330.600000
768.764587	331.700000
768.801453	329.100000
768.838318	338.700000
768.875244	338.500000
768.912109	344.500000
768.948975	336.600000
768.985901	337.300000
769.022766	337.500000
769.059631	346.100000
769.096558	339.500000
769.133362	341.300000
769.170288	343.600000
769.207214	342.700000
769.244019	352.500000
769.280945	348.800000
769.317810	356.000000
769.354675	349.600000
769.391541	360.100000
769.428406	354.600000
769.465271	367.400000
769.502136	353.700000
769.539062	356.400000
769.575867	353.500000
769.612732	357.200000
769.649597	363.100000
769.686462	366.000000
769.723328	361.600000
769.760193	358.000000
769.797058	362.100000
769.833923	368.700000
769.870728	364.400000
769.907593	367.900000
769.944519	369.200000
769.981323	371.100000
770.018188	371.200000
770.055054	367.700000
770.091858	371.600000
770.128723	383.100000
770.165588	383.700000
770.202393	368.800000
770.239258	382.200000
770.276062	375.400000
770.312927	375.900000
770.349792	382.400000
770.386597	379.400000
770.423462	387.400000
770.460327	393.700000
770.497131	377.100000
770.533997	372.100000
770.570862	389.800000
770.607605	392.900000
770.644470	384.400000
770.681335	387.800000
770.718140	385.500000
770.754944	377.500000
770.791809	377.900000
770.828613	384.000000
770.865479	384.700000
770.902222	396.700000
770.939087	386.900000
770.975952	377.800000
771.012695	383.800000
771.049561	401.800000
771.086365	389.000000
771.123169	387.900000
771.159973	391.300000
771.196838	391.500000
771.233582	392.200000
771.270447	393.800000
771.307251	393.900000
771.344055	390.200000
771.380859	397.900000
771.417664	390.700000
771.454468	397.800000
771.491272	398.700000
771.528076	401.400000
771.564880	400.400000
771.601685	409.300000
771.638428	399.500000
771.675293	408.800000
771.712097	395.700000
771.748840	415.500000
771.785645	405.900000
771.822449	412.200000
771.859253	410.300000
771.896057	404.200000
771.932861	420.200000
771.969604	408.300000
772.006409	402.700000
772.043213	414.900000
772.079956	412.600000
772.116760	407.900000
772.153503	409.100000
772.190308	421.900000
772.227112	412.000000
772.263855	410.000000
772.300659	415.200000
772.337463	424.700000
772.374207	413.400000
772.411011	411.700000
772.447754	415.100000
772.484497	435.700000
772.521301	425.000000
772.558105	425.200000
772.594849	425.000000
772.631592	432.800000
772.668396	430.300000
772.705139	437.200000
772.741882	434.100000
772.778625	444.800000
772.815430	449.400000
772.852173	443.200000
772.888916	450.000000
772.925720	454.600000
772.962463	462.500000
772.999207	454.900000
773.035950	459.200000
773.072754	460.100000
773.109436	455.200000
773.146240	455.200000
773.182922	456.500000
773.219727	469.200000
773.256470	463.100000
773.293152	450.100000
773.329956	460.500000
773.366699	469.200000
773.403381	459.200000
773.440186	464.200000
773.476929	471.800000
773.513611	464.300000
773.550354	464.700000
773.587158	463.900000
773.623840	461.700000
773.660583	475.100000
773.697327	485.500000
773.734009	478.700000
773.770813	479.900000
773.807495	478.000000
773.844238	483.600000
773.880981	497.100000
773.917664	491.900000
773.954407	497.100000
773.991150	493.200000
774.027832	493.200000
774.064575	486.300000
774.101318	496.800000
774.138000	501.400000
774.174744	494.700000
774.211487	497.700000
774.248108	485.400000
774.284851	486.800000
774.321594	500.300000
774.358276	505.400000
774.395020	511.300000
774.431702	509.400000
774.468384	501.100000
774.505127	499.400000
774.541809	513.200000
774.578491	522.000000
774.615234	519.700000
774.651917	513.700000
774.688599	522.100000
774.725342	526.900000
774.762024	526.700000
774.798706	532.000000
774.835449	530.500000
774.872070	539.500000
774.908813	536.400000
774.945496	531.600000
774.982178	532.600000
775.018860	536.300000
775.055542	536.400000
775.092224	542.400000
775.128967	551.300000
775.165588	548.400000
775.202271	540.500000
775.239014	556.000000
775.275635	557.100000
775.312317	552.800000
775.349060	558.600000
775.385681	557.700000
775.422363	548.000000
775.459045	558.500000
775.495667	558.400000
775.532410	562.800000
775.569092	563.600000
775.605713	559.300000
775.642395	562.400000
775.679016	563.400000
775.715698	561.900000
775.752380	565.300000
775.789001	560.900000
775.825684	556.600000
775.862366	560.100000
775.898987	574.500000
775.935669	560.600000
775.972351	580.000000
776.008972	581.300000
776.045654	574.900000
776.082336	568.600000
776.118958	572.200000
776.155640	576.800000
776.192322	581.200000
776.228882	583.400000
776.265564	581.500000
776.302185	577.300000
776.338867	584.700000
776.375488	573.100000
776.412109	586.400000
776.448792	587.000000
776.485413	596.900000
776.522034	584.100000
776.558716	578.600000
776.595337	579.800000
776.631958	583.300000
776.668579	585.300000
776.705261	591.000000
776.741882	586.100000
776.778503	585.200000
776.815186	579.300000
776.851746	588.900000
776.888367	586.000000
776.924988	596.700000
776.961609	589.200000
776.998291	591.400000
777.034851	579.600000
777.071472	597.300000
777.108154	591.100000
777.144714	604.500000
777.181335	603.500000
777.218018	592.200000
777.254578	597.100000
777.291199	599.500000
777.327759	606.800000
777.364380	614.400000
777.401062	616.100000
777.437622	628.000000
777.474243	614.800000
777.510864	624.400000
777.547424	618.900000
777.584045	625.700000
777.620667	623.400000
777.657227	625.400000
777.693848	625.900000
777.730469	647.100000
777.767029	634.000000
777.803650	638.600000
777.840271	623.200000
777.876831	629.700000
777.913452	638.100000
777.950012	621.900000
777.986633	624.500000
778.023193	621.200000
778.059753	625.300000
778.096375	628.500000
778.132996	643.200000
778.169556	627.700000
778.206116	628.200000
778.242737	624.200000
778.279297	633.500000
778.315857	623.600000
778.352478	636.600000
778.389038	646.600000
778.425598	642.900000
778.462219	653.900000
778.498718	651.000000
778.535339	658.200000
778.571838	662.400000
778.608459	668.300000
778.645020	662.700000
778.681580	671.600000
778.718140	673.000000
778.754761	663.900000
778.791260	672.800000
778.827881	681.900000
778.864441	676.500000
778.900940	683.500000
778.937561	684.000000
778.974121	682.500000
779.010620	669.300000
779.047241	676.400000
779.083801	687.500000
779.120300	686.300000
779.156860	694.100000
779.193359	691.100000
779.229980	691.900000
779.266541	700.500000
779.303040	703.000000
779.339600	695.000000
779.376160	689.800000
779.412659	695.900000
779.449219	694.500000
779.485779	701.000000
779.522278	706.100000
779.558838	708.100000
779.595398	712.300000
779.631897	710.500000
779.668457	700.200000
779.705017	713.100000
779.741516	707.300000
779.778076	700.600000
779.814575	708.200000
779.851074	719.100000
779.887634	712.800000
779.924133	717.900000
779.960693	704.900000
779.997253	717.600000
780.033691	719.200000
780.070251	724.500000
780.106812	735.600000
780.143250	731.900000
780.179810	728.000000
780.216370	735.100000
780.252808	744.000000
780.289368	753.500000
780.325867	751.600000
780.362366	753.800000
780.398865	765.300000
780.435364	754.900000
780.471863	768.100000
780.508423	764.800000
780.544861	768.800000
780.581421	771.600000
780.617920	766.000000
780.654419	762.700000
780.690918	769.900000
780.727417	778.600000
780.763916	775.900000
780.800415	784.200000
780.836914	763.700000
780.873352	769.700000
780.909912	760.600000
780.946411	769.800000
780.982849	774.200000
781.019348	793.100000
781.055786	787.600000
781.092346	787.400000
781.128845	792.800000
781.165283	795.800000
781.201782	801.800000
781.238281	807.600000
781.274719	809.900000
781.311218	799.400000
781.347717	817.400000
781.384155	803.400000
781.420654	803.800000
781.457092	817.500000
781.493591	806.000000
781.530090	801.900000
781.566528	810.200000
781.602966	813.900000
781.639465	811.600000
781.675903	812.300000
781.712402	816.200000
781.748901	821.700000
781.785278	814.000000
781.821777	821.600000
781.858276	815.300000
781.894714	830.400000
781.931152	819.300000
781.967651	828.500000
782.004089	818.700000
782.040527	826.300000
782.076965	830.300000
782.113403	827.400000
782.149902	830.500000
782.186340	823.800000
782.222778	839.800000
782.259277	822.600000
782.295654	821.900000
782.332092	837.500000
782.368591	827.600000
782.404968	818.900000
782.441467	822.900000
782.477905	824.800000
782.514282	819.700000
782.550781	839.100000
782.587219	835.600000
782.623596	838.200000
782.660095	842.000000
782.696472	847.700000
782.732910	845.300000
782.769348	849.900000
782.805786	866.200000
782.842224	866.100000
782.878662	859.200000
782.915039	864.600000
782.951477	861.200000
782.987915	855.700000
783.024292	867.500000
783.060730	861.300000
783.097168	849.000000
783.133545	845.400000
783.169983	844.200000
783.206421	845.200000
783.242798	845.700000
783.279236	834.100000
783.315613	833.700000
783.352051	831.600000
783.388489	822.700000
783.424866	815.400000
783.461304	821.900000
783.497681	823.700000
783.534058	816.500000
783.570496	813.800000
783.606934	808.700000
783.643250	812.600000
783.679687	827.000000
783.716125	818.100000
783.752441	832.800000
783.788879	859.100000
783.825317	859.400000
783.861633	864.700000
783.898071	867.200000
783.934448	885.600000
783.970825	893.500000
784.007263	890.800000
784.043579	895.200000
784.080017	901.900000
784.116394	904.200000
784.152710	903.900000
784.189148	909.400000
784.225525	910.800000
784.261902	890.300000
784.298279	893.100000
784.334656	897.600000
784.371033	887.500000
784.407410	892.400000
784.443787	874.500000
784.480164	864.100000
784.516541	847.500000
784.552856	852.000000
784.589233	847.500000
784.625610	845.600000
784.661987	880.400000
784.698364	862.600000
784.734741	856.500000
784.771057	857.100000
784.807434	859.700000
784.843811	869.000000
784.880127	872.200000
784.916504	901.600000
784.952881	896.300000
784.989197	886.500000
785.025574	891.300000
785.061951	898.200000
785.098267	922.600000
785.134644	914.900000
785.170959	919.300000
785.207275	923.400000
785.243652	922.900000
785.279968	911.400000
785.316345	916.000000
785.352722	921.700000
785.388977	923.600000
785.425354	902.700000
785.461731	885.600000
785.498047	879.200000
785.534363	872.400000
785.570679	874.200000
785.606995	877.500000
785.643372	880.800000
785.679687	873.500000
785.716003	868.400000
785.752380	858.800000
785.788635	867.500000
785.825012	886.700000
785.861328	897.000000
785.897644	881.600000
785.933960	895.400000
785.970337	897.600000
786.006592	909.900000
786.042908	920.100000
786.079285	933.300000
786.115540	941.200000
786.151855	942.600000
786.188171	938.700000
786.224487	938.000000
786.260803	931.700000
786.297119	951.800000
786.333435	955.100000
786.369751	952.100000
786.406006	956.800000
786.442322	940.700000
786.478638	930.200000
786.514954	946.000000
786.551270	949.300000
786.587585	958.200000
786.623840	936.100000
786.660156	935.000000
786.696472	929.400000
786.732727	920.800000
786.769043	922.200000
786.805298	916.600000
786.841614	918.700000
786.877930	923.100000
786.914124	903.200000
786.950439	919.500000
786.986755	925.100000
787.023010	940.500000
787.059326	945.600000
787.095642	946.300000
787.131836	961.000000
787.168152	946.200000
787.204468	954.600000
787.240723	978.900000
787.276978	981.500000
787.313293	985.300000
787.349548	983.900000
787.385803	991.100000
787.422058	981.800000
787.458313	985.800000
787.494629	994.400000
787.530823	991.000000
787.567139	977.100000
787.603455	964.300000
787.639648	955.100000
787.675903	960.300000
787.712219	956.200000
787.748413	954.300000
787.784729	966.700000
787.820984	955.700000
787.857178	942.700000
787.893494	936.400000
787.929749	927.600000
787.965942	944.200000
788.002258	958.500000
788.038452	959.800000
788.074707	946.400000
788.110962	944.800000
788.147217	942.400000
788.183472	949.800000
788.219727	963.400000
788.255920	977.900000
788.292175	979.700000
788.328430	968.700000
788.364624	955.900000
788.400879	955.000000
788.437134	961.100000
788.473328	959.500000
788.509583	952.900000
788.545837	951.200000
788.582031	941.600000
788.618286	934.200000
788.654480	938.900000
788.690735	949.900000
788.726990	966.500000
788.763184	964.000000
788.799377	969.500000
788.835632	958.900000
788.871826	978.600000
788.908081	978.300000
788.944336	969.900000
788.980469	996.300000
789.016724	989.400000
789.052979	983.400000
789.089111	966.400000
789.125366	971.600000
789.161621	955.800000
789.197754	965.600000
789.234009	958.400000
789.270142	944.200000
789.306396	936.100000
789.342590	931.200000
789.378784	906.300000
789.414978	905.800000
789.451233	924.300000
789.487366	931.400000
789.523621	935.400000
789.559814	929.100000
789.595947	922.600000
789.632202	928.900000
789.668335	942.300000
789.704529	956.100000
789.740784	969.300000
789.776917	969.600000
789.813110	961.300000
789.849304	980.300000
789.885498	970.800000
789.921692	994.200000
789.957886	1000.300000
789.994019	998.200000
790.030212	990.300000
790.066406	995.200000
790.102539	988.200000
790.138733	993.900000
790.174927	982.800000
790.211060	995.900000
790.247253	982.200000
790.283386	964.800000
790.319580	960.500000
790.355774	941.700000
790.391907	948.500000
790.428101	971.400000
790.464294	967.000000
790.500427	973.200000
790.536621	953.000000
790.572754	941.300000
790.608887	946.400000
790.645081	956.300000
790.681274	967.200000
790.717346	969.500000
790.753540	932.900000
790.789734	874.200000
790.825867	815.000000
790.862000	807.200000
790.898132	838.900000
790.934265	873.400000
790.970459	920.900000
791.006592	929.400000
791.042725	935.100000
791.078918	926.500000
791.114990	926.800000
791.151184	934.100000
791.187317	956.500000
791.223389	951.900000
791.259583	941.300000
791.295715	950.000000
791.331848	948.500000
791.367981	963.600000
791.404114	973.300000
791.440247	961.200000
791.476379	962.600000
791.512451	948.900000
791.548584	947.300000
791.584778	949.800000
791.620850	964.200000
791.656982	975.100000
791.693115	969.400000
791.729187	967.000000
791.765381	963.600000
791.801514	962.200000
791.837585	964.000000
791.873718	973.900000
791.909851	990.300000
791.945923	988.600000
791.982056	953.300000
792.018188	952.600000
792.054260	960.300000
792.090393	962.700000
792.126465	955.200000
792.162598	962.400000
792.198669	952.700000
792.234741	942.600000
792.270874	935.100000
792.307007	916.900000
792.343079	925.700000
792.379150	940.800000
792.415283	924.100000
792.451355	931.800000
792.487488	908.600000
792.523560	913.600000
792.559631	920.800000
792.595764	917.400000
792.631836	918.200000
792.667908	926.600000
792.703979	909.600000
792.740051	902.100000
792.776184	914.800000
792.812256	917.200000
792.848328	918.900000
792.884399	923.500000
792.920471	919.200000
792.956543	910.500000
792.992615	908.000000
793.028748	912.400000
793.064758	913.300000
793.100830	930.100000
793.136963	940.900000
793.172974	932.500000
793.209045	925.000000
793.245178	947.100000
793.281189	930.400000
793.317261	947.100000
793.353271	944.400000
793.389404	943.100000
793.425476	939.600000
793.461487	923.900000
793.497559	922.500000
793.533630	937.100000
793.569641	937.400000
793.605713	941.200000
793.641785	942.700000
793.677795	957.700000
793.713867	934.800000
793.749878	937.800000
793.785950	952.000000
793.822021	954.200000
793.858032	934.200000
793.894104	946.700000
793.930176	931.000000
793.966187	934.200000
794.002258	922.300000
794.038269	933.600000
794.074280	936.000000
794.110352	953.200000
794.146423	926.600000
794.182373	921.100000
794.218445	918.000000
794.254517	907.400000
794.290466	891.900000
794.326538	903.000000
794.362549	901.500000
794.398560	899.700000
794.434631	905.100000
794.470581	883.500000
794.506653	875.900000
794.542664	881.400000
794.578674	886.100000
794.614685	888.500000
794.650757	882.200000
794.686707	874.500000
794.722778	864.400000
794.758789	871.500000
794.794739	882.000000
794.830811	897.300000
794.866821	917.000000
794.902771	901.800000
794.938843	889.200000
794.974792	890.100000
795.010803	891.700000
795.046814	890.500000
795.082825	881.000000
795.118835	893.000000
795.154846	867.400000
795.190796	878.800000
795.226807	858.700000
795.262817	865.200000
795.298767	865.600000
795.334778	873.000000
795.370850	858.200000
795.406799	857.800000
795.442810	845.400000
795.478821	844.600000
795.514709	841.400000
795.550720	862.600000
795.586670	843.800000
795.622681	847.600000
795.658691	849.200000
795.694641	844.500000
795.730652	831.200000
795.766663	843.500000
795.802551	842.700000
795.838562	862.800000
795.874573	849.900000
795.910522	856.100000
795.946472	841.800000
795.982483	848.200000
796.018433	851.400000
796.054382	852.700000
796.090393	837.700000
796.126282	832.300000
796.162292	825.100000
796.198242	821.700000
796.234192	826.500000
796.270203	823.100000
796.306091	826.700000
796.342041	839.100000
796.378052	823.700000
796.413940	817.200000
796.449951	821.100000
796.485901	819.000000
796.521790	819.600000
796.557800	833.100000
796.593689	822.300000
796.629639	811.100000
796.665649	813.600000
796.701599	819.400000
796.737488	817.100000
796.773437	821.700000
796.809387	818.500000
796.845337	812.100000
796.881287	805.400000
796.917175	790.600000
796.953125	791.700000
796.989075	802.400000
797.024963	809.900000
797.060913	799.800000
797.096863	801.500000
797.132751	797.100000
797.168701	784.200000
797.204590	796.600000
797.240540	803.400000
797.276489	807.700000
797.312439	818.900000
797.348328	810.400000
797.384277	802.400000
797.420166	793.000000
797.456055	798.100000
797.492004	790.300000
797.527893	798.500000
797.563843	796.200000
797.599731	785.300000
797.635620	765.400000
797.671570	777.900000
797.707520	777.300000
797.743347	778.400000
797.779297	786.900000
797.815125	787.700000
797.851074	777.700000
797.887024	771.900000
797.922913	764.700000
797.958801	776.000000
797.994690	767.300000
798.030579	779.400000
798.066467	780.100000
798.102356	764.100000
798.138245	761.900000
798.174133	761.800000
798.210083	765.400000
798.245911	773.000000
798.281799	773.900000
798.317749	768.100000
798.353577	761.800000
798.389465	764.200000
798.425293	760.800000
798.461243	754.800000
798.497131	756.900000
798.532959	756.300000
798.568848	759.700000
798.604736	753.300000
798.640564	739.600000
798.676453	741.700000
798.712402	747.600000
798.748230	747.500000
798.784119	738.200000
798.820007	746.800000
798.855835	741.700000
798.891724	737.500000
798.927551	738.500000
798.963379	746.500000
798.999268	736.200000
799.035095	734.600000
799.070984	727.900000
799.106873	719.500000
799.142700	730.500000
799.178528	722.100000
799.214417	719.600000
799.250244	734.400000
799.286133	727.100000
799.321960	728.100000
799.357788	720.400000
799.393677	717.200000
799.429504	714.500000
799.465332	712.500000
799.501221	725.100000
799.537048	721.400000
799.572876	717.500000
799.608704	717.000000
799.644531	721.900000
799.680359	718.500000
799.716248	724.500000
799.752014	734.100000
799.787903	722.900000
799.823730	720.800000
799.859558	711.900000
799.895386	716.400000
799.931213	716.300000
799.967041	701.000000
800.002869	701.000000
800.038696	717.300000
800.074463	693.800000
800.110352	700.800000
800.146179	691.200000
800.181946	699.500000
800.217773	702.000000
800.253540	698.300000
800.289429	695.500000
800.325256	690.500000
800.361023	682.500000
800.396851	683.000000
800.432678	685.300000
800.468445	684.500000
800.504272	676.000000
800.540100	662.300000
800.575867	664.700000
800.611694	670.000000
800.647461	664.700000
800.683289	669.800000
800.719116	673.200000
800.754883	665.500000
800.790649	649.800000
800.826477	646.400000
800.862244	664.500000
800.898071	648.800000
800.933838	642.900000
800.969604	642.400000
801.005432	641.700000
801.041199	646.200000
801.076965	639.100000
801.112793	630.600000
801.148560	625.200000
801.184326	625.700000
801.220154	628.100000
801.255859	619.200000
801.291687	622.400000
801.327454	617.800000
801.363281	614.900000
801.398987	616.300000
801.434814	618.100000
801.470520	628.500000
801.506287	612.900000
801.542114	610.500000
801.577820	611.000000
801.613647	611.400000
801.649414	605.200000
801.685120	602.200000
801.720886	608.800000
801.756714	598.900000
801.792419	589.800000
801.828186	585.500000
801.863892	598.100000
801.899719	590.300000
801.935486	585.800000
801.971252	594.600000
802.006958	585.200000
802.042725	578.000000
802.078430	576.800000
802.114197	574.200000
802.149963	586.700000
802.185669	575.800000
802.221436	575.700000
802.257202	579.500000
802.292908	573.000000
802.328674	579.300000
802.364441	580.700000
802.400146	574.500000
802.435913	571.300000
802.471558	569.200000
802.507324	565.900000
802.543091	556.700000
802.578796	572.300000
802.614502	572.300000
802.650269	573.400000
802.685974	555.800000
802.721741	566.300000
802.757446	566.300000
802.793152	556.300000
802.828918	565.800000
802.864624	565.000000
802.900330	561.100000
802.936035	562.900000
802.971802	559.200000
803.007446	558.700000
803.043213	546.500000
803.078857	552.600000
803.114624	538.300000
803.150330	545.800000
803.185974	538.400000
803.221741	540.600000
803.257446	546.200000
803.293152	550.300000
803.328857	537.400000
803.364563	533.100000
803.400208	527.600000
803.435974	539.700000
803.471680	524.400000
803.507324	525.400000
803.543030	534.700000
803.578735	534.100000
803.614441	522.800000
803.650146	531.600000
803.685791	519.400000
803.721497	526.600000
803.757202	515.000000
803.792847	529.700000
803.828552	520.600000
803.864258	519.200000
803.899902	518.100000
803.935608	504.500000
803.971313	512.400000
804.006958	510.000000
804.042664	506.600000
804.078308	512.000000
804.113953	501.800000
804.149658	510.200000
804.185364	502.600000
804.221008	511.100000
804.256714	501.700000
804.292297	503.200000
804.328003	498.900000
804.363708	491.200000
804.399292	492.300000
804.434998	497.400000
804.470703	488.000000
804.506287	497.200000
804.541992	488.900000
804.577637	495.800000
804.613281	483.400000
804.648926	479.100000
804.684570	485.600000
804.720215	481.000000
804.755920	483.400000
804.791565	478.600000
804.827209	483.900000
804.862854	478.000000
804.898437	471.100000
804.934143	476.200000
804.969788	478.200000
805.005371	476.100000
805.041077	477.900000
805.076721	473.300000
805.112305	466.400000
805.147949	467.300000
805.183655	464.100000
805.219238	467.900000
805.254883	467.000000
805.290466	470.900000
805.326111	464.600000
805.361755	455.900000
805.397400	463.100000
805.432983	467.200000
805.468628	466.700000
805.504211	470.600000
805.539856	465.900000
805.575500	470.700000
805.611084	462.700000
805.646729	449.900000
805.682373	459.400000
805.717957	466.700000
805.753601	467.900000
805.789246	446.800000
805.824768	461.200000
805.860413	464.000000
805.895996	451.100000
805.931641	452.000000
805.967224	458.000000
806.002869	446.000000
806.038452	456.800000
806.074036	453.400000
806.109619	440.800000
806.145264	439.400000
806.180847	441.100000
806.216431	437.200000
806.252014	443.100000
806.287659	445.100000
806.323181	452.800000
806.358826	444.100000
806.394409	424.900000
806.429993	431.200000
806.465576	447.100000
806.501160	431.300000
806.536743	419.100000
806.572327	432.000000
806.607910	430.900000
806.643494	431.800000
806.679077	428.100000
806.714661	431.700000
806.750244	429.300000
806.785828	421.800000
806.821350	423.500000
806.856934	427.000000
806.892517	421.700000
806.928101	414.900000
806.963684	415.400000
806.999268	427.300000
807.034790	406.600000
807.070374	413.500000
807.105896	410.900000
807.141479	407.000000
807.177063	413.300000
807.212585	402.600000
807.248169	405.500000
807.283752	411.600000
807.319275	404.300000
807.354858	407.100000
807.390381	400.500000
807.425903	402.100000
807.461487	399.600000
807.497070	393.200000
807.532593	397.100000
807.568115	396.000000
807.603699	393.500000
807.639221	392.000000
807.674744	394.200000
807.710266	398.700000
807.745850	403.500000
807.781372	393.300000
807.816895	390.100000
807.852417	394.800000
807.888000	392.400000
807.923523	385.500000
807.959045	391.000000
807.994629	376.800000
808.030090	378.700000
808.065613	385.200000
808.101135	389.600000
808.136658	383.800000
808.172241	381.900000
808.207764	381.000000
808.243225	375.200000
808.278809	372.500000
808.314270	382.000000
808.349792	369.300000
808.385315	368.200000
808.420837	371.800000
808.456360	376.500000
808.491882	377.100000
808.527344	369.100000
808.562866	380.300000
808.598389	371.600000
808.633850	366.200000
808.669434	361.400000
808.704895	369.000000
808.740417	377.600000
808.775940	364.800000
808.811462	360.200000
808.846924	355.600000
808.882385	353.200000
808.917847	350.100000
808.953369	355.300000
808.988892	347.600000
809.024353	355.500000
809.059875	357.600000
809.095398	352.100000
809.130798	346.100000
809.166321	346.400000
809.201843	345.600000
809.237305	345.800000
809.272766	353.200000
809.308228	338.900000
809.343750	340.700000
809.379211	342.900000
809.414734	343.400000
809.450134	349.600000
809.485657	334.800000
809.521118	340.900000
809.556580	341.200000
809.592102	337.600000
809.627502	337.500000
809.663025	334.600000
809.698486	332.300000
809.733887	328.500000
809.769409	336.800000
809.804871	323.600000
809.840271	329.400000
809.875793	327.400000
809.911194	334.500000
809.946655	324.900000
809.982178	320.700000
810.017639	325.700000
810.053040	326.400000
810.088501	321.200000
810.123901	322.600000
810.159424	317.600000
810.194885	315.200000
810.230286	319.800000
810.265747	315.300000
810.301208	310.500000
810.336609	313.700000
810.372070	307.200000
810.407532	311.800000
810.442932	310.600000
810.478394	317.300000
810.513794	313.200000
810.549255	311.000000
810.584717	307.700000
810.620117	302.400000
810.655518	313.400000
810.690979	310.400000
810.726379	308.900000
810.761841	298.300000
810.797302	300.400000
810.832642	299.900000
810.868103	310.400000
810.903564	299.900000
810.938904	307.200000
810.974365	294.700000
811.009827	301.200000
811.045166	294.000000
811.080627	288.600000
811.115967	294.300000
811.151428	303.400000
811.186829	293.900000
811.222229	295.300000
811.257629	288.100000
811.293091	294.800000
811.328430	302.900000
811.363892	297.400000
811.399292	299.800000
811.434631	292.100000
811.470093	294.700000
811.505493	287.600000
811.540833	288.800000
811.576294	294.800000
811.611694	288.500000
811.647034	285.000000
811.682434	286.900000
811.717773	288.800000
811.753235	293.000000
811.788635	286.200000
811.823975	288.300000
811.859375	297.000000
811.894775	281.200000
811.930115	284.000000
811.965515	283.500000
812.000916	289.700000
812.036255	283.100000
812.071655	290.200000
812.106995	278.600000
812.142395	283.200000
812.177795	288.700000
812.213196	286.700000
812.248474	287.400000
812.283875	277.300000
812.319214	280.900000
812.354614	282.600000
812.390015	279.300000
812.425293	280.600000
812.460693	278.900000
812.496094	277.000000
812.531433	272.100000
812.566772	272.600000
812.602173	274.700000
812.637451	277.300000
812.672852	274.000000
812.708191	277.600000
812.743530	272.300000
812.778931	265.400000
812.814270	269.900000
812.849609	274.700000
812.884949	269.900000
812.920227	264.300000
812.955627	280.200000
812.990967	269.900000
813.026306	266.500000
813.061646	254.600000
813.096985	253.500000
813.132324	251.300000
813.167664	259.600000
813.203003	262.900000
813.238281	250.900000
813.273682	251.800000
813.308960	250.700000
813.344299	252.300000
813.379639	263.300000
813.414978	254.500000
813.450256	254.600000
813.485596	256.700000
813.520874	250.000000
813.556213	255.400000
813.591614	258.400000
813.626831	248.800000
813.662170	255.400000
813.697510	264.300000
813.732788	247.500000
813.768127	253.300000
813.803467	254.900000
813.838745	249.300000
813.874084	253.800000
813.909363	252.100000
813.944641	252.700000
813.979980	241.400000
814.015320	246.700000
814.050598	243.900000
814.085876	250.300000
814.121155	246.600000
814.156494	243.500000
814.191772	247.200000
814.227051	243.300000
814.262390	245.900000
814.297668	245.700000
814.332947	248.100000
814.368225	240.700000
814.403564	245.400000
814.438782	239.500000
814.474121	242.900000
814.509338	238.600000
814.544617	247.200000
814.579956	237.000000
814.615173	248.600000
814.650513	244.500000
814.685791	237.800000
814.721008	240.400000
814.756348	240.600000
814.791626	236.900000
814.826843	237.400000
814.862122	236.200000
814.897400	235.300000
814.932678	237.600000
814.967957	237.800000
815.003235	235.000000
815.038452	230.400000
815.073730	228.000000
815.108948	240.600000
815.144226	236.200000
815.179504	241.200000
815.214722	224.500000
815.250000	224.800000
815.285278	231.700000
815.320496	227.300000
815.355774	230.100000
815.391052	234.800000
815.426270	229.400000
815.461487	229.400000
815.496765	224.200000
815.531982	220.500000
815.567261	226.100000
815.602539	236.400000
815.637695	229.400000
815.672974	232.000000
815.708191	233.100000
815.743408	234.000000
815.778687	227.200000
815.813904	236.100000
815.849121	217.600000
815.884399	220.600000
815.919556	221.700000
815.954834	223.000000
815.990051	225.300000
816.025269	228.600000
816.060486	219.800000
816.095703	220.300000
816.130920	225.300000
816.166199	220.600000
816.201416	225.700000
816.236572	230.900000
816.271851	220.500000
816.307007	227.300000
816.342224	216.300000
816.377441	220.500000
816.412659	212.400000
816.447876	223.200000
816.483093	220.000000
816.518250	221.000000
816.553467	218.500000
816.588745	221.400000
816.623901	215.700000
816.659119	208.800000
816.694275	216.000000
816.729492	212.500000
816.764709	248.300000
816.799927	208.800000
816.835083	216.000000
816.870300	209.400000
816.905457	213.300000
816.940674	216.100000
816.975830	211.700000
817.010986	208.000000
817.046204	212.400000
817.081421	206.900000
817.116577	207.200000
817.151733	217.500000
817.186951	216.600000
817.222107	213.300000
817.257324	216.300000
817.292419	212.900000
817.327637	205.400000
817.362854	211.300000
817.398010	205.700000
817.433167	207.300000
817.468323	206.800000
817.503479	209.200000
817.538635	217.800000
817.573853	212.200000
817.608948	210.300000
817.644165	205.200000
817.679321	204.100000
817.714478	204.900000
817.749634	208.600000
817.784790	222.700000
817.819946	216.200000
817.855103	197.400000
817.890198	207.200000
817.925415	200.500000
817.960571	208.300000
817.995667	206.600000
818.030823	207.800000
818.066040	202.900000
818.101135	206.400000
818.136292	204.000000
818.171448	198.700000
818.206543	205.200000
818.241699	208.000000
818.276855	204.800000
818.311951	203.300000
818.347107	201.700000
818.382263	206.100000
818.417358	211.700000
818.452515	211.600000
818.487610	212.400000
818.522766	200.600000
818.557922	212.300000
818.593018	208.000000
818.628113	206.500000
818.663269	200.000000
818.698364	203.700000
818.733521	199.900000
818.768677	206.200000
818.803711	198.400000
818.838867	200.800000
818.874023	203.200000
818.909058	200.000000
818.944214	198.100000
818.979370	206.600000
819.014404	203.900000
819.049561	200.800000
819.084595	205.700000
819.119751	196.000000
819.154846	203.700000
819.189941	200.400000
819.225037	196.100000
819.260193	192.700000
819.295227	194.900000
819.330322	190.600000
819.365479	190.700000
819.400513	222.400000
819.435608	189.300000
819.470764	188.300000
819.505798	191.300000
819.540894	194.800000
819.575989	192.600000
819.611084	201.800000
819.646179	202.300000
819.681213	197.100000
819.716309	195.800000
819.751404	194.600000
819.786438	200.200000
819.821533	191.300000
819.856628	197.800000
819.891663	201.200000
819.926758	206.600000
819.961853	202.300000
819.996887	193.000000
820.031982	199.200000
820.067017	195.900000
820.102112	223.600000
820.137207	193.800000
820.172302	210.900000
820.207275	192.200000
820.242371	192.600000
820.277405	193.100000
820.312500	195.400000
820.347534	197.400000
820.382568	200.600000
820.417664	193.500000
820.452759	194.500000
820.487732	191.200000
820.522827	192.400000
820.557861	190.900000
820.592896	192.700000
820.627930	193.600000
820.662964	192.400000
820.698059	197.100000
820.733093	192.700000
820.768127	198.000000
820.803162	194.000000
820.838196	191.400000
820.873230	195.900000
820.908264	194.800000
820.943298	192.300000
820.978333	199.500000
821.013367	194.800000
821.048401	199.400000
821.083435	201.600000
821.118469	186.600000
821.153503	200.300000
821.188477	195.100000
821.223511	187.200000
821.258484	194.000000
821.293579	194.700000
821.328613	186.200000
821.363647	192.800000
821.398621	187.500000
821.433655	189.700000
821.468628	205.600000
821.503662	192.000000
821.538696	194.700000
821.573669	188.700000
821.608704	196.400000
821.643677	191.200000
821.678650	196.700000
821.713684	203.100000
821.748718	191.000000
821.783691	192.900000
821.818726	194.800000
821.853638	194.500000
821.888672	191.000000
821.923706	191.700000
821.958618	189.800000
821.993652	191.400000
822.028687	198.100000
822.063599	200.000000
822.098633	195.100000
822.133667	188.600000
822.168579	191.400000
822.203613	194.900000
822.238586	189.900000
822.273560	194.100000
822.308533	189.400000
822.343567	189.900000
822.378479	191.500000
822.413452	189.800000
822.448425	187.900000
822.483398	198.300000
822.518372	198.000000
822.553345	190.100000
822.588318	201.800000
822.623291	191.700000
822.658203	190.500000
822.693237	193.400000
822.728210	188.000000
822.763123	195.100000
822.798096	189.500000
822.833069	192.400000
822.867981	194.000000
822.902954	194.300000
822.937927	195.200000
822.972900	203.100000
823.007874	186.000000
823.042725	195.300000
823.077698	205.400000
823.112671	188.700000
823.147583	192.700000
823.182556	194.700000
823.217529	198.200000
823.252441	190.100000
823.287415	206.100000
823.322388	194.800000
823.357239	193.400000
823.392212	200.700000
823.427185	196.200000
823.462097	188.500000
823.497009	197.600000
823.531982	189.100000
823.566895	194.000000
823.601807	187.900000
823.636719	190.900000
823.671631	196.600000
823.706604	192.000000
823.741455	193.800000
823.776428	186.700000
823.811340	197.400000
823.846252	199.500000
823.881165	201.300000
823.916138	196.100000
823.950989	201.500000
823.985901	190.400000
824.020813	193.900000
824.055725	191.800000
824.090637	189.900000
824.125610	195.100000
824.160461	193.600000
824.195374	196.200000
824.230225	199.500000
824.265198	186.200000
824.300110	190.600000
824.334961	205.100000
824.369873	184.100000
824.404785	195.700000
824.439636	200.600000
824.474548	185.100000
824.509460	184.800000
824.544312	198.000000
824.579224	196.000000
824.614075	195.000000
824.648987	193.700000
824.683899	191.800000
824.718811	190.400000
824.753662	199.900000
824.788574	197.900000
824.823364	193.800000
824.858276	189.200000
824.893188	198.700000
824.928040	199.500000
824.962952	195.000000
824.997803	197.400000
825.032654	193.600000
825.067566	196.600000
825.102417	189.200000
825.137268	193.700000
825.172119	193.200000
825.206970	189.800000
825.241882	191.100000
825.276733	188.900000
825.311646	190.700000
825.346436	188.200000
825.381348	187.800000
825.416138	193.300000
825.450989	189.100000
825.485901	185.100000
825.520691	183.400000
825.555542	187.100000
825.590454	191.700000
825.625244	185.100000
825.660095	200.700000
825.695007	197.700000
825.729797	190.600000
825.764648	190.300000
825.799438	192.900000
825.834290	193.100000
825.869202	187.100000
825.903992	194.200000
825.938843	191.400000
825.973694	187.200000
826.008484	205.600000
826.043335	187.600000
826.078186	184.500000
826.112976	197.900000
826.147827	199.000000
826.182678	201.700000
826.217468	185.600000
826.252319	196.800000
826.287109	188.600000
826.321899	200.300000
826.356750	191.600000
826.391541	187.100000
826.426392	197.500000
826.461182	192.800000
826.495972	187.800000
826.530823	183.300000
826.565613	192.200000
826.600403	186.200000
826.635254	195.500000
826.670044	183.800000
826.704834	186.100000
826.739685	187.400000
826.774475	195.300000
826.809265	191.700000
826.844055	191.800000
826.878906	197.900000
826.913635	194.800000
826.948425	195.000000
826.983215	193.600000
827.018005	197.300000
827.052856	190.300000
827.087585	195.300000
827.122375	185.900000
827.157227	192.300000
827.191956	205.000000
827.226746	187.000000
827.261536	196.500000
827.296265	185.300000
827.331116	190.400000
827.365906	196.000000
827.400635	188.600000
827.435425	184.300000
827.470215	198.800000
827.504944	192.100000
827.539734	198.300000
827.574463	192.500000
827.609253	199.900000
827.644043	193.800000
827.678772	198.000000
827.713562	190.400000
827.748352	191.200000
827.783081	188.300000
827.817871	192.700000
827.852600	189.100000
827.887329	192.900000
827.922119	183.500000
827.956848	194.800000
827.991638	206.500000
828.026367	193.600000
828.061157	194.100000
828.095886	191.300000
828.130615	206.400000
828.165344	181.300000
828.200073	193.200000
828.234863	190.500000
828.269592	192.000000
828.304321	197.200000
828.339111	193.300000
828.373779	188.500000
828.408569	197.600000
828.443298	196.800000
828.477966	190.300000
828.512756	192.300000
828.547424	186.500000
828.582214	189.400000
828.616943	191.100000
828.651672	189.800000
828.686340	196.800000
828.721130	188.100000
828.755798	191.300000
828.790527	191.900000
828.825256	194.500000
828.859924	193.200000
828.894714	199.400000
828.929443	199.400000
828.964111	188.800000
828.998840	189.200000
829.033569	188.500000
829.068237	188.900000
829.102966	190.500000
829.137634	194.800000
829.172363	194.400000
829.207092	193.600000
829.241821	188.400000
829.276489	184.000000
829.311157	191.600000
829.345825	190.600000
829.380554	197.100000
829.415283	189.200000
829.449951	186.000000
829.484619	200.700000
829.519348	200.000000
829.554016	192.100000
829.588745	191.300000
829.623413	186.700000
829.658081	202.800000
829.692749	184.700000
829.727417	196.700000
829.762146	194.700000
829.796814	187.600000
829.831482	191.300000
829.866150	192.900000
829.900879	189.900000
829.935486	195.000000
829.970154	190.800000
830.004883	203.100000
830.039490	192.100000
830.074219	188.300000
830.108887	193.000000
830.143494	191.400000
830.178223	187.200000
830.212891	190.800000
830.247498	191.900000
830.282166	199.800000
830.316772	198.900000
830.351501	189.100000
830.386169	192.000000
830.420776	190.600000
830.455444	192.300000
830.490112	188.900000
830.524719	183.600000
830.559387	193.700000
830.594055	195.100000
830.628662	191.200000
830.663330	192.800000
830.697998	200.600000
830.732605	192.500000
830.767273	193.800000
830.801941	192.600000
830.836487	201.300000
830.871155	195.200000
830.905762	195.300000
830.940430	185.400000
830.975098	188.800000
831.009644	192.700000
831.044312	201.000000
831.078979	194.300000
831.113525	183.900000
831.148193	193.300000
831.182861	191.800000
831.217407	193.600000
831.252075	210.300000
831.286621	188.200000
831.321289	187.800000
831.355896	191.400000
831.390564	200.600000
831.425110	193.000000
831.459778	199.200000
831.494324	204.200000
831.528931	195.100000
831.563599	195.600000
831.598145	186.200000
831.632751	191.100000
831.667419	191.300000
831.701965	194.200000
831.736572	195.200000
831.771179	184.800000
831.805786	189.900000
831.840393	197.600000
831.874939	183.900000
831.909546	195.800000
831.944153	183.200000
831.978760	189.700000
832.013306	188.500000
832.047913	197.700000
832.082458	200.400000
832.117065	188.900000
832.151672	201.400000
832.186218	192.100000
832.220825	196.600000
832.255432	184.400000
832.289978	189.200000
832.324585	194.400000
832.359192	194.900000
832.393677	190.000000
832.428284	193.500000
832.462830	191.300000
832.497437	191.700000
832.531982	196.900000
832.566589	192.200000
832.601135	193.600000
832.635681	183.400000
832.670227	192.600000
832.704773	200.400000
832.739380	193.900000
832.773926	192.000000
832.808472	189.300000
832.843079	192.600000
832.877563	196.000000
832.912170	189.900000
832.946716	183.800000
832.981201	198.100000
833.015808	194.800000
833.050293	190.800000
833.084839	187.900000
833.119446	189.000000
833.153992	195.800000
833.188477	191.900000
833.223022	188.100000
833.257568	192.600000
833.292114	198.600000
833.326660	202.600000
833.361145	190.500000
833.395691	183.700000
833.430237	190.400000
833.464783	194.200000
833.499329	188.000000
833.533875	185.300000
833.568359	195.900000
833.602905	196.700000
833.637390	197.700000
833.671875	189.200000
833.706421	191.100000
833.740906	188.400000
833.775452	182.900000
833.809998	190.600000
833.844482	200.100000
833.879028	190.700000
833.913513	190.300000
833.947998	194.200000
833.982544	189.200000
834.017090	189.900000
834.051514	181.200000
834.086060	196.400000
834.120544	192.500000
834.155029	194.700000
834.189575	190.600000
834.223999	195.500000
834.258545	192.900000
834.293030	192.900000
834.327515	192.400000
834.362000	189.100000
834.396545	196.000000
834.430969	191.900000
834.465454	194.800000
834.500000	183.900000
834.534424	193.300000
834.568970	182.800000
834.603455	182.900000
834.637878	188.600000
834.672363	191.600000
834.706909	193.600000
834.741333	191.500000
834.775818	183.200000
834.810242	185.300000
834.844727	193.000000
834.879211	189.600000
834.913635	193.600000
834.948181	193.700000
834.982666	193.900000
835.017090	189.700000
835.051575	194.500000
835.086060	187.300000
835.120483	197.500000
835.154907	196.000000
835.189331	191.600000
835.223816	194.200000
835.258301	186.800000
835.292786	187.200000
835.327209	197.300000
835.361694	187.800000
835.396057	189.000000
835.430542	193.600000
835.465027	192.800000
835.499390	185.600000
835.533875	212.500000
835.568359	191.000000
835.602722	185.200000
835.637207	193.000000
835.671692	186.200000
835.706055	208.700000
835.740540	194.200000
835.774902	195.400000
835.809387	193.200000
835.843811	185.300000
835.878235	200.300000
835.912659	185.700000
835.947083	186.600000
835.981506	193.000000
836.015930	184.800000
836.050354	197.000000
836.084778	200.300000
836.119202	198.400000
836.153625	204.500000
836.187988	187.900000
836.222473	188.200000
836.256897	193.800000
836.291260	190.000000
836.325684	194.800000
836.360046	190.700000
836.394470	190.300000
836.428894	197.400000
836.463318	190.300000
836.497681	196.500000
836.532104	199.800000
836.566467	192.600000
836.600891	190.900000
836.635315	198.400000
836.669678	194.100000
836.704102	195.100000
836.738525	193.000000
836.772888	182.700000
836.807251	190.000000
836.841675	193.900000
836.876038	187.400000
836.910461	187.300000
836.944763	196.900000
836.979187	188.300000
837.013611	198.900000
837.047974	185.700000
837.082336	204.000000
837.116699	195.400000
837.151062	192.000000
837.185486	186.000000
837.219849	190.800000
837.254211	195.800000
837.288574	192.400000
837.322937	187.200000
837.357300	180.200000
837.391663	206.500000
837.426086	198.300000
837.460388	192.900000
837.494751	196.400000
837.529114	189.800000
837.563477	197.500000
837.597839	193.200000
837.632141	193.000000
837.666565	189.700000
837.700928	194.400000
837.735229	194.800000
837.769592	193.800000
837.803955	196.500000
837.838257	191.000000
837.872620	187.900000
837.906982	200.400000
837.941284	192.100000
837.975647	192.700000
838.010010	198.100000
838.044312	190.100000
838.078674	189.400000
838.112976	193.000000
838.147339	195.500000
838.181702	191.600000
838.216003	202.300000
838.250366	194.100000
838.284668	196.300000
838.318970	183.100000
838.353333	193.400000
838.387634	190.400000
838.421936	192.400000
838.456299	193.100000
838.490601	200.400000
838.524902	195.600000
838.559265	196.800000
838.593567	195.600000
838.627869	187.500000
838.662170	195.400000
838.696472	185.500000
838.730774	188.500000
838.765137	197.500000
838.799377	177.100000
838.833740	193.900000
838.868042	198.900000
838.902283	185.100000
838.936646	197.700000
838.970947	194.900000
839.005188	197.800000
839.039551	186.000000
839.073792	199.300000
839.108093	190.600000
839.142395	203.700000
839.176697	185.300000
839.210937	193.700000
839.245300	203.200000
839.279541	186.200000
839.313843	190.800000
839.348145	196.900000
839.382385	196.200000
839.416687	198.500000
839.450989	194.900000
839.485229	191.600000
839.519531	187.800000
839.553833	198.100000
839.588013	191.900000
839.622314	193.000000
839.656555	193.200000
839.690857	190.900000
839.725159	185.400000
839.759460	191.400000
839.793640	190.400000
839.827942	191.800000
839.862183	187.600000
839.896423	192.900000
839.930725	200.100000
839.964966	199.900000
839.999207	200.200000
840.033508	200.400000
840.067688	189.600000
840.101990	202.700000
840.136230	192.500000
840.170471	201.600000
840.204712	188.900000
840.238953	187.800000
840.273193	193.100000
840.307434	195.800000
840.341736	186.500000
840.375916	186.400000
840.410217	189.400000
840.444397	197.900000
840.478638	196.000000
840.512878	199.800000
840.547119	193.100000
840.581360	195.600000
840.615601	203.900000
840.649780	201.400000
840.684021	193.500000
840.718262	200.900000
840.752441	198.300000
840.786682	193.900000
840.820862	195.100000
840.855103	199.700000
840.889343	193.900000
840.923584	196.300000
840.957764	194.900000
840.992004	195.000000
841.026184	206.600000
841.060425	190.700000
841.094666	190.200000
841.128845	195.800000
841.163025	193.800000
841.197266	194.800000
841.231445	194.300000
841.265686	193.300000
841.299866	188.600000
841.334045	199.800000
841.368286	191.800000
841.402405	199.000000
841.436646	197.700000
841.470825	189.200000
841.505005	191.600000
841.539185	186.500000
841.573425	189.000000
841.607544	192.400000
841.641785	193.800000
841.675964	186.800000
841.710144	193.600000
841.744324	191.100000
841.778503	192.600000
841.812683	188.400000
841.846863	202.000000
841.881042	199.300000
841.915222	190.500000
841.949402	207.400000
841.983521	184.400000
842.017700	191.200000
842.051880	194.300000
842.086060	194.300000
842.120239	194.300000
842.154419	190.300000
842.188538	194.800000
842.222717	189.400000
842.256897	203.600000
842.291016	191.200000
842.325195	195.100000
842.359375	204.700000
842.393494	201.800000
842.427673	193.700000
842.461853	195.600000
842.495911	201.700000
842.530090	195.600000
842.564209	193.000000
842.598389	194.900000
842.632568	194.700000
842.666626	197.400000
842.700806	191.000000
842.734985	191.500000
842.769043	197.500000
842.803223	191.200000
842.837402	192.300000
842.871460	189.900000
842.905640	202.100000
842.939697	188.200000
842.973877	196.200000
843.007996	198.700000
843.042175	201.900000
843.076233	189.400000
843.110413	195.200000
843.144470	200.200000
843.178589	198.300000
843.212769	189.100000
843.246826	197.300000
843.280945	190.800000
843.315125	190.500000
843.349182	189.300000
843.383301	200.700000
843.417419	204.000000
843.451538	193.800000
843.485657	192.100000
843.519714	192.300000
843.553833	194.400000
843.587952	191.800000
843.622070	188.800000
843.656128	197.700000
843.690247	191.000000
843.724304	191.200000
843.758423	194.600000
843.792542	192.500000
843.826599	193.200000
843.860718	191.900000
843.894836	186.300000
843.928894	193.000000
843.963013	195.900000
843.997070	189.200000
844.031128	186.200000
844.065247	198.600000
844.099304	198.100000
844.133362	193.800000
844.167480	196.800000
844.201599	200.500000
844.235596	196.300000
844.269714	194.400000
844.303711	196.200000
844.337830	184.200000
844.371948	197.500000
844.405945	191.300000
844.440063	188.700000
844.474121	206.100000
844.508118	192.800000
844.542236	191.800000
844.576294	193.500000
844.610352	186.000000
844.644409	192.200000
844.678406	182.900000
844.712524	197.900000
844.746582	199.600000
844.780640	192.700000
844.814636	193.100000
844.848755	203.200000
844.882751	191.200000
844.916809	198.800000
844.950867	196.100000
844.984863	203.100000
845.018921	193.100000
845.052979	189.900000
845.086975	194.200000
845.121033	187.200000
845.155090	188.900000
845.189087	201.400000
845.223145	191.300000
845.257141	193.500000
845.291199	196.100000
845.325256	202.000000
845.359253	193.100000
845.393250	204.700000
845.427307	193.400000
845.461304	195.400000
845.495361	194.200000
845.529358	204.400000
845.563354	191.200000
845.597412	189.500000
845.631409	201.500000
845.665405	199.600000
845.699463	200.200000
845.733459	193.200000
845.767456	200.800000
845.801453	191.800000
845.835449	200.200000
845.869446	198.200000
845.903503	198.700000
845.937439	190.300000
845.971497	200.600000
846.005493	187.700000
846.039429	197.600000
846.073486	204.100000
846.107483	191.600000
846.141418	193.000000
846.175476	194.300000
846.209473	199.100000
846.243408	189.700000
846.277405	194.100000
846.311401	189.400000
846.345337	193.000000
846.379395	199.900000
846.413330	190.500000
846.447327	201.300000
846.481323	187.100000
846.515259	190.800000
846.549255	194.000000
846.583252	195.600000
846.617187	189.100000
846.651184	195.300000
846.685120	191.500000
846.719055	202.300000
846.753052	198.800000
846.786987	198.300000
846.820984	188.800000
846.854980	201.500000
846.888916	189.200000
846.922852	197.200000
846.956848	202.400000
846.990723	189.700000
847.024719	195.300000
847.058716	192.300000
847.092590	202.000000
847.126587	196.600000
847.160522	191.400000
847.194458	197.100000
847.228455	189.500000
847.262390	187.700000
847.296265	192.100000
847.330261	200.200000
847.364136	192.000000
847.398132	190.200000
847.432068	194.300000
847.466003	190.900000
847.499939	193.700000
847.533875	196.700000
847.567749	191.200000
847.601746	190.900000
847.635681	197.900000
847.669556	183.800000
847.703491	198.800000
847.737427	207.600000
847.771301	189.200000
847.805237	194.500000
847.839233	194.300000
847.873108	191.000000
847.907043	193.400000
847.940918	198.000000
847.974854	196.100000
848.008789	196.800000
848.042664	194.900000
848.076538	196.300000
848.110474	194.800000
848.144348	194.200000
848.178284	188.300000
848.212219	193.300000
848.246094	191.700000
848.279968	194.600000
848.313904	197.600000
848.347778	194.500000
848.381653	195.300000
848.415588	190.000000
848.449463	191.300000
848.483337	196.200000
848.517212	199.400000
848.551086	194.100000
848.585022	190.700000
848.618835	202.300000
848.652771	190.900000
848.686646	190.200000
848.720520	203.900000
848.754395	193.900000
848.788330	197.700000
848.822144	198.300000
848.856018	192.500000
848.889954	204.600000
848.923767	189.900000
848.957642	191.100000
848.991577	196.900000
849.025391	192.800000
849.059265	192.900000
849.093079	191.400000
849.126953	188.100000
849.160828	199.100000
849.194641	193.500000
849.228577	191.100000
849.262451	193.000000
849.296265	191.900000
849.330139	190.000000
849.364014	195.500000
849.397827	196.700000
849.431702	192.600000
849.465515	197.000000
849.499329	184.900000
849.533203	186.600000
849.567078	184.400000
849.600891	196.600000
849.634766	192.300000
849.668518	198.000000
849.702393	194.900000
849.736267	184.500000
849.770020	205.500000
849.803894	198.300000
849.837769	194.200000
849.871521	193.600000
849.905396	200.000000
849.939270	188.800000
849.973022	192.800000
850.006897	198.000000
850.040710	196.500000
850.074524	197.800000
850.108337	192.300000
850.142151	197.600000
850.175964	201.000000
850.209778	192.700000
850.243530	181.300000
850.277405	199.100000
850.311218	193.500000
850.344971	191.600000
850.378845	203.600000
850.412659	191.000000
850.446411	194.200000
850.480225	194.100000
850.514038	200.700000
850.547791	197.300000
850.581665	194.100000
850.615417	191.500000
850.649231	194.300000
850.683044	193.500000
850.716858	192.400000
850.750610	193.500000
850.784424	197.700000
850.818176	190.700000
850.851929	191.500000
850.885742	191.300000
850.919495	192.200000
850.953308	200.400000
850.987122	200.900000
851.020874	188.800000
851.054626	184.900000
851.088440	197.700000
851.122192	196.400000
851.156006	195.100000
851.189697	191.700000
851.223511	189.600000
851.257263	197.000000
851.291077	197.200000
851.324829	192.100000
851.358582	191.300000
851.392334	190.600000
851.426086	193.000000
851.459900	200.700000
851.493591	194.900000
851.527344	194.500000
851.561157	193.500000
851.594849	196.400000
851.628662	196.500000
851.662415	201.400000
851.696106	197.000000
851.729858	198.300000
851.763611	188.300000
851.797363	194.900000
851.831116	189.200000
851.864868	196.600000
851.898560	198.700000
851.932312	191.600000
851.966064	196.100000
851.999817	193.300000
852.033569	194.700000
852.067261	197.700000
852.101013	190.400000
852.134766	193.800000
852.168457	183.800000
852.202209	198.700000
852.235901	189.300000
852.269592	196.300000
852.303345	202.100000
852.337036	197.300000
852.370789	193.700000
852.404541	198.300000
852.438171	189.200000
852.471924	193.500000
852.505676	186.100000
852.539307	194.600000
852.573059	189.100000
852.606812	192.000000
852.640442	191.800000
852.674194	200.100000
852.707886	203.300000
852.741577	202.700000
852.775269	188.000000
852.809021	195.100000
852.842651	195.000000
852.876404	199.100000
852.910034	194.600000
852.943787	200.200000
852.977478	196.200000
853.011108	190.200000
853.044861	190.500000
853.078552	201.100000
853.112183	196.600000
853.145874	196.900000
853.179626	184.100000
853.213257	195.500000
853.246948	192.400000
853.280640	202.400000
853.314270	193.600000
853.347961	201.500000
853.381653	195.900000
853.415283	198.600000
853.448975	191.300000
853.482605	195.200000
853.516296	194.200000
853.549988	189.400000
853.583618	195.100000
853.617310	196.500000
853.651001	196.200000
853.684631	189.300000
853.718323	192.200000
853.751953	202.200000
853.785583	185.500000
853.819275	197.900000
853.852966	197.300000
853.886536	184.800000
853.920227	187.600000
853.953918	197.300000
853.987488	192.800000
854.021179	196.800000
854.054749	202.200000
854.088440	195.400000
854.122131	190.500000
854.155701	197.400000
854.189331	191.800000
854.223022	197.100000
854.256592	196.200000
854.290283	189.600000
854.323914	198.100000
854.357483	194.800000
854.391174	196.500000
854.424744	203.500000
854.458374	197.500000
854.492065	204.000000
854.525696	195.800000
854.559265	201.000000
854.592896	206.500000
854.626465	194.800000
854.660095	194.100000
854.693787	194.900000
854.727356	193.400000
854.760986	198.600000
854.794617	196.900000
854.828186	192.300000
854.861816	197.400000
854.895447	194.000000
854.929016	195.700000
854.962585	196.600000
854.996155	202.600000
855.029785	195.800000
855.063416	198.100000
855.097046	197.200000
855.130615	189.100000
855.164185	200.600000
855.197754	195.900000
855.231384	196.500000
855.264954	193.200000
855.298523	198.100000
855.332153	195.300000
855.365723	203.500000
855.399292	190.800000
855.432922	194.900000
855.466492	197.000000
855.500061	189.700000
855.533630	190.800000
855.567200	198.300000
855.600769	199.100000
855.634338	199.800000
855.667969	195.600000
855.701477	190.600000
855.735046	188.700000
855.768616	186.700000
855.802185	195.800000
855.835754	209.700000
855.869324	184.400000
855.902893	192.700000
855.936401	199.900000
855.969971	195.100000
856.003540	187.000000
856.037109	199.600000
856.070618	193.400000
856.104187	188.300000
856.137695	191.600000
856.171265	185.200000
856.204834	192.300000
856.238403	200.200000
856.271912	191.200000
856.305481	197.400000
856.338989	187.700000
856.372559	197.100000
856.406128	193.300000
856.439636	199.600000
856.473145	192.800000
856.506653	202.100000
856.540222	195.500000
856.573792	201.800000
856.607300	198.600000
856.640808	188.500000
856.674377	195.900000
856.707825	223.600000
856.741394	199.300000
856.774902	191.000000
856.808472	186.200000
856.841980	197.200000
856.875488	202.900000
856.908936	186.500000
856.942505	192.700000
856.976013	193.700000
857.009521	188.600000
857.043030	195.300000
857.076477	193.600000
857.110046	200.000000
857.143555	195.800000
857.177063	199.400000
857.210571	190.500000
857.244080	187.000000
857.277527	196.300000
857.311035	193.300000
857.344543	198.300000
857.378052	192.800000
857.411499	199.300000
857.445068	203.000000
857.478516	193.100000
857.512024	188.000000
857.545532	192.300000
857.578979	195.700000
857.612427	194.300000
857.645874	191.400000
857.679382	195.800000
857.712891	198.600000
857.746399	195.400000
857.779846	199.800000
857.813354	200.000000
857.846741	193.600000
857.880249	190.600000
857.913757	196.300000
857.947266	196.400000
857.980652	198.200000
858.014160	192.400000
858.047546	192.000000
858.081055	193.500000
858.114563	202.200000
858.147949	189.000000
858.181458	197.600000
858.214844	194.300000
858.248352	185.100000
858.281799	199.600000
858.315308	207.800000
858.348694	198.900000
858.382141	202.900000
858.415588	197.300000
858.449036	200.600000
858.482483	197.600000
858.515930	191.200000
858.549377	193.700000
858.582825	202.200000
858.616211	196.000000
858.649658	196.900000
858.683105	188.400000
858.716553	190.600000
858.750000	188.400000
858.783386	194.000000
858.816833	185.400000
858.850281	196.100000
858.883728	196.700000
858.917114	193.600000
858.950562	202.300000
858.983948	203.800000
859.017395	198.200000
859.050781	192.500000
859.084167	189.800000
859.117615	187.100000
859.151062	197.200000
859.184448	191.500000
859.217834	191.600000
859.251282	192.100000
859.284668	189.300000
859.318054	185.700000
859.351440	190.700000
859.384888	202.400000
859.418274	184.200000
859.451721	185.400000
859.485046	196.700000
859.518494	196.200000
859.551819	189.900000
859.585266	197.900000
859.618652	197.300000
859.652039	188.800000
859.685425	188.700000
859.718811	188.900000
859.752197	182.800000
859.785583	201.300000
859.819031	201.200000
859.852356	197.400000
859.885742	191.500000
859.919067	193.800000
859.952454	193.100000
859.985901	199.200000
860.019287	192.800000
860.052612	0.000000
860.085999	0.000000
860.119324	0.000000
860.152710	0.000000
860.186096	0.000000
860.219421	0.000000
860.252808	0.000000
860.286133	0.000000
860.319519	0.000000
860.352905	0.000000
860.386292	0.000000
860.419617	0.000000
860.452942	0.000000
860.486267	0.000000
860.519653	0.000000
860.553040	0.000000
860.586365	0.000000
860.619690	0.000000
860.653076	0.000000
860.686340	0.000000
860.719727	0.000000
860.753113	0.000000
860.786377	0.000000
860.819763	0.000000
860.853027	0.000000
860.886414	0.000000
860.919739	0.000000
860.953125	0.000000
860.986389	0.000000
861.019714	0.000000
861.053040	0.000000
861.086365	0.000000
861.119690	0.000000
861.153076	0.000000
861.186340	0.000000
861.219666	0.000000
861.252930	0.000000
861.286316	0.000000
861.319641	0.000000
861.352905	0.000000
861.386230	0.000000
861.419495	0.000000
861.452820	0.000000
861.486145	0.000000
861.519470	0.000000
861.552734	0.000000
861.586060	0.000000
861.619324	0.000000
861.652649	0.000000
861.685974	0.000000
861.719238	0.000000
861.752563	0.000000
861.785828	0.000000
861.819092	0.000000
861.852417	0.000000
861.885742	0.000000
861.918945	0.000000
861.952271	0.000000
861.985535	0.000000
862.018799	0.000000
862.052124	0.000000
862.085449	0.000000
862.118652	0.000000
862.151978	0.000000
862.185181	0.000000
862.218506	0.000000
862.251770	0.000000
862.285034	0.000000
862.318298	0.000000
862.351562	0.000000
862.384827	0.000000
862.418091	0.000000
862.451355	0.000000
862.484619	0.000000
862.517883	0.000000
862.551086	0.000000
862.584351	0.000000
862.617676	0.000000
862.650940	0.000000
862.684143	0.000000
862.717407	0.000000
862.750610	0.000000
862.783875	0.000000
862.817139	0.000000
862.850342	0.000000
862.883606	0.000000
862.916870	0.000000
862.950073	0.000000
862.983337	0.000000
863.016602	0.000000
863.049805	0.000000
863.083069	0.000000
863.116211	0.000000
863.149475	0.000000
863.182739	0.000000
863.216003	0.000000
863.249146	0.000000
863.282410	0.000000
863.315613	0.000000
863.348816	0.000000
863.382080	0.000000
863.415222	0.000000
863.448486	0.000000
863.481689	0.000000
863.514893	0.000000
863.548157	0.000000
863.581360	0.000000
863.614502	0.000000
863.647766	0.000000
863.680908	0.000000
863.714172	0.000000
863.747375	0.000000
863.780579	0.000000
863.813721	0.000000
863.846985	0.000000
863.880127	0.000000
863.913330	0.000000
863.946533	0.000000
863.979675	0.000000
864.012939	0.000000
