Model Number: SPM-001-M   
Serial Number: 10090201
Firmware Version: 004.17.6
Exposure Time: 500000.000000us
Data Taken on: 10-03-2021 11:18:00.483
Wavelength	Amplitude
733.770752	0.000000
733.808716	0.000000
733.846619	0.000000
733.884583	0.000000
733.922546	0.000000
733.960449	0.000000
733.998413	0.000000
734.036377	0.000000
734.074219	0.000000
734.112183	0.000000
734.150085	0.000000
734.188049	0.000000
734.226013	0.000000
734.263916	0.000000
734.301819	0.000000
734.339783	0.000000
734.377686	0.000000
734.415588	0.000000
734.453552	0.000000
734.491455	0.000000
734.529419	0.000000
734.567322	0.000000
734.605225	0.000000
734.643127	0.000000
734.681091	0.000000
734.718994	0.000000
734.756897	0.000000
734.794800	0.000000
734.832703	0.000000
734.870667	0.000000
734.908508	0.000000
734.946472	0.000000
734.984375	0.000000
735.022278	0.000000
735.060181	0.000000
735.098083	0.000000
735.135986	0.000000
735.173889	0.000000
735.211792	0.000000
735.249695	0.000000
735.287598	0.000000
735.325439	0.000000
735.363403	0.000000
735.401306	0.000000
735.439148	0.000000
735.477051	0.000000
735.515015	0.000000
735.552856	0.000000
735.590759	0.000000
735.628662	0.000000
735.666504	0.000000
735.704407	0.000000
735.742310	0.000000
735.780212	0.000000
735.818115	0.000000
735.856018	0.000000
735.893860	0.000000
735.931763	0.000000
735.969604	0.000000
736.007507	0.000000
736.045410	0.000000
736.083252	0.000000
736.121094	0.000000
736.158997	0.000000
736.196838	0.000000
736.234741	0.000000
736.272644	0.000000
736.310486	0.000000
736.348389	0.000000
736.386230	0.000000
736.424072	0.000000
736.461975	0.000000
736.499878	0.000000
736.537720	0.000000
736.575562	0.000000
736.613403	0.000000
736.651306	0.000000
736.689148	0.000000
736.726990	0.000000
736.764893	0.000000
736.802734	0.000000
736.840576	0.000000
736.878418	0.000000
736.916321	0.000000
736.954102	0.000000
736.992004	0.000000
737.029846	0.000000
737.067688	0.000000
737.105530	0.000000
737.143372	0.000000
737.181213	0.000000
737.219116	0.000000
737.256897	0.000000
737.294739	0.000000
737.332642	0.000000
737.370422	0.000000
737.408325	0.000000
737.446167	0.000000
737.483948	0.000000
737.521790	0.000000
737.559692	0.000000
737.597473	0.000000
737.635315	0.000000
737.673157	0.000000
737.710999	0.000000
737.748840	0.000000
737.786621	0.000000
737.824463	0.000000
737.862305	0.000000
737.900085	0.000000
737.937927	0.000000
737.975769	0.000000
738.013550	0.000000
738.051392	0.000000
738.089233	0.000000
738.127014	0.000000
738.164856	0.000000
738.202698	0.000000
738.240479	0.000000
738.278320	0.000000
738.316162	0.000000
738.353943	0.000000
738.391785	0.000000
738.429565	0.000000
738.467407	0.000000
738.505188	0.000000
738.542969	0.000000
738.580811	0.000000
738.618652	0.000000
738.656372	0.000000
738.694214	0.000000
738.732056	0.000000
738.769836	0.000000
738.807617	0.000000
738.845459	0.000000
738.883240	0.000000
738.921021	0.000000
738.958862	0.000000
738.996582	0.000000
739.034424	0.000000
739.072205	0.000000
739.109985	0.000000
739.147827	0.000000
739.185547	0.000000
739.223389	0.000000
739.261169	0.000000
739.298889	0.000000
739.336731	0.000000
739.374512	0.000000
739.412292	0.000000
739.450073	0.000000
739.487854	0.000000
739.525635	0.000000
739.563416	0.000000
739.601135	0.000000
739.638977	0.000000
739.676758	0.000000
739.714478	0.000000
739.752258	0.000000
739.790100	0.000000
739.827820	0.000000
739.865601	0.000000
739.903381	0.000000
739.941101	0.000000
739.978882	196.400000
740.016724	193.900000
740.054443	199.200000
740.092224	190.900000
740.130005	190.400000
740.167725	190.800000
740.205505	191.100000
740.243225	200.800000
740.281006	194.400000
740.318787	187.500000
740.356506	199.600000
740.394287	197.600000
740.432068	190.700000
740.469727	187.300000
740.507507	196.400000
740.545288	192.700000
740.583008	198.000000
740.620789	194.500000
740.658569	184.500000
740.696228	192.600000
740.734009	199.000000
740.771790	181.500000
740.809509	197.400000
740.847229	188.100000
740.884949	190.200000
740.922729	185.900000
740.960449	191.600000
740.998169	187.400000
741.035950	189.800000
741.073669	194.700000
741.111389	193.300000
741.149170	203.200000
741.186890	204.800000
741.224609	197.900000
741.262329	194.900000
741.300110	203.600000
741.337769	187.500000
741.375549	187.200000
741.413208	194.300000
741.450989	188.800000
741.488708	191.500000
741.526367	191.300000
741.564148	196.600000
741.601868	197.800000
741.639526	194.000000
741.677307	195.500000
741.715027	195.000000
741.752686	190.100000
741.790466	200.900000
741.828186	197.700000
741.865845	188.200000
741.903564	185.900000
741.941345	192.900000
741.979004	190.200000
742.016724	196.000000
742.054382	195.200000
742.092102	200.100000
742.129822	186.900000
742.167480	191.100000
742.205200	191.700000
742.242920	195.900000
742.280640	199.600000
742.318359	190.600000
742.356079	191.100000
742.393738	198.200000
742.431396	193.100000
742.469116	197.300000
742.506775	184.400000
742.544495	195.700000
742.582214	196.800000
742.619873	192.200000
742.657593	200.800000
742.695251	197.600000
742.732971	191.600000
742.770630	195.300000
742.808289	193.800000
742.846008	193.900000
742.883728	195.500000
742.921326	194.000000
742.959045	190.700000
742.996765	193.900000
743.034424	192.700000
743.072083	191.400000
743.109802	194.500000
743.147400	187.500000
743.185120	194.100000
743.222839	192.800000
743.260437	199.300000
743.298157	196.900000
743.335754	184.900000
743.373474	192.400000
743.411133	186.100000
743.448792	194.400000
743.486450	194.800000
743.524170	188.500000
743.561768	194.400000
743.599487	200.800000
743.637146	205.500000
743.674744	192.200000
743.712463	191.900000
743.750122	196.000000
743.787720	197.000000
743.825439	191.400000
743.863037	190.900000
743.900696	193.900000
743.938416	218.600000
743.976013	194.200000
744.013672	202.300000
744.051331	198.900000
744.088928	203.300000
744.126587	200.400000
744.164307	194.500000
744.201904	192.400000
744.239563	197.100000
744.277222	197.000000
744.314819	192.100000
744.352478	200.300000
744.390137	195.100000
744.427734	196.200000
744.465393	191.200000
744.502991	187.600000
744.540649	197.400000
744.578308	195.300000
744.615906	188.200000
744.653564	183.800000
744.691223	198.100000
744.728821	187.000000
744.766418	193.000000
744.804077	194.900000
744.841675	190.400000
744.879333	186.600000
744.916992	193.100000
744.954529	191.300000
744.992187	199.100000
745.029785	193.000000
745.067444	190.500000
745.105042	194.700000
745.142639	195.900000
745.180298	202.300000
745.217896	192.500000
745.255493	192.600000
745.293152	198.800000
745.330750	197.900000
745.368347	202.800000
745.405945	197.300000
745.443604	195.700000
745.481140	198.300000
745.518799	192.500000
745.556396	197.500000
745.593994	198.600000
745.631592	192.800000
745.669189	189.100000
745.706787	195.100000
745.744385	189.000000
745.781982	196.300000
745.819580	190.300000
745.857178	192.500000
745.894775	194.400000
745.932373	195.300000
745.969971	194.600000
746.007568	185.000000
746.045166	203.800000
746.082764	199.300000
746.120300	197.900000
746.157898	197.200000
746.195557	194.800000
746.233093	187.100000
746.270691	197.400000
746.308228	195.800000
746.345825	199.000000
746.383423	198.600000
746.420959	188.600000
746.458557	190.900000
746.496155	192.000000
746.533691	193.900000
746.571289	188.100000
746.608887	195.300000
746.646423	194.900000
746.684021	194.900000
746.721619	189.800000
746.759155	195.100000
746.796753	187.500000
746.834351	188.300000
746.871826	190.300000
746.909424	202.300000
746.946960	197.200000
746.984558	192.000000
747.022156	191.700000
747.059631	202.200000
747.097229	195.900000
747.134827	191.600000
747.172363	201.500000
747.209900	196.600000
747.247498	189.400000
747.285034	201.400000
747.322571	201.400000
747.360168	192.500000
747.397644	187.200000
747.435242	198.600000
747.472778	200.800000
747.510315	190.800000
747.547913	192.000000
747.585388	202.100000
747.622925	193.300000
747.660522	184.800000
747.697998	189.800000
747.735596	192.800000
747.773132	190.200000
747.810669	193.900000
747.848206	197.800000
747.885742	187.300000
747.923279	188.800000
747.960815	196.000000
747.998352	194.300000
748.035889	199.000000
748.073425	198.900000
748.110901	191.700000
748.148437	190.000000
748.185974	194.200000
748.223511	204.200000
748.261047	194.200000
748.298584	196.100000
748.336060	193.000000
748.373596	196.900000
748.411133	212.000000
748.448608	188.800000
748.486145	197.100000
748.523682	202.400000
748.561218	199.100000
748.598755	195.100000
748.636292	198.000000
748.673706	191.400000
748.711243	200.400000
748.748718	196.500000
748.786255	193.900000
748.823792	194.100000
748.861267	189.400000
748.898804	197.100000
748.936340	197.300000
748.973816	193.000000
749.011292	198.800000
749.048828	196.700000
749.086304	198.100000
749.123840	205.800000
749.161316	188.700000
749.198792	205.400000
749.236328	199.700000
749.273743	195.400000
749.311279	192.800000
749.348816	196.800000
749.386230	194.500000
749.423767	181.300000
749.461304	197.100000
749.498718	195.100000
749.536255	201.800000
749.573730	207.000000
749.611206	199.700000
749.648682	192.700000
749.686218	193.700000
749.723633	198.700000
749.761169	192.500000
749.798645	189.700000
749.836060	192.200000
749.873596	188.900000
749.911011	194.700000
749.948547	199.800000
749.986023	194.100000
750.023437	193.700000
750.060913	186.900000
750.098450	187.400000
750.135864	193.700000
750.173340	195.300000
750.210815	198.800000
750.248291	188.300000
750.285767	193.400000
750.323242	201.900000
750.360657	196.200000
750.398132	189.100000
750.435608	200.000000
750.473022	190.100000
750.510498	189.800000
750.547974	191.800000
750.585449	191.000000
750.622925	182.700000
750.660339	203.400000
750.697815	195.700000
750.735291	193.600000
750.772644	196.600000
750.810120	193.100000
750.847595	197.800000
750.885010	190.400000
750.922485	203.900000
750.959961	192.800000
750.997375	201.700000
751.034851	199.300000
751.072266	199.700000
751.109680	187.400000
751.147156	198.700000
751.184570	197.900000
751.221985	195.800000
751.259460	184.500000
751.296875	194.000000
751.334290	195.100000
751.371765	199.000000
751.409180	196.800000
751.446594	200.100000
751.484070	197.200000
751.521423	195.300000
751.558899	194.900000
751.596375	201.700000
751.633728	201.800000
751.671204	207.400000
751.708618	190.000000
751.746033	195.300000
751.783447	188.400000
751.820801	190.800000
751.858276	197.100000
751.895691	193.800000
751.933105	191.900000
751.970520	190.600000
752.007935	191.900000
752.045349	198.600000
752.082764	192.600000
752.120178	193.200000
752.157532	190.700000
752.195007	192.300000
752.232422	197.200000
752.269775	199.800000
752.307190	196.400000
752.344543	189.900000
752.382019	192.900000
752.419434	194.100000
752.456787	195.400000
752.494202	198.800000
752.531616	196.600000
752.568970	198.300000
752.606384	195.400000
752.643799	196.600000
752.681152	204.000000
752.718567	198.700000
752.755981	187.900000
752.793335	196.600000
752.830750	186.200000
752.868164	200.700000
752.905518	189.400000
752.942932	198.500000
752.980225	190.700000
753.017639	198.300000
753.055054	192.800000
753.092407	197.000000
753.129822	200.700000
753.167175	204.800000
753.204529	193.900000
753.241943	191.000000
753.279358	187.100000
753.316650	198.600000
753.354065	197.900000
753.391479	198.300000
753.428772	204.000000
753.466187	198.900000
753.503479	188.900000
753.540894	192.200000
753.578308	188.600000
753.615601	188.100000
753.653015	195.700000
753.690369	192.900000
753.727722	189.400000
753.765076	186.700000
753.802490	189.300000
753.839783	185.900000
753.877136	191.100000
753.914551	211.100000
753.951843	189.300000
753.989258	198.000000
754.026611	197.800000
754.063904	197.600000
754.101257	190.500000
754.138611	187.400000
754.175964	195.400000
754.213318	207.100000
754.250610	188.300000
754.288025	192.200000
754.325378	188.800000
754.362671	200.200000
754.400024	194.100000
754.437378	203.700000
754.474670	205.500000
754.512085	191.800000
754.549438	195.100000
754.586731	193.400000
754.624084	194.400000
754.661438	189.500000
754.698730	201.900000
754.736084	192.600000
754.773376	193.500000
754.810730	197.300000
754.848083	192.900000
754.885315	198.400000
754.922668	185.500000
754.960022	189.800000
754.997314	198.600000
755.034668	195.100000
755.072021	197.000000
755.109253	193.600000
755.146606	202.500000
755.183960	194.200000
755.221252	205.500000
755.258545	201.900000
755.295898	201.400000
755.333191	203.100000
755.370544	200.500000
755.407776	196.300000
755.445129	197.600000
755.482422	201.500000
755.519714	193.600000
755.557068	190.300000
755.594360	189.200000
755.631653	201.800000
755.668945	206.300000
755.706299	199.700000
755.743530	208.700000
755.780884	205.300000
755.818176	202.800000
755.855408	204.600000
755.892761	199.500000
755.930054	199.300000
755.967346	202.400000
756.004639	204.000000
756.041870	199.400000
756.079224	204.900000
756.116516	195.800000
756.153748	204.600000
756.191040	206.600000
756.228394	201.800000
756.265625	193.700000
756.302917	201.600000
756.340210	197.300000
756.377441	205.000000
756.414795	206.900000
756.452087	200.300000
756.489319	193.900000
756.526611	204.300000
756.563843	201.900000
756.601135	212.800000
756.638428	210.100000
756.675659	200.800000
756.712952	205.600000
756.750244	205.000000
756.787476	203.400000
756.824768	209.600000
756.862061	200.700000
756.899292	248.400000
756.936584	207.600000
756.973816	213.400000
757.011047	215.900000
757.048340	202.900000
757.085632	202.900000
757.122864	218.500000
757.160156	202.400000
757.197327	205.100000
757.234619	208.200000
757.271912	202.500000
757.309082	209.100000
757.346375	202.000000
757.383667	212.200000
757.420837	206.800000
757.458130	206.300000
757.495422	204.400000
757.532593	208.400000
757.569885	198.400000
757.607117	202.000000
757.644348	207.800000
757.681580	218.700000
757.718811	194.700000
757.756042	206.700000
757.793335	203.300000
757.830505	209.200000
757.867798	203.400000
757.905029	203.500000
757.942200	208.700000
757.979492	204.700000
758.016724	205.200000
758.053894	204.400000
758.091187	226.500000
758.128418	207.700000
758.165588	206.300000
758.202820	219.500000
758.240112	209.600000
758.277283	219.600000
758.314514	210.200000
758.351685	205.600000
758.388916	221.000000
758.426147	216.600000
758.463379	216.900000
758.500610	214.000000
758.537842	210.500000
758.575012	217.000000
758.612244	207.200000
758.649475	224.000000
758.686646	204.100000
758.723877	218.000000
758.761108	219.700000
758.798279	210.600000
758.835510	215.400000
758.872742	219.500000
758.909851	214.900000
758.947083	216.100000
758.984253	214.100000
759.021484	218.700000
759.058716	217.600000
759.095886	216.900000
759.133057	213.800000
759.170288	217.200000
759.207458	210.700000
759.244690	225.700000
759.281860	224.000000
759.319031	214.300000
759.356262	212.300000
759.393433	212.200000
759.430603	214.300000
759.467773	214.900000
759.505005	222.500000
759.542175	220.200000
759.579346	214.400000
759.616516	217.600000
759.653687	218.000000
759.690918	211.800000
759.728027	218.500000
759.765259	219.800000
759.802429	220.200000
759.839539	219.300000
759.876770	223.400000
759.913940	228.900000
759.951111	218.500000
759.988281	218.400000
760.025452	214.500000
760.062561	213.900000
760.099792	226.800000
760.136963	219.700000
760.174072	217.800000
760.211243	211.000000
760.248413	214.500000
760.285583	213.900000
760.322754	230.600000
760.359863	225.600000
760.397034	227.300000
760.434204	218.900000
760.471375	220.000000
760.508545	216.900000
760.545715	220.600000
760.582825	215.400000
760.619995	228.200000
760.657166	214.900000
760.694275	226.900000
760.731445	225.300000
760.768555	223.800000
760.805664	226.700000
760.842834	224.800000
760.879944	227.300000
760.917114	225.100000
760.954285	224.200000
760.991394	216.800000
761.028564	230.500000
761.065674	229.700000
761.102783	220.700000
761.139954	230.300000
761.177124	230.900000
761.214172	234.200000
761.251343	226.100000
761.288452	229.500000
761.325562	234.200000
761.362732	225.100000
761.399841	227.900000
761.436951	231.400000
761.474121	226.200000
761.511169	230.000000
761.548340	234.900000
761.585449	236.000000
761.622559	234.600000
761.659668	232.000000
761.696838	239.000000
761.733887	234.600000
761.771057	231.500000
761.808167	232.500000
761.845276	238.300000
761.882385	247.600000
761.919434	236.200000
761.956604	257.200000
761.993713	233.700000
762.030762	244.400000
762.067871	237.600000
762.105042	237.900000
762.142090	243.800000
762.179199	239.900000
762.216309	244.400000
762.253418	257.100000
762.290527	250.800000
762.327637	246.800000
762.364685	236.100000
762.401794	245.700000
762.438904	245.500000
762.475952	239.900000
762.513062	238.800000
762.550110	240.100000
762.587219	253.800000
762.624329	254.700000
762.661377	250.000000
762.698486	248.300000
762.735596	247.800000
762.772644	241.100000
762.809753	239.000000
762.846863	249.000000
762.883911	250.500000
762.921021	252.600000
762.958069	250.200000
762.995117	259.100000
763.032227	259.400000
763.069336	250.400000
763.106323	244.000000
763.143433	244.400000
763.180481	253.600000
763.217590	254.000000
763.254639	250.900000
763.291687	252.300000
763.328735	259.900000
763.365845	254.400000
763.402893	252.100000
763.439941	257.700000
763.477051	259.300000
763.514038	258.700000
763.551147	252.700000
763.588196	257.300000
763.625244	254.400000
763.662292	264.900000
763.699402	266.700000
763.736389	262.100000
763.773499	271.800000
763.810486	265.900000
763.847534	263.500000
763.884644	264.300000
763.921631	260.400000
763.958679	274.400000
763.995728	262.200000
764.032776	273.100000
764.069824	259.400000
764.106873	268.000000
764.143860	274.800000
764.180969	266.700000
764.218018	275.400000
764.255005	267.900000
764.292053	271.500000
764.329102	280.700000
764.366089	279.200000
764.403137	277.200000
764.440125	266.200000
764.477173	270.100000
764.514221	274.600000
764.551208	272.400000
764.588257	267.700000
764.625305	279.600000
764.662292	286.400000
764.699341	289.100000
764.736389	282.100000
764.773376	296.400000
764.810425	283.400000
764.847473	289.600000
764.884399	286.000000
764.921448	291.600000
764.958435	291.900000
764.995483	279.700000
765.032532	297.400000
765.069458	281.500000
765.106506	285.300000
765.143555	282.100000
765.180481	287.900000
765.217529	295.900000
765.254578	278.600000
765.291504	292.400000
765.328552	288.000000
765.365540	284.100000
765.402527	298.200000
765.439575	283.900000
765.476501	282.000000
765.513550	283.200000
765.550537	287.300000
765.587463	297.400000
765.624512	288.000000
765.661499	279.700000
765.698486	298.100000
765.735474	287.600000
765.772461	291.900000
765.809448	298.300000
765.846436	298.100000
765.883423	300.200000
765.920410	296.400000
765.957397	290.100000
765.994385	297.700000
766.031311	304.500000
766.068359	297.800000
766.105286	298.900000
766.142273	307.400000
766.179260	300.700000
766.216187	295.300000
766.253174	292.000000
766.290161	301.000000
766.327148	305.600000
766.364136	307.200000
766.401123	320.700000
766.438049	299.300000
766.475037	315.300000
766.512024	309.400000
766.548950	325.600000
766.585937	320.300000
766.622864	315.300000
766.659790	314.200000
766.696777	305.300000
766.733704	321.800000
766.770691	312.800000
766.807678	327.100000
766.844604	322.900000
766.881531	323.200000
766.918518	328.800000
766.955444	332.200000
766.992432	325.700000
767.029358	328.000000
767.066284	330.700000
767.103271	327.300000
767.140198	357.900000
767.177124	345.400000
767.214050	335.900000
767.251038	338.400000
767.287964	335.500000
767.324890	333.100000
767.361816	337.400000
767.398743	345.400000
767.435730	339.000000
767.472595	346.400000
767.509583	349.300000
767.546509	337.900000
767.583374	345.600000
767.620361	339.800000
767.657288	347.200000
767.694214	344.900000
767.731140	345.000000
767.768066	346.700000
767.804993	353.000000
767.841919	343.900000
767.878845	351.700000
767.915710	360.800000
767.952698	352.900000
767.989563	357.300000
768.026489	356.800000
768.063416	349.500000
768.100281	351.300000
768.137207	367.900000
768.174133	362.500000
768.211060	366.000000
768.247986	364.200000
768.284912	362.900000
768.321777	367.300000
768.358704	365.100000
768.395630	369.000000
768.432495	363.400000
768.469421	370.800000
768.506348	376.000000
768.543152	384.700000
768.580078	380.700000
768.616943	380.700000
768.653870	383.100000
768.690796	381.600000
768.727661	381.900000
768.764587	384.000000
768.801453	376.900000
768.838318	390.600000
768.875244	386.400000
768.912109	393.000000
768.948975	384.000000
768.985901	388.500000
769.022766	385.900000
769.059631	397.400000
769.096558	390.300000
769.133362	391.300000
769.170288	392.200000
769.207214	393.900000
769.244019	400.900000
769.280945	402.000000
769.317810	406.800000
769.354675	402.700000
769.391541	412.100000
769.428406	410.800000
769.465271	421.300000
769.502136	408.300000
769.539062	411.800000
769.575867	410.300000
769.612732	412.800000
769.649597	420.200000
769.686462	424.100000
769.723328	417.700000
769.760193	414.600000
769.797058	417.600000
769.833923	428.800000
769.870728	422.300000
769.907593	426.100000
769.944519	427.000000
769.981323	428.900000
770.018188	431.300000
770.055054	426.700000
770.091858	428.200000
770.128723	441.800000
770.165588	445.100000
770.202393	427.800000
770.239258	443.100000
770.276062	439.500000
770.312927	439.000000
770.349792	445.900000
770.386597	443.600000
770.423462	452.900000
770.460327	461.000000
770.497131	445.500000
770.533997	438.500000
770.570862	456.100000
770.607605	455.600000
770.644470	450.100000
770.681335	451.300000
770.718140	450.900000
770.754944	443.600000
770.791809	444.200000
770.828613	445.600000
770.865479	449.400000
770.902222	458.400000
770.939087	454.600000
770.975952	444.200000
771.012695	450.000000
771.049561	466.900000
771.086365	451.000000
771.123169	450.500000
771.159973	454.600000
771.196838	455.800000
771.233582	458.100000
771.270447	459.900000
771.307251	462.300000
771.344055	460.200000
771.380859	463.900000
771.417664	455.800000
771.454468	466.300000
771.491272	467.200000
771.528076	466.900000
771.564880	467.300000
771.601685	478.100000
771.638428	466.500000
771.675293	475.700000
771.712097	466.600000
771.748840	483.400000
771.785645	472.300000
771.822449	480.500000
771.859253	482.500000
771.896057	478.400000
771.932861	494.100000
771.969604	481.400000
772.006409	475.400000
772.043213	490.500000
772.079956	488.000000
772.116760	479.000000
772.153503	483.500000
772.190308	495.200000
772.227112	487.200000
772.263855	482.900000
772.300659	490.300000
772.337463	497.200000
772.374207	488.300000
772.411011	487.300000
772.447754	491.400000
772.484497	511.500000
772.521301	503.100000
772.558105	502.600000
772.594849	502.600000
772.631592	512.000000
772.668396	509.300000
772.705139	518.600000
772.741882	518.800000
772.778625	529.600000
772.815430	533.900000
772.852173	524.600000
772.888916	535.500000
772.925720	538.900000
772.962463	543.900000
772.999207	542.900000
773.035950	547.500000
773.072754	545.400000
773.109436	543.400000
773.146240	545.400000
773.182922	544.900000
773.219727	556.200000
773.256470	553.100000
773.293152	538.400000
773.329956	547.600000
773.366699	552.500000
773.403381	546.200000
773.440186	558.600000
773.476929	560.600000
773.513611	554.100000
773.550354	557.500000
773.587158	557.300000
773.623840	554.000000
773.660583	566.800000
773.697327	581.100000
773.734009	569.000000
773.770813	566.700000
773.807495	565.700000
773.844238	572.300000
773.880981	590.800000
773.917664	584.800000
773.954407	591.300000
773.991150	580.400000
774.027832	586.300000
774.064575	580.600000
774.101318	590.600000
774.138000	597.800000
774.174744	593.100000
774.211487	597.200000
774.248108	585.500000
774.284851	583.300000
774.321594	599.400000
774.358276	605.200000
774.395020	613.700000
774.431702	609.100000
774.468384	600.800000
774.505127	598.900000
774.541809	613.900000
774.578491	630.200000
774.615234	631.200000
774.651917	624.500000
774.688599	626.100000
774.725342	636.300000
774.762024	633.300000
774.798706	642.200000
774.835449	641.200000
774.872070	649.800000
774.908813	644.000000
774.945496	639.000000
774.982178	643.700000
775.018860	649.100000
775.055542	652.700000
775.092224	655.400000
775.128967	658.800000
775.165588	657.600000
775.202271	647.700000
775.239014	663.200000
775.275635	665.600000
775.312317	660.100000
775.349060	664.500000
775.385681	665.300000
775.422363	658.000000
775.459045	667.300000
775.495667	672.800000
775.532410	674.700000
775.569092	678.500000
775.605713	678.000000
775.642395	677.100000
775.679016	677.500000
775.715698	682.300000
775.752380	691.200000
775.789001	683.000000
775.825684	679.100000
775.862366	681.300000
775.898987	694.100000
775.935669	683.800000
775.972351	704.500000
776.008972	701.500000
776.045654	702.500000
776.082336	696.500000
776.118958	694.900000
776.155640	703.400000
776.192322	714.400000
776.228882	716.700000
776.265564	712.400000
776.302185	705.400000
776.338867	714.200000
776.375488	698.900000
776.412109	715.800000
776.448792	719.400000
776.485413	728.300000
776.522034	717.500000
776.558716	706.400000
776.595337	704.900000
776.631958	716.500000
776.668579	714.200000
776.705261	719.700000
776.741882	716.800000
776.778503	715.600000
776.815186	708.000000
776.851746	719.600000
776.888367	720.500000
776.924988	729.200000
776.961609	720.400000
776.998291	718.600000
777.034851	707.300000
777.071472	723.700000
777.108154	722.100000
777.144714	734.900000
777.181335	731.600000
777.218018	727.100000
777.254578	734.000000
777.291199	730.200000
777.327759	739.100000
777.364380	749.000000
777.401062	753.500000
777.437622	764.200000
777.474243	749.800000
777.510864	761.800000
777.547424	754.100000
777.584045	758.400000
777.620667	765.200000
777.657227	769.900000
777.693848	767.600000
777.730469	784.100000
777.767029	773.000000
777.803650	778.400000
777.840271	770.900000
777.876831	774.700000
777.913452	781.200000
777.950012	763.100000
777.986633	763.600000
778.023193	760.000000
778.059753	763.900000
778.096375	770.600000
778.132996	778.100000
778.169556	766.600000
778.206116	770.800000
778.242737	766.800000
778.279297	780.200000
778.315857	774.000000
778.352478	780.600000
778.389038	792.400000
778.425598	787.800000
778.462219	800.900000
778.498718	803.500000
778.535339	810.300000
778.571838	812.300000
778.608459	821.300000
778.645020	813.600000
778.681580	830.600000
778.718140	830.000000
778.754761	824.400000
778.791260	827.800000
778.827881	840.800000
778.864441	841.600000
778.900940	839.900000
778.937561	842.200000
778.974121	839.700000
779.010620	829.800000
779.047241	837.500000
779.083801	850.200000
779.120300	848.800000
779.156860	851.200000
779.193359	851.500000
779.229980	852.600000
779.266541	858.000000
779.303040	865.400000
779.339600	854.200000
779.376160	851.800000
779.412659	859.200000
779.449219	855.300000
779.485779	866.000000
779.522278	865.600000
779.558838	874.700000
779.595398	876.500000
779.631897	874.800000
779.668457	860.300000
779.705017	879.700000
779.741516	871.100000
779.778076	861.400000
779.814575	874.800000
779.851074	881.100000
779.887634	880.700000
779.924133	882.500000
779.960693	875.800000
779.997253	888.100000
780.033691	892.800000
780.070251	894.700000
780.106812	905.000000
780.143250	899.000000
780.179810	899.900000
780.216370	901.600000
780.252808	919.000000
780.289368	927.800000
780.325867	932.200000
780.362366	925.700000
780.398865	940.000000
780.435364	928.300000
780.471863	942.400000
780.508423	939.900000
780.544861	953.700000
780.581421	957.000000
780.617920	945.100000
780.654419	947.700000
780.690918	954.800000
780.727417	961.400000
780.763916	960.000000
780.800415	966.000000
780.836914	946.900000
780.873352	958.300000
780.909912	948.600000
780.946411	956.700000
780.982849	966.800000
781.019348	984.100000
781.055786	977.600000
781.092346	974.900000
781.128845	980.700000
781.165283	990.800000
781.201782	997.100000
781.238281	1003.800000
781.274719	1003.100000
781.311218	992.700000
781.347717	1007.800000
781.384155	998.300000
781.420654	1001.100000
781.457092	1015.100000
781.493591	1009.600000
781.530090	998.200000
781.566528	1006.200000
781.602966	1009.800000
781.639465	1009.000000
781.675903	1003.000000
781.712402	1012.300000
781.748901	1015.000000
781.785278	1008.100000
781.821777	1013.100000
781.858276	1011.700000
781.894714	1029.700000
781.931152	1020.300000
781.967651	1026.000000
782.004089	1013.600000
782.040527	1030.300000
782.076965	1029.100000
782.113403	1028.700000
782.149902	1032.500000
782.186340	1029.000000
782.222778	1041.600000
782.259277	1026.200000
782.295654	1028.300000
782.332092	1034.300000
782.368591	1024.000000
782.404968	1015.100000
782.441467	1026.700000
782.477905	1030.000000
782.514282	1025.600000
782.550781	1043.700000
782.587219	1039.000000
782.623596	1044.400000
782.660095	1042.600000
782.696472	1051.900000
782.732910	1057.700000
782.769348	1060.500000
782.805786	1077.000000
782.842224	1071.800000
782.878662	1062.700000
782.915039	1066.800000
782.951477	1060.400000
782.987915	1057.000000
783.024292	1066.600000
783.060730	1064.500000
783.097168	1056.700000
783.133545	1048.600000
783.169983	1046.000000
783.206421	1038.700000
783.242798	1040.300000
783.279236	1026.800000
783.315613	1026.000000
783.352051	1018.300000
783.388489	1006.100000
783.424866	994.100000
783.461304	1001.100000
783.497681	1007.800000
783.534058	994.000000
783.570496	995.900000
783.606934	990.700000
783.643250	997.700000
783.679687	1005.600000
783.716125	1000.800000
783.752441	1017.100000
783.788879	1033.100000
783.825317	1036.600000
783.861633	1045.000000
783.898071	1045.700000
783.934448	1071.700000
783.970825	1082.900000
784.007263	1076.300000
784.043579	1067.800000
784.080017	1043.300000
784.116394	979.300000
784.152710	887.000000
784.189148	776.200000
784.225525	655.000000
784.261902	541.300000
784.298279	480.400000
784.334656	447.300000
784.371033	421.000000
784.407410	417.400000
784.443787	403.200000
784.480164	412.900000
784.516541	451.700000
784.552856	543.200000
784.589233	646.800000
784.625610	750.400000
784.661987	874.300000
784.698364	935.700000
784.734741	976.200000
784.771057	1007.800000
784.807434	1033.800000
784.843811	1056.700000
784.880127	1064.100000
784.916504	1095.300000
784.952881	1100.600000
784.989197	1093.200000
785.025574	1100.100000
785.061951	1107.300000
785.098267	1142.300000
785.134644	1133.400000
785.170959	1137.900000
785.207275	1142.400000
785.243652	1135.800000
785.279968	1127.300000
785.316345	1141.200000
785.352722	1143.400000
785.388977	1149.200000
785.425354	1125.400000
785.461731	1105.600000
785.498047	1095.500000
785.534363	1091.700000
785.570679	1092.300000
785.606995	1099.700000
785.643372	1102.300000
785.679687	1089.400000
785.716003	1072.000000
785.752380	1071.100000
785.788635	1073.700000
785.825012	1100.300000
785.861328	1106.500000
785.897644	1093.400000
785.933960	1110.200000
785.970337	1118.700000
786.006592	1135.500000
786.042908	1152.700000
786.079285	1170.700000
786.115540	1182.300000
786.151855	1178.400000
786.188171	1172.100000
786.224487	1167.200000
786.260803	1170.200000
786.297119	1188.200000
786.333435	1189.300000
786.369751	1184.000000
786.406006	1183.900000
786.442322	1162.200000
786.478638	1150.900000
786.514954	1173.900000
786.551270	1173.300000
786.587585	1179.000000
786.623840	1167.500000
786.660156	1158.700000
786.696472	1143.600000
786.732727	1140.300000
786.769043	1144.000000
786.805298	1139.900000
786.841614	1143.800000
786.877930	1146.200000
786.914124	1128.600000
786.950439	1146.200000
786.986755	1155.300000
787.023010	1173.500000
787.059326	1181.200000
787.095642	1180.700000
787.131836	1196.700000
787.168152	1182.100000
787.204468	1186.400000
787.240723	1208.500000
787.276978	1220.000000
787.313293	1228.600000
787.349548	1229.500000
787.385803	1226.000000
787.422058	1221.600000
787.458313	1219.300000
787.494629	1224.100000
787.530823	1227.300000
787.567139	1215.500000
787.603455	1198.200000
787.639648	1177.800000
787.675903	1187.100000
787.712219	1189.600000
787.748413	1187.900000
787.784729	1196.400000
787.820984	1178.100000
787.857178	1167.300000
787.893494	1159.000000
787.929749	1153.800000
787.965942	1159.300000
788.002258	1181.900000
788.038452	1191.100000
788.074707	1177.600000
788.110962	1181.000000
788.147217	1173.600000
788.183472	1184.200000
788.219727	1196.500000
788.255920	1217.900000
788.292175	1218.800000
788.328430	1214.700000
788.364624	1197.700000
788.400879	1188.600000
788.437134	1193.700000
788.473328	1196.300000
788.509583	1197.900000
788.545837	1192.900000
788.582031	1181.400000
788.618286	1164.700000
788.654480	1164.700000
788.690735	1179.000000
788.726990	1198.100000
788.763184	1192.000000
788.799377	1207.900000
788.835632	1192.100000
788.871826	1205.800000
788.908081	1208.900000
788.944336	1205.900000
788.980469	1222.800000
789.016724	1217.900000
789.052979	1215.300000
789.089111	1192.200000
789.125366	1198.700000
789.161621	1179.700000
789.197754	1198.100000
789.234009	1186.900000
789.270142	1172.800000
789.306396	1159.600000
789.342590	1148.500000
789.378784	1123.100000
789.414978	1124.700000
789.451233	1145.900000
789.487366	1143.200000
789.523621	1156.200000
789.559814	1140.300000
789.595947	1133.800000
789.632202	1144.900000
789.668335	1156.700000
789.704529	1175.300000
789.740784	1197.900000
789.776917	1196.600000
789.813110	1181.800000
789.849304	1196.000000
789.885498	1193.400000
789.921692	1215.900000
789.957886	1227.700000
789.994019	1225.400000
790.030212	1217.700000
790.066406	1218.700000
790.102539	1212.400000
790.138733	1223.500000
790.174927	1216.300000
790.211060	1236.300000
790.247253	1217.800000
790.283386	1204.300000
790.319580	1184.100000
790.355774	1169.400000
790.391907	1178.200000
790.428101	1200.500000
790.464294	1206.200000
790.500427	1209.100000
790.536621	1185.400000
790.572754	1164.800000
790.608887	1175.900000
790.645081	1185.200000
790.681274	1195.400000
790.717346	1193.800000
790.753540	1153.800000
790.789734	1076.900000
790.825867	1021.200000
790.862000	1025.900000
790.898132	1086.300000
790.934265	1156.300000
790.970459	1215.900000
791.006592	1239.000000
791.042725	1237.500000
791.078918	1226.500000
791.114990	1228.500000
791.151184	1248.700000
791.187317	1271.000000
791.223389	1262.400000
791.259583	1247.200000
791.295715	1254.000000
791.331848	1254.700000
791.367981	1275.100000
791.404114	1284.200000
791.440247	1276.000000
791.476379	1276.000000
791.512451	1257.200000
791.548584	1256.900000
791.584778	1250.900000
791.620850	1270.000000
791.656982	1278.700000
791.693115	1273.800000
791.729187	1264.200000
791.765381	1253.500000
791.801514	1255.300000
791.837585	1254.600000
791.873718	1267.500000
791.909851	1280.300000
791.945923	1290.300000
791.982056	1248.800000
792.018188	1249.900000
792.054260	1251.900000
792.090393	1254.400000
792.126465	1250.000000
792.162598	1262.400000
792.198669	1245.700000
792.234741	1240.800000
792.270874	1227.100000
792.307007	1217.200000
792.343079	1220.200000
792.379150	1237.100000
792.415283	1222.000000
792.451355	1226.300000
792.487488	1202.300000
792.523560	1198.000000
792.559631	1202.600000
792.595764	1198.900000
792.631836	1206.000000
792.667908	1210.700000
792.703979	1190.500000
792.740051	1191.300000
792.776184	1196.200000
792.812256	1201.800000
792.848328	1215.100000
792.884399	1212.500000
792.920471	1211.500000
792.956543	1206.200000
792.992615	1201.400000
793.028748	1196.400000
793.064758	1200.800000
793.100830	1225.100000
793.136963	1242.600000
793.172974	1230.600000
793.209045	1223.400000
793.245178	1240.100000
793.281189	1220.700000
793.317261	1227.900000
793.353271	1235.200000
793.389404	1238.600000
793.425476	1228.600000
793.461487	1217.200000
793.497559	1208.800000
793.533630	1217.100000
793.569641	1219.200000
793.605713	1223.500000
793.641785	1229.700000
793.677795	1235.200000
793.713867	1219.300000
793.749878	1224.300000
793.785950	1241.100000
793.822021	1244.300000
793.858032	1227.700000
793.894104	1241.300000
793.930176	1224.000000
793.966187	1225.800000
794.002258	1216.800000
794.038269	1215.600000
794.074280	1217.500000
794.110352	1235.800000
794.146423	1211.400000
794.182373	1200.900000
794.218445	1189.500000
794.254517	1184.300000
794.290466	1172.700000
794.326538	1178.100000
794.362549	1185.700000
794.398560	1187.500000
794.434631	1185.100000
794.470581	1157.200000
794.506653	1153.400000
794.542664	1156.000000
794.578674	1154.500000
794.614685	1153.300000
794.650757	1146.800000
794.686707	1136.800000
794.722778	1129.600000
794.758789	1133.300000
794.794739	1144.900000
794.830811	1167.700000
794.866821	1187.700000
794.902771	1180.700000
794.938843	1164.900000
794.974792	1160.600000
795.010803	1161.400000
795.046814	1163.500000
795.082825	1153.500000
795.118835	1163.800000
795.154846	1145.100000
795.190796	1146.300000
795.226807	1120.200000
795.262817	1135.400000
795.298767	1129.400000
795.334778	1135.000000
795.370850	1118.900000
795.406799	1123.800000
795.442810	1100.800000
795.478821	1100.900000
795.514709	1098.900000
795.550720	1124.500000
795.586670	1103.900000
795.622681	1108.700000
795.658691	1101.300000
795.694641	1099.500000
795.730652	1085.300000
795.766663	1094.400000
795.802551	1092.500000
795.838562	1110.900000
795.874573	1099.500000
795.910522	1093.300000
795.946472	1080.300000
795.982483	1084.500000
796.018433	1094.600000
796.054382	1105.400000
796.090393	1089.600000
796.126282	1077.600000
796.162292	1065.700000
796.198242	1058.000000
796.234192	1057.700000
796.270203	1063.700000
796.306091	1068.800000
796.342041	1084.400000
796.378052	1069.900000
796.413940	1062.200000
796.449951	1065.500000
796.485901	1064.800000
796.521790	1063.400000
796.557800	1079.200000
796.593689	1079.300000
796.629639	1064.000000
796.665649	1060.100000
796.701599	1056.300000
796.737488	1053.000000
796.773437	1059.000000
796.809387	1066.300000
796.845337	1060.700000
796.881287	1046.600000
796.917175	1033.200000
796.953125	1029.900000
796.989075	1043.500000
797.024963	1051.500000
797.060913	1047.800000
797.096863	1043.100000
797.132751	1034.800000
797.168701	1013.200000
797.204590	1024.100000
797.240540	1024.700000
797.276489	1031.900000
797.312439	1039.800000
797.348328	1030.100000
797.384277	1018.200000
797.420166	1008.600000
797.456055	1013.600000
797.492004	1007.800000
797.527893	1017.000000
797.563843	1021.500000
797.599731	1004.500000
797.635620	992.000000
797.671570	998.500000
797.707520	998.900000
797.743347	1000.400000
797.779297	1006.600000
797.815125	1002.800000
797.851074	990.800000
797.887024	983.300000
797.922913	977.500000
797.958801	994.700000
797.994690	991.400000
798.030579	994.100000
798.066467	997.700000
798.102356	982.200000
798.138245	976.100000
798.174133	974.600000
798.210083	978.200000
798.245911	989.800000
798.281799	991.600000
798.317749	980.000000
798.353577	970.300000
798.389465	968.700000
798.425293	966.200000
798.461243	961.100000
798.497131	972.200000
798.532959	974.200000
798.568848	973.000000
798.604736	959.600000
798.640564	946.000000
798.676453	946.300000
798.712402	955.900000
798.748230	960.200000
798.784119	955.900000
798.820007	957.300000
798.855835	947.100000
798.891724	941.400000
798.927551	942.600000
798.963379	948.200000
798.999268	948.100000
799.035095	941.300000
799.070984	930.300000
799.106873	919.000000
799.142700	931.200000
799.178528	920.300000
799.214417	921.900000
799.250244	940.900000
799.286133	931.400000
799.321960	920.400000
799.357788	914.400000
799.393677	920.900000
799.429504	913.400000
799.465332	915.500000
799.501221	928.100000
799.537048	922.000000
799.572876	911.300000
799.608704	917.600000
799.644531	922.700000
799.680359	919.200000
799.716248	929.400000
799.752014	932.500000
799.787903	919.100000
799.823730	915.800000
799.859558	907.800000
799.895386	908.200000
799.931213	908.000000
799.967041	899.300000
800.002869	900.400000
800.038696	910.100000
800.074463	884.400000
800.110352	888.800000
800.146179	878.700000
800.181946	892.900000
800.217773	894.200000
800.253540	887.700000
800.289429	880.900000
800.325256	874.800000
800.361023	867.900000
800.396851	871.100000
800.432678	872.700000
800.468445	870.000000
800.504272	860.800000
800.540100	845.800000
800.575867	847.200000
800.611694	853.100000
800.647461	840.900000
800.683289	843.300000
800.719116	849.300000
800.754883	840.800000
800.790649	824.000000
800.826477	815.900000
800.862244	839.000000
800.898071	822.900000
800.933838	817.800000
800.969604	814.500000
801.005432	811.900000
801.041199	815.700000
801.076965	803.100000
801.112793	794.200000
801.148560	785.400000
801.184326	788.800000
801.220154	793.700000
801.255859	778.900000
801.291687	781.300000
801.327454	775.300000
801.363281	774.400000
801.398987	772.000000
801.434814	774.500000
801.470520	783.500000
801.506287	764.700000
801.542114	759.200000
801.577820	762.100000
801.613647	761.700000
801.649414	757.100000
801.685120	755.300000
801.720886	760.600000
801.756714	746.700000
801.792419	737.500000
801.828186	734.100000
801.863892	744.900000
801.899719	731.400000
801.935486	734.500000
801.971252	740.200000
802.006958	728.900000
802.042725	722.900000
802.078430	723.800000
802.114197	717.200000
802.149963	738.200000
802.185669	722.600000
802.221436	720.700000
802.257202	720.500000
802.292908	716.600000
802.328674	723.900000
802.364441	724.200000
802.400146	717.500000
802.435913	709.300000
802.471558	709.000000
802.507324	701.800000
802.543091	691.700000
802.578796	706.600000
802.614502	708.500000
802.650269	710.900000
802.685974	695.200000
802.721741	696.200000
802.757446	703.200000
802.793152	699.100000
802.828918	705.400000
802.864624	700.300000
802.900330	695.700000
802.936035	694.400000
802.971802	689.800000
803.007446	688.100000
803.043213	677.900000
803.078857	683.200000
803.114624	669.200000
803.150330	677.500000
803.185974	669.400000
803.221741	669.400000
803.257446	676.900000
803.293152	674.400000
803.328857	665.900000
803.364563	665.500000
803.400208	656.300000
803.435974	663.900000
803.471680	658.400000
803.507324	650.200000
803.543030	660.500000
803.578735	659.100000
803.614441	651.200000
803.650146	654.400000
803.685791	639.700000
803.721497	641.200000
803.757202	634.500000
803.792847	644.400000
803.828552	634.900000
803.864258	634.600000
803.899902	635.800000
803.935608	617.900000
803.971313	621.900000
804.006958	621.800000
804.042664	620.400000
804.078308	624.600000
804.113953	616.300000
804.149658	623.800000
804.185364	610.800000
804.221008	619.400000
804.256714	612.600000
804.292297	608.700000
804.328003	608.300000
804.363708	598.700000
804.399292	599.300000
804.434998	600.200000
804.470703	590.400000
804.506287	604.900000
804.541992	600.300000
804.577637	601.200000
804.613281	587.400000
804.648926	584.500000
804.684570	588.800000
804.720215	584.100000
804.755920	583.000000
804.791565	578.900000
804.827209	583.400000
804.862854	577.500000
804.898437	570.100000
804.934143	572.300000
804.969788	572.500000
805.005371	575.800000
805.041077	577.500000
805.076721	574.600000
805.112305	564.100000
805.147949	565.400000
805.183655	558.400000
805.219238	563.700000
805.254883	564.500000
805.290466	568.700000
805.326111	559.600000
805.361755	551.700000
805.397400	558.700000
805.432983	560.100000
805.468628	558.700000
805.504211	563.400000
805.539856	561.500000
805.575500	568.600000
805.611084	552.300000
805.646729	541.600000
805.682373	548.400000
805.717957	558.800000
805.753601	561.900000
805.789246	540.700000
805.824768	552.500000
805.860413	554.300000
805.895996	541.800000
805.931641	542.200000
805.967224	547.500000
806.002869	538.300000
806.038452	549.200000
806.074036	544.700000
806.109619	531.900000
806.145264	528.400000
806.180847	531.400000
806.216431	526.800000
806.252014	530.100000
806.287659	531.100000
806.323181	537.400000
806.358826	534.800000
806.394409	510.600000
806.429993	518.600000
806.465576	531.700000
806.501160	512.200000
806.536743	509.800000
806.572327	518.900000
806.607910	513.900000
806.643494	513.700000
806.679077	509.500000
806.714661	511.700000
806.750244	512.300000
806.785828	503.700000
806.821350	501.400000
806.856934	505.600000
806.892517	504.400000
806.928101	496.100000
806.963684	496.200000
806.999268	506.000000
807.034790	488.200000
807.070374	495.300000
807.105896	488.600000
807.141479	484.300000
807.177063	492.700000
807.212585	482.900000
807.248169	484.700000
807.283752	488.700000
807.319275	483.600000
807.354858	482.000000
807.390381	476.800000
807.425903	478.000000
807.461487	474.700000
807.497070	468.100000
807.532593	468.600000
807.568115	466.000000
807.603699	463.900000
807.639221	457.900000
807.674744	460.700000
807.710266	466.300000
807.745850	470.200000
807.781372	459.000000
807.816895	456.500000
807.852417	459.000000
807.888000	455.900000
807.923523	450.300000
807.959045	457.700000
807.994629	446.100000
808.030090	444.200000
808.065613	450.700000
808.101135	452.700000
808.136658	447.100000
808.172241	445.900000
808.207764	443.400000
808.243225	439.800000
808.278809	432.000000
808.314270	444.800000
808.349792	429.000000
808.385315	429.800000
808.420837	436.700000
808.456360	437.900000
808.491882	438.000000
808.527344	430.800000
808.562866	440.000000
808.598389	434.300000
808.633850	427.400000
808.669434	423.300000
808.704895	432.300000
808.740417	435.400000
808.775940	424.600000
808.811462	423.500000
808.846924	414.500000
808.882385	410.000000
808.917847	411.000000
808.953369	411.400000
808.988892	406.300000
809.024353	417.500000
809.059875	414.200000
809.095398	411.100000
809.130798	402.700000
809.166321	402.700000
809.201843	402.800000
809.237305	402.600000
809.272766	411.000000
809.308228	394.900000
809.343750	396.700000
809.379211	396.800000
809.414734	397.800000
809.450134	405.300000
809.485657	385.300000
809.521118	392.600000
809.556580	391.000000
809.592102	390.400000
809.627502	384.400000
809.663025	384.900000
809.698486	378.800000
809.733887	376.300000
809.769409	379.800000
809.804871	367.800000
809.840271	372.900000
809.875793	376.200000
809.911194	377.700000
809.946655	370.900000
809.982178	367.400000
810.017639	372.800000
810.053040	370.400000
810.088501	367.400000
810.123901	365.500000
810.159424	361.700000
810.194885	356.500000
810.230286	363.200000
810.265747	356.200000
810.301208	353.900000
810.336609	358.200000
810.372070	351.400000
810.407532	352.600000
810.442932	355.700000
810.478394	358.700000
810.513794	354.500000
810.549255	351.000000
810.584717	351.300000
810.620117	344.400000
810.655518	352.400000
810.690979	348.800000
810.726379	348.700000
810.761841	336.600000
810.797302	337.400000
810.832642	338.100000
810.868103	348.300000
810.903564	335.300000
810.938904	342.800000
810.974365	335.100000
811.009827	332.900000
811.045166	331.600000
811.080627	324.100000
811.115967	331.900000
811.151428	340.600000
811.186829	330.200000
811.222229	331.500000
811.257629	322.300000
811.293091	328.900000
811.328430	336.700000
811.363892	330.300000
811.399292	332.500000
811.434631	326.900000
811.470093	330.300000
811.505493	322.500000
811.540833	323.800000
811.576294	327.900000
811.611694	323.600000
811.647034	318.100000
811.682434	319.400000
811.717773	322.300000
811.753235	327.900000
811.788635	320.400000
811.823975	320.100000
811.859375	330.400000
811.894775	315.800000
811.930115	316.300000
811.965515	317.800000
812.000916	319.300000
812.036255	314.500000
812.071655	320.500000
812.106995	311.600000
812.142395	313.500000
812.177795	319.400000
812.213196	317.000000
812.248474	315.500000
812.283875	307.600000
812.319214	311.900000
812.354614	311.700000
812.390015	307.800000
812.425293	309.000000
812.460693	308.900000
812.496094	304.600000
812.531433	298.800000
812.566772	300.400000
812.602173	304.600000
812.637451	301.800000
812.672852	298.000000
812.708191	304.300000
812.743530	296.300000
812.778931	291.000000
812.814270	293.600000
812.849609	302.000000
812.884949	294.200000
812.920227	289.100000
812.955627	306.000000
812.990967	295.100000
813.026306	290.700000
813.061646	279.900000
813.096985	279.500000
813.132324	276.300000
813.167664	282.400000
813.203003	286.100000
813.238281	274.600000
813.273682	276.200000
813.308960	270.300000
813.344299	273.300000
813.379639	283.800000
813.414978	274.800000
813.450256	275.100000
813.485596	279.400000
813.520874	272.100000
813.556213	277.300000
813.591614	281.000000
813.626831	271.100000
813.662170	275.600000
813.697510	286.500000
813.732788	266.800000
813.768127	274.600000
813.803467	273.100000
813.838745	267.400000
813.874084	272.700000
813.909363	270.800000
813.944641	272.100000
813.979980	263.300000
814.015320	267.300000
814.050598	265.000000
814.085876	269.700000
814.121155	265.800000
814.156494	263.600000
814.191772	265.900000
814.227051	261.000000
814.262390	262.600000
814.297668	263.800000
814.332947	265.200000
814.368225	258.800000
814.403564	261.100000
814.438782	255.900000
814.474121	257.300000
814.509338	256.300000
814.544617	264.800000
814.579956	253.100000
814.615173	266.300000
814.650513	262.800000
814.685791	253.500000
814.721008	256.200000
814.756348	257.000000
814.791626	251.900000
814.826843	252.300000
814.862122	255.200000
814.897400	248.800000
814.932678	252.700000
814.967957	252.100000
815.003235	250.700000
815.038452	245.900000
815.073730	244.000000
815.108948	254.800000
815.144226	252.000000
815.179504	255.200000
815.214722	240.200000
815.250000	239.300000
815.285278	247.600000
815.320496	240.900000
815.355774	246.000000
815.391052	246.900000
815.426270	242.300000
815.461487	243.700000
815.496765	236.800000
815.531982	234.500000
815.567261	240.200000
815.602539	248.200000
815.637695	243.700000
815.672974	244.600000
815.708191	244.900000
815.743408	245.000000
815.778687	237.700000
815.813904	248.500000
815.849121	229.300000
815.884399	232.400000
815.919556	234.200000
815.954834	234.100000
815.990051	237.000000
816.025269	241.300000
816.060486	230.600000
816.095703	230.200000
816.130920	235.000000
816.166199	230.500000
816.201416	234.500000
816.236572	239.900000
816.271851	229.100000
816.307007	238.800000
816.342224	226.500000
816.377441	229.900000
816.412659	221.700000
816.447876	234.000000
816.483093	229.300000
816.518250	230.400000
816.553467	227.200000
816.588745	231.000000
816.623901	222.300000
816.659119	218.400000
816.694275	224.600000
816.729492	221.300000
816.764709	258.100000
816.799927	218.100000
816.835083	223.600000
816.870300	218.300000
816.905457	223.300000
816.940674	225.000000
816.975830	219.700000
817.010986	216.000000
817.046204	220.000000
817.081421	216.300000
817.116577	214.100000
817.151733	223.800000
817.186951	224.700000
817.222107	220.000000
817.257324	223.200000
817.292419	219.900000
817.327637	212.400000
817.362854	217.700000
817.398010	212.400000
817.433167	214.800000
817.468323	213.700000
817.503479	214.400000
817.538635	224.200000
817.573853	219.200000
817.608948	215.300000
817.644165	212.800000
817.679321	210.800000
817.714478	210.800000
817.749634	215.800000
817.784790	225.600000
817.819946	221.100000
817.855103	202.600000
817.890198	213.100000
817.925415	204.400000
817.960571	213.700000
817.995667	212.000000
818.030823	214.500000
818.066040	206.100000
818.101135	210.100000
818.136292	209.800000
818.171448	204.500000
818.206543	209.800000
818.241699	214.400000
818.276855	210.400000
818.311951	209.300000
818.347107	205.000000
818.382263	211.900000
818.417358	216.200000
818.452515	216.700000
818.487610	217.100000
818.522766	205.800000
818.557922	217.700000
818.593018	213.100000
818.628113	210.100000
818.663269	205.300000
818.698364	210.000000
818.733521	206.100000
818.768677	211.500000
818.803711	202.000000
818.838867	203.900000
818.874023	208.100000
818.909058	203.600000
818.944214	200.700000
818.979370	209.400000
819.014404	206.800000
819.049561	202.600000
819.084595	208.900000
819.119751	199.300000
819.154846	208.700000
819.189941	203.700000
819.225037	198.300000
819.260193	194.800000
819.295227	197.100000
819.330322	194.200000
819.365479	194.700000
819.400513	227.000000
819.435608	193.800000
819.470764	190.400000
819.505798	194.800000
819.540894	197.500000
819.575989	195.800000
819.611084	205.100000
819.646179	205.900000
819.681213	201.800000
819.716309	198.200000
819.751404	198.100000
819.786438	203.600000
819.821533	195.600000
819.856628	201.400000
819.891663	203.200000
819.926758	208.500000
819.961853	205.800000
819.996887	196.700000
820.031982	202.800000
820.067017	197.800000
820.102112	226.400000
820.137207	196.600000
820.172302	213.700000
820.207275	195.800000
820.242371	195.200000
820.277405	195.400000
820.312500	198.500000
820.347534	199.900000
820.382568	203.300000
820.417664	195.100000
820.452759	195.900000
820.487732	193.500000
820.522827	196.700000
820.557861	192.900000
820.592896	195.700000
820.627930	195.700000
820.662964	194.100000
820.698059	198.200000
820.733093	196.400000
820.768127	199.900000
820.803162	197.200000
820.838196	194.500000
820.873230	196.400000
820.908264	197.100000
820.943298	193.200000
820.978333	201.900000
821.013367	196.800000
821.048401	199.800000
821.083435	203.500000
821.118469	188.400000
821.153503	201.500000
821.188477	197.200000
821.223511	189.200000
821.258484	196.400000
821.293579	197.900000
821.328613	188.700000
821.363647	195.100000
821.398621	190.100000
821.433655	191.900000
821.468628	208.600000
821.503662	193.700000
821.538696	198.000000
821.573669	192.100000
821.608704	199.700000
821.643677	193.400000
821.678650	199.900000
821.713684	205.100000
821.748718	193.300000
821.783691	194.800000
821.818726	196.700000
821.853638	195.900000
821.888672	193.700000
821.923706	195.100000
821.958618	192.900000
821.993652	191.500000
822.028687	199.700000
822.063599	201.200000
822.098633	197.100000
822.133667	190.600000
822.168579	194.200000
822.203613	196.200000
822.238586	190.700000
822.273560	196.800000
822.308533	191.200000
822.343567	192.200000
822.378479	193.400000
822.413452	193.600000
822.448425	189.800000
822.483398	199.800000
822.518372	198.900000
822.553345	191.000000
822.588318	201.600000
822.623291	192.100000
822.658203	191.200000
822.693237	195.000000
822.728210	190.600000
822.763123	195.100000
822.798096	189.000000
822.833069	194.300000
822.867981	195.100000
822.902954	195.600000
822.937927	197.500000
822.972900	206.400000
823.007874	185.600000
823.042725	197.500000
823.077698	207.000000
823.112671	190.300000
823.147583	193.400000
823.182556	198.400000
823.217529	197.800000
823.252441	192.700000
823.287415	207.700000
823.322388	197.400000
823.357239	194.800000
823.392212	203.300000
823.427185	198.400000
823.462097	190.200000
823.497009	197.800000
823.531982	193.100000
823.566895	195.300000
823.601807	189.000000
823.636719	192.900000
823.671631	199.200000
823.706604	192.900000
823.741455	197.900000
823.776428	188.300000
823.811340	199.700000
823.846252	201.300000
823.881165	202.800000
823.916138	194.700000
823.950989	202.400000
823.985901	191.400000
824.020813	195.100000
824.055725	193.000000
824.090637	191.600000
824.125610	196.400000
824.160461	195.600000
824.195374	197.500000
824.230225	200.600000
824.265198	187.100000
824.300110	192.800000
824.334961	204.300000
824.369873	184.100000
824.404785	196.400000
824.439636	201.100000
824.474548	185.100000
824.509460	183.800000
824.544312	199.300000
824.579224	196.700000
824.614075	197.200000
824.648987	193.500000
824.683899	192.800000
824.718811	190.900000
824.753662	200.800000
824.788574	198.800000
824.823364	195.700000
824.858276	192.100000
824.893188	200.400000
824.928040	201.400000
824.962952	197.800000
824.997803	198.100000
825.032654	196.600000
825.067566	198.100000
825.102417	193.000000
825.137268	193.600000
825.172119	194.300000
825.206970	191.900000
825.241882	192.000000
825.276733	191.900000
825.311646	191.500000
825.346436	189.200000
825.381348	189.300000
825.416138	195.400000
825.450989	190.400000
825.485901	185.300000
825.520691	185.100000
825.555542	188.200000
825.590454	195.100000
825.625244	186.500000
825.660095	200.800000
825.695007	197.600000
825.729797	192.000000
825.764648	189.600000
825.799438	192.400000
825.834290	195.500000
825.869202	187.100000
825.903992	194.300000
825.938843	190.400000
825.973694	188.600000
826.008484	205.300000
826.043335	189.100000
826.078186	184.300000
826.112976	201.200000
826.147827	199.700000
826.182678	203.200000
826.217468	185.800000
826.252319	198.400000
826.287109	188.200000
826.321899	200.200000
826.356750	189.800000
826.391541	188.100000
826.426392	199.900000
826.461182	191.900000
826.495972	187.000000
826.530823	184.500000
826.565613	193.700000
826.600403	189.100000
826.635254	196.900000
826.670044	184.500000
826.704834	185.000000
826.739685	188.600000
826.774475	195.800000
826.809265	194.000000
826.844055	191.700000
826.878906	200.400000
826.913635	193.800000
826.948425	197.400000
826.983215	194.500000
827.018005	198.600000
827.052856	190.800000
827.087585	197.700000
827.122375	186.200000
827.157227	192.100000
827.191956	205.000000
827.226746	188.500000
827.261536	197.100000
827.296265	186.600000
827.331116	191.400000
827.365906	198.100000
827.400635	190.100000
827.435425	185.500000
827.470215	199.700000
827.504944	191.300000
827.539734	197.900000
827.574463	193.500000
827.609253	200.000000
827.644043	193.300000
827.678772	198.500000
827.713562	190.700000
827.748352	191.900000
827.783081	189.900000
827.817871	195.100000
827.852600	188.500000
827.887329	193.400000
827.922119	183.400000
827.956848	195.900000
827.991638	206.000000
828.026367	193.400000
828.061157	193.400000
828.095886	193.100000
828.130615	208.300000
828.165344	182.900000
828.200073	193.600000
828.234863	191.300000
828.269592	191.400000
828.304321	198.600000
828.339111	193.500000
828.373779	190.000000
828.408569	198.500000
828.443298	198.300000
828.477966	190.500000
828.512756	193.500000
828.547424	189.400000
828.582214	190.500000
828.616943	191.000000
828.651672	191.000000
828.686340	197.200000
828.721130	189.700000
828.755798	192.200000
828.790527	193.200000
828.825256	194.300000
828.859924	194.300000
828.894714	199.800000
828.929443	200.800000
828.964111	187.800000
828.998840	197.100000
829.033569	191.100000
829.068237	191.000000
829.102966	190.900000
829.137634	195.200000
829.172363	193.800000
829.207092	194.500000
829.241821	188.700000
829.276489	185.000000
829.311157	193.500000
829.345825	190.100000
829.380554	197.200000
829.415283	188.700000
829.449951	186.900000
829.484619	200.800000
829.519348	199.300000
829.554016	192.200000
829.588745	192.300000
829.623413	185.900000
829.658081	203.900000
829.692749	184.800000
829.727417	197.300000
829.762146	194.000000
829.796814	188.200000
829.831482	191.700000
829.866150	194.400000
829.900879	190.700000
829.935486	195.900000
829.970154	191.600000
830.004883	204.900000
830.039490	192.700000
830.074219	190.100000
830.108887	194.100000
830.143494	191.300000
830.178223	186.800000
830.212891	191.400000
830.247498	192.700000
830.282166	201.400000
830.316772	197.500000
830.351501	190.300000
830.386169	191.900000
830.420776	191.200000
830.455444	192.900000
830.490112	190.500000
830.524719	183.300000
830.559387	194.600000
830.594055	196.300000
830.628662	192.300000
830.663330	191.500000
830.697998	202.200000
830.732605	192.200000
830.767273	195.200000
830.801941	191.400000
830.836487	201.800000
830.871155	194.100000
830.905762	193.700000
830.940430	184.700000
830.975098	189.600000
831.009644	192.900000
831.044312	201.000000
831.078979	195.500000
831.113525	183.700000
831.148193	193.400000
831.182861	190.900000
831.217407	197.500000
831.252075	210.700000
831.286621	189.300000
831.321289	189.200000
831.355896	192.200000
831.390564	199.800000
831.425110	193.100000
831.459778	199.800000
831.494324	205.600000
831.528931	196.500000
831.563599	195.900000
831.598145	185.200000
831.632751	192.800000
831.667419	191.000000
831.701965	195.800000
831.736572	197.800000
831.771179	186.700000
831.805786	190.800000
831.840393	198.100000
831.874939	184.300000
831.909546	197.000000
831.944153	185.000000
831.978760	193.400000
832.013306	188.000000
832.047913	201.100000
832.082458	202.000000
832.117065	189.900000
832.151672	201.600000
832.186218	193.900000
832.220825	196.400000
832.255432	184.300000
832.289978	189.900000
832.324585	194.100000
832.359192	194.800000
832.393677	190.100000
832.428284	193.900000
832.462830	191.000000
832.497437	191.900000
832.531982	197.000000
832.566589	191.100000
832.601135	193.100000
832.635681	185.000000
832.670227	191.500000
832.704773	200.900000
832.739380	194.200000
832.773926	193.100000
832.808472	189.900000
832.843079	192.700000
832.877563	196.300000
832.912170	190.200000
832.946716	185.700000
832.981201	199.400000
833.015808	196.700000
833.050293	192.300000
833.084839	188.400000
833.119446	190.500000
833.153992	197.300000
833.188477	193.200000
833.223022	189.200000
833.257568	195.600000
833.292114	198.600000
833.326660	203.300000
833.361145	191.200000
833.395691	184.900000
833.430237	191.200000
833.464783	195.300000
833.499329	188.800000
833.533875	187.600000
833.568359	195.500000
833.602905	198.800000
833.637390	198.000000
833.671875	189.700000
833.706421	192.800000
833.740906	189.800000
833.775452	182.800000
833.809998	190.500000
833.844482	199.600000
833.879028	190.600000
833.913513	190.600000
833.947998	196.200000
833.982544	188.100000
834.017090	189.500000
834.051514	182.800000
834.086060	195.600000
834.120544	192.200000
834.155029	194.400000
834.189575	189.400000
834.223999	196.200000
834.258545	193.600000
834.293030	193.200000
834.327515	194.100000
834.362000	190.200000
834.396545	197.700000
834.430969	192.000000
834.465454	197.000000
834.500000	184.100000
834.534424	194.200000
834.568970	183.100000
834.603455	183.600000
834.637878	189.800000
834.672363	192.700000
834.706909	193.200000
834.741333	193.800000
834.775818	184.400000
834.810242	188.300000
834.844727	193.500000
834.879211	190.000000
834.913635	194.200000
834.948181	193.500000
834.982666	192.500000
835.017090	191.700000
835.051575	194.900000
835.086060	190.400000
835.120483	195.700000
835.154907	197.100000
835.189331	192.000000
835.223816	195.000000
835.258301	187.400000
835.292786	187.400000
835.327209	198.500000
835.361694	189.400000
835.396057	189.800000
835.430542	195.800000
835.465027	193.300000
835.499390	186.800000
835.533875	212.800000
835.568359	190.200000
835.602722	183.900000
835.637207	194.200000
835.671692	186.600000
835.706055	208.500000
835.740540	194.100000
835.774902	195.200000
835.809387	193.200000
835.843811	185.700000
835.878235	200.500000
835.912659	185.100000
835.947083	190.600000
835.981506	192.900000
836.015930	185.700000
836.050354	197.700000
836.084778	202.600000
836.119202	198.100000
836.153625	205.200000
836.187988	188.700000
836.222473	187.400000
836.256897	194.500000
836.291260	191.700000
836.325684	194.600000
836.360046	190.500000
836.394470	192.100000
836.428894	199.200000
836.463318	188.300000
836.497681	197.000000
836.532104	200.100000
836.566467	195.100000
836.600891	192.400000
836.635315	198.200000
836.669678	196.200000
836.704102	197.200000
836.738525	194.300000
836.772888	184.900000
836.807251	190.400000
836.841675	195.600000
836.876038	187.300000
836.910461	189.400000
836.944763	196.700000
836.979187	186.600000
837.013611	198.200000
837.047974	185.400000
837.082336	203.200000
837.116699	195.500000
837.151062	191.900000
837.185486	186.300000
837.219849	192.100000
837.254211	195.600000
837.288574	192.100000
837.322937	187.200000
837.357300	181.600000
837.391663	204.400000
837.426086	198.300000
837.460388	194.300000
837.494751	198.000000
837.529114	190.300000
837.563477	196.800000
837.597839	195.000000
837.632141	192.500000
837.666565	189.000000
837.700928	196.700000
837.735229	194.700000
837.769592	195.800000
837.803955	198.200000
837.838257	190.200000
837.872620	189.900000
837.906982	201.500000
837.941284	192.900000
837.975647	194.200000
838.010010	200.000000
838.044312	190.800000
838.078674	190.600000
838.112976	193.000000
838.147339	197.300000
838.181702	192.100000
838.216003	203.200000
838.250366	194.900000
838.284668	195.700000
838.318970	185.000000
838.353333	193.500000
838.387634	191.300000
838.421936	194.400000
838.456299	194.100000
838.490601	201.000000
838.524902	196.500000
838.559265	198.300000
838.593567	196.900000
838.627869	187.000000
838.662170	195.800000
838.696472	186.800000
838.730774	189.200000
838.765137	197.000000
838.799377	178.800000
838.833740	193.000000
838.868042	199.000000
838.902283	184.600000
838.936646	199.500000
838.970947	195.600000
839.005188	198.100000
839.039551	186.600000
839.073792	199.500000
839.108093	191.100000
839.142395	202.700000
839.176697	186.600000
839.210937	193.200000
839.245300	204.700000
839.279541	186.500000
839.313843	190.900000
839.348145	196.700000
839.382385	197.300000
839.416687	196.300000
839.450989	197.000000
839.485229	192.700000
839.519531	189.100000
839.553833	198.400000
839.588013	193.000000
839.622314	195.000000
839.656555	197.100000
839.690857	193.900000
839.725159	187.500000
839.759460	191.700000
839.793640	191.000000
839.827942	191.000000
839.862183	188.500000
839.896423	195.500000
839.930725	203.000000
839.964966	201.600000
839.999207	200.600000
840.033508	200.700000
840.067688	191.500000
840.101990	202.400000
840.136230	194.200000
840.170471	201.200000
840.204712	189.400000
840.238953	188.600000
840.273193	194.600000
840.307434	196.600000
840.341736	190.600000
840.375916	186.700000
840.410217	191.100000
840.444397	198.100000
840.478638	196.400000
840.512878	198.600000
840.547119	193.300000
840.581360	196.400000
840.615601	203.700000
840.649780	202.700000
840.684021	193.200000
840.718262	200.900000
840.752441	199.200000
840.786682	194.200000
840.820862	196.400000
840.855103	201.900000
840.889343	193.400000
840.923584	197.700000
840.957764	195.400000
840.992004	195.500000
841.026184	207.700000
841.060425	192.000000
841.094666	189.800000
841.128845	197.900000
841.163025	193.900000
841.197266	196.200000
841.231445	193.800000
841.265686	194.100000
841.299866	188.700000
841.334045	201.500000
841.368286	192.200000
841.402405	201.900000
841.436646	198.500000
841.470825	190.900000
841.505005	194.200000
841.539185	190.000000
841.573425	190.700000
841.607544	194.400000
841.641785	194.600000
841.675964	188.200000
841.710144	194.400000
841.744324	191.300000
841.778503	193.200000
841.812683	190.400000
841.846863	202.900000
841.881042	200.300000
841.915222	191.300000
841.949402	209.100000
841.983521	185.400000
842.017700	193.200000
842.051880	195.600000
842.086060	196.700000
842.120239	193.500000
842.154419	191.500000
842.188538	194.600000
842.222717	190.300000
842.256897	204.100000
842.291016	191.900000
842.325195	196.500000
842.359375	205.500000
842.393494	202.200000
842.427673	194.200000
842.461853	197.700000
842.495911	202.000000
842.530090	196.400000
842.564209	193.400000
842.598389	195.500000
842.632568	195.500000
842.666626	198.600000
842.700806	189.200000
842.734985	192.000000
842.769043	197.500000
842.803223	192.000000
842.837402	193.300000
842.871460	192.100000
842.905640	201.600000
842.939697	190.300000
842.973877	196.900000
843.007996	199.300000
843.042175	203.100000
843.076233	191.500000
843.110413	196.600000
843.144470	203.800000
843.178589	197.600000
843.212769	189.600000
843.246826	199.000000
843.280945	192.100000
843.315125	192.400000
843.349182	190.600000
843.383301	202.400000
843.417419	207.000000
843.451538	194.700000
843.485657	191.700000
843.519714	193.500000
843.553833	195.800000
843.587952	191.500000
843.622070	190.700000
843.656128	197.800000
843.690247	192.700000
843.724304	191.600000
843.758423	196.000000
843.792542	192.300000
843.826599	193.700000
843.860718	191.900000
843.894836	188.300000
843.928894	194.500000
843.963013	197.300000
843.997070	190.900000
844.031128	187.500000
844.065247	200.100000
844.099304	198.600000
844.133362	194.400000
844.167480	196.400000
844.201599	201.700000
844.235596	195.600000
844.269714	198.000000
844.303711	197.500000
844.337830	186.300000
844.371948	196.900000
844.405945	193.200000
844.440063	189.100000
844.474121	208.700000
844.508118	192.700000
844.542236	194.200000
844.576294	194.200000
844.610352	188.900000
844.644409	194.000000
844.678406	186.500000
844.712524	199.500000
844.746582	201.600000
844.780640	194.000000
844.814636	195.500000
844.848755	204.000000
844.882751	192.700000
844.916809	198.400000
844.950867	196.000000
844.984863	202.300000
845.018921	193.100000
845.052979	191.600000
845.086975	195.400000
845.121033	187.400000
845.155090	190.000000
845.189087	202.100000
845.223145	192.100000
845.257141	195.500000
845.291199	197.400000
845.325256	201.800000
845.359253	194.100000
845.393250	204.400000
845.427307	193.500000
845.461304	195.700000
845.495361	195.000000
845.529358	204.800000
845.563354	192.100000
845.597412	190.400000
845.631409	202.300000
845.665405	200.800000
845.699463	200.100000
845.733459	193.800000
845.767456	201.600000
845.801453	193.900000
845.835449	199.600000
845.869446	199.000000
845.903503	198.900000
845.937439	191.200000
845.971497	201.400000
846.005493	190.700000
846.039429	199.400000
846.073486	203.300000
846.107483	194.900000
846.141418	194.500000
846.175476	194.000000
846.209473	201.100000
846.243408	191.500000
846.277405	196.100000
846.311401	190.500000
846.345337	194.800000
846.379395	199.900000
846.413330	191.100000
846.447327	203.900000
846.481323	189.900000
846.515259	191.800000
846.549255	195.700000
846.583252	196.400000
846.617187	190.000000
846.651184	196.700000
846.685120	193.100000
846.719055	201.800000
846.753052	199.500000
846.786987	199.200000
846.820984	189.300000
846.854980	200.800000
846.888916	190.300000
846.922852	197.200000
846.956848	204.100000
846.990723	189.900000
847.024719	195.900000
847.058716	193.300000
847.092590	201.800000
847.126587	195.300000
847.160522	193.000000
847.194458	198.800000
847.228455	190.500000
847.262390	190.400000
847.296265	192.500000
847.330261	202.700000
847.364136	191.900000
847.398132	191.200000
847.432068	193.100000
847.466003	193.400000
847.499939	193.200000
847.533875	196.200000
847.567749	194.000000
847.601746	193.600000
847.635681	197.700000
847.669556	186.200000
847.703491	200.300000
847.737427	210.000000
847.771301	189.600000
847.805237	195.900000
847.839233	196.400000
847.873108	194.500000
847.907043	193.900000
847.940918	201.400000
847.974854	196.400000
848.008789	199.500000
848.042664	195.300000
848.076538	198.000000
848.110474	195.200000
848.144348	196.800000
848.178284	188.500000
848.212219	196.300000
848.246094	193.500000
848.279968	196.500000
848.313904	198.400000
848.347778	195.100000
848.381653	192.400000
848.415588	190.700000
848.449463	192.800000
848.483337	197.500000
848.517212	200.400000
848.551086	195.700000
848.585022	191.000000
848.618835	203.600000
848.652771	191.800000
848.686646	190.700000
848.720520	203.300000
848.754395	194.400000
848.788330	199.300000
848.822144	199.600000
848.856018	193.400000
848.889954	204.800000
848.923767	190.200000
848.957642	191.400000
848.991577	199.100000
849.025391	190.800000
849.059265	194.200000
849.093079	191.600000
849.126953	188.900000
849.160828	201.200000
849.194641	196.200000
849.228577	192.300000
849.262451	194.200000
849.296265	192.700000
849.330139	188.700000
849.364014	196.800000
849.397827	197.500000
849.431702	194.200000
849.465515	200.000000
849.499329	186.000000
849.533203	189.100000
849.567078	185.200000
849.600891	197.300000
849.634766	193.700000
849.668518	200.700000
849.702393	195.000000
849.736267	188.000000
849.770020	208.100000
849.803894	197.400000
849.837769	195.000000
849.871521	195.100000
849.905396	199.800000
849.939270	190.400000
849.973022	193.700000
850.006897	200.100000
850.040710	198.700000
850.074524	198.300000
850.108337	194.700000
850.142151	199.000000
850.175964	201.600000
850.209778	193.100000
850.243530	182.200000
850.277405	200.000000
850.311218	194.800000
850.344971	191.800000
850.378845	203.400000
850.412659	192.300000
850.446411	195.100000
850.480225	193.900000
850.514038	201.700000
850.547791	197.800000
850.581665	195.400000
850.615417	191.700000
850.649231	196.100000
850.683044	194.100000
850.716858	194.600000
850.750610	195.400000
850.784424	199.700000
850.818176	191.200000
850.851929	193.200000
850.885742	192.200000
850.919495	194.400000
850.953308	201.300000
850.987122	202.400000
851.020874	189.900000
851.054626	187.300000
851.088440	198.200000
851.122192	198.900000
851.156006	196.400000
851.189697	194.200000
851.223511	189.300000
851.257263	199.600000
851.291077	198.100000
851.324829	194.100000
851.358582	191.400000
851.392334	190.700000
851.426086	192.200000
851.459900	202.100000
851.493591	195.800000
851.527344	196.300000
851.561157	193.600000
851.594849	197.800000
851.628662	197.500000
851.662415	202.800000
851.696106	197.200000
851.729858	198.400000
851.763611	188.900000
851.797363	196.300000
851.831116	190.500000
851.864868	198.900000
851.898560	199.200000
851.932312	192.800000
851.966064	197.200000
851.999817	196.000000
852.033569	195.100000
852.067261	199.100000
852.101013	191.300000
852.134766	194.600000
852.168457	183.900000
852.202209	198.300000
852.235901	190.400000
852.269592	198.300000
852.303345	205.300000
852.337036	198.500000
852.370789	196.200000
852.404541	198.700000
852.438171	191.900000
852.471924	194.900000
852.505676	188.100000
852.539307	198.100000
852.573059	190.300000
852.606812	193.700000
852.640442	193.100000
852.674194	200.800000
852.707886	205.400000
852.741577	202.500000
852.775269	189.300000
852.809021	196.200000
852.842651	197.500000
852.876404	199.800000
852.910034	197.200000
852.943787	202.000000
852.977478	198.500000
853.011108	192.200000
853.044861	190.700000
853.078552	201.600000
853.112183	197.400000
853.145874	196.000000
853.179626	184.100000
853.213257	196.400000
853.246948	190.900000
853.280640	203.200000
853.314270	194.300000
853.347961	201.200000
853.381653	196.000000
853.415283	198.400000
853.448975	191.800000
853.482605	196.400000
853.516296	193.900000
853.549988	188.100000
853.583618	196.400000
853.617310	197.000000
853.651001	196.400000
853.684631	191.800000
853.718323	192.400000
853.751953	203.300000
853.785583	185.900000
853.819275	199.400000
853.852966	196.000000
853.886536	186.200000
853.920227	189.700000
853.953918	200.500000
853.987488	192.800000
854.021179	198.500000
854.054749	204.000000
854.088440	196.800000
854.122131	189.800000
854.155701	199.900000
854.189331	192.500000
854.223022	199.400000
854.256592	198.100000
854.290283	192.500000
854.323914	198.700000
854.357483	196.700000
854.391174	198.100000
854.424744	204.900000
854.458374	196.900000
854.492065	205.300000
854.525696	193.800000
854.559265	201.200000
854.592896	206.200000
854.626465	196.500000
854.660095	195.400000
854.693787	198.200000
854.727356	194.500000
854.760986	197.900000
854.794617	195.900000
854.828186	193.800000
854.861816	197.400000
854.895447	196.000000
854.929016	196.100000
854.962585	198.100000
854.996155	202.600000
855.029785	197.800000
855.063416	197.900000
855.097046	200.500000
855.130615	188.700000
855.164185	201.200000
855.197754	195.000000
855.231384	198.300000
855.264954	194.900000
855.298523	199.100000
855.332153	195.500000
855.365723	203.400000
855.399292	191.000000
855.432922	194.300000
855.466492	197.400000
855.500061	189.500000
855.533630	191.600000
855.567200	199.100000
855.600769	199.400000
855.634338	200.300000
855.667969	197.800000
855.701477	192.200000
855.735046	190.500000
855.768616	185.700000
855.802185	197.200000
855.835754	211.100000
855.869324	186.900000
855.902893	195.100000
855.936401	202.600000
855.969971	196.700000
856.003540	187.300000
856.037109	199.500000
856.070618	196.700000
856.104187	188.200000
856.137695	191.900000
856.171265	185.100000
856.204834	195.100000
856.238403	200.600000
856.271912	192.900000
856.305481	195.700000
856.338989	187.400000
856.372559	198.100000
856.406128	196.300000
856.439636	199.600000
856.473145	192.800000
856.506653	202.300000
856.540222	194.500000
856.573792	202.200000
856.607300	198.500000
856.640808	188.900000
856.674377	196.000000
856.707825	223.500000
856.741394	199.900000
856.774902	192.800000
856.808472	186.500000
856.841980	198.700000
856.875488	203.900000
856.908936	188.900000
856.942505	193.800000
856.976013	195.500000
857.009521	189.400000
857.043030	196.300000
857.076477	192.800000
857.110046	200.600000
857.143555	196.300000
857.177063	200.400000
857.210571	194.000000
857.244080	189.700000
857.277527	198.900000
857.311035	195.100000
857.344543	199.500000
857.378052	193.900000
857.411499	200.300000
857.445068	205.200000
857.478516	196.500000
857.512024	189.700000
857.545532	193.700000
857.578979	198.400000
857.612427	194.500000
857.645874	191.400000
857.679382	196.300000
857.712891	199.100000
857.746399	195.500000
857.779846	201.200000
857.813354	199.600000
857.846741	194.400000
857.880249	190.800000
857.913757	195.900000
857.947266	197.400000
857.980652	198.800000
858.014160	192.100000
858.047546	193.000000
858.081055	192.400000
858.114563	202.900000
858.147949	189.400000
858.181458	199.600000
858.214844	194.300000
858.248352	186.700000
858.281799	201.200000
858.315308	208.700000
858.348694	198.900000
858.382141	202.900000
858.415588	199.600000
858.449036	200.300000
858.482483	197.300000
858.515930	191.300000
858.549377	195.100000
858.582825	203.100000
858.616211	198.500000
858.649658	198.100000
858.683105	190.400000
858.716553	192.900000
858.750000	188.800000
858.783386	193.400000
858.816833	187.100000
858.850281	196.200000
858.883728	197.600000
858.917114	194.900000
858.950562	204.700000
858.983948	203.600000
859.017395	199.600000
859.050781	193.700000
859.084167	192.500000
859.117615	189.800000
859.151062	199.200000
859.184448	193.000000
859.217834	194.200000
859.251282	193.900000
859.284668	190.900000
859.318054	185.800000
859.351440	192.400000
859.384888	204.200000
859.418274	187.300000
859.451721	186.600000
859.485046	197.300000
859.518494	196.100000
859.551819	191.800000
859.585266	196.400000
859.618652	197.100000
859.652039	187.600000
859.685425	191.900000
859.718811	188.900000
859.752197	182.900000
859.785583	202.800000
859.819031	203.900000
859.852356	198.400000
859.885742	190.800000
859.919067	195.700000
859.952454	192.800000
859.985901	200.500000
860.019287	193.300000
860.052612	0.000000
860.085999	0.000000
860.119324	0.000000
860.152710	0.000000
860.186096	0.000000
860.219421	0.000000
860.252808	0.000000
860.286133	0.000000
860.319519	0.000000
860.352905	0.000000
860.386292	0.000000
860.419617	0.000000
860.452942	0.000000
860.486267	0.000000
860.519653	0.000000
860.553040	0.000000
860.586365	0.000000
860.619690	0.000000
860.653076	0.000000
860.686340	0.000000
860.719727	0.000000
860.753113	0.000000
860.786377	0.000000
860.819763	0.000000
860.853027	0.000000
860.886414	0.000000
860.919739	0.000000
860.953125	0.000000
860.986389	0.000000
861.019714	0.000000
861.053040	0.000000
861.086365	0.000000
861.119690	0.000000
861.153076	0.000000
861.186340	0.000000
861.219666	0.000000
861.252930	0.000000
861.286316	0.000000
861.319641	0.000000
861.352905	0.000000
861.386230	0.000000
861.419495	0.000000
861.452820	0.000000
861.486145	0.000000
861.519470	0.000000
861.552734	0.000000
861.586060	0.000000
861.619324	0.000000
861.652649	0.000000
861.685974	0.000000
861.719238	0.000000
861.752563	0.000000
861.785828	0.000000
861.819092	0.000000
861.852417	0.000000
861.885742	0.000000
861.918945	0.000000
861.952271	0.000000
861.985535	0.000000
862.018799	0.000000
862.052124	0.000000
862.085449	0.000000
862.118652	0.000000
862.151978	0.000000
862.185181	0.000000
862.218506	0.000000
862.251770	0.000000
862.285034	0.000000
862.318298	0.000000
862.351562	0.000000
862.384827	0.000000
862.418091	0.000000
862.451355	0.000000
862.484619	0.000000
862.517883	0.000000
862.551086	0.000000
862.584351	0.000000
862.617676	0.000000
862.650940	0.000000
862.684143	0.000000
862.717407	0.000000
862.750610	0.000000
862.783875	0.000000
862.817139	0.000000
862.850342	0.000000
862.883606	0.000000
862.916870	0.000000
862.950073	0.000000
862.983337	0.000000
863.016602	0.000000
863.049805	0.000000
863.083069	0.000000
863.116211	0.000000
863.149475	0.000000
863.182739	0.000000
863.216003	0.000000
863.249146	0.000000
863.282410	0.000000
863.315613	0.000000
863.348816	0.000000
863.382080	0.000000
863.415222	0.000000
863.448486	0.000000
863.481689	0.000000
863.514893	0.000000
863.548157	0.000000
863.581360	0.000000
863.614502	0.000000
863.647766	0.000000
863.680908	0.000000
863.714172	0.000000
863.747375	0.000000
863.780579	0.000000
863.813721	0.000000
863.846985	0.000000
863.880127	0.000000
863.913330	0.000000
863.946533	0.000000
863.979675	0.000000
864.012939	0.000000
