Model Number: SPM-001-M   
Serial Number: 10090201
Firmware Version: 004.17.6
Exposure Time: 500000.000000us
Data Taken on: 10-03-2021 11:21:33.980
Wavelength	Amplitude
733.770752	0.000000
733.808716	0.000000
733.846619	0.000000
733.884583	0.000000
733.922546	0.000000
733.960449	0.000000
733.998413	0.000000
734.036377	0.000000
734.074219	0.000000
734.112183	0.000000
734.150085	0.000000
734.188049	0.000000
734.226013	0.000000
734.263916	0.000000
734.301819	0.000000
734.339783	0.000000
734.377686	0.000000
734.415588	0.000000
734.453552	0.000000
734.491455	0.000000
734.529419	0.000000
734.567322	0.000000
734.605225	0.000000
734.643127	0.000000
734.681091	0.000000
734.718994	0.000000
734.756897	0.000000
734.794800	0.000000
734.832703	0.000000
734.870667	0.000000
734.908508	0.000000
734.946472	0.000000
734.984375	0.000000
735.022278	0.000000
735.060181	0.000000
735.098083	0.000000
735.135986	0.000000
735.173889	0.000000
735.211792	0.000000
735.249695	0.000000
735.287598	0.000000
735.325439	0.000000
735.363403	0.000000
735.401306	0.000000
735.439148	0.000000
735.477051	0.000000
735.515015	0.000000
735.552856	0.000000
735.590759	0.000000
735.628662	0.000000
735.666504	0.000000
735.704407	0.000000
735.742310	0.000000
735.780212	0.000000
735.818115	0.000000
735.856018	0.000000
735.893860	0.000000
735.931763	0.000000
735.969604	0.000000
736.007507	0.000000
736.045410	0.000000
736.083252	0.000000
736.121094	0.000000
736.158997	0.000000
736.196838	0.000000
736.234741	0.000000
736.272644	0.000000
736.310486	0.000000
736.348389	0.000000
736.386230	0.000000
736.424072	0.000000
736.461975	0.000000
736.499878	0.000000
736.537720	0.000000
736.575562	0.000000
736.613403	0.000000
736.651306	0.000000
736.689148	0.000000
736.726990	0.000000
736.764893	0.000000
736.802734	0.000000
736.840576	0.000000
736.878418	0.000000
736.916321	0.000000
736.954102	0.000000
736.992004	0.000000
737.029846	0.000000
737.067688	0.000000
737.105530	0.000000
737.143372	0.000000
737.181213	0.000000
737.219116	0.000000
737.256897	0.000000
737.294739	0.000000
737.332642	0.000000
737.370422	0.000000
737.408325	0.000000
737.446167	0.000000
737.483948	0.000000
737.521790	0.000000
737.559692	0.000000
737.597473	0.000000
737.635315	0.000000
737.673157	0.000000
737.710999	0.000000
737.748840	0.000000
737.786621	0.000000
737.824463	0.000000
737.862305	0.000000
737.900085	0.000000
737.937927	0.000000
737.975769	0.000000
738.013550	0.000000
738.051392	0.000000
738.089233	0.000000
738.127014	0.000000
738.164856	0.000000
738.202698	0.000000
738.240479	0.000000
738.278320	0.000000
738.316162	0.000000
738.353943	0.000000
738.391785	0.000000
738.429565	0.000000
738.467407	0.000000
738.505188	0.000000
738.542969	0.000000
738.580811	0.000000
738.618652	0.000000
738.656372	0.000000
738.694214	0.000000
738.732056	0.000000
738.769836	0.000000
738.807617	0.000000
738.845459	0.000000
738.883240	0.000000
738.921021	0.000000
738.958862	0.000000
738.996582	0.000000
739.034424	0.000000
739.072205	0.000000
739.109985	0.000000
739.147827	0.000000
739.185547	0.000000
739.223389	0.000000
739.261169	0.000000
739.298889	0.000000
739.336731	0.000000
739.374512	0.000000
739.412292	0.000000
739.450073	0.000000
739.487854	0.000000
739.525635	0.000000
739.563416	0.000000
739.601135	0.000000
739.638977	0.000000
739.676758	0.000000
739.714478	0.000000
739.752258	0.000000
739.790100	0.000000
739.827820	0.000000
739.865601	0.000000
739.903381	0.000000
739.941101	0.000000
739.978882	196.300000
740.016724	193.400000
740.054443	199.100000
740.092224	191.300000
740.130005	189.100000
740.167725	191.400000
740.205505	189.000000
740.243225	200.600000
740.281006	195.200000
740.318787	187.200000
740.356506	199.600000
740.394287	198.200000
740.432068	189.800000
740.469727	188.200000
740.507507	198.700000
740.545288	193.400000
740.583008	195.800000
740.620789	194.300000
740.658569	184.900000
740.696228	195.500000
740.734009	199.000000
740.771790	181.300000
740.809509	197.500000
740.847229	189.400000
740.884949	190.000000
740.922729	186.800000
740.960449	192.000000
740.998169	188.500000
741.035950	189.100000
741.073669	195.700000
741.111389	193.800000
741.149170	202.900000
741.186890	204.200000
741.224609	198.600000
741.262329	195.600000
741.300110	203.400000
741.337769	188.100000
741.375549	188.100000
741.413208	193.800000
741.450989	188.700000
741.488708	191.600000
741.526367	192.100000
741.564148	198.000000
741.601868	198.400000
741.639526	194.000000
741.677307	195.400000
741.715027	196.000000
741.752686	189.400000
741.790466	201.200000
741.828186	196.900000
741.865845	189.800000
741.903564	184.100000
741.941345	193.200000
741.979004	189.200000
742.016724	197.200000
742.054382	192.500000
742.092102	199.100000
742.129822	186.600000
742.167480	191.700000
742.205200	191.800000
742.242920	195.000000
742.280640	198.500000
742.318359	190.300000
742.356079	190.400000
742.393738	198.100000
742.431396	193.000000
742.469116	198.400000
742.506775	182.500000
742.544495	196.900000
742.582214	197.100000
742.619873	193.300000
742.657593	201.800000
742.695251	197.500000
742.732971	193.000000
742.770630	196.400000
742.808289	195.300000
742.846008	193.100000
742.883728	198.800000
742.921326	194.100000
742.959045	190.600000
742.996765	193.900000
743.034424	192.100000
743.072083	191.300000
743.109802	194.200000
743.147400	188.500000
743.185120	195.600000
743.222839	194.500000
743.260437	199.900000
743.298157	195.000000
743.335754	186.200000
743.373474	192.100000
743.411133	186.500000
743.448792	194.500000
743.486450	194.000000
743.524170	185.400000
743.561768	194.600000
743.599487	199.000000
743.637146	205.900000
743.674744	191.400000
743.712463	192.200000
743.750122	194.600000
743.787720	197.800000
743.825439	189.800000
743.863037	191.000000
743.900696	192.700000
743.938416	219.400000
743.976013	191.600000
744.013672	202.600000
744.051331	199.300000
744.088928	203.000000
744.126587	201.100000
744.164307	195.000000
744.201904	190.500000
744.239563	197.900000
744.277222	196.800000
744.314819	193.300000
744.352478	201.500000
744.390137	195.800000
744.427734	196.000000
744.465393	191.800000
744.502991	188.100000
744.540649	197.200000
744.578308	195.900000
744.615906	188.600000
744.653564	184.300000
744.691223	197.000000
744.728821	187.200000
744.766418	193.000000
744.804077	197.700000
744.841675	191.800000
744.879333	187.400000
744.916992	193.200000
744.954529	191.200000
744.992187	200.000000
745.029785	192.900000
745.067444	189.200000
745.105042	195.900000
745.142639	196.200000
745.180298	202.500000
745.217896	191.600000
745.255493	192.700000
745.293152	197.700000
745.330750	199.400000
745.368347	201.900000
745.405945	198.100000
745.443604	194.900000
745.481140	198.300000
745.518799	191.100000
745.556396	197.400000
745.593994	197.600000
745.631592	192.600000
745.669189	188.400000
745.706787	195.700000
745.744385	190.100000
745.781982	196.200000
745.819580	192.100000
745.857178	192.800000
745.894775	193.900000
745.932373	193.800000
745.969971	194.400000
746.007568	185.800000
746.045166	203.200000
746.082764	199.800000
746.120300	196.600000
746.157898	198.400000
746.195557	194.300000
746.233093	188.600000
746.270691	198.600000
746.308228	195.500000
746.345825	198.500000
746.383423	196.900000
746.420959	189.300000
746.458557	191.500000
746.496155	192.600000
746.533691	193.200000
746.571289	188.700000
746.608887	194.100000
746.646423	195.700000
746.684021	196.300000
746.721619	191.000000
746.759155	196.200000
746.796753	186.100000
746.834351	187.200000
746.871826	190.000000
746.909424	201.900000
746.946960	197.200000
746.984558	192.800000
747.022156	191.900000
747.059631	200.500000
747.097229	196.700000
747.134827	192.500000
747.172363	202.500000
747.209900	195.000000
747.247498	189.700000
747.285034	201.300000
747.322571	202.000000
747.360168	192.400000
747.397644	187.100000
747.435242	198.200000
747.472778	200.300000
747.510315	191.200000
747.547913	192.100000
747.585388	201.500000
747.622925	194.200000
747.660522	185.000000
747.697998	191.100000
747.735596	194.400000
747.773132	191.800000
747.810669	193.500000
747.848206	200.100000
747.885742	188.300000
747.923279	188.100000
747.960815	195.400000
747.998352	195.200000
748.035889	198.900000
748.073425	198.500000
748.110901	191.500000
748.148437	190.700000
748.185974	197.600000
748.223511	205.100000
748.261047	195.400000
748.298584	195.600000
748.336060	193.800000
748.373596	197.800000
748.411133	213.000000
748.448608	190.200000
748.486145	197.700000
748.523682	202.300000
748.561218	200.500000
748.598755	196.100000
748.636292	199.000000
748.673706	191.800000
748.711243	201.100000
748.748718	195.800000
748.786255	194.700000
748.823792	193.800000
748.861267	190.600000
748.898804	196.300000
748.936340	196.300000
748.973816	192.700000
749.011292	200.200000
749.048828	196.600000
749.086304	199.000000
749.123840	206.600000
749.161316	189.000000
749.198792	203.400000
749.236328	200.100000
749.273743	194.200000
749.311279	192.200000
749.348816	195.800000
749.386230	196.400000
749.423767	182.600000
749.461304	196.800000
749.498718	194.600000
749.536255	202.800000
749.573730	208.300000
749.611206	202.500000
749.648682	193.500000
749.686218	194.100000
749.723633	199.400000
749.761169	193.300000
749.798645	189.100000
749.836060	193.700000
749.873596	191.600000
749.911011	193.700000
749.948547	201.500000
749.986023	194.600000
750.023437	193.300000
750.060913	187.500000
750.098450	188.100000
750.135864	194.200000
750.173340	195.000000
750.210815	200.600000
750.248291	188.100000
750.285767	194.100000
750.323242	201.100000
750.360657	197.100000
750.398132	189.300000
750.435608	198.300000
750.473022	190.800000
750.510498	189.300000
750.547974	190.500000
750.585449	192.200000
750.622925	183.400000
750.660339	203.500000
750.697815	194.600000
750.735291	193.200000
750.772644	195.700000
750.810120	193.400000
750.847595	198.200000
750.885010	190.800000
750.922485	203.800000
750.959961	192.800000
750.997375	201.400000
751.034851	198.900000
751.072266	200.100000
751.109680	186.900000
751.147156	201.700000
751.184570	196.500000
751.221985	196.500000
751.259460	185.700000
751.296875	194.900000
751.334290	194.700000
751.371765	200.500000
751.409180	196.700000
751.446594	199.700000
751.484070	196.700000
751.521423	197.500000
751.558899	197.000000
751.596375	203.100000
751.633728	201.900000
751.671204	206.900000
751.708618	189.400000
751.746033	196.300000
751.783447	188.900000
751.820801	191.100000
751.858276	198.300000
751.895691	192.800000
751.933105	193.500000
751.970520	188.800000
752.007935	193.200000
752.045349	199.000000
752.082764	194.700000
752.120178	192.100000
752.157532	189.300000
752.195007	191.100000
752.232422	198.600000
752.269775	200.500000
752.307190	198.800000
752.344543	190.500000
752.382019	193.600000
752.419434	192.100000
752.456787	197.400000
752.494202	199.100000
752.531616	196.200000
752.568970	200.300000
752.606384	196.400000
752.643799	196.300000
752.681152	202.800000
752.718567	197.200000
752.755981	187.700000
752.793335	197.000000
752.830750	186.600000
752.868164	201.600000
752.905518	189.600000
752.942932	197.800000
752.980225	189.200000
753.017639	199.900000
753.055054	193.500000
753.092407	197.100000
753.129822	201.400000
753.167175	203.900000
753.204529	192.700000
753.241943	192.300000
753.279358	188.500000
753.316650	198.800000
753.354065	198.200000
753.391479	198.300000
753.428772	203.600000
753.466187	198.300000
753.503479	189.300000
753.540894	192.700000
753.578308	189.800000
753.615601	189.500000
753.653015	195.100000
753.690369	192.900000
753.727722	189.600000
753.765076	188.100000
753.802490	190.200000
753.839783	186.600000
753.877136	192.300000
753.914551	211.300000
753.951843	188.200000
753.989258	199.400000
754.026611	196.400000
754.063904	197.600000
754.101257	191.100000
754.138611	188.200000
754.175964	195.600000
754.213318	207.700000
754.250610	185.600000
754.288025	192.600000
754.325378	189.400000
754.362671	198.700000
754.400024	193.000000
754.437378	204.300000
754.474670	204.400000
754.512085	191.200000
754.549438	194.900000
754.586731	193.100000
754.624084	193.600000
754.661438	191.100000
754.698730	203.400000
754.736084	192.400000
754.773376	193.400000
754.810730	198.700000
754.848083	193.200000
754.885315	200.200000
754.922668	186.000000
754.960022	190.700000
754.997314	199.900000
755.034668	197.000000
755.072021	197.300000
755.109253	193.500000
755.146606	203.800000
755.183960	194.300000
755.221252	205.400000
755.258545	200.800000
755.295898	202.600000
755.333191	204.700000
755.370544	200.200000
755.407776	197.100000
755.445129	197.600000
755.482422	203.400000
755.519714	194.300000
755.557068	189.200000
755.594360	190.000000
755.631653	201.900000
755.668945	207.000000
755.706299	200.700000
755.743530	210.700000
755.780884	206.000000
755.818176	205.100000
755.855408	204.200000
755.892761	201.300000
755.930054	199.900000
755.967346	200.100000
756.004639	202.800000
756.041870	199.600000
756.079224	203.600000
756.116516	196.400000
756.153748	205.200000
756.191040	208.300000
756.228394	203.000000
756.265625	197.300000
756.302917	200.900000
756.340210	197.800000
756.377441	206.600000
756.414795	208.200000
756.452087	198.700000
756.489319	194.800000
756.526611	203.600000
756.563843	203.200000
756.601135	212.200000
756.638428	209.700000
756.675659	200.700000
756.712952	205.900000
756.750244	205.000000
756.787476	203.800000
756.824768	210.800000
756.862061	200.500000
756.899292	248.900000
756.936584	207.600000
756.973816	214.200000
757.011047	216.200000
757.048340	205.100000
757.085632	204.900000
757.122864	219.900000
757.160156	202.500000
757.197327	206.900000
757.234619	210.000000
757.271912	205.300000
757.309082	209.300000
757.346375	201.800000
757.383667	211.300000
757.420837	208.100000
757.458130	207.000000
757.495422	205.800000
757.532593	206.700000
757.569885	199.800000
757.607117	201.700000
757.644348	208.000000
757.681580	219.100000
757.718811	194.800000
757.756042	207.000000
757.793335	203.800000
757.830505	210.500000
757.867798	204.100000
757.905029	202.700000
757.942200	208.900000
757.979492	203.600000
758.016724	207.400000
758.053894	205.300000
758.091187	227.200000
758.128418	207.600000
758.165588	208.300000
758.202820	221.200000
758.240112	210.600000
758.277283	220.300000
758.314514	210.600000
758.351685	206.400000
758.388916	220.300000
758.426147	217.100000
758.463379	219.700000
758.500610	212.900000
758.537842	211.300000
758.575012	218.900000
758.612244	206.500000
758.649475	223.600000
758.686646	204.000000
758.723877	218.700000
758.761108	221.400000
758.798279	211.700000
758.835510	215.300000
758.872742	219.100000
758.909851	215.300000
758.947083	216.500000
758.984253	215.000000
759.021484	218.700000
759.058716	218.800000
759.095886	219.200000
759.133057	213.400000
759.170288	219.400000
759.207458	210.400000
759.244690	227.000000
759.281860	225.800000
759.319031	215.400000
759.356262	211.000000
759.393433	214.300000
759.430603	214.400000
759.467773	215.000000
759.505005	221.700000
759.542175	221.800000
759.579346	213.700000
759.616516	216.900000
759.653687	219.000000
759.690918	213.700000
759.728027	218.300000
759.765259	218.200000
759.802429	220.300000
759.839539	220.500000
759.876770	222.300000
759.913940	227.300000
759.951111	218.400000
759.988281	218.100000
760.025452	216.800000
760.062561	214.000000
760.099792	227.900000
760.136963	222.600000
760.174072	218.100000
760.211243	213.400000
760.248413	215.400000
760.285583	214.000000
760.322754	231.200000
760.359863	226.100000
760.397034	227.800000
760.434204	219.700000
760.471375	221.600000
760.508545	219.200000
760.545715	219.500000
760.582825	214.900000
760.619995	226.400000
760.657166	215.100000
760.694275	228.300000
760.731445	224.200000
760.768555	225.400000
760.805664	226.500000
760.842834	223.500000
760.879944	227.600000
760.917114	226.800000
760.954285	223.900000
760.991394	219.800000
761.028564	229.700000
761.065674	229.200000
761.102783	222.500000
761.139954	231.700000
761.177124	230.700000
761.214172	232.200000
761.251343	226.000000
761.288452	228.700000
761.325562	231.900000
761.362732	225.500000
761.399841	228.000000
761.436951	230.900000
761.474121	225.200000
761.511169	232.500000
761.548340	235.400000
761.585449	234.100000
761.622559	234.600000
761.659668	233.700000
761.696838	238.900000
761.733887	237.100000
761.771057	232.800000
761.808167	233.900000
761.845276	240.000000
761.882385	248.000000
761.919434	236.600000
761.956604	258.300000
761.993713	232.200000
762.030762	243.900000
762.067871	237.500000
762.105042	238.000000
762.142090	246.600000
762.179199	242.900000
762.216309	246.100000
762.253418	257.100000
762.290527	250.700000
762.327637	247.100000
762.364685	236.500000
762.401794	247.600000
762.438904	244.400000
762.475952	240.400000
762.513062	240.100000
762.550110	241.900000
762.587219	255.800000
762.624329	255.400000
762.661377	249.900000
762.698486	249.500000
762.735596	247.800000
762.772644	242.300000
762.809753	240.600000
762.846863	247.900000
762.883911	252.800000
762.921021	253.500000
762.958069	250.200000
762.995117	259.100000
763.032227	260.300000
763.069336	251.500000
763.106323	246.600000
763.143433	245.800000
763.180481	254.200000
763.217590	253.000000
763.254639	249.700000
763.291687	251.800000
763.328735	262.400000
763.365845	252.900000
763.402893	252.800000
763.439941	256.600000
763.477051	260.600000
763.514038	260.900000
763.551147	254.200000
763.588196	258.100000
763.625244	255.800000
763.662292	263.900000
763.699402	267.900000
763.736389	263.700000
763.773499	272.800000
763.810486	264.300000
763.847534	263.600000
763.884644	265.300000
763.921631	261.700000
763.958679	274.500000
763.995728	264.300000
764.032776	272.900000
764.069824	259.100000
764.106873	267.500000
764.143860	274.000000
764.180969	266.500000
764.218018	275.200000
764.255005	268.800000
764.292053	271.100000
764.329102	281.800000
764.366089	281.700000
764.403137	279.600000
764.440125	267.500000
764.477173	273.000000
764.514221	275.100000
764.551208	273.300000
764.588257	268.200000
764.625305	280.700000
764.662292	285.400000
764.699341	289.100000
764.736389	280.300000
764.773376	297.700000
764.810425	283.000000
764.847473	293.000000
764.884399	286.200000
764.921448	292.200000
764.958435	291.200000
764.995483	281.800000
765.032532	298.500000
765.069458	283.800000
765.106506	284.600000
765.143555	284.600000
765.180481	288.600000
765.217529	297.100000
765.254578	282.100000
765.291504	294.000000
765.328552	288.500000
765.365540	286.100000
765.402527	301.000000
765.439575	287.700000
765.476501	281.900000
765.513550	283.500000
765.550537	288.100000
765.587463	296.000000
765.624512	287.400000
765.661499	281.000000
765.698486	297.000000
765.735474	288.400000
765.772461	291.100000
765.809448	301.000000
765.846436	297.000000
765.883423	301.200000
765.920410	296.300000
765.957397	291.900000
765.994385	296.800000
766.031311	307.400000
766.068359	299.700000
766.105286	300.100000
766.142273	307.500000
766.179260	304.100000
766.216187	295.700000
766.253174	293.700000
766.290161	305.100000
766.327148	305.200000
766.364136	306.500000
766.401123	322.200000
766.438049	301.800000
766.475037	313.300000
766.512024	310.700000
766.548950	326.700000
766.585937	319.900000
766.622864	316.800000
766.659790	314.100000
766.696777	305.000000
766.733704	323.000000
766.770691	312.100000
766.807678	328.700000
766.844604	323.400000
766.881531	323.400000
766.918518	329.900000
766.955444	331.600000
766.992432	326.100000
767.029358	328.600000
767.066284	332.400000
767.103271	328.700000
767.140198	360.100000
767.177124	347.000000
767.214050	336.800000
767.251038	339.500000
767.287964	337.400000
767.324890	333.800000
767.361816	340.600000
767.398743	346.500000
767.435730	340.000000
767.472595	344.300000
767.509583	349.700000
767.546509	339.900000
767.583374	347.400000
767.620361	339.000000
767.657288	346.100000
767.694214	347.700000
767.731140	346.400000
767.768066	347.000000
767.804993	351.900000
767.841919	345.500000
767.878845	352.200000
767.915710	361.000000
767.952698	353.000000
767.989563	355.700000
768.026489	360.800000
768.063416	352.600000
768.100281	353.100000
768.137207	368.700000
768.174133	366.700000
768.211060	365.200000
768.247986	365.000000
768.284912	364.700000
768.321777	367.000000
768.358704	368.300000
768.395630	367.200000
768.432495	362.200000
768.469421	370.600000
768.506348	378.700000
768.543152	383.200000
768.580078	380.700000
768.616943	382.600000
768.653870	384.000000
768.690796	384.800000
768.727661	378.500000
768.764587	385.000000
768.801453	380.700000
768.838318	390.700000
768.875244	387.100000
768.912109	394.400000
768.948975	385.200000
768.985901	391.600000
769.022766	389.600000
769.059631	397.600000
769.096558	393.300000
769.133362	391.700000
769.170288	392.900000
769.207214	395.700000
769.244019	402.200000
769.280945	401.400000
769.317810	410.800000
769.354675	403.900000
769.391541	411.000000
769.428406	407.700000
769.465271	418.600000
769.502136	410.700000
769.539062	414.100000
769.575867	412.000000
769.612732	412.500000
769.649597	420.000000
769.686462	423.600000
769.723328	417.200000
769.760193	417.600000
769.797058	417.300000
769.833923	427.700000
769.870728	423.100000
769.907593	428.100000
769.944519	428.200000
769.981323	432.600000
770.018188	432.700000
770.055054	428.700000
770.091858	427.700000
770.128723	442.800000
770.165588	447.700000
770.202393	431.300000
770.239258	444.900000
770.276062	439.300000
770.312927	442.800000
770.349792	451.200000
770.386597	446.500000
770.423462	453.800000
770.460327	462.500000
770.497131	444.900000
770.533997	436.000000
770.570862	457.800000
770.607605	458.700000
770.644470	450.600000
770.681335	454.300000
770.718140	450.400000
770.754944	443.500000
770.791809	444.500000
770.828613	450.800000
770.865479	450.500000
770.902222	462.400000
770.939087	452.800000
770.975952	444.800000
771.012695	452.400000
771.049561	468.700000
771.086365	450.100000
771.123169	452.900000
771.159973	454.700000
771.196838	455.400000
771.233582	460.500000
771.270447	461.000000
771.307251	463.000000
771.344055	459.900000
771.380859	466.500000
771.417664	458.600000
771.454468	469.900000
771.491272	468.900000
771.528076	469.500000
771.564880	471.100000
771.601685	483.100000
771.638428	470.000000
771.675293	476.900000
771.712097	466.300000
771.748840	485.500000
771.785645	478.100000
771.822449	480.700000
771.859253	483.100000
771.896057	480.300000
771.932861	494.800000
771.969604	482.400000
772.006409	473.300000
772.043213	490.900000
772.079956	489.300000
772.116760	481.300000
772.153503	486.600000
772.190308	497.400000
772.227112	487.100000
772.263855	487.300000
772.300659	492.700000
772.337463	499.600000
772.374207	492.200000
772.411011	488.300000
772.447754	493.600000
772.484497	515.000000
772.521301	507.100000
772.558105	503.300000
772.594849	506.400000
772.631592	515.800000
772.668396	510.600000
772.705139	519.700000
772.741882	520.000000
772.778625	532.700000
772.815430	532.200000
772.852173	526.200000
772.888916	537.600000
772.925720	543.500000
772.962463	549.400000
772.999207	546.400000
773.035950	550.500000
773.072754	551.600000
773.109436	549.500000
773.146240	549.900000
773.182922	546.200000
773.219727	556.000000
773.256470	553.600000
773.293152	539.500000
773.329956	549.800000
773.366699	553.200000
773.403381	546.500000
773.440186	558.700000
773.476929	562.700000
773.513611	553.800000
773.550354	555.000000
773.587158	557.400000
773.623840	554.300000
773.660583	565.600000
773.697327	579.500000
773.734009	567.100000
773.770813	567.800000
773.807495	568.000000
773.844238	570.800000
773.880981	592.300000
773.917664	586.700000
773.954407	592.300000
773.991150	581.300000
774.027832	590.200000
774.064575	579.600000
774.101318	590.400000
774.138000	597.600000
774.174744	590.500000
774.211487	597.800000
774.248108	586.900000
774.284851	586.800000
774.321594	603.800000
774.358276	609.400000
774.395020	615.900000
774.431702	609.300000
774.468384	603.700000
774.505127	601.200000
774.541809	617.100000
774.578491	628.700000
774.615234	634.400000
774.651917	626.500000
774.688599	629.800000
774.725342	637.200000
774.762024	636.600000
774.798706	643.600000
774.835449	642.600000
774.872070	650.400000
774.908813	648.400000
774.945496	640.900000
774.982178	643.800000
775.018860	650.000000
775.055542	651.700000
775.092224	654.600000
775.128967	660.800000
775.165588	657.100000
775.202271	650.800000
775.239014	666.100000
775.275635	667.400000
775.312317	662.800000
775.349060	667.100000
775.385681	672.100000
775.422363	656.900000
775.459045	669.900000
775.495667	670.800000
775.532410	681.100000
775.569092	680.300000
775.605713	680.900000
775.642395	674.000000
775.679016	682.000000
775.715698	685.000000
775.752380	690.000000
775.789001	685.400000
775.825684	682.700000
775.862366	685.500000
775.898987	697.600000
775.935669	686.600000
775.972351	708.400000
776.008972	701.600000
776.045654	701.600000
776.082336	697.300000
776.118958	700.600000
776.155640	703.900000
776.192322	716.700000
776.228882	716.400000
776.265564	713.900000
776.302185	709.200000
776.338867	712.600000
776.375488	703.400000
776.412109	714.700000
776.448792	724.500000
776.485413	732.000000
776.522034	717.600000
776.558716	713.100000
776.595337	707.700000
776.631958	720.200000
776.668579	720.700000
776.705261	729.200000
776.741882	719.600000
776.778503	720.000000
776.815186	710.100000
776.851746	722.700000
776.888367	722.600000
776.924988	733.100000
776.961609	721.500000
776.998291	718.400000
777.034851	708.800000
777.071472	729.300000
777.108154	724.600000
777.144714	736.000000
777.181335	738.200000
777.218018	728.000000
777.254578	740.200000
777.291199	733.400000
777.327759	743.600000
777.364380	752.200000
777.401062	754.600000
777.437622	763.000000
777.474243	749.000000
777.510864	759.500000
777.547424	757.700000
777.584045	765.000000
777.620667	767.400000
777.657227	774.800000
777.693848	769.100000
777.730469	784.500000
777.767029	775.900000
777.803650	782.200000
777.840271	776.400000
777.876831	778.800000
777.913452	786.500000
777.950012	761.400000
777.986633	762.700000
778.023193	766.100000
778.059753	767.400000
778.096375	769.400000
778.132996	784.200000
778.169556	771.100000
778.206116	774.300000
778.242737	768.300000
778.279297	781.100000
778.315857	770.500000
778.352478	784.400000
778.389038	796.100000
778.425598	795.000000
778.462219	808.100000
778.498718	805.500000
778.535339	811.200000
778.571838	812.300000
778.608459	826.400000
778.645020	819.200000
778.681580	832.100000
778.718140	835.000000
778.754761	829.500000
778.791260	837.000000
778.827881	846.800000
778.864441	840.300000
778.900940	845.300000
778.937561	844.100000
778.974121	842.100000
779.010620	828.100000
779.047241	841.900000
779.083801	849.900000
779.120300	855.100000
779.156860	855.600000
779.193359	852.100000
779.229980	857.400000
779.266541	867.100000
779.303040	867.900000
779.339600	859.000000
779.376160	857.200000
779.412659	864.000000
779.449219	854.600000
779.485779	862.400000
779.522278	869.300000
779.558838	871.600000
779.595398	879.600000
779.631897	879.900000
779.668457	871.700000
779.705017	881.100000
779.741516	873.200000
779.778076	869.600000
779.814575	877.400000
779.851074	889.400000
779.887634	881.600000
779.924133	891.700000
779.960693	881.000000
779.997253	888.500000
780.033691	896.100000
780.070251	899.400000
780.106812	906.200000
780.143250	903.000000
780.179810	896.100000
780.216370	908.600000
780.252808	916.400000
780.289368	931.100000
780.325867	929.800000
780.362366	926.000000
780.398865	946.200000
780.435364	934.400000
780.471863	946.500000
780.508423	945.800000
780.544861	963.100000
780.581421	960.800000
780.617920	950.100000
780.654419	945.300000
780.690918	955.400000
780.727417	967.800000
780.763916	965.500000
780.800415	968.500000
780.836914	951.800000
780.873352	961.600000
780.909912	951.900000
780.946411	960.800000
780.982849	970.300000
781.019348	988.500000
781.055786	982.900000
781.092346	971.900000
781.128845	988.900000
781.165283	992.400000
781.201782	999.300000
781.238281	1004.100000
781.274719	1010.000000
781.311218	1003.600000
781.347717	1015.500000
781.384155	997.800000
781.420654	1001.800000
781.457092	1017.100000
781.493591	1010.600000
781.530090	998.000000
781.566528	1006.000000
781.602966	1004.900000
781.639465	1009.500000
781.675903	1005.200000
781.712402	1020.300000
781.748901	1025.100000
781.785278	1014.800000
781.821777	1018.100000
781.858276	1017.400000
781.894714	1034.700000
781.931152	1021.000000
781.967651	1033.800000
782.004089	1023.300000
782.040527	1032.100000
782.076965	1026.400000
782.113403	1031.400000
782.149902	1031.900000
782.186340	1032.600000
782.222778	1046.600000
782.259277	1027.600000
782.295654	1026.200000
782.332092	1035.400000
782.368591	1031.200000
782.404968	1025.900000
782.441467	1033.700000
782.477905	1033.600000
782.514282	1027.500000
782.550781	1050.300000
782.587219	1045.200000
782.623596	1053.300000
782.660095	1050.900000
782.696472	1061.200000
782.732910	1059.700000
782.769348	1069.900000
782.805786	1083.800000
782.842224	1074.500000
782.878662	1070.100000
782.915039	1070.500000
782.951477	1068.600000
782.987915	1060.600000
783.024292	1076.600000
783.060730	1072.200000
783.097168	1050.300000
783.133545	1045.500000
783.169983	1044.100000
783.206421	1044.400000
783.242798	1039.500000
783.279236	1028.700000
783.315613	1022.400000
783.352051	1017.600000
783.388489	1005.800000
783.424866	994.700000
783.461304	1006.200000
783.497681	1007.500000
783.534058	1004.900000
783.570496	997.500000
783.606934	990.700000
783.643250	997.800000
783.679687	1014.300000
783.716125	1010.500000
783.752441	1019.700000
783.788879	1037.600000
783.825317	1034.600000
783.861633	1043.700000
783.898071	1051.300000
783.934448	1058.900000
783.970825	1059.300000
784.007263	1040.600000
784.043579	1000.100000
784.080017	950.700000
784.116394	880.800000
784.152710	813.000000
784.189148	757.400000
784.225525	698.700000
784.261902	637.200000
784.298279	592.000000
784.334656	554.000000
784.371033	512.400000
784.407410	507.700000
784.443787	509.200000
784.480164	533.900000
784.516541	566.800000
784.552856	634.800000
784.589233	691.900000
784.625610	745.500000
784.661987	822.800000
784.698364	857.000000
784.734741	892.400000
784.771057	929.600000
784.807434	970.300000
784.843811	1019.000000
784.880127	1039.700000
784.916504	1081.200000
784.952881	1090.500000
784.989197	1083.500000
785.025574	1093.400000
785.061951	1111.800000
785.098267	1139.900000
785.134644	1136.900000
785.170959	1135.500000
785.207275	1145.600000
785.243652	1142.300000
785.279968	1130.200000
785.316345	1147.200000
785.352722	1146.500000
785.388977	1148.100000
785.425354	1129.700000
785.461731	1104.100000
785.498047	1103.000000
785.534363	1096.100000
785.570679	1097.900000
785.606995	1100.700000
785.643372	1100.200000
785.679687	1086.000000
785.716003	1074.900000
785.752380	1071.400000
785.788635	1076.500000
785.825012	1106.200000
785.861328	1113.300000
785.897644	1101.500000
785.933960	1112.900000
785.970337	1124.200000
786.006592	1138.600000
786.042908	1156.300000
786.079285	1173.000000
786.115540	1181.600000
786.151855	1175.900000
786.188171	1172.400000
786.224487	1173.500000
786.260803	1175.800000
786.297119	1195.900000
786.333435	1190.900000
786.369751	1181.600000
786.406006	1190.600000
786.442322	1169.000000
786.478638	1159.700000
786.514954	1174.800000
786.551270	1176.100000
786.587585	1190.100000
786.623840	1168.700000
786.660156	1164.800000
786.696472	1149.700000
786.732727	1143.600000
786.769043	1155.500000
786.805298	1142.200000
786.841614	1147.500000
786.877930	1145.600000
786.914124	1125.000000
786.950439	1149.200000
786.986755	1156.600000
787.023010	1175.600000
787.059326	1183.400000
787.095642	1180.300000
787.131836	1194.600000
787.168152	1188.100000
787.204468	1194.900000
787.240723	1224.400000
787.276978	1237.500000
787.313293	1241.400000
787.349548	1235.400000
787.385803	1234.800000
787.422058	1229.100000
787.458313	1227.600000
787.494629	1231.500000
787.530823	1229.600000
787.567139	1217.300000
787.603455	1205.200000
787.639648	1188.400000
787.675903	1188.800000
787.712219	1190.700000
787.748413	1191.600000
787.784729	1202.200000
787.820984	1188.300000
787.857178	1174.700000
787.893494	1164.100000
787.929749	1154.600000
787.965942	1168.700000
788.002258	1190.400000
788.038452	1187.100000
788.074707	1179.200000
788.110962	1181.800000
788.147217	1176.600000
788.183472	1191.200000
788.219727	1201.000000
788.255920	1222.100000
788.292175	1228.000000
788.328430	1220.700000
788.364624	1199.100000
788.400879	1188.300000
788.437134	1201.900000
788.473328	1205.400000
788.509583	1200.700000
788.545837	1192.100000
788.582031	1184.500000
788.618286	1166.000000
788.654480	1169.000000
788.690735	1180.900000
788.726990	1208.300000
788.763184	1202.400000
788.799377	1217.100000
788.835632	1205.300000
788.871826	1221.500000
788.908081	1217.400000
788.944336	1211.600000
788.980469	1233.700000
789.016724	1224.000000
789.052979	1217.400000
789.089111	1197.500000
789.125366	1202.600000
789.161621	1186.500000
789.197754	1202.200000
789.234009	1192.400000
789.270142	1175.300000
789.306396	1163.000000
789.342590	1148.800000
789.378784	1124.700000
789.414978	1125.000000
789.451233	1148.400000
789.487366	1148.500000
789.523621	1157.900000
789.559814	1144.200000
789.595947	1136.400000
789.632202	1141.800000
789.668335	1159.600000
789.704529	1186.300000
789.740784	1197.500000
789.776917	1201.300000
789.813110	1181.800000
789.849304	1194.100000
789.885498	1200.900000
789.921692	1217.300000
789.957886	1229.100000
789.994019	1230.600000
790.030212	1219.200000
790.066406	1218.300000
790.102539	1215.200000
790.138733	1226.100000
790.174927	1221.100000
790.211060	1240.800000
790.247253	1227.400000
790.283386	1203.300000
790.319580	1192.100000
790.355774	1176.100000
790.391907	1182.700000
790.428101	1208.600000
790.464294	1205.800000
790.500427	1213.900000
790.536621	1192.800000
790.572754	1169.200000
790.608887	1171.600000
790.645081	1192.100000
790.681274	1203.700000
790.717346	1195.000000
790.753540	1148.300000
790.789734	1071.000000
790.825867	1017.700000
790.862000	1021.000000
790.898132	1073.500000
790.934265	1144.300000
790.970459	1206.200000
791.006592	1218.500000
791.042725	1221.200000
791.078918	1213.000000
791.114990	1216.400000
791.151184	1234.800000
791.187317	1262.400000
791.223389	1256.000000
791.259583	1239.300000
791.295715	1236.900000
791.331848	1241.400000
791.367981	1260.300000
791.404114	1264.100000
791.440247	1262.500000
791.476379	1267.300000
791.512451	1247.200000
791.548584	1239.200000
791.584778	1233.100000
791.620850	1261.100000
791.656982	1269.700000
791.693115	1260.200000
791.729187	1256.200000
791.765381	1247.400000
791.801514	1249.200000
791.837585	1245.800000
791.873718	1256.200000
791.909851	1272.900000
791.945923	1280.100000
791.982056	1239.100000
792.018188	1235.600000
792.054260	1239.500000
792.090393	1250.100000
792.126465	1238.200000
792.162598	1249.000000
792.198669	1230.500000
792.234741	1221.600000
792.270874	1216.900000
792.307007	1199.900000
792.343079	1215.200000
792.379150	1237.300000
792.415283	1209.800000
792.451355	1212.100000
792.487488	1186.500000
792.523560	1191.800000
792.559631	1195.100000
792.595764	1184.500000
792.631836	1195.500000
792.667908	1202.500000
792.703979	1184.200000
792.740051	1181.100000
792.776184	1189.700000
792.812256	1192.500000
792.848328	1201.900000
792.884399	1210.900000
792.920471	1203.800000
792.956543	1196.100000
792.992615	1194.700000
793.028748	1185.400000
793.064758	1196.600000
793.100830	1219.400000
793.136963	1235.000000
793.172974	1228.500000
793.209045	1220.700000
793.245178	1232.000000
793.281189	1210.500000
793.317261	1219.800000
793.353271	1216.600000
793.389404	1222.200000
793.425476	1217.600000
793.461487	1200.800000
793.497559	1197.500000
793.533630	1208.200000
793.569641	1216.100000
793.605713	1208.900000
793.641785	1219.700000
793.677795	1226.400000
793.713867	1206.300000
793.749878	1216.500000
793.785950	1233.900000
793.822021	1232.700000
793.858032	1213.100000
793.894104	1225.100000
793.930176	1217.000000
793.966187	1219.400000
794.002258	1203.900000
794.038269	1206.900000
794.074280	1206.500000
794.110352	1224.800000
794.146423	1204.400000
794.182373	1190.600000
794.218445	1179.200000
794.254517	1173.300000
794.290466	1157.600000
794.326538	1170.500000
794.362549	1173.300000
794.398560	1181.800000
794.434631	1176.100000
794.470581	1146.300000
794.506653	1140.700000
794.542664	1146.100000
794.578674	1141.400000
794.614685	1145.500000
794.650757	1139.900000
794.686707	1130.500000
794.722778	1119.200000
794.758789	1126.200000
794.794739	1136.700000
794.830811	1163.400000
794.866821	1178.200000
794.902771	1169.600000
794.938843	1154.300000
794.974792	1152.000000
795.010803	1154.200000
795.046814	1152.000000
795.082825	1146.900000
795.118835	1159.200000
795.154846	1134.300000
795.190796	1142.300000
795.226807	1117.500000
795.262817	1122.300000
795.298767	1121.800000
795.334778	1126.900000
795.370850	1117.100000
795.406799	1116.900000
795.442810	1092.800000
795.478821	1088.100000
795.514709	1090.800000
795.550720	1114.100000
795.586670	1096.900000
795.622681	1105.400000
795.658691	1095.300000
795.694641	1091.100000
795.730652	1076.300000
795.766663	1082.400000
795.802551	1092.500000
795.838562	1108.500000
795.874573	1091.900000
795.910522	1084.900000
795.946472	1079.400000
795.982483	1076.300000
796.018433	1080.300000
796.054382	1094.100000
796.090393	1078.100000
796.126282	1068.900000
796.162292	1058.500000
796.198242	1045.600000
796.234192	1050.500000
796.270203	1055.300000
796.306091	1061.700000
796.342041	1075.100000
796.378052	1060.000000
796.413940	1056.000000
796.449951	1060.200000
796.485901	1053.500000
796.521790	1056.700000
796.557800	1068.200000
796.593689	1070.200000
796.629639	1053.800000
796.665649	1048.000000
796.701599	1047.900000
796.737488	1051.800000
796.773437	1058.400000
796.809387	1053.500000
796.845337	1051.800000
796.881287	1041.400000
796.917175	1018.900000
796.953125	1018.000000
796.989075	1030.400000
797.024963	1041.900000
797.060913	1036.800000
797.096863	1032.800000
797.132751	1022.500000
797.168701	1006.000000
797.204590	1015.400000
797.240540	1017.800000
797.276489	1029.700000
797.312439	1031.600000
797.348328	1020.500000
797.384277	1008.600000
797.420166	1002.500000
797.456055	1002.700000
797.492004	999.800000
797.527893	1007.300000
797.563843	1016.300000
797.599731	1000.500000
797.635620	983.600000
797.671570	991.500000
797.707520	991.400000
797.743347	995.900000
797.779297	1003.400000
797.815125	997.800000
797.851074	987.500000
797.887024	978.400000
797.922913	973.300000
797.958801	982.500000
797.994690	980.900000
798.030579	989.200000
798.066467	992.600000
798.102356	973.100000
798.138245	967.900000
798.174133	962.700000
798.210083	975.200000
798.245911	984.600000
798.281799	982.500000
798.317749	974.000000
798.353577	962.200000
798.389465	964.100000
798.425293	962.600000
798.461243	958.200000
798.497131	959.100000
798.532959	960.000000
798.568848	963.000000
798.604736	949.400000
798.640564	934.900000
798.676453	942.000000
798.712402	941.700000
798.748230	953.900000
798.784119	948.600000
798.820007	954.500000
798.855835	945.500000
798.891724	938.400000
798.927551	932.000000
798.963379	940.300000
798.999268	937.700000
799.035095	931.000000
799.070984	925.700000
799.106873	912.300000
799.142700	924.400000
799.178528	918.300000
799.214417	914.200000
799.250244	931.300000
799.286133	920.300000
799.321960	916.400000
799.357788	911.100000
799.393677	913.900000
799.429504	910.600000
799.465332	912.200000
799.501221	927.800000
799.537048	917.900000
799.572876	904.500000
799.608704	908.000000
799.644531	914.200000
799.680359	915.500000
799.716248	921.900000
799.752014	926.000000
799.787903	912.500000
799.823730	909.700000
799.859558	903.200000
799.895386	904.400000
799.931213	905.000000
799.967041	895.000000
800.002869	893.000000
800.038696	904.500000
800.074463	881.200000
800.110352	881.100000
800.146179	877.400000
800.181946	884.100000
800.217773	882.100000
800.253540	877.500000
800.289429	871.700000
800.325256	866.900000
800.361023	861.500000
800.396851	866.000000
800.432678	868.100000
800.468445	859.000000
800.504272	853.800000
800.540100	843.500000
800.575867	842.400000
800.611694	846.000000
800.647461	840.700000
800.683289	842.600000
800.719116	845.200000
800.754883	836.200000
800.790649	820.900000
800.826477	808.900000
800.862244	830.800000
800.898071	817.200000
800.933838	809.900000
800.969604	809.300000
801.005432	804.200000
801.041199	809.200000
801.076965	801.300000
801.112793	792.900000
801.148560	782.300000
801.184326	786.300000
801.220154	785.600000
801.255859	775.100000
801.291687	775.900000
801.327454	767.700000
801.363281	767.500000
801.398987	767.800000
801.434814	771.200000
801.470520	772.300000
801.506287	757.100000
801.542114	755.800000
801.577820	759.700000
801.613647	758.500000
801.649414	747.900000
801.685120	751.800000
801.720886	755.300000
801.756714	745.800000
801.792419	733.900000
801.828186	728.700000
801.863892	741.300000
801.899719	730.600000
801.935486	727.300000
801.971252	736.900000
802.006958	726.100000
802.042725	722.400000
802.078430	722.400000
802.114197	717.100000
802.149963	731.700000
802.185669	720.300000
802.221436	715.100000
802.257202	714.900000
802.292908	711.600000
802.328674	721.700000
802.364441	718.800000
802.400146	712.100000
802.435913	709.700000
802.471558	703.500000
802.507324	700.400000
802.543091	692.100000
802.578796	706.300000
802.614502	703.800000
802.650269	706.700000
802.685974	688.800000
802.721741	693.400000
802.757446	697.400000
802.793152	693.300000
802.828918	703.800000
802.864624	695.900000
802.900330	695.400000
802.936035	690.100000
802.971802	681.900000
803.007446	682.400000
803.043213	675.500000
803.078857	685.400000
803.114624	668.000000
803.150330	673.900000
803.185974	663.400000
803.221741	665.900000
803.257446	672.100000
803.293152	673.000000
803.328857	661.400000
803.364563	660.100000
803.400208	649.500000
803.435974	659.000000
803.471680	652.400000
803.507324	644.600000
803.543030	653.300000
803.578735	658.600000
803.614441	642.800000
803.650146	649.900000
803.685791	637.900000
803.721497	640.300000
803.757202	628.000000
803.792847	640.500000
803.828552	628.600000
803.864258	632.400000
803.899902	630.500000
803.935608	614.200000
803.971313	620.800000
804.006958	621.100000
804.042664	616.700000
804.078308	624.400000
804.113953	614.600000
804.149658	622.100000
804.185364	610.200000
804.221008	620.100000
804.256714	605.400000
804.292297	606.800000
804.328003	601.500000
804.363708	592.100000
804.399292	594.500000
804.434998	599.500000
804.470703	589.200000
804.506287	600.800000
804.541992	593.700000
804.577637	600.800000
804.613281	584.900000
804.648926	581.300000
804.684570	586.500000
804.720215	584.700000
804.755920	586.300000
804.791565	576.700000
804.827209	585.300000
804.862854	576.400000
804.898437	568.900000
804.934143	569.100000
804.969788	573.500000
805.005371	573.900000
805.041077	575.600000
805.076721	574.100000
805.112305	562.000000
805.147949	561.300000
805.183655	558.800000
805.219238	564.200000
805.254883	562.000000
805.290466	566.200000
805.326111	555.600000
805.361755	550.000000
805.397400	553.300000
805.432983	555.700000
805.468628	557.000000
805.504211	560.000000
805.539856	559.100000
805.575500	563.100000
805.611084	553.600000
805.646729	539.500000
805.682373	547.600000
805.717957	556.300000
805.753601	556.200000
805.789246	537.900000
805.824768	550.100000
805.860413	552.400000
805.895996	540.300000
805.931641	536.800000
805.967224	546.200000
806.002869	535.400000
806.038452	548.000000
806.074036	539.400000
806.109619	531.400000
806.145264	530.500000
806.180847	528.300000
806.216431	525.600000
806.252014	531.700000
806.287659	527.400000
806.323181	537.100000
806.358826	532.100000
806.394409	512.900000
806.429993	514.900000
806.465576	530.900000
806.501160	513.600000
806.536743	505.000000
806.572327	516.700000
806.607910	514.200000
806.643494	512.000000
806.679077	504.900000
806.714661	512.100000
806.750244	509.800000
806.785828	500.200000
806.821350	500.700000
806.856934	506.000000
806.892517	500.200000
806.928101	490.600000
806.963684	497.200000
806.999268	508.000000
807.034790	485.800000
807.070374	493.400000
807.105896	485.800000
807.141479	483.900000
807.177063	489.500000
807.212585	482.900000
807.248169	480.300000
807.283752	487.200000
807.319275	480.500000
807.354858	481.000000
807.390381	474.300000
807.425903	477.100000
807.461487	471.900000
807.497070	468.900000
807.532593	469.100000
807.568115	463.000000
807.603699	462.800000
807.639221	458.100000
807.674744	456.900000
807.710266	464.000000
807.745850	466.500000
807.781372	458.600000
807.816895	452.500000
807.852417	460.000000
807.888000	456.200000
807.923523	453.100000
807.959045	456.200000
807.994629	443.300000
808.030090	441.800000
808.065613	448.800000
808.101135	450.100000
808.136658	446.700000
808.172241	444.700000
808.207764	444.800000
808.243225	435.300000
808.278809	433.200000
808.314270	440.300000
808.349792	427.800000
808.385315	429.400000
808.420837	433.300000
808.456360	437.400000
808.491882	434.500000
808.527344	430.600000
808.562866	438.200000
808.598389	430.100000
808.633850	422.900000
808.669434	418.900000
808.704895	429.400000
808.740417	434.600000
808.775940	424.800000
808.811462	420.200000
808.846924	414.400000
808.882385	409.400000
808.917847	407.700000
808.953369	411.500000
808.988892	405.200000
809.024353	413.400000
809.059875	409.900000
809.095398	403.300000
809.130798	401.900000
809.166321	400.700000
809.201843	401.100000
809.237305	400.000000
809.272766	407.700000
809.308228	392.200000
809.343750	393.100000
809.379211	394.900000
809.414734	394.100000
809.450134	403.000000
809.485657	384.400000
809.521118	391.800000
809.556580	389.600000
809.592102	386.900000
809.627502	386.500000
809.663025	384.100000
809.698486	380.600000
809.733887	376.600000
809.769409	379.700000
809.804871	368.600000
809.840271	371.400000
809.875793	376.300000
809.911194	377.700000
809.946655	370.300000
809.982178	364.600000
810.017639	369.800000
810.053040	367.100000
810.088501	362.600000
810.123901	364.900000
810.159424	361.100000
810.194885	357.400000
810.230286	360.300000
810.265747	356.300000
810.301208	352.300000
810.336609	356.200000
810.372070	348.900000
810.407532	351.600000
810.442932	353.500000
810.478394	357.500000
810.513794	351.300000
810.549255	349.900000
810.584717	348.900000
810.620117	344.300000
810.655518	353.300000
810.690979	350.600000
810.726379	347.000000
810.761841	336.500000
810.797302	336.000000
810.832642	338.000000
810.868103	347.800000
810.903564	335.300000
810.938904	342.300000
810.974365	330.600000
811.009827	337.000000
811.045166	332.800000
811.080627	324.400000
811.115967	332.700000
811.151428	340.200000
811.186829	330.700000
811.222229	331.400000
811.257629	322.300000
811.293091	329.000000
811.328430	336.000000
811.363892	330.900000
811.399292	333.900000
811.434631	325.900000
811.470093	330.000000
811.505493	320.900000
811.540833	322.800000
811.576294	329.200000
811.611694	320.700000
811.647034	318.000000
811.682434	320.200000
811.717773	321.800000
811.753235	326.000000
811.788635	318.000000
811.823975	319.900000
811.859375	328.500000
811.894775	313.500000
811.930115	315.300000
811.965515	314.000000
812.000916	318.600000
812.036255	313.900000
812.071655	318.800000
812.106995	309.500000
812.142395	312.800000
812.177795	318.500000
812.213196	316.800000
812.248474	315.400000
812.283875	306.500000
812.319214	310.600000
812.354614	310.500000
812.390015	306.300000
812.425293	309.300000
812.460693	307.600000
812.496094	304.800000
812.531433	297.000000
812.566772	299.500000
812.602173	304.700000
812.637451	304.200000
812.672852	297.600000
812.708191	303.200000
812.743530	297.800000
812.778931	288.500000
812.814270	291.900000
812.849609	299.600000
812.884949	294.700000
812.920227	287.700000
812.955627	305.000000
812.990967	295.300000
813.026306	290.600000
813.061646	280.800000
813.096985	277.400000
813.132324	276.200000
813.167664	283.000000
813.203003	286.100000
813.238281	272.500000
813.273682	276.400000
813.308960	271.400000
813.344299	273.900000
813.379639	284.300000
813.414978	276.200000
813.450256	274.300000
813.485596	279.100000
813.520874	271.600000
813.556213	274.700000
813.591614	279.300000
813.626831	270.200000
813.662170	274.400000
813.697510	284.400000
813.732788	267.100000
813.768127	274.100000
813.803467	275.200000
813.838745	267.900000
813.874084	272.200000
813.909363	270.500000
813.944641	273.900000
813.979980	261.700000
814.015320	268.200000
814.050598	264.600000
814.085876	268.400000
814.121155	266.600000
814.156494	264.300000
814.191772	264.300000
814.227051	261.700000
814.262390	262.500000
814.297668	262.300000
814.332947	266.600000
814.368225	256.600000
814.403564	261.500000
814.438782	257.000000
814.474121	259.300000
814.509338	255.600000
814.544617	266.200000
814.579956	254.900000
814.615173	265.800000
814.650513	262.100000
814.685791	253.000000
814.721008	258.100000
814.756348	256.600000
814.791626	253.200000
814.826843	253.900000
814.862122	253.200000
814.897400	249.800000
814.932678	253.300000
814.967957	251.600000
815.003235	251.300000
815.038452	247.200000
815.073730	243.600000
815.108948	254.500000
815.144226	251.600000
815.179504	255.700000
815.214722	239.200000
815.250000	239.800000
815.285278	246.600000
815.320496	240.600000
815.355774	242.900000
815.391052	247.800000
815.426270	243.500000
815.461487	241.700000
815.496765	237.600000
815.531982	234.400000
815.567261	239.700000
815.602539	248.700000
815.637695	242.400000
815.672974	244.200000
815.708191	244.400000
815.743408	244.500000
815.778687	238.100000
815.813904	247.600000
815.849121	229.400000
815.884399	230.900000
815.919556	233.100000
815.954834	233.600000
815.990051	235.900000
816.025269	241.000000
816.060486	231.500000
816.095703	231.500000
816.130920	235.300000
816.166199	230.700000
816.201416	235.300000
816.236572	239.800000
816.271851	230.200000
816.307007	238.100000
816.342224	227.100000
816.377441	230.500000
816.412659	222.100000
816.447876	234.000000
816.483093	229.600000
816.518250	230.000000
816.553467	226.200000
816.588745	231.100000
816.623901	224.600000
816.659119	218.800000
816.694275	224.700000
816.729492	220.400000
816.764709	257.600000
816.799927	217.600000
816.835083	224.100000
816.870300	218.400000
816.905457	220.700000
816.940674	224.900000
816.975830	218.600000
817.010986	216.500000
817.046204	219.400000
817.081421	214.800000
817.116577	216.700000
817.151733	224.000000
817.186951	225.600000
817.222107	221.200000
817.257324	223.100000
817.292419	219.900000
817.327637	213.600000
817.362854	218.500000
817.398010	212.500000
817.433167	214.700000
817.468323	213.200000
817.503479	215.300000
817.538635	223.600000
817.573853	219.000000
817.608948	216.300000
817.644165	213.000000
817.679321	211.600000
817.714478	211.400000
817.749634	215.100000
817.784790	227.300000
817.819946	222.200000
817.855103	204.300000
817.890198	212.900000
817.925415	205.900000
817.960571	214.600000
817.995667	214.000000
818.030823	215.100000
818.066040	207.200000
818.101135	211.400000
818.136292	211.000000
818.171448	203.900000
818.206543	210.700000
818.241699	212.500000
818.276855	211.200000
818.311951	210.200000
818.347107	204.900000
818.382263	212.300000
818.417358	217.900000
818.452515	216.300000
818.487610	218.800000
818.522766	206.000000
818.557922	217.300000
818.593018	211.800000
818.628113	210.600000
818.663269	205.300000
818.698364	209.500000
818.733521	205.700000
818.768677	211.500000
818.803711	203.500000
818.838867	204.200000
818.874023	208.000000
818.909058	204.000000
818.944214	202.400000
818.979370	209.300000
819.014404	207.400000
819.049561	203.900000
819.084595	210.200000
819.119751	199.800000
819.154846	209.300000
819.189941	204.700000
819.225037	198.600000
819.260193	195.500000
819.295227	198.700000
819.330322	194.000000
819.365479	194.400000
819.400513	226.400000
819.435608	192.700000
819.470764	191.300000
819.505798	195.200000
819.540894	198.100000
819.575989	196.800000
819.611084	205.200000
819.646179	206.600000
819.681213	201.200000
819.716309	199.100000
819.751404	199.200000
819.786438	204.900000
819.821533	194.800000
819.856628	201.100000
819.891663	203.500000
819.926758	209.600000
819.961853	205.200000
819.996887	196.600000
820.031982	202.200000
820.067017	198.600000
820.102112	226.800000
820.137207	197.600000
820.172302	214.500000
820.207275	195.100000
820.242371	195.200000
820.277405	196.100000
820.312500	199.200000
820.347534	201.400000
820.382568	203.300000
820.417664	196.100000
820.452759	197.000000
820.487732	194.900000
820.522827	196.100000
820.557861	193.300000
820.592896	195.000000
820.627930	195.400000
820.662964	194.200000
820.698059	198.900000
820.733093	195.900000
820.768127	200.200000
820.803162	196.300000
820.838196	194.300000
820.873230	197.200000
820.908264	198.400000
820.943298	193.900000
820.978333	201.600000
821.013367	198.000000
821.048401	201.000000
821.083435	202.400000
821.118469	187.600000
821.153503	201.900000
821.188477	198.300000
821.223511	189.700000
821.258484	196.700000
821.293579	197.900000
821.328613	190.200000
821.363647	195.600000
821.398621	191.100000
821.433655	192.800000
821.468628	209.100000
821.503662	195.400000
821.538696	197.400000
821.573669	191.300000
821.608704	199.400000
821.643677	192.900000
821.678650	198.700000
821.713684	204.600000
821.748718	192.200000
821.783691	195.000000
821.818726	196.900000
821.853638	197.200000
821.888672	194.200000
821.923706	195.700000
821.958618	191.800000
821.993652	193.900000
822.028687	200.400000
822.063599	201.800000
822.098633	197.800000
822.133667	190.900000
822.168579	192.800000
822.203613	196.400000
822.238586	191.200000
822.273560	196.900000
822.308533	191.000000
822.343567	192.100000
822.378479	194.200000
822.413452	194.800000
822.448425	190.400000
822.483398	199.600000
822.518372	198.400000
822.553345	192.200000
822.588318	202.700000
822.623291	193.200000
822.658203	192.200000
822.693237	194.900000
822.728210	189.200000
822.763123	196.200000
822.798096	189.200000
822.833069	193.600000
822.867981	195.600000
822.902954	196.400000
822.937927	197.100000
822.972900	206.300000
823.007874	187.100000
823.042725	197.700000
823.077698	207.000000
823.112671	190.600000
823.147583	194.300000
823.182556	196.000000
823.217529	198.700000
823.252441	191.500000
823.287415	207.600000
823.322388	197.400000
823.357239	195.000000
823.392212	201.900000
823.427185	198.400000
823.462097	191.300000
823.497009	199.300000
823.531982	191.800000
823.566895	195.300000
823.601807	190.500000
823.636719	193.300000
823.671631	197.500000
823.706604	193.100000
823.741455	197.100000
823.776428	187.200000
823.811340	198.100000
823.846252	201.100000
823.881165	203.000000
823.916138	195.700000
823.950989	203.700000
823.985901	192.400000
824.020813	195.000000
824.055725	192.300000
824.090637	190.800000
824.125610	196.500000
824.160461	195.100000
824.195374	197.100000
824.230225	198.300000
824.265198	187.000000
824.300110	191.200000
824.334961	204.800000
824.369873	184.100000
824.404785	196.700000
824.439636	202.000000
824.474548	185.800000
824.509460	184.600000
824.544312	200.500000
824.579224	196.000000
824.614075	197.500000
824.648987	193.800000
824.683899	192.200000
824.718811	191.700000
824.753662	202.700000
824.788574	198.900000
824.823364	195.300000
824.858276	189.800000
824.893188	199.700000
824.928040	200.800000
824.962952	197.300000
824.997803	200.000000
825.032654	195.700000
825.067566	199.100000
825.102417	192.400000
825.137268	193.900000
825.172119	194.600000
825.206970	192.600000
825.241882	193.200000
825.276733	191.500000
825.311646	192.500000
825.346436	187.400000
825.381348	189.600000
825.416138	196.600000
825.450989	189.900000
825.485901	185.100000
825.520691	185.800000
825.555542	189.000000
825.590454	195.100000
825.625244	186.200000
825.660095	202.100000
825.695007	197.300000
825.729797	191.900000
825.764648	190.400000
825.799438	193.200000
825.834290	194.500000
825.869202	186.600000
825.903992	193.900000
825.938843	189.500000
825.973694	188.200000
826.008484	206.600000
826.043335	188.200000
826.078186	185.000000
826.112976	201.800000
826.147827	200.000000
826.182678	203.000000
826.217468	186.400000
826.252319	199.400000
826.287109	190.900000
826.321899	200.100000
826.356750	192.700000
826.391541	188.800000
826.426392	198.600000
826.461182	193.600000
826.495972	188.300000
826.530823	185.600000
826.565613	193.900000
826.600403	189.500000
826.635254	196.200000
826.670044	184.300000
826.704834	186.100000
826.739685	188.700000
826.774475	194.400000
826.809265	192.900000
826.844055	190.800000
826.878906	199.600000
826.913635	196.200000
826.948425	195.600000
826.983215	195.600000
827.018005	198.400000
827.052856	191.500000
827.087585	196.500000
827.122375	185.100000
827.157227	194.000000
827.191956	206.500000
827.226746	189.400000
827.261536	197.400000
827.296265	187.300000
827.331116	190.700000
827.365906	197.700000
827.400635	189.900000
827.435425	186.300000
827.470215	200.300000
827.504944	192.300000
827.539734	197.200000
827.574463	193.800000
827.609253	201.400000
827.644043	193.700000
827.678772	199.400000
827.713562	191.600000
827.748352	191.000000
827.783081	190.200000
827.817871	196.000000
827.852600	188.200000
827.887329	194.300000
827.922119	183.100000
827.956848	196.300000
827.991638	207.300000
828.026367	194.800000
828.061157	193.800000
828.095886	192.400000
828.130615	207.700000
828.165344	182.900000
828.200073	194.000000
828.234863	191.100000
828.269592	192.900000
828.304321	197.900000
828.339111	193.800000
828.373779	189.600000
828.408569	198.600000
828.443298	198.300000
828.477966	190.700000
828.512756	194.400000
828.547424	187.900000
828.582214	190.100000
828.616943	191.600000
828.651672	191.100000
828.686340	197.500000
828.721130	189.600000
828.755798	192.000000
828.790527	193.200000
828.825256	194.300000
828.859924	194.800000
828.894714	200.700000
828.929443	201.300000
828.964111	190.000000
828.998840	191.200000
829.033569	190.100000
829.068237	191.500000
829.102966	191.200000
829.137634	194.400000
829.172363	194.400000
829.207092	195.200000
829.241821	189.200000
829.276489	185.300000
829.311157	194.400000
829.345825	191.400000
829.380554	199.100000
829.415283	189.600000
829.449951	187.300000
829.484619	202.400000
829.519348	201.500000
829.554016	193.200000
829.588745	192.600000
829.623413	186.900000
829.658081	204.600000
829.692749	186.900000
829.727417	198.900000
829.762146	195.200000
829.796814	188.200000
829.831482	191.700000
829.866150	194.400000
829.900879	190.600000
829.935486	196.200000
829.970154	191.700000
830.004883	203.900000
830.039490	195.200000
830.074219	189.900000
830.108887	193.200000
830.143494	192.600000
830.178223	187.500000
830.212891	190.800000
830.247498	194.400000
830.282166	201.800000
830.316772	199.300000
830.351501	188.500000
830.386169	191.900000
830.420776	191.400000
830.455444	192.700000
830.490112	191.300000
830.524719	184.500000
830.559387	195.600000
830.594055	195.400000
830.628662	192.200000
830.663330	192.700000
830.697998	201.800000
830.732605	192.400000
830.767273	196.300000
830.801941	192.300000
830.836487	202.800000
830.871155	195.700000
830.905762	196.700000
830.940430	185.000000
830.975098	189.200000
831.009644	193.500000
831.044312	201.800000
831.078979	195.300000
831.113525	184.600000
831.148193	192.400000
831.182861	191.400000
831.217407	196.700000
831.252075	211.600000
831.286621	190.900000
831.321289	189.300000
831.355896	192.000000
831.390564	199.600000
831.425110	193.200000
831.459778	199.900000
831.494324	206.200000
831.528931	196.100000
831.563599	196.300000
831.598145	186.200000
831.632751	191.900000
831.667419	191.600000
831.701965	195.400000
831.736572	196.000000
831.771179	186.700000
831.805786	191.100000
831.840393	200.700000
831.874939	184.800000
831.909546	196.800000
831.944153	183.500000
831.978760	190.900000
832.013306	188.400000
832.047913	199.600000
832.082458	199.900000
832.117065	188.000000
832.151672	202.000000
832.186218	193.400000
832.220825	197.000000
832.255432	184.600000
832.289978	188.800000
832.324585	194.800000
832.359192	195.400000
832.393677	191.300000
832.428284	193.900000
832.462830	191.700000
832.497437	193.200000
832.531982	198.100000
832.566589	191.500000
832.601135	194.200000
832.635681	185.400000
832.670227	194.200000
832.704773	200.400000
832.739380	195.500000
832.773926	193.200000
832.808472	189.700000
832.843079	195.100000
832.877563	196.900000
832.912170	190.000000
832.946716	186.500000
832.981201	197.400000
833.015808	197.600000
833.050293	191.700000
833.084839	189.700000
833.119446	190.700000
833.153992	195.700000
833.188477	193.400000
833.223022	189.600000
833.257568	194.700000
833.292114	199.500000
833.326660	204.100000
833.361145	190.700000
833.395691	187.000000
833.430237	191.700000
833.464783	197.000000
833.499329	190.900000
833.533875	186.600000
833.568359	196.000000
833.602905	199.500000
833.637390	198.700000
833.671875	190.400000
833.706421	191.700000
833.740906	188.700000
833.775452	183.200000
833.809998	191.700000
833.844482	201.100000
833.879028	193.300000
833.913513	191.000000
833.947998	196.000000
833.982544	188.700000
834.017090	190.400000
834.051514	181.600000
834.086060	196.000000
834.120544	193.100000
834.155029	195.600000
834.189575	191.400000
834.223999	195.500000
834.258545	194.000000
834.293030	194.400000
834.327515	194.000000
834.362000	190.900000
834.396545	196.900000
834.430969	193.200000
834.465454	197.100000
834.500000	185.300000
834.534424	195.500000
834.568970	183.300000
834.603455	183.000000
834.637878	189.700000
834.672363	193.500000
834.706909	193.300000
834.741333	193.100000
834.775818	184.500000
834.810242	187.100000
834.844727	195.300000
834.879211	191.200000
834.913635	194.000000
834.948181	194.700000
834.982666	193.500000
835.017090	191.100000
835.051575	196.600000
835.086060	190.400000
835.120483	196.200000
835.154907	197.900000
835.189331	193.200000
835.223816	197.200000
835.258301	188.400000
835.292786	188.700000
835.327209	198.300000
835.361694	190.400000
835.396057	190.200000
835.430542	195.100000
835.465027	193.000000
835.499390	187.500000
835.533875	212.100000
835.568359	191.500000
835.602722	185.000000
835.637207	193.800000
835.671692	187.300000
835.706055	209.900000
835.740540	195.200000
835.774902	195.500000
835.809387	193.300000
835.843811	187.000000
835.878235	201.100000
835.912659	187.200000
835.947083	190.300000
835.981506	193.300000
836.015930	186.200000
836.050354	199.200000
836.084778	201.800000
836.119202	198.500000
836.153625	205.600000
836.187988	189.900000
836.222473	189.600000
836.256897	194.400000
836.291260	192.100000
836.325684	194.400000
836.360046	189.600000
836.394470	190.900000
836.428894	199.900000
836.463318	189.300000
836.497681	197.400000
836.532104	200.800000
836.566467	194.100000
836.600891	191.000000
836.635315	198.800000
836.669678	197.100000
836.704102	197.300000
836.738525	194.100000
836.772888	186.200000
836.807251	190.400000
836.841675	194.800000
836.876038	188.300000
836.910461	189.700000
836.944763	196.800000
836.979187	188.800000
837.013611	199.500000
837.047974	186.600000
837.082336	204.600000
837.116699	197.000000
837.151062	192.200000
837.185486	187.700000
837.219849	193.100000
837.254211	197.100000
837.288574	193.200000
837.322937	188.200000
837.357300	180.800000
837.391663	206.100000
837.426086	199.200000
837.460388	193.400000
837.494751	198.800000
837.529114	192.200000
837.563477	198.200000
837.597839	196.200000
837.632141	193.400000
837.666565	191.500000
837.700928	195.200000
837.735229	197.200000
837.769592	195.600000
837.803955	198.100000
837.838257	190.700000
837.872620	189.700000
837.906982	201.500000
837.941284	194.000000
837.975647	194.200000
838.010010	199.800000
838.044312	191.300000
838.078674	191.100000
838.112976	193.200000
838.147339	197.900000
838.181702	193.400000
838.216003	203.600000
838.250366	195.200000
838.284668	195.200000
838.318970	184.700000
838.353333	194.100000
838.387634	191.400000
838.421936	193.500000
838.456299	193.600000
838.490601	200.400000
838.524902	196.800000
838.559265	198.800000
838.593567	196.700000
838.627869	188.000000
838.662170	196.200000
838.696472	186.700000
838.730774	191.300000
838.765137	199.100000
838.799377	179.200000
838.833740	194.800000
838.868042	200.900000
838.902283	184.600000
838.936646	199.600000
838.970947	194.900000
839.005188	198.600000
839.039551	186.200000
839.073792	200.600000
839.108093	190.800000
839.142395	204.200000
839.176697	187.700000
839.210937	194.300000
839.245300	205.400000
839.279541	187.800000
839.313843	191.200000
839.348145	197.800000
839.382385	198.800000
839.416687	199.300000
839.450989	197.700000
839.485229	193.500000
839.519531	188.000000
839.553833	199.600000
839.588013	193.200000
839.622314	194.400000
839.656555	195.800000
839.690857	191.900000
839.725159	186.200000
839.759460	191.100000
839.793640	189.900000
839.827942	192.900000
839.862183	189.100000
839.896423	194.400000
839.930725	203.000000
839.964966	199.800000
839.999207	201.100000
840.033508	201.500000
840.067688	190.400000
840.101990	201.900000
840.136230	193.300000
840.170471	201.500000
840.204712	190.300000
840.238953	189.800000
840.273193	193.300000
840.307434	196.700000
840.341736	190.200000
840.375916	187.200000
840.410217	192.300000
840.444397	198.600000
840.478638	197.400000
840.512878	200.100000
840.547119	195.900000
840.581360	197.500000
840.615601	203.600000
840.649780	202.900000
840.684021	193.500000
840.718262	201.800000
840.752441	198.500000
840.786682	193.200000
840.820862	197.900000
840.855103	202.500000
840.889343	195.400000
840.923584	199.300000
840.957764	197.300000
840.992004	196.900000
841.026184	208.700000
841.060425	192.300000
841.094666	190.200000
841.128845	196.600000
841.163025	196.000000
841.197266	195.100000
841.231445	195.400000
841.265686	193.800000
841.299866	190.900000
841.334045	202.500000
841.368286	193.600000
841.402405	200.900000
841.436646	199.000000
841.470825	190.200000
841.505005	194.000000
841.539185	188.400000
841.573425	190.800000
841.607544	194.200000
841.641785	194.200000
841.675964	188.200000
841.710144	194.300000
841.744324	192.000000
841.778503	193.700000
841.812683	189.700000
841.846863	202.400000
841.881042	200.100000
841.915222	190.900000
841.949402	209.800000
841.983521	185.400000
842.017700	192.500000
842.051880	195.200000
842.086060	196.100000
842.120239	194.800000
842.154419	192.200000
842.188538	195.700000
842.222717	191.100000
842.256897	205.200000
842.291016	193.200000
842.325195	196.900000
842.359375	206.100000
842.393494	202.900000
842.427673	195.500000
842.461853	197.800000
842.495911	203.400000
842.530090	198.500000
842.564209	194.600000
842.598389	196.500000
842.632568	195.900000
842.666626	198.800000
842.700806	191.300000
842.734985	193.600000
842.769043	197.800000
842.803223	191.800000
842.837402	193.300000
842.871460	191.700000
842.905640	203.100000
842.939697	190.400000
842.973877	195.800000
843.007996	198.900000
843.042175	204.000000
843.076233	190.900000
843.110413	196.600000
843.144470	204.000000
843.178589	198.500000
843.212769	191.100000
843.246826	199.000000
843.280945	193.500000
843.315125	192.000000
843.349182	191.000000
843.383301	202.300000
843.417419	206.500000
843.451538	195.100000
843.485657	193.400000
843.519714	193.200000
843.553833	197.500000
843.587952	193.100000
843.622070	190.100000
843.656128	198.200000
843.690247	192.500000
843.724304	191.400000
843.758423	197.000000
843.792542	193.700000
843.826599	194.700000
843.860718	193.400000
843.894836	189.400000
843.928894	194.800000
843.963013	198.000000
843.997070	189.700000
844.031128	188.500000
844.065247	199.100000
844.099304	200.200000
844.133362	195.100000
844.167480	197.700000
844.201599	202.300000
844.235596	195.900000
844.269714	196.200000
844.303711	197.800000
844.337830	185.800000
844.371948	196.800000
844.405945	193.000000
844.440063	189.400000
844.474121	209.800000
844.508118	194.400000
844.542236	192.800000
844.576294	194.400000
844.610352	189.400000
844.644409	192.400000
844.678406	185.900000
844.712524	199.200000
844.746582	201.700000
844.780640	194.700000
844.814636	194.300000
844.848755	204.400000
844.882751	192.800000
844.916809	198.900000
844.950867	196.100000
844.984863	203.900000
845.018921	195.000000
845.052979	192.500000
845.086975	195.900000
845.121033	188.400000
845.155090	190.600000
845.189087	200.800000
845.223145	193.200000
845.257141	194.200000
845.291199	198.300000
845.325256	202.500000
845.359253	195.100000
845.393250	205.600000
845.427307	194.400000
845.461304	196.200000
845.495361	195.600000
845.529358	206.400000
845.563354	192.400000
845.597412	190.500000
845.631409	203.100000
845.665405	201.300000
845.699463	199.600000
845.733459	193.400000
845.767456	202.100000
845.801453	193.400000
845.835449	201.400000
845.869446	199.800000
845.903503	199.800000
845.937439	191.200000
845.971497	201.300000
846.005493	188.400000
846.039429	200.300000
846.073486	204.700000
846.107483	193.000000
846.141418	193.400000
846.175476	195.100000
846.209473	200.500000
846.243408	190.600000
846.277405	196.600000
846.311401	190.800000
846.345337	196.400000
846.379395	201.100000
846.413330	191.300000
846.447327	203.200000
846.481323	189.100000
846.515259	192.300000
846.549255	196.100000
846.583252	198.100000
846.617187	190.000000
846.651184	197.600000
846.685120	192.600000
846.719055	203.600000
846.753052	200.700000
846.786987	200.800000
846.820984	188.000000
846.854980	200.600000
846.888916	189.600000
846.922852	197.100000
846.956848	204.700000
846.990723	190.800000
847.024719	195.800000
847.058716	193.600000
847.092590	203.400000
847.126587	195.700000
847.160522	193.200000
847.194458	198.500000
847.228455	191.300000
847.262390	188.500000
847.296265	193.400000
847.330261	202.300000
847.364136	193.400000
847.398132	191.100000
847.432068	194.700000
847.466003	193.600000
847.499939	193.900000
847.533875	197.700000
847.567749	192.800000
847.601746	193.000000
847.635681	198.700000
847.669556	186.100000
847.703491	200.000000
847.737427	211.800000
847.771301	189.900000
847.805237	195.400000
847.839233	196.300000
847.873108	193.800000
847.907043	193.600000
847.940918	199.300000
847.974854	196.100000
848.008789	200.100000
848.042664	194.800000
848.076538	198.600000
848.110474	195.400000
848.144348	195.600000
848.178284	188.600000
848.212219	193.600000
848.246094	193.400000
848.279968	197.300000
848.313904	198.300000
848.347778	196.100000
848.381653	193.800000
848.415588	191.000000
848.449463	192.800000
848.483337	198.500000
848.517212	200.800000
848.551086	196.100000
848.585022	190.100000
848.618835	203.500000
848.652771	192.300000
848.686646	191.400000
848.720520	203.800000
848.754395	193.800000
848.788330	199.200000
848.822144	200.500000
848.856018	194.200000
848.889954	203.700000
848.923767	190.700000
848.957642	193.400000
848.991577	200.100000
849.025391	192.300000
849.059265	194.800000
849.093079	192.600000
849.126953	189.500000
849.160828	200.800000
849.194641	195.700000
849.228577	193.500000
849.262451	193.600000
849.296265	193.900000
849.330139	188.800000
849.364014	195.900000
849.397827	198.400000
849.431702	196.100000
849.465515	198.300000
849.499329	186.300000
849.533203	189.900000
849.567078	184.700000
849.600891	197.800000
849.634766	194.600000
849.668518	200.500000
849.702393	194.800000
849.736267	188.200000
849.770020	206.800000
849.803894	200.100000
849.837769	195.500000
849.871521	195.300000
849.905396	201.400000
849.939270	190.800000
849.973022	193.700000
850.006897	198.900000
850.040710	197.800000
850.074524	198.000000
850.108337	193.700000
850.142151	199.400000
850.175964	201.700000
850.209778	195.100000
850.243530	182.100000
850.277405	201.600000
850.311218	194.600000
850.344971	192.700000
850.378845	203.600000
850.412659	192.400000
850.446411	195.300000
850.480225	195.700000
850.514038	200.900000
850.547791	197.900000
850.581665	194.500000
850.615417	193.600000
850.649231	196.800000
850.683044	194.100000
850.716858	194.100000
850.750610	194.600000
850.784424	198.200000
850.818176	192.000000
850.851929	192.600000
850.885742	192.400000
850.919495	193.000000
850.953308	201.400000
850.987122	202.100000
851.020874	190.400000
851.054626	187.000000
851.088440	199.600000
851.122192	198.500000
851.156006	196.800000
851.189697	194.700000
851.223511	190.900000
851.257263	198.600000
851.291077	198.200000
851.324829	193.400000
851.358582	192.600000
851.392334	193.500000
851.426086	193.300000
851.459900	203.600000
851.493591	195.400000
851.527344	195.900000
851.561157	192.600000
851.594849	199.200000
851.628662	197.500000
851.662415	202.900000
851.696106	197.300000
851.729858	200.300000
851.763611	189.500000
851.797363	196.500000
851.831116	190.600000
851.864868	197.800000
851.898560	199.500000
851.932312	192.600000
851.966064	198.700000
851.999817	195.700000
852.033569	194.600000
852.067261	200.700000
852.101013	192.400000
852.134766	195.300000
852.168457	185.200000
852.202209	200.200000
852.235901	190.800000
852.269592	198.900000
852.303345	204.000000
852.337036	198.800000
852.370789	195.900000
852.404541	199.900000
852.438171	190.900000
852.471924	194.600000
852.505676	188.000000
852.539307	196.400000
852.573059	191.900000
852.606812	193.100000
852.640442	194.700000
852.674194	200.300000
852.707886	207.200000
852.741577	202.600000
852.775269	190.300000
852.809021	197.000000
852.842651	198.700000
852.876404	200.600000
852.910034	196.900000
852.943787	202.100000
852.977478	196.800000
853.011108	192.300000
853.044861	193.800000
853.078552	202.700000
853.112183	198.100000
853.145874	197.400000
853.179626	185.800000
853.213257	196.500000
853.246948	193.600000
853.280640	201.900000
853.314270	195.000000
853.347961	202.400000
853.381653	198.000000
853.415283	199.600000
853.448975	192.800000
853.482605	196.400000
853.516296	194.200000
853.549988	191.100000
853.583618	196.600000
853.617310	197.400000
853.651001	196.500000
853.684631	190.800000
853.718323	193.000000
853.751953	202.700000
853.785583	185.600000
853.819275	200.800000
853.852966	196.100000
853.886536	186.100000
853.920227	189.000000
853.953918	200.300000
853.987488	194.500000
854.021179	199.100000
854.054749	204.300000
854.088440	197.200000
854.122131	190.800000
854.155701	199.400000
854.189331	192.200000
854.223022	199.100000
854.256592	198.100000
854.290283	190.800000
854.323914	200.900000
854.357483	196.100000
854.391174	198.200000
854.424744	205.400000
854.458374	198.100000
854.492065	207.100000
854.525696	196.800000
854.559265	202.800000
854.592896	206.500000
854.626465	197.400000
854.660095	195.800000
854.693787	196.200000
854.727356	194.000000
854.760986	199.100000
854.794617	196.600000
854.828186	193.300000
854.861816	198.300000
854.895447	197.300000
854.929016	196.600000
854.962585	198.100000
854.996155	202.700000
855.029785	197.500000
855.063416	197.800000
855.097046	201.100000
855.130615	189.100000
855.164185	201.800000
855.197754	196.700000
855.231384	198.700000
855.264954	193.500000
855.298523	200.200000
855.332153	195.600000
855.365723	205.400000
855.399292	191.600000
855.432922	195.500000
855.466492	197.000000
855.500061	190.400000
855.533630	192.300000
855.567200	199.500000
855.600769	199.900000
855.634338	201.400000
855.667969	197.400000
855.701477	192.000000
855.735046	191.500000
855.768616	188.500000
855.802185	197.300000
855.835754	212.200000
855.869324	187.400000
855.902893	193.800000
855.936401	202.700000
855.969971	197.000000
856.003540	188.600000
856.037109	199.800000
856.070618	196.900000
856.104187	190.200000
856.137695	193.500000
856.171265	186.000000
856.204834	196.000000
856.238403	201.800000
856.271912	193.900000
856.305481	196.400000
856.338989	188.900000
856.372559	199.000000
856.406128	197.200000
856.439636	201.200000
856.473145	193.600000
856.506653	202.100000
856.540222	196.000000
856.573792	202.900000
856.607300	200.000000
856.640808	189.300000
856.674377	197.200000
856.707825	222.700000
856.741394	200.600000
856.774902	191.200000
856.808472	186.300000
856.841980	198.300000
856.875488	203.700000
856.908936	188.100000
856.942505	193.800000
856.976013	194.600000
857.009521	190.200000
857.043030	195.800000
857.076477	195.500000
857.110046	200.000000
857.143555	195.900000
857.177063	201.600000
857.210571	192.500000
857.244080	188.800000
857.277527	197.800000
857.311035	193.400000
857.344543	199.400000
857.378052	194.300000
857.411499	200.800000
857.445068	204.900000
857.478516	196.900000
857.512024	189.000000
857.545532	193.200000
857.578979	197.000000
857.612427	195.600000
857.645874	191.900000
857.679382	196.700000
857.712891	199.800000
857.746399	194.600000
857.779846	201.000000
857.813354	200.600000
857.846741	194.200000
857.880249	191.100000
857.913757	197.100000
857.947266	198.300000
857.980652	199.400000
858.014160	191.400000
858.047546	194.800000
858.081055	194.100000
858.114563	204.000000
858.147949	188.900000
858.181458	201.000000
858.214844	194.400000
858.248352	187.000000
858.281799	200.900000
858.315308	210.400000
858.348694	199.200000
858.382141	205.100000
858.415588	199.800000
858.449036	201.200000
858.482483	197.600000
858.515930	192.700000
858.549377	194.100000
858.582825	203.200000
858.616211	198.500000
858.649658	198.000000
858.683105	190.700000
858.716553	191.600000
858.750000	189.200000
858.783386	192.900000
858.816833	186.600000
858.850281	197.600000
858.883728	198.400000
858.917114	196.000000
858.950562	203.100000
858.983948	203.600000
859.017395	200.900000
859.050781	193.500000
859.084167	191.500000
859.117615	189.600000
859.151062	198.300000
859.184448	192.100000
859.217834	193.200000
859.251282	192.600000
859.284668	191.000000
859.318054	185.800000
859.351440	191.800000
859.384888	203.500000
859.418274	186.500000
859.451721	186.400000
859.485046	199.100000
859.518494	196.300000
859.551819	192.400000
859.585266	198.100000
859.618652	197.700000
859.652039	190.600000
859.685425	191.100000
859.718811	188.700000
859.752197	184.100000
859.785583	202.700000
859.819031	202.500000
859.852356	197.500000
859.885742	191.900000
859.919067	195.500000
859.952454	192.300000
859.985901	199.700000
860.019287	194.900000
860.052612	0.000000
860.085999	0.000000
860.119324	0.000000
860.152710	0.000000
860.186096	0.000000
860.219421	0.000000
860.252808	0.000000
860.286133	0.000000
860.319519	0.000000
860.352905	0.000000
860.386292	0.000000
860.419617	0.000000
860.452942	0.000000
860.486267	0.000000
860.519653	0.000000
860.553040	0.000000
860.586365	0.000000
860.619690	0.000000
860.653076	0.000000
860.686340	0.000000
860.719727	0.000000
860.753113	0.000000
860.786377	0.000000
860.819763	0.000000
860.853027	0.000000
860.886414	0.000000
860.919739	0.000000
860.953125	0.000000
860.986389	0.000000
861.019714	0.000000
861.053040	0.000000
861.086365	0.000000
861.119690	0.000000
861.153076	0.000000
861.186340	0.000000
861.219666	0.000000
861.252930	0.000000
861.286316	0.000000
861.319641	0.000000
861.352905	0.000000
861.386230	0.000000
861.419495	0.000000
861.452820	0.000000
861.486145	0.000000
861.519470	0.000000
861.552734	0.000000
861.586060	0.000000
861.619324	0.000000
861.652649	0.000000
861.685974	0.000000
861.719238	0.000000
861.752563	0.000000
861.785828	0.000000
861.819092	0.000000
861.852417	0.000000
861.885742	0.000000
861.918945	0.000000
861.952271	0.000000
861.985535	0.000000
862.018799	0.000000
862.052124	0.000000
862.085449	0.000000
862.118652	0.000000
862.151978	0.000000
862.185181	0.000000
862.218506	0.000000
862.251770	0.000000
862.285034	0.000000
862.318298	0.000000
862.351562	0.000000
862.384827	0.000000
862.418091	0.000000
862.451355	0.000000
862.484619	0.000000
862.517883	0.000000
862.551086	0.000000
862.584351	0.000000
862.617676	0.000000
862.650940	0.000000
862.684143	0.000000
862.717407	0.000000
862.750610	0.000000
862.783875	0.000000
862.817139	0.000000
862.850342	0.000000
862.883606	0.000000
862.916870	0.000000
862.950073	0.000000
862.983337	0.000000
863.016602	0.000000
863.049805	0.000000
863.083069	0.000000
863.116211	0.000000
863.149475	0.000000
863.182739	0.000000
863.216003	0.000000
863.249146	0.000000
863.282410	0.000000
863.315613	0.000000
863.348816	0.000000
863.382080	0.000000
863.415222	0.000000
863.448486	0.000000
863.481689	0.000000
863.514893	0.000000
863.548157	0.000000
863.581360	0.000000
863.614502	0.000000
863.647766	0.000000
863.680908	0.000000
863.714172	0.000000
863.747375	0.000000
863.780579	0.000000
863.813721	0.000000
863.846985	0.000000
863.880127	0.000000
863.913330	0.000000
863.946533	0.000000
863.979675	0.000000
864.012939	0.000000
