Model Number: SPM-001-M   
Serial Number: 10090201
Firmware Version: 004.17.6
Exposure Time: 500000.000000us
Data Taken on: 10-03-2021 11:22:58.980
Wavelength	Amplitude
733.770752	0.000000
733.808716	0.000000
733.846619	0.000000
733.884583	0.000000
733.922546	0.000000
733.960449	0.000000
733.998413	0.000000
734.036377	0.000000
734.074219	0.000000
734.112183	0.000000
734.150085	0.000000
734.188049	0.000000
734.226013	0.000000
734.263916	0.000000
734.301819	0.000000
734.339783	0.000000
734.377686	0.000000
734.415588	0.000000
734.453552	0.000000
734.491455	0.000000
734.529419	0.000000
734.567322	0.000000
734.605225	0.000000
734.643127	0.000000
734.681091	0.000000
734.718994	0.000000
734.756897	0.000000
734.794800	0.000000
734.832703	0.000000
734.870667	0.000000
734.908508	0.000000
734.946472	0.000000
734.984375	0.000000
735.022278	0.000000
735.060181	0.000000
735.098083	0.000000
735.135986	0.000000
735.173889	0.000000
735.211792	0.000000
735.249695	0.000000
735.287598	0.000000
735.325439	0.000000
735.363403	0.000000
735.401306	0.000000
735.439148	0.000000
735.477051	0.000000
735.515015	0.000000
735.552856	0.000000
735.590759	0.000000
735.628662	0.000000
735.666504	0.000000
735.704407	0.000000
735.742310	0.000000
735.780212	0.000000
735.818115	0.000000
735.856018	0.000000
735.893860	0.000000
735.931763	0.000000
735.969604	0.000000
736.007507	0.000000
736.045410	0.000000
736.083252	0.000000
736.121094	0.000000
736.158997	0.000000
736.196838	0.000000
736.234741	0.000000
736.272644	0.000000
736.310486	0.000000
736.348389	0.000000
736.386230	0.000000
736.424072	0.000000
736.461975	0.000000
736.499878	0.000000
736.537720	0.000000
736.575562	0.000000
736.613403	0.000000
736.651306	0.000000
736.689148	0.000000
736.726990	0.000000
736.764893	0.000000
736.802734	0.000000
736.840576	0.000000
736.878418	0.000000
736.916321	0.000000
736.954102	0.000000
736.992004	0.000000
737.029846	0.000000
737.067688	0.000000
737.105530	0.000000
737.143372	0.000000
737.181213	0.000000
737.219116	0.000000
737.256897	0.000000
737.294739	0.000000
737.332642	0.000000
737.370422	0.000000
737.408325	0.000000
737.446167	0.000000
737.483948	0.000000
737.521790	0.000000
737.559692	0.000000
737.597473	0.000000
737.635315	0.000000
737.673157	0.000000
737.710999	0.000000
737.748840	0.000000
737.786621	0.000000
737.824463	0.000000
737.862305	0.000000
737.900085	0.000000
737.937927	0.000000
737.975769	0.000000
738.013550	0.000000
738.051392	0.000000
738.089233	0.000000
738.127014	0.000000
738.164856	0.000000
738.202698	0.000000
738.240479	0.000000
738.278320	0.000000
738.316162	0.000000
738.353943	0.000000
738.391785	0.000000
738.429565	0.000000
738.467407	0.000000
738.505188	0.000000
738.542969	0.000000
738.580811	0.000000
738.618652	0.000000
738.656372	0.000000
738.694214	0.000000
738.732056	0.000000
738.769836	0.000000
738.807617	0.000000
738.845459	0.000000
738.883240	0.000000
738.921021	0.000000
738.958862	0.000000
738.996582	0.000000
739.034424	0.000000
739.072205	0.000000
739.109985	0.000000
739.147827	0.000000
739.185547	0.000000
739.223389	0.000000
739.261169	0.000000
739.298889	0.000000
739.336731	0.000000
739.374512	0.000000
739.412292	0.000000
739.450073	0.000000
739.487854	0.000000
739.525635	0.000000
739.563416	0.000000
739.601135	0.000000
739.638977	0.000000
739.676758	0.000000
739.714478	0.000000
739.752258	0.000000
739.790100	0.000000
739.827820	0.000000
739.865601	0.000000
739.903381	0.000000
739.941101	0.000000
739.978882	196.700000
740.016724	193.000000
740.054443	197.700000
740.092224	190.600000
740.130005	190.400000
740.167725	190.900000
740.205505	189.100000
740.243225	200.600000
740.281006	193.700000
740.318787	187.700000
740.356506	199.200000
740.394287	198.900000
740.432068	188.900000
740.469727	188.600000
740.507507	197.600000
740.545288	193.100000
740.583008	196.800000
740.620789	195.600000
740.658569	183.800000
740.696228	193.800000
740.734009	200.200000
740.771790	182.000000
740.809509	197.000000
740.847229	188.900000
740.884949	189.600000
740.922729	186.000000
740.960449	192.500000
740.998169	187.900000
741.035950	190.200000
741.073669	194.800000
741.111389	194.400000
741.149170	204.700000
741.186890	205.800000
741.224609	198.100000
741.262329	195.300000
741.300110	204.600000
741.337769	187.700000
741.375549	187.300000
741.413208	195.800000
741.450989	189.900000
741.488708	192.000000
741.526367	191.800000
741.564148	198.600000
741.601868	199.600000
741.639526	193.200000
741.677307	195.700000
741.715027	197.300000
741.752686	189.900000
741.790466	200.700000
741.828186	198.200000
741.865845	190.400000
741.903564	184.800000
741.941345	194.400000
741.979004	189.000000
742.016724	197.900000
742.054382	193.800000
742.092102	199.900000
742.129822	186.500000
742.167480	191.400000
742.205200	192.600000
742.242920	195.200000
742.280640	199.100000
742.318359	189.200000
742.356079	190.300000
742.393738	197.600000
742.431396	191.900000
742.469116	197.700000
742.506775	183.200000
742.544495	196.700000
742.582214	196.700000
742.619873	193.000000
742.657593	200.400000
742.695251	197.400000
742.732971	191.800000
742.770630	196.100000
742.808289	193.800000
742.846008	194.200000
742.883728	195.000000
742.921326	194.400000
742.959045	191.000000
742.996765	194.400000
743.034424	193.000000
743.072083	190.800000
743.109802	191.700000
743.147400	188.700000
743.185120	194.600000
743.222839	193.400000
743.260437	200.100000
743.298157	195.100000
743.335754	185.400000
743.373474	191.300000
743.411133	185.900000
743.448792	193.600000
743.486450	194.500000
743.524170	186.000000
743.561768	193.300000
743.599487	199.400000
743.637146	205.700000
743.674744	191.800000
743.712463	191.100000
743.750122	194.000000
743.787720	195.600000
743.825439	189.800000
743.863037	192.000000
743.900696	193.200000
743.938416	217.900000
743.976013	192.700000
744.013672	203.500000
744.051331	198.100000
744.088928	202.300000
744.126587	199.700000
744.164307	194.300000
744.201904	191.100000
744.239563	198.500000
744.277222	195.400000
744.314819	192.700000
744.352478	199.900000
744.390137	195.300000
744.427734	195.500000
744.465393	192.100000
744.502991	188.700000
744.540649	197.700000
744.578308	195.000000
744.615906	188.000000
744.653564	182.500000
744.691223	199.600000
744.728821	184.200000
744.766418	193.400000
744.804077	196.100000
744.841675	191.000000
744.879333	186.700000
744.916992	193.700000
744.954529	191.200000
744.992187	200.800000
745.029785	192.200000
745.067444	190.400000
745.105042	194.300000
745.142639	197.100000
745.180298	203.100000
745.217896	190.700000
745.255493	192.500000
745.293152	197.600000
745.330750	198.600000
745.368347	201.400000
745.405945	198.400000
745.443604	194.900000
745.481140	197.300000
745.518799	192.000000
745.556396	197.300000
745.593994	198.800000
745.631592	194.000000
745.669189	187.100000
745.706787	196.000000
745.744385	188.900000
745.781982	196.300000
745.819580	190.700000
745.857178	192.600000
745.894775	192.500000
745.932373	196.700000
745.969971	194.200000
746.007568	186.000000
746.045166	204.100000
746.082764	199.200000
746.120300	197.000000
746.157898	198.200000
746.195557	193.700000
746.233093	187.900000
746.270691	197.400000
746.308228	195.200000
746.345825	198.800000
746.383423	197.900000
746.420959	189.400000
746.458557	192.000000
746.496155	191.900000
746.533691	193.300000
746.571289	190.000000
746.608887	195.000000
746.646423	194.900000
746.684021	193.800000
746.721619	190.000000
746.759155	195.400000
746.796753	187.700000
746.834351	187.100000
746.871826	189.500000
746.909424	200.500000
746.946960	195.200000
746.984558	192.400000
747.022156	192.400000
747.059631	201.000000
747.097229	197.400000
747.134827	191.800000
747.172363	201.700000
747.209900	195.400000
747.247498	188.900000
747.285034	200.400000
747.322571	201.500000
747.360168	192.600000
747.397644	186.300000
747.435242	197.800000
747.472778	201.300000
747.510315	190.300000
747.547913	192.100000
747.585388	200.300000
747.622925	193.200000
747.660522	183.100000
747.697998	189.900000
747.735596	192.400000
747.773132	191.700000
747.810669	192.700000
747.848206	197.800000
747.885742	187.100000
747.923279	188.400000
747.960815	195.700000
747.998352	194.500000
748.035889	199.700000
748.073425	199.600000
748.110901	189.700000
748.148437	189.500000
748.185974	195.400000
748.223511	205.900000
748.261047	195.500000
748.298584	194.800000
748.336060	193.400000
748.373596	197.100000
748.411133	212.300000
748.448608	189.600000
748.486145	198.400000
748.523682	203.900000
748.561218	200.200000
748.598755	196.100000
748.636292	197.800000
748.673706	192.400000
748.711243	200.100000
748.748718	196.100000
748.786255	192.600000
748.823792	194.700000
748.861267	189.400000
748.898804	197.700000
748.936340	196.600000
748.973816	192.500000
749.011292	199.500000
749.048828	195.000000
749.086304	197.400000
749.123840	204.600000
749.161316	188.700000
749.198792	202.800000
749.236328	199.500000
749.273743	193.800000
749.311279	192.600000
749.348816	196.800000
749.386230	194.600000
749.423767	181.800000
749.461304	196.400000
749.498718	194.300000
749.536255	201.800000
749.573730	206.600000
749.611206	201.000000
749.648682	193.600000
749.686218	194.700000
749.723633	198.100000
749.761169	192.600000
749.798645	188.800000
749.836060	194.300000
749.873596	190.400000
749.911011	194.700000
749.948547	199.900000
749.986023	193.600000
750.023437	192.500000
750.060913	188.600000
750.098450	188.700000
750.135864	194.000000
750.173340	194.500000
750.210815	199.000000
750.248291	188.100000
750.285767	195.800000
750.323242	201.100000
750.360657	198.100000
750.398132	189.700000
750.435608	198.200000
750.473022	190.600000
750.510498	189.900000
750.547974	189.600000
750.585449	192.900000
750.622925	183.000000
750.660339	203.000000
750.697815	195.600000
750.735291	194.100000
750.772644	195.200000
750.810120	194.200000
750.847595	195.800000
750.885010	188.700000
750.922485	202.900000
750.959961	192.300000
750.997375	201.900000
751.034851	197.300000
751.072266	199.900000
751.109680	186.500000
751.147156	199.600000
751.184570	195.800000
751.221985	196.200000
751.259460	184.200000
751.296875	195.000000
751.334290	194.300000
751.371765	199.300000
751.409180	196.300000
751.446594	201.200000
751.484070	195.600000
751.521423	197.200000
751.558899	194.500000
751.596375	203.500000
751.633728	201.600000
751.671204	208.600000
751.708618	189.400000
751.746033	195.400000
751.783447	188.900000
751.820801	191.200000
751.858276	197.600000
751.895691	193.700000
751.933105	190.800000
751.970520	188.300000
752.007935	191.400000
752.045349	197.700000
752.082764	194.400000
752.120178	192.900000
752.157532	190.900000
752.195007	192.200000
752.232422	197.900000
752.269775	199.800000
752.307190	197.500000
752.344543	189.700000
752.382019	193.500000
752.419434	192.200000
752.456787	195.200000
752.494202	198.800000
752.531616	198.000000
752.568970	198.500000
752.606384	195.100000
752.643799	195.600000
752.681152	203.800000
752.718567	196.500000
752.755981	187.300000
752.793335	195.900000
752.830750	185.600000
752.868164	200.000000
752.905518	188.800000
752.942932	198.500000
752.980225	189.200000
753.017639	199.300000
753.055054	193.200000
753.092407	195.400000
753.129822	201.700000
753.167175	202.500000
753.204529	194.500000
753.241943	191.400000
753.279358	189.400000
753.316650	199.000000
753.354065	197.800000
753.391479	198.700000
753.428772	202.600000
753.466187	199.400000
753.503479	189.500000
753.540894	194.300000
753.578308	190.800000
753.615601	189.000000
753.653015	194.600000
753.690369	192.100000
753.727722	190.900000
753.765076	187.700000
753.802490	189.000000
753.839783	185.800000
753.877136	192.800000
753.914551	209.500000
753.951843	190.000000
753.989258	199.000000
754.026611	195.800000
754.063904	196.700000
754.101257	189.800000
754.138611	187.200000
754.175964	195.600000
754.213318	207.100000
754.250610	187.400000
754.288025	192.800000
754.325378	189.100000
754.362671	199.800000
754.400024	191.900000
754.437378	204.600000
754.474670	203.400000
754.512085	191.100000
754.549438	194.000000
754.586731	192.900000
754.624084	192.700000
754.661438	190.700000
754.698730	201.700000
754.736084	191.700000
754.773376	192.400000
754.810730	197.300000
754.848083	192.300000
754.885315	199.700000
754.922668	186.700000
754.960022	189.900000
754.997314	199.200000
755.034668	195.500000
755.072021	194.200000
755.109253	192.700000
755.146606	201.800000
755.183960	194.100000
755.221252	205.100000
755.258545	202.400000
755.295898	202.400000
755.333191	205.700000
755.370544	200.300000
755.407776	197.100000
755.445129	196.700000
755.482422	200.700000
755.519714	192.600000
755.557068	189.100000
755.594360	187.900000
755.631653	201.400000
755.668945	207.200000
755.706299	198.700000
755.743530	207.300000
755.780884	205.300000
755.818176	204.600000
755.855408	204.600000
755.892761	200.800000
755.930054	199.300000
755.967346	200.000000
756.004639	203.100000
756.041870	199.300000
756.079224	204.300000
756.116516	195.200000
756.153748	203.400000
756.191040	207.000000
756.228394	201.900000
756.265625	195.000000
756.302917	199.900000
756.340210	197.000000
756.377441	205.400000
756.414795	206.700000
756.452087	199.100000
756.489319	194.200000
756.526611	203.400000
756.563843	200.800000
756.601135	211.900000
756.638428	210.900000
756.675659	201.100000
756.712952	206.700000
756.750244	204.200000
756.787476	202.900000
756.824768	209.200000
756.862061	200.800000
756.899292	248.400000
756.936584	207.500000
756.973816	212.200000
757.011047	216.700000
757.048340	204.600000
757.085632	203.800000
757.122864	219.900000
757.160156	202.600000
757.197327	206.100000
757.234619	208.900000
757.271912	201.900000
757.309082	210.500000
757.346375	200.200000
757.383667	211.400000
757.420837	206.000000
757.458130	207.500000
757.495422	204.400000
757.532593	207.500000
757.569885	198.600000
757.607117	201.600000
757.644348	208.100000
757.681580	220.500000
757.718811	195.000000
757.756042	207.800000
757.793335	203.200000
757.830505	208.900000
757.867798	205.000000
757.905029	204.400000
757.942200	208.900000
757.979492	203.800000
758.016724	205.300000
758.053894	204.300000
758.091187	226.600000
758.128418	208.400000
758.165588	206.600000
758.202820	217.700000
758.240112	212.000000
758.277283	219.000000
758.314514	211.400000
758.351685	207.000000
758.388916	219.900000
758.426147	216.500000
758.463379	219.500000
758.500610	214.500000
758.537842	210.600000
758.575012	217.400000
758.612244	205.700000
758.649475	224.000000
758.686646	205.700000
758.723877	219.100000
758.761108	219.900000
758.798279	211.100000
758.835510	215.100000
758.872742	218.300000
758.909851	214.200000
758.947083	215.900000
758.984253	215.300000
759.021484	219.000000
759.058716	217.900000
759.095886	217.200000
759.133057	213.500000
759.170288	217.700000
759.207458	211.000000
759.244690	226.100000
759.281860	224.400000
759.319031	214.800000
759.356262	213.700000
759.393433	214.100000
759.430603	215.300000
759.467773	215.900000
759.505005	220.700000
759.542175	221.500000
759.579346	216.000000
759.616516	216.500000
759.653687	218.700000
759.690918	213.300000
759.728027	216.900000
759.765259	217.700000
759.802429	219.900000
759.839539	220.900000
759.876770	224.000000
759.913940	227.700000
759.951111	219.000000
759.988281	218.400000
760.025452	215.400000
760.062561	213.900000
760.099792	226.800000
760.136963	223.000000
760.174072	217.300000
760.211243	212.400000
760.248413	215.200000
760.285583	215.400000
760.322754	231.100000
760.359863	226.700000
760.397034	226.900000
760.434204	219.700000
760.471375	221.200000
760.508545	219.100000
760.545715	220.400000
760.582825	217.100000
760.619995	225.900000
760.657166	216.000000
760.694275	227.100000
760.731445	223.600000
760.768555	226.000000
760.805664	227.000000
760.842834	225.000000
760.879944	229.200000
760.917114	225.600000
760.954285	223.400000
760.991394	217.100000
761.028564	231.000000
761.065674	228.400000
761.102783	221.700000
761.139954	230.400000
761.177124	230.700000
761.214172	233.700000
761.251343	227.000000
761.288452	227.600000
761.325562	231.000000
761.362732	224.100000
761.399841	228.300000
761.436951	230.500000
761.474121	224.500000
761.511169	230.300000
761.548340	233.700000
761.585449	235.100000
761.622559	235.200000
761.659668	232.100000
761.696838	239.300000
761.733887	234.800000
761.771057	232.100000
761.808167	234.900000
761.845276	238.400000
761.882385	247.100000
761.919434	236.400000
761.956604	258.500000
761.993713	233.400000
762.030762	245.500000
762.067871	237.000000
762.105042	237.900000
762.142090	245.900000
762.179199	241.600000
762.216309	245.400000
762.253418	257.500000
762.290527	251.700000
762.327637	248.300000
762.364685	237.000000
762.401794	247.400000
762.438904	246.100000
762.475952	240.100000
762.513062	238.600000
762.550110	240.900000
762.587219	258.100000
762.624329	255.000000
762.661377	249.500000
762.698486	249.300000
762.735596	247.300000
762.772644	241.500000
762.809753	238.800000
762.846863	246.100000
762.883911	253.200000
762.921021	252.000000
762.958069	249.900000
762.995117	258.100000
763.032227	259.700000
763.069336	250.100000
763.106323	246.800000
763.143433	243.900000
763.180481	254.600000
763.217590	254.500000
763.254639	250.200000
763.291687	253.000000
763.328735	262.300000
763.365845	253.400000
763.402893	253.500000
763.439941	256.000000
763.477051	259.700000
763.514038	260.000000
763.551147	253.600000
763.588196	257.200000
763.625244	257.100000
763.662292	263.900000
763.699402	266.400000
763.736389	261.700000
763.773499	272.700000
763.810486	266.100000
763.847534	264.800000
763.884644	265.400000
763.921631	263.100000
763.958679	274.800000
763.995728	264.200000
764.032776	274.100000
764.069824	257.200000
764.106873	268.200000
764.143860	276.900000
764.180969	267.300000
764.218018	275.700000
764.255005	267.300000
764.292053	271.200000
764.329102	280.300000
764.366089	281.800000
764.403137	280.800000
764.440125	267.000000
764.477173	271.900000
764.514221	274.400000
764.551208	273.400000
764.588257	268.900000
764.625305	280.600000
764.662292	287.000000
764.699341	289.200000
764.736389	280.700000
764.773376	295.700000
764.810425	283.900000
764.847473	291.300000
764.884399	283.000000
764.921448	294.000000
764.958435	291.600000
764.995483	280.800000
765.032532	296.500000
765.069458	283.500000
765.106506	284.100000
765.143555	284.100000
765.180481	289.700000
765.217529	296.800000
765.254578	279.700000
765.291504	292.000000
765.328552	287.100000
765.365540	284.100000
765.402527	300.200000
765.439575	288.100000
765.476501	282.200000
765.513550	284.300000
765.550537	287.600000
765.587463	297.200000
765.624512	288.000000
765.661499	280.900000
765.698486	299.300000
765.735474	287.200000
765.772461	289.400000
765.809448	299.900000
765.846436	297.400000
765.883423	302.500000
765.920410	295.900000
765.957397	290.700000
765.994385	297.200000
766.031311	308.200000
766.068359	300.300000
766.105286	299.500000
766.142273	305.500000
766.179260	301.400000
766.216187	294.900000
766.253174	293.100000
766.290161	301.700000
766.327148	304.100000
766.364136	306.900000
766.401123	322.900000
766.438049	300.800000
766.475037	317.800000
766.512024	312.500000
766.548950	326.300000
766.585937	320.900000
766.622864	316.800000
766.659790	313.900000
766.696777	304.900000
766.733704	321.500000
766.770691	312.200000
766.807678	329.500000
766.844604	321.500000
766.881531	323.200000
766.918518	329.700000
766.955444	333.200000
766.992432	324.300000
767.029358	329.200000
767.066284	331.000000
767.103271	328.500000
767.140198	356.300000
767.177124	346.800000
767.214050	336.900000
767.251038	337.000000
767.287964	335.700000
767.324890	333.000000
767.361816	337.900000
767.398743	346.400000
767.435730	339.800000
767.472595	345.600000
767.509583	351.700000
767.546509	338.200000
767.583374	346.200000
767.620361	340.300000
767.657288	347.000000
767.694214	346.600000
767.731140	346.700000
767.768066	348.300000
767.804993	353.600000
767.841919	345.100000
767.878845	353.000000
767.915710	360.700000
767.952698	355.300000
767.989563	359.000000
768.026489	359.900000
768.063416	353.800000
768.100281	353.100000
768.137207	367.200000
768.174133	365.500000
768.211060	367.100000
768.247986	364.300000
768.284912	363.000000
768.321777	365.900000
768.358704	366.300000
768.395630	368.500000
768.432495	361.800000
768.469421	370.600000
768.506348	375.500000
768.543152	383.300000
768.580078	381.100000
768.616943	382.900000
768.653870	384.100000
768.690796	383.900000
768.727661	379.000000
768.764587	384.100000
768.801453	376.500000
768.838318	391.100000
768.875244	386.000000
768.912109	395.800000
768.948975	385.300000
768.985901	391.500000
769.022766	388.600000
769.059631	396.900000
769.096558	389.900000
769.133362	393.700000
769.170288	395.900000
769.207214	395.200000
769.244019	402.600000
769.280945	401.700000
769.317810	408.500000
769.354675	401.500000
769.391541	413.400000
769.428406	409.000000
769.465271	419.800000
769.502136	407.300000
769.539062	413.700000
769.575867	409.700000
769.612732	412.900000
769.649597	418.600000
769.686462	424.000000
769.723328	418.000000
769.760193	415.400000
769.797058	417.300000
769.833923	428.400000
769.870728	425.400000
769.907593	428.600000
769.944519	428.700000
769.981323	429.700000
770.018188	430.500000
770.055054	428.000000
770.091858	430.200000
770.128723	443.200000
770.165588	446.500000
770.202393	432.300000
770.239258	445.900000
770.276062	439.600000
770.312927	441.300000
770.349792	448.500000
770.386597	444.600000
770.423462	453.500000
770.460327	461.800000
770.497131	445.000000
770.533997	439.600000
770.570862	457.400000
770.607605	455.500000
770.644470	451.500000
770.681335	453.300000
770.718140	453.900000
770.754944	445.000000
770.791809	446.500000
770.828613	448.200000
770.865479	449.000000
770.902222	462.300000
770.939087	455.800000
770.975952	446.500000
771.012695	454.300000
771.049561	469.100000
771.086365	453.400000
771.123169	451.700000
771.159973	455.900000
771.196838	455.900000
771.233582	461.100000
771.270447	460.300000
771.307251	465.400000
771.344055	461.900000
771.380859	464.500000
771.417664	457.400000
771.454468	469.400000
771.491272	466.700000
771.528076	470.500000
771.564880	466.000000
771.601685	480.900000
771.638428	468.900000
771.675293	476.000000
771.712097	467.700000
771.748840	484.800000
771.785645	476.000000
771.822449	477.600000
771.859253	483.000000
771.896057	478.700000
771.932861	495.800000
771.969604	482.200000
772.006409	476.000000
772.043213	489.200000
772.079956	490.400000
772.116760	478.100000
772.153503	486.300000
772.190308	498.900000
772.227112	489.400000
772.263855	483.900000
772.300659	490.200000
772.337463	497.700000
772.374207	492.100000
772.411011	488.900000
772.447754	496.400000
772.484497	513.900000
772.521301	510.100000
772.558105	502.300000
772.594849	508.500000
772.631592	514.000000
772.668396	512.900000
772.705139	519.700000
772.741882	517.600000
772.778625	533.500000
772.815430	533.300000
772.852173	529.700000
772.888916	539.800000
772.925720	541.000000
772.962463	547.700000
772.999207	542.000000
773.035950	550.200000
773.072754	550.800000
773.109436	547.400000
773.146240	546.200000
773.182922	547.200000
773.219727	557.500000
773.256470	554.100000
773.293152	542.300000
773.329956	547.500000
773.366699	553.200000
773.403381	548.200000
773.440186	560.100000
773.476929	560.700000
773.513611	555.100000
773.550354	556.700000
773.587158	559.000000
773.623840	554.700000
773.660583	568.100000
773.697327	580.100000
773.734009	567.500000
773.770813	569.400000
773.807495	566.200000
773.844238	574.500000
773.880981	591.900000
773.917664	588.600000
773.954407	592.500000
773.991150	583.100000
774.027832	589.000000
774.064575	581.200000
774.101318	594.900000
774.138000	598.300000
774.174744	595.400000
774.211487	600.100000
774.248108	588.300000
774.284851	586.300000
774.321594	602.000000
774.358276	604.900000
774.395020	616.800000
774.431702	612.200000
774.468384	602.100000
774.505127	602.800000
774.541809	615.900000
774.578491	633.200000
774.615234	633.900000
774.651917	624.300000
774.688599	629.600000
774.725342	637.100000
774.762024	634.500000
774.798706	644.000000
774.835449	642.200000
774.872070	653.800000
774.908813	645.500000
774.945496	639.100000
774.982178	646.200000
775.018860	653.500000
775.055542	652.900000
775.092224	654.000000
775.128967	657.300000
775.165588	659.100000
775.202271	648.000000
775.239014	667.200000
775.275635	668.900000
775.312317	664.100000
775.349060	667.000000
775.385681	668.800000
775.422363	656.300000
775.459045	670.300000
775.495667	670.600000
775.532410	678.100000
775.569092	676.600000
775.605713	678.100000
775.642395	676.300000
775.679016	679.900000
775.715698	685.200000
775.752380	691.200000
775.789001	683.500000
775.825684	682.500000
775.862366	681.900000
775.898987	696.900000
775.935669	684.800000
775.972351	711.300000
776.008972	704.100000
776.045654	702.900000
776.082336	694.600000
776.118958	697.000000
776.155640	703.500000
776.192322	714.400000
776.228882	717.300000
776.265564	715.700000
776.302185	708.100000
776.338867	711.300000
776.375488	700.200000
776.412109	718.000000
776.448792	723.100000
776.485413	728.200000
776.522034	718.400000
776.558716	710.000000
776.595337	711.200000
776.631958	718.500000
776.668579	720.200000
776.705261	723.200000
776.741882	716.500000
776.778503	714.700000
776.815186	709.000000
776.851746	721.900000
776.888367	720.700000
776.924988	732.100000
776.961609	718.400000
776.998291	721.200000
777.034851	710.100000
777.071472	723.800000
777.108154	724.600000
777.144714	734.600000
777.181335	734.100000
777.218018	729.000000
777.254578	733.100000
777.291199	730.800000
777.327759	744.400000
777.364380	747.700000
777.401062	753.900000
777.437622	765.800000
777.474243	751.000000
777.510864	761.200000
777.547424	758.700000
777.584045	762.400000
777.620667	763.900000
777.657227	771.600000
777.693848	772.700000
777.730469	788.600000
777.767029	778.400000
777.803650	781.500000
777.840271	773.200000
777.876831	777.400000
777.913452	785.700000
777.950012	766.300000
777.986633	766.500000
778.023193	764.000000
778.059753	768.600000
778.096375	770.100000
778.132996	784.500000
778.169556	767.700000
778.206116	773.200000
778.242737	770.000000
778.279297	782.300000
778.315857	774.300000
778.352478	783.000000
778.389038	795.900000
778.425598	799.200000
778.462219	806.700000
778.498718	805.100000
778.535339	819.700000
778.571838	818.000000
778.608459	823.600000
778.645020	817.200000
778.681580	829.200000
778.718140	831.600000
778.754761	827.300000
778.791260	832.100000
778.827881	847.700000
778.864441	840.700000
778.900940	847.400000
778.937561	845.600000
778.974121	844.500000
779.010620	829.900000
779.047241	835.900000
779.083801	847.800000
779.120300	847.400000
779.156860	855.900000
779.193359	850.700000
779.229980	854.500000
779.266541	866.200000
779.303040	867.700000
779.339600	856.300000
779.376160	854.100000
779.412659	864.300000
779.449219	856.400000
779.485779	868.500000
779.522278	871.500000
779.558838	877.800000
779.595398	873.400000
779.631897	880.000000
779.668457	868.100000
779.705017	881.900000
779.741516	869.800000
779.778076	867.200000
779.814575	878.000000
779.851074	884.000000
779.887634	883.900000
779.924133	895.100000
779.960693	877.700000
779.997253	890.800000
780.033691	895.100000
780.070251	899.300000
780.106812	909.000000
780.143250	908.100000
780.179810	901.000000
780.216370	905.200000
780.252808	915.700000
780.289368	926.200000
780.325867	931.600000
780.362366	927.700000
780.398865	943.400000
780.435364	935.300000
780.471863	944.900000
780.508423	944.500000
780.544861	955.500000
780.581421	962.200000
780.617920	951.000000
780.654419	946.800000
780.690918	958.300000
780.727417	962.900000
780.763916	960.400000
780.800415	974.100000
780.836914	950.100000
780.873352	957.900000
780.909912	949.500000
780.946411	958.900000
780.982849	966.600000
781.019348	985.400000
781.055786	980.200000
781.092346	974.100000
781.128845	982.700000
781.165283	992.100000
781.201782	996.100000
781.238281	1004.800000
781.274719	1006.100000
781.311218	998.400000
781.347717	1009.800000
781.384155	996.600000
781.420654	1001.000000
781.457092	1014.400000
781.493591	1010.400000
781.530090	998.200000
781.566528	1006.500000
781.602966	1015.600000
781.639465	1011.600000
781.675903	1003.900000
781.712402	1018.400000
781.748901	1027.100000
781.785278	1011.200000
781.821777	1014.700000
781.858276	1015.200000
781.894714	1032.500000
781.931152	1022.500000
781.967651	1032.000000
782.004089	1018.000000
782.040527	1032.400000
782.076965	1028.500000
782.113403	1028.900000
782.149902	1033.800000
782.186340	1034.700000
782.222778	1046.500000
782.259277	1030.700000
782.295654	1025.700000
782.332092	1034.900000
782.368591	1032.700000
782.404968	1026.400000
782.441467	1027.200000
782.477905	1029.000000
782.514282	1021.400000
782.550781	1042.300000
782.587219	1038.400000
782.623596	1047.500000
782.660095	1046.300000
782.696472	1057.000000
782.732910	1054.000000
782.769348	1061.500000
782.805786	1073.900000
782.842224	1070.800000
782.878662	1065.400000
782.915039	1068.000000
782.951477	1065.500000
782.987915	1060.900000
783.024292	1072.100000
783.060730	1073.000000
783.097168	1052.300000
783.133545	1052.300000
783.169983	1037.900000
783.206421	1031.500000
783.242798	1037.800000
783.279236	1027.300000
783.315613	1025.900000
783.352051	1017.100000
783.388489	1009.100000
783.424866	996.300000
783.461304	1005.100000
783.497681	1007.100000
783.534058	996.100000
783.570496	998.600000
783.606934	990.600000
783.643250	997.000000
783.679687	1011.600000
783.716125	1007.100000
783.752441	1016.600000
783.788879	1030.200000
783.825317	1038.500000
783.861633	1037.900000
783.898071	1027.900000
783.934448	1037.700000
783.970825	1032.400000
784.007263	999.800000
784.043579	957.900000
784.080017	917.800000
784.116394	853.600000
784.152710	806.200000
784.189148	765.600000
784.225525	716.000000
784.261902	663.500000
784.298279	631.500000
784.334656	604.000000
784.371033	578.400000
784.407410	583.200000
784.443787	583.200000
784.480164	595.600000
784.516541	614.100000
784.552856	660.300000
784.589233	695.000000
784.625610	737.600000
784.661987	809.700000
784.698364	838.900000
784.734741	868.800000
784.771057	900.600000
784.807434	936.600000
784.843811	984.300000
784.880127	1007.000000
784.916504	1054.000000
784.952881	1073.300000
784.989197	1074.400000
785.025574	1083.300000
785.061951	1104.700000
785.098267	1131.700000
785.134644	1133.800000
785.170959	1136.500000
785.207275	1136.100000
785.243652	1139.600000
785.279968	1129.900000
785.316345	1139.500000
785.352722	1142.300000
785.388977	1146.800000
785.425354	1121.500000
785.461731	1099.100000
785.498047	1094.000000
785.534363	1088.900000
785.570679	1093.000000
785.606995	1099.500000
785.643372	1099.200000
785.679687	1085.300000
785.716003	1071.100000
785.752380	1068.000000
785.788635	1078.300000
785.825012	1099.800000
785.861328	1109.900000
785.897644	1100.600000
785.933960	1113.900000
785.970337	1121.800000
786.006592	1137.200000
786.042908	1154.800000
786.079285	1172.500000
786.115540	1179.700000
786.151855	1175.600000
786.188171	1171.900000
786.224487	1169.600000
786.260803	1171.600000
786.297119	1186.000000
786.333435	1189.500000
786.369751	1179.500000
786.406006	1184.000000
786.442322	1163.300000
786.478638	1152.300000
786.514954	1171.000000
786.551270	1169.400000
786.587585	1181.400000
786.623840	1167.900000
786.660156	1163.900000
786.696472	1146.200000
786.732727	1142.800000
786.769043	1146.600000
786.805298	1139.800000
786.841614	1141.900000
786.877930	1146.200000
786.914124	1125.300000
786.950439	1146.100000
786.986755	1154.200000
787.023010	1171.700000
787.059326	1180.200000
787.095642	1177.200000
787.131836	1195.300000
787.168152	1183.200000
787.204468	1190.000000
787.240723	1214.600000
787.276978	1233.200000
787.313293	1237.800000
787.349548	1226.600000
787.385803	1229.900000
787.422058	1216.800000
787.458313	1225.700000
787.494629	1226.900000
787.530823	1224.700000
787.567139	1215.000000
787.603455	1202.900000
787.639648	1188.000000
787.675903	1187.900000
787.712219	1192.400000
787.748413	1187.300000
787.784729	1196.000000
787.820984	1181.400000
787.857178	1168.700000
787.893494	1159.800000
787.929749	1151.000000
787.965942	1163.300000
788.002258	1183.500000
788.038452	1187.500000
788.074707	1178.500000
788.110962	1181.700000
788.147217	1173.200000
788.183472	1182.100000
788.219727	1203.200000
788.255920	1222.300000
788.292175	1226.200000
788.328430	1216.700000
788.364624	1199.000000
788.400879	1190.700000
788.437134	1198.200000
788.473328	1202.100000
788.509583	1196.300000
788.545837	1190.500000
788.582031	1186.600000
788.618286	1166.400000
788.654480	1161.400000
788.690735	1173.300000
788.726990	1199.200000
788.763184	1192.400000
788.799377	1208.400000
788.835632	1191.500000
788.871826	1212.100000
788.908081	1207.400000
788.944336	1203.300000
788.980469	1231.000000
789.016724	1222.500000
789.052979	1216.800000
789.089111	1197.500000
789.125366	1201.800000
789.161621	1185.200000
789.197754	1196.200000
789.234009	1184.300000
789.270142	1166.400000
789.306396	1156.000000
789.342590	1147.000000
789.378784	1130.700000
789.414978	1129.800000
789.451233	1147.300000
789.487366	1147.500000
789.523621	1157.200000
789.559814	1140.900000
789.595947	1134.000000
789.632202	1143.700000
789.668335	1152.600000
789.704529	1173.900000
789.740784	1198.300000
789.776917	1197.500000
789.813110	1184.700000
789.849304	1197.900000
789.885498	1197.600000
789.921692	1217.500000
789.957886	1228.800000
789.994019	1223.500000
790.030212	1214.000000
790.066406	1216.900000
790.102539	1209.200000
790.138733	1218.700000
790.174927	1219.700000
790.211060	1235.200000
790.247253	1213.000000
790.283386	1197.800000
790.319580	1181.700000
790.355774	1169.000000
790.391907	1176.400000
790.428101	1200.900000
790.464294	1201.100000
790.500427	1198.500000
790.536621	1182.600000
790.572754	1177.100000
790.608887	1172.200000
790.645081	1186.300000
790.681274	1204.000000
790.717346	1193.700000
790.753540	1149.200000
790.789734	1072.300000
790.825867	1013.900000
790.862000	1016.600000
790.898132	1070.900000
790.934265	1133.500000
790.970459	1199.900000
791.006592	1216.500000
791.042725	1221.600000
791.078918	1218.000000
791.114990	1219.400000
791.151184	1237.000000
791.187317	1259.800000
791.223389	1249.800000
791.259583	1233.300000
791.295715	1244.300000
791.331848	1243.400000
791.367981	1262.100000
791.404114	1268.400000
791.440247	1264.300000
791.476379	1260.000000
791.512451	1239.400000
791.548584	1237.900000
791.584778	1235.300000
791.620850	1256.000000
791.656982	1263.900000
791.693115	1260.300000
791.729187	1253.400000
791.765381	1240.500000
791.801514	1241.100000
791.837585	1236.900000
791.873718	1250.100000
791.909851	1267.500000
791.945923	1271.300000
791.982056	1235.200000
792.018188	1232.100000
792.054260	1235.700000
792.090393	1237.700000
792.126465	1230.000000
792.162598	1240.200000
792.198669	1228.800000
792.234741	1220.600000
792.270874	1210.600000
792.307007	1199.300000
792.343079	1208.400000
792.379150	1225.400000
792.415283	1208.700000
792.451355	1210.300000
792.487488	1184.400000
792.523560	1184.100000
792.559631	1191.100000
792.595764	1180.600000
792.631836	1194.300000
792.667908	1197.200000
792.703979	1184.100000
792.740051	1178.000000
792.776184	1185.400000
792.812256	1183.600000
792.848328	1198.800000
792.884399	1202.500000
792.920471	1198.200000
792.956543	1183.100000
792.992615	1186.800000
793.028748	1186.400000
793.064758	1190.500000
793.100830	1210.700000
793.136963	1225.500000
793.172974	1217.400000
793.209045	1212.400000
793.245178	1218.100000
793.281189	1203.800000
793.317261	1214.400000
793.353271	1219.600000
793.389404	1226.600000
793.425476	1219.300000
793.461487	1199.600000
793.497559	1193.500000
793.533630	1206.100000
793.569641	1201.300000
793.605713	1207.700000
793.641785	1209.300000
793.677795	1220.700000
793.713867	1203.300000
793.749878	1204.900000
793.785950	1214.600000
793.822021	1222.900000
793.858032	1208.700000
793.894104	1216.200000
793.930176	1210.400000
793.966187	1213.900000
794.002258	1197.400000
794.038269	1203.000000
794.074280	1199.700000
794.110352	1222.800000
794.146423	1194.300000
794.182373	1188.400000
794.218445	1177.500000
794.254517	1170.800000
794.290466	1154.100000
794.326538	1168.600000
794.362549	1168.800000
794.398560	1178.900000
794.434631	1176.200000
794.470581	1147.700000
794.506653	1135.600000
794.542664	1137.800000
794.578674	1143.800000
794.614685	1141.300000
794.650757	1135.800000
794.686707	1123.400000
794.722778	1116.300000
794.758789	1128.700000
794.794739	1128.400000
794.830811	1153.600000
794.866821	1175.100000
794.902771	1168.200000
794.938843	1150.800000
794.974792	1149.800000
795.010803	1149.400000
795.046814	1149.300000
795.082825	1137.600000
795.118835	1153.000000
795.154846	1134.100000
795.190796	1139.100000
795.226807	1111.900000
795.262817	1123.700000
795.298767	1118.200000
795.334778	1124.500000
795.370850	1110.900000
795.406799	1107.000000
795.442810	1083.100000
795.478821	1085.100000
795.514709	1087.100000
795.550720	1108.300000
795.586670	1086.500000
795.622681	1091.500000
795.658691	1086.300000
795.694641	1084.500000
795.730652	1072.300000
795.766663	1077.200000
795.802551	1081.000000
795.838562	1098.700000
795.874573	1087.100000
795.910522	1077.900000
795.946472	1068.900000
795.982483	1073.700000
796.018433	1079.200000
796.054382	1088.700000
796.090393	1079.500000
796.126282	1062.200000
796.162292	1049.000000
796.198242	1049.100000
796.234192	1058.300000
796.270203	1048.000000
796.306091	1056.700000
796.342041	1071.500000
796.378052	1056.400000
796.413940	1043.500000
796.449951	1053.800000
796.485901	1051.400000
796.521790	1054.200000
796.557800	1065.300000
796.593689	1065.600000
796.629639	1051.600000
796.665649	1042.800000
796.701599	1044.500000
796.737488	1048.000000
796.773437	1046.000000
796.809387	1049.200000
796.845337	1043.800000
796.881287	1033.300000
796.917175	1018.100000
796.953125	1017.500000
796.989075	1031.500000
797.024963	1034.700000
797.060913	1030.800000
797.096863	1029.200000
797.132751	1021.100000
797.168701	1005.900000
797.204590	1009.400000
797.240540	1013.600000
797.276489	1019.400000
797.312439	1027.100000
797.348328	1020.100000
797.384277	1008.800000
797.420166	996.800000
797.456055	1004.000000
797.492004	1000.700000
797.527893	1007.500000
797.563843	1012.100000
797.599731	999.500000
797.635620	983.900000
797.671570	983.700000
797.707520	985.600000
797.743347	985.000000
797.779297	997.400000
797.815125	993.300000
797.851074	983.900000
797.887024	978.500000
797.922913	971.900000
797.958801	982.500000
797.994690	978.500000
798.030579	983.300000
798.066467	982.500000
798.102356	967.900000
798.138245	961.700000
798.174133	959.700000
798.210083	966.200000
798.245911	974.200000
798.281799	979.400000
798.317749	971.200000
798.353577	959.600000
798.389465	955.900000
798.425293	956.300000
798.461243	952.100000
798.497131	959.600000
798.532959	963.500000
798.568848	962.800000
798.604736	946.200000
798.640564	937.300000
798.676453	934.000000
798.712402	941.200000
798.748230	950.200000
798.784119	943.300000
798.820007	946.300000
798.855835	935.100000
798.891724	931.000000
798.927551	931.600000
798.963379	941.100000
798.999268	936.100000
799.035095	934.000000
799.070984	922.300000
799.106873	911.300000
799.142700	922.400000
799.178528	912.900000
799.214417	910.000000
799.250244	929.500000
799.286133	919.000000
799.321960	914.000000
799.357788	908.600000
799.393677	906.800000
799.429504	904.100000
799.465332	910.100000
799.501221	923.400000
799.537048	911.800000
799.572876	901.300000
799.608704	905.600000
799.644531	912.300000
799.680359	905.500000
799.716248	915.600000
799.752014	919.600000
799.787903	911.700000
799.823730	905.900000
799.859558	900.400000
799.895386	898.900000
799.931213	902.800000
799.967041	898.200000
800.002869	886.500000
800.038696	898.900000
800.074463	877.500000
800.110352	879.000000
800.146179	869.400000
800.181946	880.100000
800.217773	880.900000
800.253540	878.300000
800.289429	871.200000
800.325256	863.400000
800.361023	859.100000
800.396851	861.700000
800.432678	863.200000
800.468445	860.400000
800.504272	854.100000
800.540100	834.500000
800.575867	834.500000
800.611694	840.500000
800.647461	835.200000
800.683289	837.100000
800.719116	839.900000
800.754883	834.100000
800.790649	813.400000
800.826477	807.800000
800.862244	825.600000
800.898071	812.000000
800.933838	807.100000
800.969604	804.300000
801.005432	803.400000
801.041199	806.100000
801.076965	799.600000
801.112793	788.500000
801.148560	780.300000
801.184326	781.900000
801.220154	783.400000
801.255859	771.700000
801.291687	773.500000
801.327454	763.200000
801.363281	768.800000
801.398987	762.200000
801.434814	766.500000
801.470520	775.100000
801.506287	758.300000
801.542114	748.600000
801.577820	756.000000
801.613647	755.200000
801.649414	749.100000
801.685120	747.500000
801.720886	755.400000
801.756714	740.700000
801.792419	733.800000
801.828186	726.700000
801.863892	737.700000
801.899719	727.600000
801.935486	727.500000
801.971252	731.700000
802.006958	725.200000
802.042725	717.400000
802.078430	719.100000
802.114197	713.600000
802.149963	728.100000
802.185669	716.800000
802.221436	713.900000
802.257202	713.100000
802.292908	710.800000
802.328674	717.200000
802.364441	716.200000
802.400146	713.800000
802.435913	705.000000
802.471558	703.200000
802.507324	694.000000
802.543091	688.200000
802.578796	698.900000
802.614502	703.800000
802.650269	704.500000
802.685974	686.700000
802.721741	692.100000
802.757446	692.900000
802.793152	689.800000
802.828918	698.000000
802.864624	693.800000
802.900330	691.200000
802.936035	685.300000
802.971802	681.100000
803.007446	677.700000
803.043213	675.500000
803.078857	680.700000
803.114624	668.200000
803.150330	671.700000
803.185974	664.300000
803.221741	661.300000
803.257446	670.100000
803.293152	668.300000
803.328857	659.100000
803.364563	654.000000
803.400208	648.700000
803.435974	658.600000
803.471680	650.000000
803.507324	645.200000
803.543030	653.300000
803.578735	652.200000
803.614441	643.000000
803.650146	653.600000
803.685791	635.600000
803.721497	641.400000
803.757202	625.400000
803.792847	636.600000
803.828552	627.100000
803.864258	627.400000
803.899902	627.900000
803.935608	614.100000
803.971313	618.500000
804.006958	619.600000
804.042664	615.100000
804.078308	620.000000
804.113953	609.200000
804.149658	617.100000
804.185364	610.500000
804.221008	614.600000
804.256714	605.300000
804.292297	602.900000
804.328003	603.700000
804.363708	593.100000
804.399292	594.600000
804.434998	594.000000
804.470703	588.400000
804.506287	599.400000
804.541992	590.000000
804.577637	595.800000
804.613281	583.300000
804.648926	579.300000
804.684570	585.100000
804.720215	578.600000
804.755920	580.300000
804.791565	575.200000
804.827209	578.400000
804.862854	574.700000
804.898437	567.100000
804.934143	567.700000
804.969788	568.900000
805.005371	569.200000
805.041077	569.000000
805.076721	572.200000
805.112305	557.900000
805.147949	560.900000
805.183655	555.700000
805.219238	558.400000
805.254883	557.000000
805.290466	563.000000
805.326111	553.800000
805.361755	546.100000
805.397400	548.600000
805.432983	553.700000
805.468628	552.700000
805.504211	557.800000
805.539856	556.200000
805.575500	559.100000
805.611084	550.200000
805.646729	535.000000
805.682373	539.300000
805.717957	550.900000
805.753601	555.400000
805.789246	533.700000
805.824768	544.800000
805.860413	546.900000
805.895996	535.400000
805.931641	534.300000
805.967224	541.900000
806.002869	534.400000
806.038452	545.100000
806.074036	540.500000
806.109619	527.100000
806.145264	524.700000
806.180847	528.900000
806.216431	520.700000
806.252014	529.700000
806.287659	524.800000
806.323181	532.500000
806.358826	526.100000
806.394409	508.900000
806.429993	510.800000
806.465576	527.800000
806.501160	509.600000
806.536743	502.300000
806.572327	512.700000
806.607910	508.600000
806.643494	508.900000
806.679077	504.700000
806.714661	503.400000
806.750244	506.200000
806.785828	497.200000
806.821350	496.100000
806.856934	503.000000
806.892517	499.200000
806.928101	491.200000
806.963684	493.100000
806.999268	501.800000
807.034790	482.200000
807.070374	491.000000
807.105896	484.300000
807.141479	478.900000
807.177063	492.400000
807.212585	477.900000
807.248169	479.500000
807.283752	486.600000
807.319275	476.200000
807.354858	478.900000
807.390381	471.100000
807.425903	472.200000
807.461487	470.800000
807.497070	463.900000
807.532593	463.400000
807.568115	463.900000
807.603699	457.200000
807.639221	451.900000
807.674744	457.100000
807.710266	464.000000
807.745850	465.900000
807.781372	456.300000
807.816895	450.600000
807.852417	455.900000
807.888000	451.800000
807.923523	448.300000
807.959045	453.900000
807.994629	441.900000
808.030090	439.100000
808.065613	445.800000
808.101135	446.700000
808.136658	444.400000
808.172241	439.600000
808.207764	437.900000
808.243225	432.000000
808.278809	431.900000
808.314270	439.800000
808.349792	425.800000
808.385315	425.300000
808.420837	432.200000
808.456360	437.300000
808.491882	435.400000
808.527344	428.900000
808.562866	438.200000
808.598389	429.100000
808.633850	421.700000
808.669434	418.800000
808.704895	429.400000
808.740417	435.000000
808.775940	423.500000
808.811462	416.700000
808.846924	413.100000
808.882385	407.800000
808.917847	405.200000
808.953369	407.600000
808.988892	404.700000
809.024353	411.300000
809.059875	413.300000
809.095398	405.300000
809.130798	398.800000
809.166321	400.300000
809.201843	397.500000
809.237305	403.000000
809.272766	403.900000
809.308228	391.000000
809.343750	391.700000
809.379211	391.600000
809.414734	394.300000
809.450134	402.000000
809.485657	383.300000
809.521118	390.100000
809.556580	388.100000
809.592102	385.900000
809.627502	380.900000
809.663025	384.100000
809.698486	375.800000
809.733887	373.900000
809.769409	377.600000
809.804871	368.400000
809.840271	370.100000
809.875793	374.000000
809.911194	377.800000
809.946655	369.200000
809.982178	365.600000
810.017639	369.200000
810.053040	365.800000
810.088501	362.400000
810.123901	361.100000
810.159424	359.200000
810.194885	355.800000
810.230286	361.200000
810.265747	354.600000
810.301208	351.400000
810.336609	354.400000
810.372070	348.100000
810.407532	351.200000
810.442932	354.600000
810.478394	354.800000
810.513794	350.300000
810.549255	349.400000
810.584717	347.700000
810.620117	341.100000
810.655518	351.700000
810.690979	347.600000
810.726379	347.000000
810.761841	333.600000
810.797302	335.500000
810.832642	333.800000
810.868103	348.200000
810.903564	335.700000
810.938904	343.700000
810.974365	330.400000
811.009827	335.400000
811.045166	330.100000
811.080627	323.400000
811.115967	331.600000
811.151428	336.200000
811.186829	328.500000
811.222229	328.400000
811.257629	323.600000
811.293091	329.500000
811.328430	335.500000
811.363892	328.600000
811.399292	331.600000
811.434631	325.200000
811.470093	328.300000
811.505493	320.400000
811.540833	321.800000
811.576294	327.200000
811.611694	323.400000
811.647034	316.100000
811.682434	319.900000
811.717773	320.800000
811.753235	325.200000
811.788635	317.700000
811.823975	319.700000
811.859375	326.500000
811.894775	311.900000
811.930115	313.400000
811.965515	313.300000
812.000916	317.500000
812.036255	312.700000
812.071655	316.500000
812.106995	311.100000
812.142395	310.000000
812.177795	316.900000
812.213196	316.200000
812.248474	313.600000
812.283875	305.700000
812.319214	309.800000
812.354614	308.600000
812.390015	306.100000
812.425293	306.200000
812.460693	306.300000
812.496094	303.400000
812.531433	298.500000
812.566772	298.000000
812.602173	302.200000
812.637451	302.100000
812.672852	297.500000
812.708191	303.500000
812.743530	294.900000
812.778931	287.900000
812.814270	292.700000
812.849609	300.400000
812.884949	292.900000
812.920227	287.100000
812.955627	304.100000
812.990967	295.000000
813.026306	288.800000
813.061646	280.600000
813.096985	276.600000
813.132324	276.300000
813.167664	280.700000
813.203003	286.100000
813.238281	272.700000
813.273682	275.400000
813.308960	269.600000
813.344299	274.600000
813.379639	282.600000
813.414978	275.000000
813.450256	273.700000
813.485596	279.500000
813.520874	270.400000
813.556213	276.500000
813.591614	279.700000
813.626831	270.500000
813.662170	275.700000
813.697510	284.700000
813.732788	266.900000
813.768127	274.200000
813.803467	273.600000
813.838745	268.900000
813.874084	273.500000
813.909363	271.300000
813.944641	271.000000
813.979980	261.500000
814.015320	266.400000
814.050598	263.300000
814.085876	268.800000
814.121155	263.700000
814.156494	263.700000
814.191772	262.700000
814.227051	260.400000
814.262390	264.900000
814.297668	261.900000
814.332947	264.300000
814.368225	256.500000
814.403564	258.700000
814.438782	257.300000
814.474121	259.300000
814.509338	254.800000
814.544617	264.900000
814.579956	254.400000
814.615173	264.800000
814.650513	261.300000
814.685791	251.300000
814.721008	256.300000
814.756348	256.300000
814.791626	252.800000
814.826843	251.500000
814.862122	253.000000
814.897400	248.500000
814.932678	253.800000
814.967957	252.900000
815.003235	250.900000
815.038452	244.300000
815.073730	243.200000
815.108948	253.900000
815.144226	251.200000
815.179504	255.400000
815.214722	239.300000
815.250000	238.800000
815.285278	248.700000
815.320496	239.400000
815.355774	245.000000
815.391052	247.000000
815.426270	242.100000
815.461487	241.500000
815.496765	239.000000
815.531982	231.200000
815.567261	239.000000
815.602539	247.000000
815.637695	241.800000
815.672974	243.800000
815.708191	243.800000
815.743408	243.500000
815.778687	236.800000
815.813904	248.100000
815.849121	228.800000
815.884399	234.100000
815.919556	232.200000
815.954834	232.000000
815.990051	237.300000
816.025269	240.200000
816.060486	229.500000
816.095703	230.600000
816.130920	234.500000
816.166199	230.800000
816.201416	233.800000
816.236572	239.600000
816.271851	229.300000
816.307007	237.200000
816.342224	228.000000
816.377441	230.100000
816.412659	221.600000
816.447876	233.600000
816.483093	228.200000
816.518250	229.900000
816.553467	226.500000
816.588745	231.200000
816.623901	224.300000
816.659119	220.100000
816.694275	224.400000
816.729492	220.000000
816.764709	257.500000
816.799927	218.700000
816.835083	223.700000
816.870300	218.700000
816.905457	221.700000
816.940674	225.700000
816.975830	218.900000
817.010986	217.100000
817.046204	219.000000
817.081421	216.300000
817.116577	215.700000
817.151733	225.400000
817.186951	224.700000
817.222107	221.400000
817.257324	222.900000
817.292419	221.200000
817.327637	211.500000
817.362854	216.400000
817.398010	213.000000
817.433167	214.700000
817.468323	214.700000
817.503479	214.500000
817.538635	224.600000
817.573853	218.500000
817.608948	216.500000
817.644165	211.000000
817.679321	210.300000
817.714478	211.600000
817.749634	215.300000
817.784790	226.700000
817.819946	222.600000
817.855103	201.800000
817.890198	212.300000
817.925415	205.200000
817.960571	215.400000
817.995667	212.800000
818.030823	216.200000
818.066040	207.700000
818.101135	212.700000
818.136292	210.300000
818.171448	205.000000
818.206543	210.500000
818.241699	215.300000
818.276855	209.900000
818.311951	210.300000
818.347107	206.600000
818.382263	212.300000
818.417358	216.500000
818.452515	218.500000
818.487610	218.400000
818.522766	206.400000
818.557922	217.000000
818.593018	213.400000
818.628113	211.100000
818.663269	204.700000
818.698364	209.500000
818.733521	206.300000
818.768677	211.400000
818.803711	201.800000
818.838867	206.600000
818.874023	207.800000
818.909058	205.300000
818.944214	203.000000
818.979370	210.500000
819.014404	207.600000
819.049561	203.300000
819.084595	208.100000
819.119751	199.800000
819.154846	208.000000
819.189941	204.200000
819.225037	199.300000
819.260193	195.600000
819.295227	199.400000
819.330322	193.800000
819.365479	193.700000
819.400513	227.800000
819.435608	192.000000
819.470764	191.400000
819.505798	194.200000
819.540894	199.800000
819.575989	195.700000
819.611084	206.100000
819.646179	204.200000
819.681213	201.500000
819.716309	198.000000
819.751404	199.600000
819.786438	201.900000
819.821533	195.300000
819.856628	200.300000
819.891663	203.800000
819.926758	208.500000
819.961853	205.400000
819.996887	197.300000
820.031982	203.900000
820.067017	198.000000
820.102112	227.800000
820.137207	197.700000
820.172302	215.100000
820.207275	195.600000
820.242371	195.600000
820.277405	194.400000
820.312500	198.500000
820.347534	199.900000
820.382568	203.800000
820.417664	196.700000
820.452759	196.700000
820.487732	194.800000
820.522827	196.800000
820.557861	192.700000
820.592896	195.300000
820.627930	196.300000
820.662964	193.900000
820.698059	199.800000
820.733093	195.100000
820.768127	200.800000
820.803162	196.700000
820.838196	194.800000
820.873230	197.100000
820.908264	197.500000
820.943298	193.700000
820.978333	203.300000
821.013367	196.400000
821.048401	202.100000
821.083435	203.400000
821.118469	189.100000
821.153503	200.900000
821.188477	198.100000
821.223511	188.000000
821.258484	195.800000
821.293579	197.700000
821.328613	188.800000
821.363647	193.600000
821.398621	190.600000
821.433655	192.400000
821.468628	208.900000
821.503662	194.200000
821.538696	199.100000
821.573669	190.000000
821.608704	200.100000
821.643677	192.900000
821.678650	199.400000
821.713684	204.600000
821.748718	195.200000
821.783691	195.100000
821.818726	198.300000
821.853638	197.500000
821.888672	194.600000
821.923706	197.200000
821.958618	192.500000
821.993652	193.400000
822.028687	200.600000
822.063599	203.600000
822.098633	197.700000
822.133667	192.000000
822.168579	194.700000
822.203613	196.400000
822.238586	191.400000
822.273560	198.000000
822.308533	191.600000
822.343567	193.600000
822.378479	192.500000
822.413452	193.700000
822.448425	189.100000
822.483398	199.700000
822.518372	198.400000
822.553345	193.300000
822.588318	202.900000
822.623291	192.700000
822.658203	192.100000
822.693237	195.200000
822.728210	189.200000
822.763123	195.900000
822.798096	189.000000
822.833069	195.200000
822.867981	193.700000
822.902954	196.600000
822.937927	198.800000
822.972900	207.000000
823.007874	186.100000
823.042725	198.600000
823.077698	206.600000
823.112671	190.900000
823.147583	193.700000
823.182556	197.200000
823.217529	197.600000
823.252441	193.300000
823.287415	210.100000
823.322388	198.700000
823.357239	196.300000
823.392212	202.800000
823.427185	197.600000
823.462097	191.100000
823.497009	197.400000
823.531982	194.100000
823.566895	195.300000
823.601807	190.100000
823.636719	193.100000
823.671631	199.100000
823.706604	192.600000
823.741455	198.100000
823.776428	186.900000
823.811340	197.900000
823.846252	201.300000
823.881165	203.200000
823.916138	196.600000
823.950989	202.500000
823.985901	192.300000
824.020813	195.100000
824.055725	193.400000
824.090637	190.300000
824.125610	197.100000
824.160461	194.000000
824.195374	197.600000
824.230225	201.300000
824.265198	186.500000
824.300110	190.800000
824.334961	206.300000
824.369873	184.700000
824.404785	197.000000
824.439636	201.800000
824.474548	187.300000
824.509460	183.100000
824.544312	199.800000
824.579224	195.800000
824.614075	196.600000
824.648987	193.200000
824.683899	193.400000
824.718811	192.700000
824.753662	201.000000
824.788574	198.900000
824.823364	197.600000
824.858276	192.400000
824.893188	200.300000
824.928040	201.100000
824.962952	197.000000
824.997803	198.300000
825.032654	196.300000
825.067566	197.200000
825.102417	193.600000
825.137268	193.300000
825.172119	195.300000
825.206970	191.200000
825.241882	194.100000
825.276733	192.000000
825.311646	193.200000
825.346436	188.400000
825.381348	188.800000
825.416138	195.400000
825.450989	191.100000
825.485901	185.400000
825.520691	186.600000
825.555542	187.100000
825.590454	194.200000
825.625244	187.000000
825.660095	200.700000
825.695007	199.400000
825.729797	192.200000
825.764648	189.600000
825.799438	193.000000
825.834290	195.100000
825.869202	187.600000
825.903992	196.500000
825.938843	189.800000
825.973694	189.300000
826.008484	205.600000
826.043335	188.700000
826.078186	184.100000
826.112976	201.700000
826.147827	198.800000
826.182678	203.400000
826.217468	185.600000
826.252319	198.300000
826.287109	189.500000
826.321899	201.300000
826.356750	191.900000
826.391541	189.200000
826.426392	199.600000
826.461182	194.200000
826.495972	187.300000
826.530823	185.000000
826.565613	193.800000
826.600403	189.500000
826.635254	197.300000
826.670044	186.800000
826.704834	185.700000
826.739685	188.400000
826.774475	196.000000
826.809265	194.800000
826.844055	191.100000
826.878906	200.300000
826.913635	196.100000
826.948425	197.200000
826.983215	194.200000
827.018005	198.500000
827.052856	191.700000
827.087585	196.600000
827.122375	185.700000
827.157227	194.900000
827.191956	206.100000
827.226746	188.700000
827.261536	197.800000
827.296265	186.500000
827.331116	191.500000
827.365906	196.000000
827.400635	190.200000
827.435425	184.300000
827.470215	199.400000
827.504944	191.400000
827.539734	197.900000
827.574463	192.600000
827.609253	200.100000
827.644043	192.200000
827.678772	199.700000
827.713562	189.800000
827.748352	192.700000
827.783081	188.900000
827.817871	195.800000
827.852600	187.700000
827.887329	194.800000
827.922119	183.100000
827.956848	196.100000
827.991638	206.000000
828.026367	195.100000
828.061157	194.500000
828.095886	194.300000
828.130615	207.700000
828.165344	182.600000
828.200073	194.100000
828.234863	190.400000
828.269592	192.600000
828.304321	199.200000
828.339111	194.200000
828.373779	190.200000
828.408569	198.900000
828.443298	198.800000
828.477966	190.700000
828.512756	195.400000
828.547424	187.700000
828.582214	191.200000
828.616943	192.500000
828.651672	192.600000
828.686340	198.700000
828.721130	190.500000
828.755798	191.800000
828.790527	192.700000
828.825256	195.500000
828.859924	193.000000
828.894714	200.100000
828.929443	200.000000
828.964111	188.200000
828.998840	191.100000
829.033569	189.500000
829.068237	190.900000
829.102966	190.700000
829.137634	194.300000
829.172363	195.900000
829.207092	194.700000
829.241821	190.000000
829.276489	185.000000
829.311157	192.400000
829.345825	190.400000
829.380554	199.100000
829.415283	188.400000
829.449951	186.300000
829.484619	201.100000
829.519348	200.500000
829.554016	194.100000
829.588745	193.800000
829.623413	186.500000
829.658081	204.300000
829.692749	188.000000
829.727417	196.800000
829.762146	195.200000
829.796814	189.800000
829.831482	190.700000
829.866150	195.200000
829.900879	190.500000
829.935486	196.900000
829.970154	192.500000
830.004883	204.100000
830.039490	195.400000
830.074219	189.100000
830.108887	193.900000
830.143494	192.900000
830.178223	187.100000
830.212891	191.500000
830.247498	194.400000
830.282166	201.000000
830.316772	197.900000
830.351501	190.900000
830.386169	193.100000
830.420776	190.900000
830.455444	192.200000
830.490112	191.300000
830.524719	185.100000
830.559387	195.300000
830.594055	196.800000
830.628662	191.800000
830.663330	192.800000
830.697998	202.000000
830.732605	191.800000
830.767273	196.500000
830.801941	193.200000
830.836487	201.900000
830.871155	194.400000
830.905762	194.600000
830.940430	185.000000
830.975098	187.800000
831.009644	193.400000
831.044312	201.300000
831.078979	194.700000
831.113525	184.000000
831.148193	194.500000
831.182861	191.300000
831.217407	196.000000
831.252075	208.800000
831.286621	189.500000
831.321289	189.600000
831.355896	192.200000
831.390564	200.800000
831.425110	194.300000
831.459778	198.900000
831.494324	206.400000
831.528931	197.000000
831.563599	197.700000
831.598145	186.900000
831.632751	194.100000
831.667419	191.800000
831.701965	196.600000
831.736572	197.000000
831.771179	187.900000
831.805786	190.300000
831.840393	199.500000
831.874939	184.900000
831.909546	198.700000
831.944153	184.900000
831.978760	191.600000
832.013306	189.300000
832.047913	200.100000
832.082458	202.800000
832.117065	189.500000
832.151672	203.200000
832.186218	194.000000
832.220825	196.300000
832.255432	183.700000
832.289978	190.700000
832.324585	195.100000
832.359192	195.500000
832.393677	190.100000
832.428284	193.600000
832.462830	191.900000
832.497437	190.900000
832.531982	195.500000
832.566589	192.600000
832.601135	193.100000
832.635681	186.100000
832.670227	193.100000
832.704773	201.900000
832.739380	195.600000
832.773926	194.900000
832.808472	188.600000
832.843079	193.000000
832.877563	196.000000
832.912170	191.600000
832.946716	184.400000
832.981201	199.000000
833.015808	196.500000
833.050293	193.600000
833.084839	188.900000
833.119446	192.500000
833.153992	196.300000
833.188477	192.600000
833.223022	188.500000
833.257568	194.900000
833.292114	197.600000
833.326660	203.800000
833.361145	189.700000
833.395691	185.000000
833.430237	192.300000
833.464783	196.100000
833.499329	188.500000
833.533875	186.900000
833.568359	196.800000
833.602905	199.100000
833.637390	198.500000
833.671875	190.600000
833.706421	191.700000
833.740906	189.400000
833.775452	183.100000
833.809998	189.100000
833.844482	199.800000
833.879028	191.200000
833.913513	190.100000
833.947998	194.200000
833.982544	190.200000
834.017090	189.900000
834.051514	181.900000
834.086060	197.000000
834.120544	192.200000
834.155029	194.700000
834.189575	190.200000
834.223999	194.100000
834.258545	194.000000
834.293030	193.100000
834.327515	192.700000
834.362000	190.100000
834.396545	197.900000
834.430969	192.900000
834.465454	197.400000
834.500000	184.900000
834.534424	195.000000
834.568970	182.400000
834.603455	184.900000
834.637878	189.400000
834.672363	193.000000
834.706909	194.000000
834.741333	192.900000
834.775818	184.400000
834.810242	187.900000
834.844727	194.400000
834.879211	192.000000
834.913635	194.600000
834.948181	194.000000
834.982666	193.300000
835.017090	191.500000
835.051575	197.700000
835.086060	190.000000
835.120483	196.600000
835.154907	197.900000
835.189331	192.400000
835.223816	195.700000
835.258301	188.600000
835.292786	188.400000
835.327209	197.800000
835.361694	188.700000
835.396057	190.700000
835.430542	196.200000
835.465027	194.400000
835.499390	186.200000
835.533875	212.000000
835.568359	189.900000
835.602722	184.200000
835.637207	194.900000
835.671692	187.200000
835.706055	207.900000
835.740540	194.100000
835.774902	195.000000
835.809387	194.000000
835.843811	186.300000
835.878235	201.600000
835.912659	185.800000
835.947083	189.900000
835.981506	192.400000
836.015930	186.100000
836.050354	196.700000
836.084778	203.100000
836.119202	197.900000
836.153625	206.600000
836.187988	188.000000
836.222473	191.700000
836.256897	194.600000
836.291260	192.600000
836.325684	194.600000
836.360046	190.900000
836.394470	192.100000
836.428894	200.700000
836.463318	190.000000
836.497681	198.600000
836.532104	199.600000
836.566467	194.300000
836.600891	192.700000
836.635315	199.600000
836.669678	196.100000
836.704102	197.000000
836.738525	193.200000
836.772888	184.700000
836.807251	190.200000
836.841675	195.400000
836.876038	188.600000
836.910461	189.600000
836.944763	196.500000
836.979187	188.900000
837.013611	199.400000
837.047974	185.900000
837.082336	205.200000
837.116699	196.100000
837.151062	191.400000
837.185486	187.200000
837.219849	191.900000
837.254211	195.800000
837.288574	191.900000
837.322937	186.600000
837.357300	180.100000
837.391663	205.300000
837.426086	197.600000
837.460388	193.400000
837.494751	198.300000
837.529114	190.700000
837.563477	199.100000
837.597839	194.500000
837.632141	193.100000
837.666565	190.000000
837.700928	196.900000
837.735229	196.800000
837.769592	195.700000
837.803955	198.300000
837.838257	190.700000
837.872620	188.900000
837.906982	201.100000
837.941284	193.300000
837.975647	194.000000
838.010010	201.300000
838.044312	190.600000
838.078674	190.100000
838.112976	192.900000
838.147339	197.700000
838.181702	193.500000
838.216003	204.000000
838.250366	195.700000
838.284668	196.300000
838.318970	185.200000
838.353333	193.200000
838.387634	191.800000
838.421936	193.100000
838.456299	194.300000
838.490601	202.200000
838.524902	196.300000
838.559265	198.400000
838.593567	197.400000
838.627869	187.100000
838.662170	195.600000
838.696472	187.800000
838.730774	189.600000
838.765137	197.900000
838.799377	177.500000
838.833740	193.400000
838.868042	199.400000
838.902283	185.100000
838.936646	198.700000
838.970947	195.500000
839.005188	198.100000
839.039551	185.700000
839.073792	199.800000
839.108093	190.700000
839.142395	201.900000
839.176697	187.700000
839.210937	193.500000
839.245300	204.200000
839.279541	186.000000
839.313843	191.500000
839.348145	196.200000
839.382385	198.200000
839.416687	197.800000
839.450989	197.400000
839.485229	192.100000
839.519531	188.500000
839.553833	198.600000
839.588013	194.900000
839.622314	193.500000
839.656555	197.800000
839.690857	194.200000
839.725159	187.600000
839.759460	191.500000
839.793640	190.800000
839.827942	192.800000
839.862183	189.100000
839.896423	194.300000
839.930725	204.000000
839.964966	201.800000
839.999207	200.800000
840.033508	201.500000
840.067688	190.100000
840.101990	202.300000
840.136230	193.700000
840.170471	202.400000
840.204712	188.700000
840.238953	189.700000
840.273193	194.100000
840.307434	196.400000
840.341736	188.400000
840.375916	187.500000
840.410217	189.800000
840.444397	197.800000
840.478638	194.500000
840.512878	201.000000
840.547119	193.400000
840.581360	196.000000
840.615601	203.300000
840.649780	203.900000
840.684021	192.600000
840.718262	201.900000
840.752441	197.600000
840.786682	194.700000
840.820862	194.700000
840.855103	200.900000
840.889343	193.000000
840.923584	199.500000
840.957764	196.000000
840.992004	197.300000
841.026184	208.000000
841.060425	192.000000
841.094666	190.000000
841.128845	197.500000
841.163025	194.500000
841.197266	196.100000
841.231445	195.200000
841.265686	194.700000
841.299866	189.300000
841.334045	202.000000
841.368286	192.400000
841.402405	201.400000
841.436646	197.600000
841.470825	191.300000
841.505005	194.100000
841.539185	189.200000
841.573425	191.100000
841.607544	193.400000
841.641785	193.500000
841.675964	188.200000
841.710144	193.800000
841.744324	190.600000
841.778503	192.000000
841.812683	190.100000
841.846863	204.200000
841.881042	198.800000
841.915222	190.500000
841.949402	208.500000
841.983521	185.600000
842.017700	192.800000
842.051880	194.800000
842.086060	195.500000
842.120239	194.700000
842.154419	191.200000
842.188538	194.600000
842.222717	190.000000
842.256897	203.900000
842.291016	193.400000
842.325195	196.900000
842.359375	206.100000
842.393494	202.800000
842.427673	193.400000
842.461853	197.500000
842.495911	202.500000
842.530090	196.300000
842.564209	193.800000
842.598389	195.500000
842.632568	193.800000
842.666626	199.600000
842.700806	190.400000
842.734985	192.300000
842.769043	198.000000
842.803223	191.300000
842.837402	192.900000
842.871460	191.900000
842.905640	202.400000
842.939697	189.900000
842.973877	195.900000
843.007996	199.100000
843.042175	203.500000
843.076233	190.700000
843.110413	195.200000
843.144470	203.900000
843.178589	198.400000
843.212769	190.900000
843.246826	198.500000
843.280945	192.400000
843.315125	192.400000
843.349182	190.300000
843.383301	200.300000
843.417419	207.200000
843.451538	194.900000
843.485657	192.100000
843.519714	193.100000
843.553833	195.000000
843.587952	191.700000
843.622070	188.300000
843.656128	199.600000
843.690247	192.000000
843.724304	192.500000
843.758423	194.800000
843.792542	192.000000
843.826599	193.000000
843.860718	192.700000
843.894836	186.400000
843.928894	194.900000
843.963013	195.200000
843.997070	191.500000
844.031128	185.500000
844.065247	200.100000
844.099304	198.900000
844.133362	195.400000
844.167480	196.600000
844.201599	203.500000
844.235596	195.500000
844.269714	195.700000
844.303711	197.200000
844.337830	186.200000
844.371948	197.200000
844.405945	193.000000
844.440063	188.400000
844.474121	208.900000
844.508118	193.100000
844.542236	193.500000
844.576294	192.900000
844.610352	188.800000
844.644409	194.200000
844.678406	185.200000
844.712524	199.600000
844.746582	201.000000
844.780640	194.200000
844.814636	194.000000
844.848755	203.100000
844.882751	193.000000
844.916809	200.400000
844.950867	196.300000
844.984863	202.900000
845.018921	193.800000
845.052979	192.200000
845.086975	195.300000
845.121033	188.300000
845.155090	190.600000
845.189087	201.600000
845.223145	191.700000
845.257141	194.300000
845.291199	197.400000
845.325256	203.300000
845.359253	195.000000
845.393250	204.500000
845.427307	192.700000
845.461304	197.600000
845.495361	194.900000
845.529358	205.100000
845.563354	191.300000
845.597412	188.900000
845.631409	201.400000
845.665405	200.300000
845.699463	200.200000
845.733459	193.400000
845.767456	201.200000
845.801453	193.900000
845.835449	200.900000
845.869446	198.400000
845.903503	198.800000
845.937439	191.500000
845.971497	201.700000
846.005493	189.400000
846.039429	198.400000
846.073486	203.800000
846.107483	192.800000
846.141418	196.900000
846.175476	194.800000
846.209473	201.400000
846.243408	191.900000
846.277405	195.700000
846.311401	189.100000
846.345337	196.300000
846.379395	201.500000
846.413330	192.300000
846.447327	203.000000
846.481323	190.600000
846.515259	192.300000
846.549255	195.200000
846.583252	196.400000
846.617187	189.000000
846.651184	196.900000
846.685120	192.900000
846.719055	202.500000
846.753052	199.300000
846.786987	199.800000
846.820984	186.800000
846.854980	202.800000
846.888916	189.600000
846.922852	197.600000
846.956848	203.200000
846.990723	190.100000
847.024719	195.300000
847.058716	194.500000
847.092590	202.800000
847.126587	197.200000
847.160522	192.000000
847.194458	198.600000
847.228455	191.100000
847.262390	190.600000
847.296265	192.800000
847.330261	201.100000
847.364136	191.400000
847.398132	191.800000
847.432068	195.700000
847.466003	192.700000
847.499939	191.800000
847.533875	197.200000
847.567749	191.700000
847.601746	193.200000
847.635681	197.700000
847.669556	188.700000
847.703491	199.100000
847.737427	208.800000
847.771301	189.100000
847.805237	195.100000
847.839233	196.800000
847.873108	194.200000
847.907043	193.900000
847.940918	201.800000
847.974854	197.900000
848.008789	200.200000
848.042664	196.200000
848.076538	198.700000
848.110474	195.000000
848.144348	197.600000
848.178284	189.200000
848.212219	194.400000
848.246094	194.700000
848.279968	196.600000
848.313904	199.200000
848.347778	196.700000
848.381653	195.100000
848.415588	189.400000
848.449463	192.600000
848.483337	197.100000
848.517212	200.200000
848.551086	194.800000
848.585022	191.500000
848.618835	201.900000
848.652771	191.200000
848.686646	189.800000
848.720520	202.800000
848.754395	193.000000
848.788330	199.800000
848.822144	198.200000
848.856018	193.300000
848.889954	203.700000
848.923767	190.700000
848.957642	191.400000
848.991577	199.400000
849.025391	191.700000
849.059265	195.300000
849.093079	192.100000
849.126953	189.500000
849.160828	199.500000
849.194641	196.200000
849.228577	191.500000
849.262451	194.400000
849.296265	193.000000
849.330139	190.300000
849.364014	194.900000
849.397827	197.800000
849.431702	194.600000
849.465515	199.600000
849.499329	187.500000
849.533203	190.600000
849.567078	184.500000
849.600891	198.000000
849.634766	194.400000
849.668518	199.700000
849.702393	194.900000
849.736267	187.900000
849.770020	207.000000
849.803894	198.600000
849.837769	195.800000
849.871521	194.500000
849.905396	200.200000
849.939270	190.200000
849.973022	193.500000
850.006897	198.300000
850.040710	197.600000
850.074524	198.200000
850.108337	193.100000
850.142151	198.400000
850.175964	202.600000
850.209778	194.900000
850.243530	183.200000
850.277405	199.600000
850.311218	194.800000
850.344971	189.700000
850.378845	203.500000
850.412659	191.100000
850.446411	195.500000
850.480225	192.700000
850.514038	200.000000
850.547791	196.500000
850.581665	196.900000
850.615417	191.500000
850.649231	196.700000
850.683044	193.400000
850.716858	193.300000
850.750610	194.800000
850.784424	200.500000
850.818176	192.200000
850.851929	193.300000
850.885742	191.600000
850.919495	194.200000
850.953308	202.800000
850.987122	203.700000
851.020874	189.600000
851.054626	186.800000
851.088440	198.100000
851.122192	199.800000
851.156006	195.900000
851.189697	194.100000
851.223511	189.200000
851.257263	199.800000
851.291077	197.700000
851.324829	192.100000
851.358582	191.400000
851.392334	192.000000
851.426086	193.600000
851.459900	203.400000
851.493591	195.000000
851.527344	194.700000
851.561157	194.900000
851.594849	197.900000
851.628662	197.800000
851.662415	202.800000
851.696106	197.200000
851.729858	197.900000
851.763611	189.300000
851.797363	195.700000
851.831116	190.700000
851.864868	197.700000
851.898560	200.100000
851.932312	192.300000
851.966064	196.100000
851.999817	194.600000
852.033569	194.900000
852.067261	198.200000
852.101013	192.600000
852.134766	194.500000
852.168457	184.300000
852.202209	198.900000
852.235901	191.400000
852.269592	196.900000
852.303345	205.100000
852.337036	198.100000
852.370789	194.100000
852.404541	198.700000
852.438171	191.300000
852.471924	194.600000
852.505676	189.400000
852.539307	197.300000
852.573059	191.700000
852.606812	192.600000
852.640442	193.900000
852.674194	201.000000
852.707886	206.500000
852.741577	203.100000
852.775269	190.700000
852.809021	195.700000
852.842651	197.100000
852.876404	199.200000
852.910034	197.400000
852.943787	200.400000
852.977478	197.600000
853.011108	192.500000
853.044861	191.400000
853.078552	202.500000
853.112183	197.200000
853.145874	197.100000
853.179626	186.100000
853.213257	195.900000
853.246948	192.200000
853.280640	203.200000
853.314270	193.700000
853.347961	202.800000
853.381653	197.200000
853.415283	198.700000
853.448975	191.500000
853.482605	195.800000
853.516296	194.400000
853.549988	189.200000
853.583618	194.700000
853.617310	195.500000
853.651001	197.300000
853.684631	189.700000
853.718323	192.200000
853.751953	203.200000
853.785583	184.900000
853.819275	199.100000
853.852966	197.300000
853.886536	186.200000
853.920227	189.400000
853.953918	200.800000
853.987488	193.100000
854.021179	200.000000
854.054749	202.600000
854.088440	198.600000
854.122131	191.100000
854.155701	199.200000
854.189331	191.000000
854.223022	199.500000
854.256592	197.700000
854.290283	191.000000
854.323914	198.600000
854.357483	196.100000
854.391174	197.400000
854.424744	205.300000
854.458374	196.900000
854.492065	206.800000
854.525696	193.700000
854.559265	200.800000
854.592896	206.000000
854.626465	194.900000
854.660095	195.600000
854.693787	197.600000
854.727356	194.100000
854.760986	199.300000
854.794617	196.500000
854.828186	192.900000
854.861816	199.000000
854.895447	195.600000
854.929016	197.500000
854.962585	197.300000
854.996155	202.700000
855.029785	197.700000
855.063416	197.100000
855.097046	197.900000
855.130615	190.500000
855.164185	200.000000
855.197754	195.900000
855.231384	198.400000
855.264954	194.600000
855.298523	199.700000
855.332153	196.300000
855.365723	202.800000
855.399292	191.500000
855.432922	193.800000
855.466492	197.300000
855.500061	191.100000
855.533630	191.600000
855.567200	199.200000
855.600769	200.600000
855.634338	198.700000
855.667969	198.400000
855.701477	192.200000
855.735046	190.500000
855.768616	186.100000
855.802185	196.900000
855.835754	210.000000
855.869324	187.500000
855.902893	194.000000
855.936401	202.200000
855.969971	198.100000
856.003540	187.700000
856.037109	199.500000
856.070618	195.200000
856.104187	189.600000
856.137695	192.200000
856.171265	185.400000
856.204834	195.300000
856.238403	201.400000
856.271912	192.200000
856.305481	198.500000
856.338989	187.500000
856.372559	198.900000
856.406128	196.000000
856.439636	201.400000
856.473145	192.100000
856.506653	202.600000
856.540222	195.300000
856.573792	202.600000
856.607300	197.800000
856.640808	190.600000
856.674377	196.200000
856.707825	224.600000
856.741394	198.600000
856.774902	191.700000
856.808472	184.700000
856.841980	198.400000
856.875488	204.200000
856.908936	188.700000
856.942505	194.400000
856.976013	195.600000
857.009521	190.900000
857.043030	197.500000
857.076477	193.100000
857.110046	200.500000
857.143555	195.500000
857.177063	201.700000
857.210571	192.200000
857.244080	188.500000
857.277527	198.200000
857.311035	195.900000
857.344543	199.200000
857.378052	195.300000
857.411499	200.600000
857.445068	204.400000
857.478516	194.000000
857.512024	190.200000
857.545532	193.800000
857.578979	197.100000
857.612427	196.100000
857.645874	191.500000
857.679382	196.200000
857.712891	198.800000
857.746399	194.300000
857.779846	199.600000
857.813354	200.800000
857.846741	194.600000
857.880249	190.300000
857.913757	196.300000
857.947266	196.500000
857.980652	197.600000
858.014160	192.500000
858.047546	192.700000
858.081055	194.400000
858.114563	201.900000
858.147949	188.800000
858.181458	198.500000
858.214844	195.700000
858.248352	185.200000
858.281799	201.100000
858.315308	207.400000
858.348694	198.100000
858.382141	203.300000
858.415588	198.700000
858.449036	200.400000
858.482483	198.300000
858.515930	191.800000
858.549377	195.600000
858.582825	203.700000
858.616211	199.100000
858.649658	198.100000
858.683105	189.900000
858.716553	190.700000
858.750000	189.800000
858.783386	191.500000
858.816833	187.600000
858.850281	197.500000
858.883728	197.800000
858.917114	193.800000
858.950562	204.600000
858.983948	204.000000
859.017395	199.400000
859.050781	193.000000
859.084167	193.000000
859.117615	188.100000
859.151062	198.100000
859.184448	192.500000
859.217834	193.200000
859.251282	192.900000
859.284668	189.600000
859.318054	186.000000
859.351440	193.800000
859.384888	203.500000
859.418274	187.400000
859.451721	185.800000
859.485046	196.400000
859.518494	195.700000
859.551819	190.800000
859.585266	199.100000
859.618652	197.400000
859.652039	188.600000
859.685425	190.400000
859.718811	188.300000
859.752197	184.400000
859.785583	203.400000
859.819031	202.100000
859.852356	197.500000
859.885742	191.600000
859.919067	195.100000
859.952454	191.600000
859.985901	200.400000
860.019287	192.600000
860.052612	0.000000
860.085999	0.000000
860.119324	0.000000
860.152710	0.000000
860.186096	0.000000
860.219421	0.000000
860.252808	0.000000
860.286133	0.000000
860.319519	0.000000
860.352905	0.000000
860.386292	0.000000
860.419617	0.000000
860.452942	0.000000
860.486267	0.000000
860.519653	0.000000
860.553040	0.000000
860.586365	0.000000
860.619690	0.000000
860.653076	0.000000
860.686340	0.000000
860.719727	0.000000
860.753113	0.000000
860.786377	0.000000
860.819763	0.000000
860.853027	0.000000
860.886414	0.000000
860.919739	0.000000
860.953125	0.000000
860.986389	0.000000
861.019714	0.000000
861.053040	0.000000
861.086365	0.000000
861.119690	0.000000
861.153076	0.000000
861.186340	0.000000
861.219666	0.000000
861.252930	0.000000
861.286316	0.000000
861.319641	0.000000
861.352905	0.000000
861.386230	0.000000
861.419495	0.000000
861.452820	0.000000
861.486145	0.000000
861.519470	0.000000
861.552734	0.000000
861.586060	0.000000
861.619324	0.000000
861.652649	0.000000
861.685974	0.000000
861.719238	0.000000
861.752563	0.000000
861.785828	0.000000
861.819092	0.000000
861.852417	0.000000
861.885742	0.000000
861.918945	0.000000
861.952271	0.000000
861.985535	0.000000
862.018799	0.000000
862.052124	0.000000
862.085449	0.000000
862.118652	0.000000
862.151978	0.000000
862.185181	0.000000
862.218506	0.000000
862.251770	0.000000
862.285034	0.000000
862.318298	0.000000
862.351562	0.000000
862.384827	0.000000
862.418091	0.000000
862.451355	0.000000
862.484619	0.000000
862.517883	0.000000
862.551086	0.000000
862.584351	0.000000
862.617676	0.000000
862.650940	0.000000
862.684143	0.000000
862.717407	0.000000
862.750610	0.000000
862.783875	0.000000
862.817139	0.000000
862.850342	0.000000
862.883606	0.000000
862.916870	0.000000
862.950073	0.000000
862.983337	0.000000
863.016602	0.000000
863.049805	0.000000
863.083069	0.000000
863.116211	0.000000
863.149475	0.000000
863.182739	0.000000
863.216003	0.000000
863.249146	0.000000
863.282410	0.000000
863.315613	0.000000
863.348816	0.000000
863.382080	0.000000
863.415222	0.000000
863.448486	0.000000
863.481689	0.000000
863.514893	0.000000
863.548157	0.000000
863.581360	0.000000
863.614502	0.000000
863.647766	0.000000
863.680908	0.000000
863.714172	0.000000
863.747375	0.000000
863.780579	0.000000
863.813721	0.000000
863.846985	0.000000
863.880127	0.000000
863.913330	0.000000
863.946533	0.000000
863.979675	0.000000
864.012939	0.000000
