Model Number: SPM-001-M   
Serial Number: 10090201
Firmware Version: 004.17.6
Exposure Time: 500000.000000us
Data Taken on: 10-03-2021 11:26:50.979
Wavelength	Amplitude
733.770752	0.000000
733.808716	0.000000
733.846619	0.000000
733.884583	0.000000
733.922546	0.000000
733.960449	0.000000
733.998413	0.000000
734.036377	0.000000
734.074219	0.000000
734.112183	0.000000
734.150085	0.000000
734.188049	0.000000
734.226013	0.000000
734.263916	0.000000
734.301819	0.000000
734.339783	0.000000
734.377686	0.000000
734.415588	0.000000
734.453552	0.000000
734.491455	0.000000
734.529419	0.000000
734.567322	0.000000
734.605225	0.000000
734.643127	0.000000
734.681091	0.000000
734.718994	0.000000
734.756897	0.000000
734.794800	0.000000
734.832703	0.000000
734.870667	0.000000
734.908508	0.000000
734.946472	0.000000
734.984375	0.000000
735.022278	0.000000
735.060181	0.000000
735.098083	0.000000
735.135986	0.000000
735.173889	0.000000
735.211792	0.000000
735.249695	0.000000
735.287598	0.000000
735.325439	0.000000
735.363403	0.000000
735.401306	0.000000
735.439148	0.000000
735.477051	0.000000
735.515015	0.000000
735.552856	0.000000
735.590759	0.000000
735.628662	0.000000
735.666504	0.000000
735.704407	0.000000
735.742310	0.000000
735.780212	0.000000
735.818115	0.000000
735.856018	0.000000
735.893860	0.000000
735.931763	0.000000
735.969604	0.000000
736.007507	0.000000
736.045410	0.000000
736.083252	0.000000
736.121094	0.000000
736.158997	0.000000
736.196838	0.000000
736.234741	0.000000
736.272644	0.000000
736.310486	0.000000
736.348389	0.000000
736.386230	0.000000
736.424072	0.000000
736.461975	0.000000
736.499878	0.000000
736.537720	0.000000
736.575562	0.000000
736.613403	0.000000
736.651306	0.000000
736.689148	0.000000
736.726990	0.000000
736.764893	0.000000
736.802734	0.000000
736.840576	0.000000
736.878418	0.000000
736.916321	0.000000
736.954102	0.000000
736.992004	0.000000
737.029846	0.000000
737.067688	0.000000
737.105530	0.000000
737.143372	0.000000
737.181213	0.000000
737.219116	0.000000
737.256897	0.000000
737.294739	0.000000
737.332642	0.000000
737.370422	0.000000
737.408325	0.000000
737.446167	0.000000
737.483948	0.000000
737.521790	0.000000
737.559692	0.000000
737.597473	0.000000
737.635315	0.000000
737.673157	0.000000
737.710999	0.000000
737.748840	0.000000
737.786621	0.000000
737.824463	0.000000
737.862305	0.000000
737.900085	0.000000
737.937927	0.000000
737.975769	0.000000
738.013550	0.000000
738.051392	0.000000
738.089233	0.000000
738.127014	0.000000
738.164856	0.000000
738.202698	0.000000
738.240479	0.000000
738.278320	0.000000
738.316162	0.000000
738.353943	0.000000
738.391785	0.000000
738.429565	0.000000
738.467407	0.000000
738.505188	0.000000
738.542969	0.000000
738.580811	0.000000
738.618652	0.000000
738.656372	0.000000
738.694214	0.000000
738.732056	0.000000
738.769836	0.000000
738.807617	0.000000
738.845459	0.000000
738.883240	0.000000
738.921021	0.000000
738.958862	0.000000
738.996582	0.000000
739.034424	0.000000
739.072205	0.000000
739.109985	0.000000
739.147827	0.000000
739.185547	0.000000
739.223389	0.000000
739.261169	0.000000
739.298889	0.000000
739.336731	0.000000
739.374512	0.000000
739.412292	0.000000
739.450073	0.000000
739.487854	0.000000
739.525635	0.000000
739.563416	0.000000
739.601135	0.000000
739.638977	0.000000
739.676758	0.000000
739.714478	0.000000
739.752258	0.000000
739.790100	0.000000
739.827820	0.000000
739.865601	0.000000
739.903381	0.000000
739.941101	0.000000
739.978882	196.800000
740.016724	192.800000
740.054443	198.000000
740.092224	189.800000
740.130005	189.500000
740.167725	190.300000
740.205505	191.100000
740.243225	198.900000
740.281006	194.300000
740.318787	185.800000
740.356506	197.900000
740.394287	197.700000
740.432068	188.500000
740.469727	186.400000
740.507507	197.400000
740.545288	191.400000
740.583008	196.300000
740.620789	194.500000
740.658569	185.500000
740.696228	192.800000
740.734009	200.200000
740.771790	181.000000
740.809509	196.900000
740.847229	188.700000
740.884949	190.900000
740.922729	185.600000
740.960449	191.900000
740.998169	188.900000
741.035950	188.900000
741.073669	194.700000
741.111389	193.800000
741.149170	203.000000
741.186890	204.000000
741.224609	196.700000
741.262329	193.500000
741.300110	203.900000
741.337769	188.600000
741.375549	186.500000
741.413208	195.200000
741.450989	189.600000
741.488708	190.000000
741.526367	191.200000
741.564148	197.700000
741.601868	197.900000
741.639526	192.700000
741.677307	194.100000
741.715027	195.400000
741.752686	189.600000
741.790466	200.800000
741.828186	197.100000
741.865845	187.200000
741.903564	183.800000
741.941345	191.700000
741.979004	189.100000
742.016724	194.500000
742.054382	192.300000
742.092102	198.700000
742.129822	185.200000
742.167480	190.700000
742.205200	192.200000
742.242920	193.600000
742.280640	199.700000
742.318359	188.500000
742.356079	191.200000
742.393738	196.800000
742.431396	193.600000
742.469116	196.400000
742.506775	183.900000
742.544495	194.300000
742.582214	198.100000
742.619873	192.700000
742.657593	200.400000
742.695251	197.000000
742.732971	192.300000
742.770630	194.700000
742.808289	193.900000
742.846008	192.900000
742.883728	194.900000
742.921326	192.900000
742.959045	190.500000
742.996765	194.100000
743.034424	191.900000
743.072083	190.900000
743.109802	192.500000
743.147400	187.100000
743.185120	193.900000
743.222839	192.800000
743.260437	198.900000
743.298157	195.600000
743.335754	184.900000
743.373474	191.800000
743.411133	184.300000
743.448792	192.400000
743.486450	192.300000
743.524170	187.000000
743.561768	193.800000
743.599487	200.200000
743.637146	202.400000
743.674744	192.000000
743.712463	191.000000
743.750122	194.200000
743.787720	194.600000
743.825439	189.100000
743.863037	192.200000
743.900696	193.000000
743.938416	217.600000
743.976013	192.500000
744.013672	201.300000
744.051331	197.700000
744.088928	203.300000
744.126587	200.800000
744.164307	194.000000
744.201904	189.800000
744.239563	196.900000
744.277222	195.300000
744.314819	191.600000
744.352478	201.000000
744.390137	194.800000
744.427734	196.100000
744.465393	191.500000
744.502991	190.300000
744.540649	197.100000
744.578308	194.800000
744.615906	186.500000
744.653564	183.700000
744.691223	196.400000
744.728821	184.100000
744.766418	192.100000
744.804077	195.900000
744.841675	191.000000
744.879333	186.700000
744.916992	192.200000
744.954529	190.700000
744.992187	199.300000
745.029785	191.900000
745.067444	189.500000
745.105042	193.500000
745.142639	196.100000
745.180298	202.500000
745.217896	191.600000
745.255493	190.900000
745.293152	197.300000
745.330750	196.300000
745.368347	201.400000
745.405945	196.300000
745.443604	193.200000
745.481140	197.200000
745.518799	191.600000
745.556396	196.400000
745.593994	199.000000
745.631592	192.200000
745.669189	188.400000
745.706787	194.600000
745.744385	189.500000
745.781982	195.600000
745.819580	192.300000
745.857178	191.600000
745.894775	192.800000
745.932373	194.300000
745.969971	195.400000
746.007568	185.400000
746.045166	203.200000
746.082764	198.400000
746.120300	196.800000
746.157898	196.000000
746.195557	193.600000
746.233093	186.600000
746.270691	198.100000
746.308228	194.900000
746.345825	199.200000
746.383423	197.000000
746.420959	188.900000
746.458557	190.700000
746.496155	193.100000
746.533691	192.200000
746.571289	188.100000
746.608887	195.500000
746.646423	194.000000
746.684021	194.900000
746.721619	190.600000
746.759155	195.300000
746.796753	186.500000
746.834351	186.400000
746.871826	190.000000
746.909424	200.100000
746.946960	195.300000
746.984558	192.700000
747.022156	191.300000
747.059631	200.200000
747.097229	194.000000
747.134827	192.200000
747.172363	200.600000
747.209900	195.400000
747.247498	187.000000
747.285034	201.600000
747.322571	200.100000
747.360168	193.300000
747.397644	186.500000
747.435242	197.500000
747.472778	200.100000
747.510315	190.100000
747.547913	190.500000
747.585388	201.100000
747.622925	192.600000
747.660522	184.500000
747.697998	189.700000
747.735596	193.400000
747.773132	190.200000
747.810669	193.500000
747.848206	196.100000
747.885742	188.300000
747.923279	189.200000
747.960815	195.700000
747.998352	193.400000
748.035889	198.600000
748.073425	197.900000
748.110901	190.500000
748.148437	189.700000
748.185974	194.600000
748.223511	204.000000
748.261047	195.000000
748.298584	195.500000
748.336060	192.500000
748.373596	196.800000
748.411133	210.800000
748.448608	188.500000
748.486145	197.200000
748.523682	201.300000
748.561218	199.900000
748.598755	195.000000
748.636292	197.400000
748.673706	191.900000
748.711243	199.300000
748.748718	196.300000
748.786255	192.700000
748.823792	194.100000
748.861267	188.000000
748.898804	196.700000
748.936340	196.100000
748.973816	191.100000
749.011292	197.700000
749.048828	194.600000
749.086304	197.000000
749.123840	205.600000
749.161316	189.000000
749.198792	204.100000
749.236328	200.500000
749.273743	194.200000
749.311279	192.100000
749.348816	196.300000
749.386230	195.100000
749.423767	181.700000
749.461304	195.800000
749.498718	194.100000
749.536255	199.700000
749.573730	207.300000
749.611206	199.500000
749.648682	193.700000
749.686218	193.300000
749.723633	198.800000
749.761169	191.800000
749.798645	188.500000
749.836060	191.800000
749.873596	190.300000
749.911011	194.700000
749.948547	199.900000
749.986023	192.700000
750.023437	192.800000
750.060913	187.200000
750.098450	186.700000
750.135864	194.000000
750.173340	194.000000
750.210815	198.000000
750.248291	187.800000
750.285767	194.000000
750.323242	200.900000
750.360657	196.400000
750.398132	188.100000
750.435608	198.800000
750.473022	190.200000
750.510498	189.500000
750.547974	187.900000
750.585449	191.600000
750.622925	181.900000
750.660339	203.700000
750.697815	194.000000
750.735291	192.500000
750.772644	193.800000
750.810120	194.400000
750.847595	195.300000
750.885010	189.200000
750.922485	201.100000
750.959961	192.000000
750.997375	201.300000
751.034851	197.900000
751.072266	199.200000
751.109680	186.200000
751.147156	198.600000
751.184570	197.100000
751.221985	195.500000
751.259460	185.000000
751.296875	193.300000
751.334290	193.500000
751.371765	198.100000
751.409180	197.100000
751.446594	200.000000
751.484070	196.000000
751.521423	196.000000
751.558899	195.300000
751.596375	202.500000
751.633728	200.400000
751.671204	206.700000
751.708618	189.200000
751.746033	194.900000
751.783447	188.200000
751.820801	191.000000
751.858276	196.700000
751.895691	192.600000
751.933105	190.900000
751.970520	189.200000
752.007935	191.000000
752.045349	197.300000
752.082764	193.800000
752.120178	193.500000
752.157532	189.200000
752.195007	191.700000
752.232422	197.000000
752.269775	198.300000
752.307190	195.300000
752.344543	188.900000
752.382019	191.800000
752.419434	193.600000
752.456787	195.100000
752.494202	197.700000
752.531616	195.600000
752.568970	198.000000
752.606384	194.400000
752.643799	197.100000
752.681152	201.700000
752.718567	198.000000
752.755981	185.600000
752.793335	197.000000
752.830750	184.400000
752.868164	201.500000
752.905518	188.500000
752.942932	198.700000
752.980225	188.800000
753.017639	199.500000
753.055054	192.800000
753.092407	197.500000
753.129822	201.000000
753.167175	204.400000
753.204529	193.400000
753.241943	191.200000
753.279358	188.300000
753.316650	197.200000
753.354065	196.100000
753.391479	198.200000
753.428772	203.700000
753.466187	197.300000
753.503479	187.500000
753.540894	192.200000
753.578308	189.300000
753.615601	188.000000
753.653015	195.500000
753.690369	192.200000
753.727722	189.800000
753.765076	187.600000
753.802490	189.600000
753.839783	186.100000
753.877136	192.300000
753.914551	209.800000
753.951843	189.400000
753.989258	197.600000
754.026611	194.700000
754.063904	196.700000
754.101257	189.200000
754.138611	185.400000
754.175964	195.500000
754.213318	205.600000
754.250610	187.700000
754.288025	190.500000
754.325378	188.400000
754.362671	199.300000
754.400024	192.200000
754.437378	203.000000
754.474670	204.700000
754.512085	191.000000
754.549438	195.300000
754.586731	191.000000
754.624084	193.200000
754.661438	187.700000
754.698730	203.300000
754.736084	192.200000
754.773376	193.200000
754.810730	198.100000
754.848083	192.600000
754.885315	197.800000
754.922668	187.000000
754.960022	188.700000
754.997314	199.200000
755.034668	195.900000
755.072021	195.200000
755.109253	193.800000
755.146606	202.800000
755.183960	193.800000
755.221252	204.500000
755.258545	201.100000
755.295898	202.700000
755.333191	203.500000
755.370544	199.800000
755.407776	195.600000
755.445129	196.300000
755.482422	200.900000
755.519714	192.900000
755.557068	190.100000
755.594360	187.700000
755.631653	202.200000
755.668945	204.000000
755.706299	199.300000
755.743530	207.900000
755.780884	206.200000
755.818176	202.400000
755.855408	204.100000
755.892761	198.800000
755.930054	199.500000
755.967346	199.500000
756.004639	202.800000
756.041870	199.100000
756.079224	204.500000
756.116516	194.100000
756.153748	204.900000
756.191040	206.300000
756.228394	201.900000
756.265625	195.400000
756.302917	201.100000
756.340210	197.400000
756.377441	205.800000
756.414795	206.200000
756.452087	200.500000
756.489319	194.000000
756.526611	203.200000
756.563843	201.600000
756.601135	212.400000
756.638428	208.800000
756.675659	200.200000
756.712952	206.900000
756.750244	205.000000
756.787476	203.500000
756.824768	209.300000
756.862061	200.900000
756.899292	248.100000
756.936584	206.000000
756.973816	212.900000
757.011047	215.600000
757.048340	203.100000
757.085632	204.200000
757.122864	220.000000
757.160156	202.200000
757.197327	206.200000
757.234619	210.100000
757.271912	202.100000
757.309082	209.500000
757.346375	200.100000
757.383667	210.900000
757.420837	205.100000
757.458130	207.300000
757.495422	204.400000
757.532593	208.400000
757.569885	198.500000
757.607117	202.200000
757.644348	207.500000
757.681580	219.500000
757.718811	193.100000
757.756042	205.400000
757.793335	203.000000
757.830505	208.300000
757.867798	202.900000
757.905029	202.600000
757.942200	209.000000
757.979492	202.500000
758.016724	205.600000
758.053894	205.500000
758.091187	225.000000
758.128418	207.700000
758.165588	206.600000
758.202820	218.800000
758.240112	208.700000
758.277283	219.300000
758.314514	209.800000
758.351685	206.500000
758.388916	219.400000
758.426147	216.400000
758.463379	219.800000
758.500610	212.900000
758.537842	210.000000
758.575012	218.000000
758.612244	206.400000
758.649475	223.600000
758.686646	205.100000
758.723877	218.000000
758.761108	220.000000
758.798279	211.200000
758.835510	214.500000
758.872742	218.600000
758.909851	216.100000
758.947083	216.000000
758.984253	214.200000
759.021484	217.700000
759.058716	218.000000
759.095886	218.600000
759.133057	213.300000
759.170288	216.100000
759.207458	210.600000
759.244690	224.400000
759.281860	224.400000
759.319031	213.000000
759.356262	212.600000
759.393433	213.200000
759.430603	214.400000
759.467773	212.000000
759.505005	221.700000
759.542175	220.100000
759.579346	214.400000
759.616516	216.500000
759.653687	219.400000
759.690918	211.600000
759.728027	218.500000
759.765259	217.300000
759.802429	219.600000
759.839539	219.100000
759.876770	224.000000
759.913940	226.500000
759.951111	219.300000
759.988281	218.000000
760.025452	215.000000
760.062561	215.000000
760.099792	229.300000
760.136963	221.600000
760.174072	218.100000
760.211243	212.900000
760.248413	213.800000
760.285583	215.400000
760.322754	230.200000
760.359863	225.200000
760.397034	226.900000
760.434204	219.000000
760.471375	220.500000
760.508545	218.600000
760.545715	218.500000
760.582825	214.800000
760.619995	227.100000
760.657166	216.700000
760.694275	226.800000
760.731445	223.300000
760.768555	225.100000
760.805664	225.500000
760.842834	224.700000
760.879944	227.200000
760.917114	223.900000
760.954285	222.900000
760.991394	216.800000
761.028564	230.300000
761.065674	228.100000
761.102783	221.900000
761.139954	231.100000
761.177124	230.400000
761.214172	232.500000
761.251343	224.300000
761.288452	226.500000
761.325562	230.200000
761.362732	224.200000
761.399841	228.100000
761.436951	230.400000
761.474121	226.200000
761.511169	231.100000
761.548340	236.400000
761.585449	233.200000
761.622559	236.100000
761.659668	233.300000
761.696838	239.700000
761.733887	234.600000
761.771057	232.000000
761.808167	233.400000
761.845276	238.400000
761.882385	246.300000
761.919434	236.300000
761.956604	255.200000
761.993713	232.900000
762.030762	243.700000
762.067871	236.900000
762.105042	237.100000
762.142090	246.900000
762.179199	241.800000
762.216309	245.800000
762.253418	256.900000
762.290527	249.300000
762.327637	248.400000
762.364685	236.800000
762.401794	247.000000
762.438904	244.700000
762.475952	240.100000
762.513062	237.400000
762.550110	239.800000
762.587219	253.700000
762.624329	255.000000
762.661377	249.100000
762.698486	248.100000
762.735596	246.800000
762.772644	242.300000
762.809753	238.500000
762.846863	246.900000
762.883911	251.100000
762.921021	252.900000
762.958069	249.100000
762.995117	257.700000
763.032227	259.000000
763.069336	250.300000
763.106323	243.900000
763.143433	244.200000
763.180481	252.100000
763.217590	254.400000
763.254639	250.600000
763.291687	250.800000
763.328735	260.700000
763.365845	253.900000
763.402893	252.100000
763.439941	257.000000
763.477051	259.300000
763.514038	259.700000
763.551147	254.700000
763.588196	257.200000
763.625244	255.700000
763.662292	263.100000
763.699402	267.400000
763.736389	262.900000
763.773499	271.700000
763.810486	264.800000
763.847534	262.400000
763.884644	265.900000
763.921631	260.200000
763.958679	273.000000
763.995728	262.300000
764.032776	274.400000
764.069824	258.100000
764.106873	269.100000
764.143860	275.600000
764.180969	266.100000
764.218018	274.300000
764.255005	267.000000
764.292053	270.500000
764.329102	281.000000
764.366089	280.400000
764.403137	276.300000
764.440125	268.400000
764.477173	272.400000
764.514221	274.800000
764.551208	269.900000
764.588257	268.400000
764.625305	277.500000
764.662292	285.300000
764.699341	288.500000
764.736389	281.500000
764.773376	296.200000
764.810425	282.600000
764.847473	290.200000
764.884399	286.500000
764.921448	292.700000
764.958435	291.900000
764.995483	281.000000
765.032532	297.700000
765.069458	283.500000
765.106506	285.500000
765.143555	282.700000
765.180481	289.100000
765.217529	292.700000
765.254578	281.400000
765.291504	291.600000
765.328552	287.000000
765.365540	284.600000
765.402527	301.100000
765.439575	285.900000
765.476501	281.700000
765.513550	282.400000
765.550537	289.400000
765.587463	296.100000
765.624512	289.700000
765.661499	279.100000
765.698486	296.700000
765.735474	286.000000
765.772461	289.900000
765.809448	300.400000
765.846436	296.800000
765.883423	300.900000
765.920410	295.300000
765.957397	290.900000
765.994385	297.100000
766.031311	304.100000
766.068359	298.300000
766.105286	300.500000
766.142273	307.400000
766.179260	302.400000
766.216187	295.000000
766.253174	292.800000
766.290161	301.400000
766.327148	305.400000
766.364136	306.800000
766.401123	321.700000
766.438049	299.200000
766.475037	315.900000
766.512024	310.200000
766.548950	325.200000
766.585937	320.400000
766.622864	316.600000
766.659790	314.800000
766.696777	305.600000
766.733704	322.300000
766.770691	316.300000
766.807678	328.700000
766.844604	323.100000
766.881531	322.000000
766.918518	328.800000
766.955444	331.600000
766.992432	324.700000
767.029358	327.800000
767.066284	333.200000
767.103271	329.800000
767.140198	358.700000
767.177124	345.900000
767.214050	336.700000
767.251038	339.400000
767.287964	333.800000
767.324890	333.100000
767.361816	337.800000
767.398743	347.900000
767.435730	340.800000
767.472595	344.700000
767.509583	350.800000
767.546509	338.300000
767.583374	344.800000
767.620361	338.100000
767.657288	347.000000
767.694214	347.500000
767.731140	344.500000
767.768066	347.200000
767.804993	354.600000
767.841919	345.100000
767.878845	352.500000
767.915710	361.000000
767.952698	352.600000
767.989563	358.400000
768.026489	360.400000
768.063416	353.200000
768.100281	352.000000
768.137207	367.300000
768.174133	364.400000
768.211060	367.000000
768.247986	363.300000
768.284912	363.500000
768.321777	366.900000
768.358704	363.100000
768.395630	370.000000
768.432495	363.900000
768.469421	370.600000
768.506348	377.700000
768.543152	385.400000
768.580078	382.100000
768.616943	380.700000
768.653870	382.900000
768.690796	382.100000
768.727661	379.700000
768.764587	384.500000
768.801453	377.400000
768.838318	390.100000
768.875244	389.700000
768.912109	394.300000
768.948975	388.600000
768.985901	390.300000
769.022766	391.500000
769.059631	398.800000
769.096558	389.100000
769.133362	393.000000
769.170288	394.200000
769.207214	395.300000
769.244019	401.900000
769.280945	400.000000
769.317810	408.200000
769.354675	402.500000
769.391541	409.900000
769.428406	410.200000
769.465271	420.100000
769.502136	409.300000
769.539062	410.700000
769.575867	411.300000
769.612732	412.300000
769.649597	419.900000
769.686462	424.100000
769.723328	420.400000
769.760193	415.200000
769.797058	419.100000
769.833923	429.100000
769.870728	424.100000
769.907593	429.500000
769.944519	429.500000
769.981323	430.100000
770.018188	432.800000
770.055054	429.100000
770.091858	430.400000
770.128723	443.800000
770.165588	449.200000
770.202393	431.900000
770.239258	444.100000
770.276062	441.500000
770.312927	441.800000
770.349792	447.400000
770.386597	445.700000
770.423462	454.300000
770.460327	463.400000
770.497131	446.600000
770.533997	439.600000
770.570862	458.500000
770.607605	456.500000
770.644470	452.600000
770.681335	453.500000
770.718140	453.500000
770.754944	446.600000
770.791809	445.800000
770.828613	450.500000
770.865479	451.900000
770.902222	465.000000
770.939087	456.800000
770.975952	445.600000
771.012695	452.200000
771.049561	470.200000
771.086365	454.300000
771.123169	452.600000
771.159973	456.800000
771.196838	456.300000
771.233582	459.200000
771.270447	460.100000
771.307251	464.900000
771.344055	459.700000
771.380859	467.700000
771.417664	456.500000
771.454468	470.500000
771.491272	468.000000
771.528076	467.200000
771.564880	468.600000
771.601685	481.300000
771.638428	469.800000
771.675293	474.200000
771.712097	463.500000
771.748840	485.500000
771.785645	474.900000
771.822449	482.500000
771.859253	480.400000
771.896057	478.400000
771.932861	494.500000
771.969604	480.600000
772.006409	476.300000
772.043213	491.100000
772.079956	489.200000
772.116760	483.200000
772.153503	486.600000
772.190308	498.400000
772.227112	489.200000
772.263855	484.800000
772.300659	494.600000
772.337463	499.300000
772.374207	489.900000
772.411011	489.700000
772.447754	491.100000
772.484497	510.900000
772.521301	505.400000
772.558105	503.400000
772.594849	506.000000
772.631592	512.900000
772.668396	510.900000
772.705139	519.800000
772.741882	518.300000
772.778625	532.300000
772.815430	535.600000
772.852173	528.700000
772.888916	540.000000
772.925720	539.300000
772.962463	550.500000
772.999207	547.400000
773.035950	551.000000
773.072754	548.900000
773.109436	545.300000
773.146240	548.800000
773.182922	548.100000
773.219727	560.200000
773.256470	555.700000
773.293152	541.500000
773.329956	549.800000
773.366699	554.100000
773.403381	546.800000
773.440186	557.700000
773.476929	562.200000
773.513611	553.800000
773.550354	558.500000
773.587158	557.400000
773.623840	557.500000
773.660583	568.100000
773.697327	583.500000
773.734009	573.000000
773.770813	572.600000
773.807495	567.500000
773.844238	575.500000
773.880981	592.700000
773.917664	589.100000
773.954407	595.400000
773.991150	583.600000
774.027832	588.000000
774.064575	581.800000
774.101318	595.200000
774.138000	600.700000
774.174744	594.100000
774.211487	599.300000
774.248108	588.400000
774.284851	590.300000
774.321594	606.100000
774.358276	606.800000
774.395020	614.500000
774.431702	616.200000
774.468384	604.400000
774.505127	604.100000
774.541809	618.200000
774.578491	632.900000
774.615234	632.300000
774.651917	622.100000
774.688599	630.500000
774.725342	634.600000
774.762024	634.600000
774.798706	644.300000
774.835449	639.500000
774.872070	649.100000
774.908813	645.800000
774.945496	641.600000
774.982178	643.700000
775.018860	649.300000
775.055542	652.400000
775.092224	655.000000
775.128967	663.900000
775.165588	657.700000
775.202271	648.400000
775.239014	665.100000
775.275635	667.200000
775.312317	666.100000
775.349060	669.100000
775.385681	668.600000
775.422363	656.200000
775.459045	670.200000
775.495667	673.700000
775.532410	681.900000
775.569092	677.000000
775.605713	678.900000
775.642395	675.400000
775.679016	678.400000
775.715698	686.500000
775.752380	690.000000
775.789001	681.400000
775.825684	680.600000
775.862366	685.700000
775.898987	694.800000
775.935669	686.900000
775.972351	709.800000
776.008972	703.200000
776.045654	701.700000
776.082336	697.200000
776.118958	697.900000
776.155640	705.400000
776.192322	715.400000
776.228882	716.700000
776.265564	714.500000
776.302185	709.300000
776.338867	714.700000
776.375488	699.800000
776.412109	717.300000
776.448792	722.700000
776.485413	733.200000
776.522034	721.900000
776.558716	710.800000
776.595337	708.700000
776.631958	717.500000
776.668579	717.400000
776.705261	726.400000
776.741882	723.700000
776.778503	717.300000
776.815186	707.900000
776.851746	719.900000
776.888367	720.300000
776.924988	733.300000
776.961609	720.600000
776.998291	722.600000
777.034851	711.300000
777.071472	728.300000
777.108154	726.800000
777.144714	738.000000
777.181335	734.300000
777.218018	727.300000
777.254578	735.700000
777.291199	732.400000
777.327759	742.600000
777.364380	751.300000
777.401062	754.800000
777.437622	764.700000
777.474243	754.000000
777.510864	763.100000
777.547424	760.000000
777.584045	766.300000
777.620667	769.200000
777.657227	770.800000
777.693848	770.800000
777.730469	786.100000
777.767029	778.100000
777.803650	782.400000
777.840271	776.400000
777.876831	777.900000
777.913452	781.500000
777.950012	764.600000
777.986633	769.200000
778.023193	765.100000
778.059753	764.400000
778.096375	767.300000
778.132996	783.000000
778.169556	770.100000
778.206116	774.100000
778.242737	769.300000
778.279297	782.900000
778.315857	775.100000
778.352478	781.400000
778.389038	795.000000
778.425598	792.900000
778.462219	806.300000
778.498718	808.900000
778.535339	812.700000
778.571838	812.300000
778.608459	821.700000
778.645020	817.700000
778.681580	829.200000
778.718140	835.000000
778.754761	826.300000
778.791260	832.600000
778.827881	843.600000
778.864441	842.700000
778.900940	842.400000
778.937561	841.400000
778.974121	841.500000
779.010620	827.500000
779.047241	842.500000
779.083801	853.900000
779.120300	850.500000
779.156860	858.000000
779.193359	857.800000
779.229980	858.500000
779.266541	863.200000
779.303040	868.300000
779.339600	859.600000
779.376160	856.200000
779.412659	865.400000
779.449219	861.300000
779.485779	872.700000
779.522278	869.500000
779.558838	881.200000
779.595398	875.500000
779.631897	878.200000
779.668457	867.400000
779.705017	881.400000
779.741516	872.700000
779.778076	865.200000
779.814575	875.000000
779.851074	889.500000
779.887634	880.300000
779.924133	890.100000
779.960693	879.800000
779.997253	895.600000
780.033691	893.600000
780.070251	899.100000
780.106812	909.300000
780.143250	907.300000
780.179810	904.200000
780.216370	909.900000
780.252808	915.700000
780.289368	931.400000
780.325867	931.800000
780.362366	929.400000
780.398865	941.900000
780.435364	934.900000
780.471863	949.700000
780.508423	951.600000
780.544861	958.700000
780.581421	965.800000
780.617920	957.500000
780.654419	948.800000
780.690918	960.800000
780.727417	967.300000
780.763916	966.400000
780.800415	969.800000
780.836914	950.200000
780.873352	959.600000
780.909912	950.400000
780.946411	962.400000
780.982849	968.700000
781.019348	989.500000
781.055786	980.400000
781.092346	974.200000
781.128845	985.400000
781.165283	995.900000
781.201782	1004.800000
781.238281	1004.200000
781.274719	1010.500000
781.311218	999.300000
781.347717	1013.200000
781.384155	1002.600000
781.420654	1009.500000
781.457092	1018.700000
781.493591	1016.100000
781.530090	1009.200000
781.566528	1015.000000
781.602966	1012.800000
781.639465	1009.300000
781.675903	1006.400000
781.712402	1017.500000
781.748901	1024.500000
781.785278	1017.300000
781.821777	1016.200000
781.858276	1016.800000
781.894714	1029.700000
781.931152	1020.700000
781.967651	1024.400000
782.004089	1017.800000
782.040527	1026.100000
782.076965	1030.800000
782.113403	1029.900000
782.149902	1034.400000
782.186340	1031.700000
782.222778	1049.400000
782.259277	1027.400000
782.295654	1029.600000
782.332092	1039.800000
782.368591	1034.900000
782.404968	1019.400000
782.441467	1028.600000
782.477905	1030.900000
782.514282	1027.000000
782.550781	1047.200000
782.587219	1042.400000
782.623596	1048.200000
782.660095	1056.100000
782.696472	1058.100000
782.732910	1056.500000
782.769348	1061.800000
782.805786	1080.200000
782.842224	1075.700000
782.878662	1067.700000
782.915039	1072.800000
782.951477	1070.100000
782.987915	1063.300000
783.024292	1077.400000
783.060730	1075.900000
783.097168	1063.200000
783.133545	1055.400000
783.169983	1047.500000
783.206421	1042.400000
783.242798	1038.500000
783.279236	1027.800000
783.315613	1026.200000
783.352051	1018.800000
783.388489	1008.400000
783.424866	998.400000
783.461304	1006.700000
783.497681	1012.800000
783.534058	1006.200000
783.570496	996.700000
783.606934	992.200000
783.643250	998.600000
783.679687	1010.400000
783.716125	1010.500000
783.752441	1025.900000
783.788879	1038.900000
783.825317	1043.700000
783.861633	1054.800000
783.898071	1058.600000
783.934448	1077.500000
783.970825	1092.900000
784.007263	1096.800000
784.043579	1093.000000
784.080017	1092.900000
784.116394	1074.500000
784.152710	1045.500000
784.189148	976.700000
784.225525	842.900000
784.261902	671.900000
784.298279	536.400000
784.334656	457.100000
784.371033	446.800000
784.407410	508.600000
784.443787	602.400000
784.480164	721.500000
784.516541	836.100000
784.552856	940.500000
784.589233	990.200000
784.625610	1016.200000
784.661987	1062.800000
784.698364	1051.200000
784.734741	1044.600000
784.771057	1046.500000
784.807434	1053.200000
784.843811	1069.300000
784.880127	1079.100000
784.916504	1101.400000
784.952881	1106.700000
784.989197	1100.500000
785.025574	1103.600000
785.061951	1114.100000
785.098267	1144.200000
785.134644	1143.600000
785.170959	1136.800000
785.207275	1149.100000
785.243652	1144.000000
785.279968	1128.900000
785.316345	1144.100000
785.352722	1154.000000
785.388977	1152.900000
785.425354	1134.200000
785.461731	1107.500000
785.498047	1096.600000
785.534363	1094.500000
785.570679	1097.500000
785.606995	1098.900000
785.643372	1100.200000
785.679687	1086.500000
785.716003	1073.100000
785.752380	1072.500000
785.788635	1075.200000
785.825012	1098.000000
785.861328	1108.000000
785.897644	1096.700000
785.933960	1111.000000
785.970337	1118.300000
786.006592	1140.000000
786.042908	1157.200000
786.079285	1171.800000
786.115540	1182.700000
786.151855	1181.000000
786.188171	1169.200000
786.224487	1177.300000
786.260803	1173.200000
786.297119	1190.800000
786.333435	1191.800000
786.369751	1183.600000
786.406006	1182.800000
786.442322	1166.700000
786.478638	1157.900000
786.514954	1175.200000
786.551270	1176.800000
786.587585	1188.700000
786.623840	1171.200000
786.660156	1159.900000
786.696472	1146.200000
786.732727	1140.800000
786.769043	1149.400000
786.805298	1140.400000
786.841614	1143.400000
786.877930	1148.900000
786.914124	1130.600000
786.950439	1141.100000
786.986755	1152.000000
787.023010	1170.400000
787.059326	1180.700000
787.095642	1182.000000
787.131836	1199.900000
787.168152	1182.300000
787.204468	1188.600000
787.240723	1214.400000
787.276978	1228.900000
787.313293	1236.400000
787.349548	1236.900000
787.385803	1239.100000
787.422058	1223.400000
787.458313	1225.600000
787.494629	1230.200000
787.530823	1230.900000
787.567139	1212.800000
787.603455	1195.900000
787.639648	1182.400000
787.675903	1185.800000
787.712219	1188.300000
787.748413	1190.900000
787.784729	1199.300000
787.820984	1184.200000
787.857178	1174.600000
787.893494	1161.400000
787.929749	1159.300000
787.965942	1165.000000
788.002258	1177.900000
788.038452	1183.100000
788.074707	1174.600000
788.110962	1180.500000
788.147217	1174.300000
788.183472	1185.700000
788.219727	1196.800000
788.255920	1217.900000
788.292175	1224.000000
788.328430	1214.700000
788.364624	1197.000000
788.400879	1192.700000
788.437134	1203.100000
788.473328	1194.000000
788.509583	1196.500000
788.545837	1191.600000
788.582031	1183.100000
788.618286	1173.800000
788.654480	1158.800000
788.690735	1174.200000
788.726990	1198.900000
788.763184	1198.500000
788.799377	1207.400000
788.835632	1197.200000
788.871826	1213.100000
788.908081	1213.800000
788.944336	1214.300000
788.980469	1233.300000
789.016724	1222.700000
789.052979	1219.200000
789.089111	1194.800000
789.125366	1202.300000
789.161621	1178.300000
789.197754	1194.700000
789.234009	1183.200000
789.270142	1172.700000
789.306396	1164.000000
789.342590	1150.800000
789.378784	1121.200000
789.414978	1127.100000
789.451233	1143.000000
789.487366	1146.200000
789.523621	1152.300000
789.559814	1142.300000
789.595947	1132.100000
789.632202	1142.300000
789.668335	1153.700000
789.704529	1174.000000
789.740784	1198.200000
789.776917	1196.000000
789.813110	1178.100000
789.849304	1195.900000
789.885498	1196.700000
789.921692	1211.700000
789.957886	1227.200000
789.994019	1221.700000
790.030212	1217.900000
790.066406	1216.600000
790.102539	1209.100000
790.138733	1215.200000
790.174927	1210.800000
790.211060	1236.700000
790.247253	1216.400000
790.283386	1200.000000
790.319580	1182.300000
790.355774	1165.900000
790.391907	1177.100000
790.428101	1204.400000
790.464294	1199.000000
790.500427	1195.800000
790.536621	1187.800000
790.572754	1166.100000
790.608887	1170.000000
790.645081	1187.500000
790.681274	1194.900000
790.717346	1191.500000
790.753540	1155.500000
790.789734	1074.100000
790.825867	1017.900000
790.862000	1023.500000
790.898132	1071.000000
790.934265	1145.000000
790.970459	1206.500000
791.006592	1217.700000
791.042725	1222.800000
791.078918	1214.500000
791.114990	1214.700000
791.151184	1234.800000
791.187317	1260.000000
791.223389	1252.200000
791.259583	1234.800000
791.295715	1238.300000
791.331848	1250.200000
791.367981	1262.100000
791.404114	1272.100000
791.440247	1258.200000
791.476379	1262.400000
791.512451	1241.300000
791.548584	1242.100000
791.584778	1236.600000
791.620850	1261.800000
791.656982	1261.100000
791.693115	1258.000000
791.729187	1256.400000
791.765381	1240.800000
791.801514	1238.200000
791.837585	1246.800000
791.873718	1258.200000
791.909851	1272.000000
791.945923	1282.600000
791.982056	1239.800000
792.018188	1247.400000
792.054260	1249.700000
792.090393	1248.300000
792.126465	1241.100000
792.162598	1245.500000
792.198669	1230.000000
792.234741	1226.800000
792.270874	1215.200000
792.307007	1208.700000
792.343079	1212.400000
792.379150	1223.400000
792.415283	1209.400000
792.451355	1210.900000
792.487488	1183.200000
792.523560	1180.300000
792.559631	1189.700000
792.595764	1183.200000
792.631836	1190.100000
792.667908	1208.300000
792.703979	1182.700000
792.740051	1178.100000
792.776184	1182.100000
792.812256	1186.900000
792.848328	1195.700000
792.884399	1207.700000
792.920471	1201.400000
792.956543	1195.000000
792.992615	1189.600000
793.028748	1188.100000
793.064758	1192.200000
793.100830	1210.700000
793.136963	1230.900000
793.172974	1217.800000
793.209045	1208.000000
793.245178	1223.100000
793.281189	1208.400000
793.317261	1215.600000
793.353271	1217.700000
793.389404	1221.100000
793.425476	1214.100000
793.461487	1199.000000
793.497559	1197.400000
793.533630	1201.000000
793.569641	1202.100000
793.605713	1214.500000
793.641785	1213.100000
793.677795	1218.300000
793.713867	1208.900000
793.749878	1212.400000
793.785950	1221.400000
793.822021	1227.300000
793.858032	1210.600000
793.894104	1226.400000
793.930176	1214.200000
793.966187	1219.100000
794.002258	1196.700000
794.038269	1209.100000
794.074280	1202.400000
794.110352	1224.100000
794.146423	1200.600000
794.182373	1190.400000
794.218445	1181.300000
794.254517	1175.300000
794.290466	1153.200000
794.326538	1163.200000
794.362549	1166.400000
794.398560	1175.200000
794.434631	1182.500000
794.470581	1146.600000
794.506653	1139.900000
794.542664	1137.900000
794.578674	1139.100000
794.614685	1140.300000
794.650757	1133.100000
794.686707	1124.200000
794.722778	1112.900000
794.758789	1123.100000
794.794739	1132.800000
794.830811	1158.200000
794.866821	1177.900000
794.902771	1171.400000
794.938843	1152.400000
794.974792	1150.100000
795.010803	1149.900000
795.046814	1149.300000
795.082825	1143.000000
795.118835	1159.100000
795.154846	1134.800000
795.190796	1137.300000
795.226807	1117.500000
795.262817	1120.100000
795.298767	1122.200000
795.334778	1119.100000
795.370850	1108.500000
795.406799	1116.500000
795.442810	1093.400000
795.478821	1089.500000
795.514709	1085.900000
795.550720	1108.900000
795.586670	1090.100000
795.622681	1090.100000
795.658691	1088.800000
795.694641	1084.100000
795.730652	1069.700000
795.766663	1081.000000
795.802551	1081.600000
795.838562	1096.700000
795.874573	1083.700000
795.910522	1079.400000
795.946472	1067.000000
795.982483	1074.700000
796.018433	1080.000000
796.054382	1089.900000
796.090393	1074.200000
796.126282	1068.600000
796.162292	1053.900000
796.198242	1049.500000
796.234192	1050.700000
796.270203	1047.400000
796.306091	1058.900000
796.342041	1071.600000
796.378052	1057.700000
796.413940	1047.700000
796.449951	1053.400000
796.485901	1050.400000
796.521790	1053.800000
796.557800	1065.000000
796.593689	1061.000000
796.629639	1046.100000
796.665649	1047.200000
796.701599	1047.100000
796.737488	1047.700000
796.773437	1051.300000
796.809387	1046.400000
796.845337	1047.200000
796.881287	1030.600000
796.917175	1013.300000
796.953125	1017.700000
796.989075	1030.500000
797.024963	1036.000000
797.060913	1033.300000
797.096863	1031.600000
797.132751	1017.000000
797.168701	1000.600000
797.204590	1010.700000
797.240540	1015.000000
797.276489	1018.800000
797.312439	1022.300000
797.348328	1021.700000
797.384277	1007.100000
797.420166	996.100000
797.456055	998.900000
797.492004	993.600000
797.527893	1004.100000
797.563843	1008.100000
797.599731	995.200000
797.635620	979.900000
797.671570	989.800000
797.707520	986.700000
797.743347	989.600000
797.779297	1003.300000
797.815125	989.000000
797.851074	983.400000
797.887024	977.900000
797.922913	963.000000
797.958801	980.900000
797.994690	977.500000
798.030579	986.000000
798.066467	988.300000
798.102356	970.300000
798.138245	960.800000
798.174133	960.800000
798.210083	967.500000
798.245911	971.200000
798.281799	976.700000
798.317749	969.300000
798.353577	958.800000
798.389465	956.800000
798.425293	956.500000
798.461243	950.000000
798.497131	954.800000
798.532959	955.600000
798.568848	960.400000
798.604736	945.900000
798.640564	934.900000
798.676453	937.000000
798.712402	941.000000
798.748230	951.000000
798.784119	943.400000
798.820007	942.700000
798.855835	940.500000
798.891724	934.100000
798.927551	932.100000
798.963379	933.000000
798.999268	930.400000
799.035095	928.000000
799.070984	920.100000
799.106873	905.800000
799.142700	919.700000
799.178528	908.600000
799.214417	908.600000
799.250244	923.700000
799.286133	917.200000
799.321960	912.700000
799.357788	909.500000
799.393677	911.500000
799.429504	905.300000
799.465332	908.300000
799.501221	919.300000
799.537048	909.100000
799.572876	898.300000
799.608704	897.400000
799.644531	906.900000
799.680359	905.900000
799.716248	916.100000
799.752014	920.600000
799.787903	905.800000
799.823730	900.100000
799.859558	894.000000
799.895386	900.200000
799.931213	903.200000
799.967041	889.900000
800.002869	884.800000
800.038696	903.300000
800.074463	873.000000
800.110352	876.400000
800.146179	869.700000
800.181946	881.300000
800.217773	874.100000
800.253540	872.900000
800.289429	866.600000
800.325256	861.500000
800.361023	854.100000
800.396851	860.900000
800.432678	856.800000
800.468445	854.000000
800.504272	848.900000
800.540100	836.000000
800.575867	834.700000
800.611694	843.900000
800.647461	831.800000
800.683289	835.200000
800.719116	838.400000
800.754883	830.900000
800.790649	811.000000
800.826477	807.900000
800.862244	827.200000
800.898071	811.700000
800.933838	804.300000
800.969604	802.700000
801.005432	803.800000
801.041199	803.200000
801.076965	795.000000
801.112793	787.300000
801.148560	779.200000
801.184326	782.300000
801.220154	782.100000
801.255859	770.500000
801.291687	771.800000
801.327454	765.500000
801.363281	767.200000
801.398987	762.900000
801.434814	761.900000
801.470520	772.400000
801.506287	755.300000
801.542114	748.600000
801.577820	755.400000
801.613647	750.000000
801.649414	745.600000
801.685120	745.600000
801.720886	752.000000
801.756714	738.600000
801.792419	731.100000
801.828186	728.200000
801.863892	734.100000
801.899719	724.500000
801.935486	723.800000
801.971252	733.200000
802.006958	724.200000
802.042725	717.700000
802.078430	717.600000
802.114197	712.700000
802.149963	726.000000
802.185669	712.400000
802.221436	711.400000
802.257202	709.500000
802.292908	706.700000
802.328674	715.600000
802.364441	716.100000
802.400146	707.100000
802.435913	701.400000
802.471558	696.800000
802.507324	694.800000
802.543091	683.300000
802.578796	696.600000
802.614502	702.400000
802.650269	699.400000
802.685974	684.300000
802.721741	690.200000
802.757446	692.300000
802.793152	684.400000
802.828918	694.100000
802.864624	691.000000
802.900330	689.700000
802.936035	683.300000
802.971802	681.400000
803.007446	678.900000
803.043213	669.700000
803.078857	677.500000
803.114624	661.300000
803.150330	669.800000
803.185974	657.700000
803.221741	657.500000
803.257446	665.500000
803.293152	665.700000
803.328857	659.900000
803.364563	656.400000
803.400208	646.400000
803.435974	658.800000
803.471680	649.100000
803.507324	644.500000
803.543030	650.400000
803.578735	650.900000
803.614441	640.000000
803.650146	648.700000
803.685791	632.000000
803.721497	634.300000
803.757202	625.100000
803.792847	634.900000
803.828552	625.400000
803.864258	629.800000
803.899902	625.500000
803.935608	608.300000
803.971313	615.000000
804.006958	614.100000
804.042664	610.100000
804.078308	614.300000
804.113953	605.600000
804.149658	614.200000
804.185364	606.500000
804.221008	613.000000
804.256714	604.600000
804.292297	602.700000
804.328003	600.400000
804.363708	589.100000
804.399292	593.000000
804.434998	594.000000
804.470703	584.600000
804.506287	598.500000
804.541992	590.200000
804.577637	591.300000
804.613281	578.200000
804.648926	577.400000
804.684570	583.800000
804.720215	576.800000
804.755920	575.800000
804.791565	571.900000
804.827209	575.800000
804.862854	573.000000
804.898437	565.200000
804.934143	569.800000
804.969788	566.600000
805.005371	566.400000
805.041077	567.500000
805.076721	564.800000
805.112305	557.100000
805.147949	558.900000
805.183655	553.800000
805.219238	556.300000
805.254883	558.600000
805.290466	563.100000
805.326111	552.200000
805.361755	541.200000
805.397400	547.800000
805.432983	550.800000
805.468628	551.600000
805.504211	555.900000
805.539856	554.800000
805.575500	558.300000
805.611084	549.000000
805.646729	535.300000
805.682373	537.500000
805.717957	548.200000
805.753601	553.300000
805.789246	531.400000
805.824768	544.000000
805.860413	545.600000
805.895996	534.800000
805.931641	534.000000
805.967224	540.700000
806.002869	532.000000
806.038452	541.800000
806.074036	538.900000
806.109619	526.300000
806.145264	524.100000
806.180847	523.200000
806.216431	520.500000
806.252014	525.500000
806.287659	525.100000
806.323181	533.400000
806.358826	524.900000
806.394409	506.100000
806.429993	512.600000
806.465576	524.500000
806.501160	507.000000
806.536743	501.200000
806.572327	513.300000
806.607910	506.400000
806.643494	505.600000
806.679077	502.400000
806.714661	504.400000
806.750244	502.400000
806.785828	494.600000
806.821350	497.700000
806.856934	499.900000
806.892517	498.900000
806.928101	489.000000
806.963684	489.500000
806.999268	500.100000
807.034790	477.600000
807.070374	486.900000
807.105896	480.300000
807.141479	474.900000
807.177063	485.600000
807.212585	475.800000
807.248169	475.900000
807.283752	482.300000
807.319275	475.000000
807.354858	473.100000
807.390381	469.700000
807.425903	469.800000
807.461487	467.400000
807.497070	461.400000
807.532593	461.700000
807.568115	457.900000
807.603699	459.900000
807.639221	451.700000
807.674744	455.700000
807.710266	458.900000
807.745850	460.400000
807.781372	454.100000
807.816895	449.100000
807.852417	452.300000
807.888000	450.900000
807.923523	446.500000
807.959045	452.800000
807.994629	440.000000
808.030090	435.500000
808.065613	443.100000
808.101135	446.500000
808.136658	441.100000
808.172241	438.500000
808.207764	436.600000
808.243225	428.700000
808.278809	426.400000
808.314270	437.000000
808.349792	426.100000
808.385315	423.300000
808.420837	428.300000
808.456360	434.300000
808.491882	429.800000
808.527344	427.200000
808.562866	434.800000
808.598389	427.900000
808.633850	420.700000
808.669434	417.000000
808.704895	426.000000
808.740417	431.700000
808.775940	419.900000
808.811462	417.500000
808.846924	408.400000
808.882385	404.100000
808.917847	403.500000
808.953369	407.100000
808.988892	402.300000
809.024353	409.900000
809.059875	409.000000
809.095398	404.700000
809.130798	399.300000
809.166321	398.700000
809.201843	397.500000
809.237305	397.100000
809.272766	407.000000
809.308228	390.100000
809.343750	390.400000
809.379211	391.100000
809.414734	392.200000
809.450134	399.800000
809.485657	382.400000
809.521118	389.200000
809.556580	387.000000
809.592102	384.900000
809.627502	380.300000
809.663025	379.200000
809.698486	374.600000
809.733887	372.400000
809.769409	376.100000
809.804871	364.900000
809.840271	370.500000
809.875793	371.200000
809.911194	375.000000
809.946655	367.800000
809.982178	363.200000
810.017639	369.100000
810.053040	365.300000
810.088501	363.100000
810.123901	362.700000
810.159424	357.200000
810.194885	354.700000
810.230286	357.900000
810.265747	353.000000
810.301208	348.800000
810.336609	353.500000
810.372070	346.300000
810.407532	347.800000
810.442932	351.200000
810.478394	353.000000
810.513794	348.900000
810.549255	345.800000
810.584717	345.100000
810.620117	338.000000
810.655518	346.600000
810.690979	344.400000
810.726379	344.700000
810.761841	333.200000
810.797302	333.800000
810.832642	332.100000
810.868103	344.500000
810.903564	331.200000
810.938904	339.800000
810.974365	326.800000
811.009827	333.100000
811.045166	327.300000
811.080627	320.600000
811.115967	327.700000
811.151428	337.500000
811.186829	326.000000
811.222229	326.400000
811.257629	319.800000
811.293091	326.400000
811.328430	333.200000
811.363892	328.200000
811.399292	329.200000
811.434631	324.000000
811.470093	327.500000
811.505493	318.500000
811.540833	320.500000
811.576294	326.000000
811.611694	319.400000
811.647034	314.200000
811.682434	318.800000
811.717773	318.300000
811.753235	323.100000
811.788635	315.400000
811.823975	318.600000
811.859375	326.700000
811.894775	311.600000
811.930115	313.500000
811.965515	315.500000
812.000916	316.600000
812.036255	310.200000
812.071655	314.400000
812.106995	308.100000
812.142395	309.400000
812.177795	316.000000
812.213196	311.800000
812.248474	313.100000
812.283875	302.800000
812.319214	307.100000
812.354614	308.200000
812.390015	304.700000
812.425293	303.900000
812.460693	306.700000
812.496094	303.000000
812.531433	295.700000
812.566772	296.300000
812.602173	301.000000
812.637451	301.800000
812.672852	298.200000
812.708191	302.900000
812.743530	295.200000
812.778931	288.100000
812.814270	291.900000
812.849609	299.100000
812.884949	292.500000
812.920227	286.100000
812.955627	304.200000
812.990967	295.300000
813.026306	288.500000
813.061646	278.500000
813.096985	275.700000
813.132324	273.700000
813.167664	280.300000
813.203003	284.300000
813.238281	270.900000
813.273682	273.600000
813.308960	268.400000
813.344299	273.400000
813.379639	281.900000
813.414978	273.800000
813.450256	271.900000
813.485596	276.700000
813.520874	269.700000
813.556213	274.200000
813.591614	277.700000
813.626831	267.900000
813.662170	272.300000
813.697510	283.600000
813.732788	265.200000
813.768127	271.600000
813.803467	271.200000
813.838745	265.000000
813.874084	270.100000
813.909363	270.400000
813.944641	270.600000
813.979980	260.000000
814.015320	265.800000
814.050598	262.200000
814.085876	266.300000
814.121155	265.400000
814.156494	261.100000
814.191772	262.800000
814.227051	257.700000
814.262390	261.200000
814.297668	260.700000
814.332947	262.800000
814.368225	256.600000
814.403564	260.400000
814.438782	256.300000
814.474121	257.600000
814.509338	253.100000
814.544617	263.700000
814.579956	253.100000
814.615173	265.700000
814.650513	259.800000
814.685791	253.500000
814.721008	255.300000
814.756348	254.300000
814.791626	250.900000
814.826843	250.200000
814.862122	251.700000
814.897400	247.100000
814.932678	252.600000
814.967957	252.000000
815.003235	249.100000
815.038452	242.800000
815.073730	241.500000
815.108948	252.300000
815.144226	249.800000
815.179504	253.500000
815.214722	237.900000
815.250000	237.500000
815.285278	246.300000
815.320496	239.000000
815.355774	242.600000
815.391052	244.400000
815.426270	242.600000
815.461487	239.400000
815.496765	236.600000
815.531982	231.600000
815.567261	238.700000
815.602539	247.200000
815.637695	241.100000
815.672974	241.500000
815.708191	244.400000
815.743408	243.000000
815.778687	237.200000
815.813904	246.100000
815.849121	228.900000
815.884399	231.100000
815.919556	229.800000
815.954834	230.900000
815.990051	236.000000
816.025269	239.700000
816.060486	230.800000
816.095703	228.700000
816.130920	234.100000
816.166199	230.600000
816.201416	233.000000
816.236572	238.400000
816.271851	228.100000
816.307007	235.700000
816.342224	225.300000
816.377441	228.600000
816.412659	220.700000
816.447876	233.000000
816.483093	227.700000
816.518250	228.700000
816.553467	225.700000
816.588745	231.200000
816.623901	223.300000
816.659119	217.400000
816.694275	222.800000
816.729492	221.200000
816.764709	256.500000
816.799927	217.000000
816.835083	222.400000
816.870300	216.300000
816.905457	220.000000
816.940674	223.800000
816.975830	217.700000
817.010986	215.400000
817.046204	217.700000
817.081421	213.900000
817.116577	213.400000
817.151733	223.200000
817.186951	223.000000
817.222107	219.300000
817.257324	221.800000
817.292419	218.800000
817.327637	209.700000
817.362854	216.600000
817.398010	210.400000
817.433167	213.600000
817.468323	212.800000
817.503479	213.500000
817.538635	222.800000
817.573853	219.100000
817.608948	216.000000
817.644165	211.500000
817.679321	209.000000
817.714478	210.100000
817.749634	213.700000
817.784790	226.600000
817.819946	220.800000
817.855103	201.900000
817.890198	212.000000
817.925415	205.200000
817.960571	213.500000
817.995667	212.600000
818.030823	215.100000
818.066040	207.300000
818.101135	211.100000
818.136292	209.900000
818.171448	204.000000
818.206543	209.700000
818.241699	212.900000
818.276855	208.900000
818.311951	209.000000
818.347107	205.100000
818.382263	210.100000
818.417358	216.100000
818.452515	215.900000
818.487610	215.800000
818.522766	205.300000
818.557922	215.700000
818.593018	211.400000
818.628113	209.100000
818.663269	203.400000
818.698364	207.900000
818.733521	204.800000
818.768677	210.700000
818.803711	201.100000
818.838867	203.800000
818.874023	206.200000
818.909058	202.400000
818.944214	202.300000
818.979370	210.400000
819.014404	206.200000
819.049561	200.700000
819.084595	208.800000
819.119751	198.800000
819.154846	208.400000
819.189941	204.400000
819.225037	199.600000
819.260193	195.200000
819.295227	199.200000
819.330322	194.600000
819.365479	193.000000
819.400513	226.600000
819.435608	192.900000
819.470764	191.500000
819.505798	194.200000
819.540894	198.200000
819.575989	196.000000
819.611084	204.900000
819.646179	205.600000
819.681213	201.400000
819.716309	197.100000
819.751404	197.500000
819.786438	203.400000
819.821533	194.500000
819.856628	198.700000
819.891663	202.900000
819.926758	210.000000
819.961853	204.000000
819.996887	196.400000
820.031982	202.400000
820.067017	197.800000
820.102112	226.800000
820.137207	196.800000
820.172302	213.300000
820.207275	193.400000
820.242371	194.200000
820.277405	195.400000
820.312500	198.000000
820.347534	198.100000
820.382568	204.400000
820.417664	194.500000
820.452759	194.900000
820.487732	192.300000
820.522827	196.300000
820.557861	192.600000
820.592896	195.200000
820.627930	194.400000
820.662964	194.300000
820.698059	198.000000
820.733093	195.100000
820.768127	200.300000
820.803162	194.900000
820.838196	193.200000
820.873230	196.200000
820.908264	196.800000
820.943298	192.400000
820.978333	202.500000
821.013367	197.300000
821.048401	200.600000
821.083435	202.700000
821.118469	185.900000
821.153503	201.000000
821.188477	197.100000
821.223511	188.700000
821.258484	195.700000
821.293579	196.600000
821.328613	187.400000
821.363647	194.300000
821.398621	189.700000
821.433655	191.800000
821.468628	208.500000
821.503662	192.700000
821.538696	198.000000
821.573669	190.500000
821.608704	200.200000
821.643677	191.900000
821.678650	198.400000
821.713684	203.400000
821.748718	191.800000
821.783691	193.400000
821.818726	196.300000
821.853638	196.800000
821.888672	193.600000
821.923706	195.200000
821.958618	191.200000
821.993652	191.900000
822.028687	199.900000
822.063599	200.900000
822.098633	195.400000
822.133667	190.800000
822.168579	192.600000
822.203613	196.100000
822.238586	192.000000
822.273560	196.900000
822.308533	191.100000
822.343567	191.500000
822.378479	192.900000
822.413452	192.900000
822.448425	190.800000
822.483398	199.100000
822.518372	199.200000
822.553345	191.700000
822.588318	202.000000
822.623291	193.300000
822.658203	193.400000
822.693237	194.700000
822.728210	188.800000
822.763123	195.600000
822.798096	189.800000
822.833069	193.600000
822.867981	193.600000
822.902954	195.500000
822.937927	198.200000
822.972900	204.300000
823.007874	186.600000
823.042725	197.800000
823.077698	205.900000
823.112671	189.800000
823.147583	192.400000
823.182556	196.600000
823.217529	198.300000
823.252441	192.000000
823.287415	208.400000
823.322388	197.100000
823.357239	194.600000
823.392212	202.100000
823.427185	198.000000
823.462097	189.500000
823.497009	197.500000
823.531982	191.900000
823.566895	193.300000
823.601807	189.500000
823.636719	192.300000
823.671631	198.100000
823.706604	191.200000
823.741455	198.100000
823.776428	186.700000
823.811340	199.700000
823.846252	200.700000
823.881165	202.600000
823.916138	195.500000
823.950989	203.300000
823.985901	190.200000
824.020813	194.800000
824.055725	192.000000
824.090637	190.900000
824.125610	196.600000
824.160461	196.200000
824.195374	195.700000
824.230225	199.500000
824.265198	186.900000
824.300110	191.400000
824.334961	204.000000
824.369873	186.100000
824.404785	197.700000
824.439636	202.100000
824.474548	186.200000
824.509460	183.300000
824.544312	200.400000
824.579224	196.900000
824.614075	196.500000
824.648987	192.600000
824.683899	193.600000
824.718811	191.500000
824.753662	201.000000
824.788574	198.300000
824.823364	195.500000
824.858276	190.700000
824.893188	200.000000
824.928040	200.600000
824.962952	197.100000
824.997803	199.100000
825.032654	195.100000
825.067566	198.400000
825.102417	192.600000
825.137268	193.800000
825.172119	195.700000
825.206970	189.800000
825.241882	191.900000
825.276733	189.900000
825.311646	191.700000
825.346436	188.500000
825.381348	189.400000
825.416138	193.400000
825.450989	190.600000
825.485901	184.800000
825.520691	185.600000
825.555542	187.800000
825.590454	193.700000
825.625244	184.700000
825.660095	201.800000
825.695007	198.400000
825.729797	192.500000
825.764648	189.500000
825.799438	194.000000
825.834290	194.100000
825.869202	187.000000
825.903992	195.600000
825.938843	189.500000
825.973694	188.900000
826.008484	206.400000
826.043335	188.300000
826.078186	184.800000
826.112976	199.200000
826.147827	198.200000
826.182678	203.100000
826.217468	186.700000
826.252319	198.100000
826.287109	188.100000
826.321899	201.900000
826.356750	190.800000
826.391541	188.200000
826.426392	199.000000
826.461182	193.000000
826.495972	187.000000
826.530823	183.600000
826.565613	193.200000
826.600403	188.000000
826.635254	195.100000
826.670044	184.200000
826.704834	184.100000
826.739685	189.100000
826.774475	195.100000
826.809265	192.300000
826.844055	188.400000
826.878906	199.300000
826.913635	194.600000
826.948425	196.700000
826.983215	193.900000
827.018005	198.300000
827.052856	191.300000
827.087585	197.100000
827.122375	184.600000
827.157227	193.700000
827.191956	203.900000
827.226746	188.500000
827.261536	197.000000
827.296265	186.600000
827.331116	190.500000
827.365906	196.400000
827.400635	189.500000
827.435425	184.300000
827.470215	200.200000
827.504944	191.800000
827.539734	196.900000
827.574463	192.600000
827.609253	200.200000
827.644043	192.700000
827.678772	197.700000
827.713562	190.000000
827.748352	191.100000
827.783081	189.400000
827.817871	193.300000
827.852600	188.800000
827.887329	193.900000
827.922119	183.500000
827.956848	196.400000
827.991638	206.400000
828.026367	194.900000
828.061157	193.600000
828.095886	194.100000
828.130615	207.700000
828.165344	182.900000
828.200073	192.500000
828.234863	190.200000
828.269592	193.100000
828.304321	199.300000
828.339111	193.000000
828.373779	189.100000
828.408569	199.200000
828.443298	198.500000
828.477966	189.000000
828.512756	194.000000
828.547424	187.300000
828.582214	192.000000
828.616943	192.200000
828.651672	191.300000
828.686340	197.100000
828.721130	189.800000
828.755798	192.300000
828.790527	192.400000
828.825256	193.500000
828.859924	193.000000
828.894714	199.600000
828.929443	200.200000
828.964111	189.300000
828.998840	191.300000
829.033569	190.200000
829.068237	190.100000
829.102966	190.900000
829.137634	194.700000
829.172363	193.900000
829.207092	193.400000
829.241821	189.000000
829.276489	185.400000
829.311157	193.300000
829.345825	191.600000
829.380554	198.000000
829.415283	187.700000
829.449951	185.700000
829.484619	200.700000
829.519348	200.200000
829.554016	193.500000
829.588745	192.300000
829.623413	186.400000
829.658081	203.300000
829.692749	185.700000
829.727417	198.000000
829.762146	195.600000
829.796814	189.700000
829.831482	191.100000
829.866150	195.200000
829.900879	190.000000
829.935486	196.300000
829.970154	189.800000
830.004883	203.200000
830.039490	193.500000
830.074219	190.300000
830.108887	193.800000
830.143494	191.400000
830.178223	186.300000
830.212891	191.300000
830.247498	192.400000
830.282166	200.100000
830.316772	197.400000
830.351501	189.700000
830.386169	190.800000
830.420776	192.200000
830.455444	192.500000
830.490112	189.400000
830.524719	182.600000
830.559387	194.100000
830.594055	195.400000
830.628662	192.800000
830.663330	192.600000
830.697998	200.400000
830.732605	191.800000
830.767273	195.500000
830.801941	192.500000
830.836487	201.200000
830.871155	194.800000
830.905762	194.700000
830.940430	186.100000
830.975098	188.200000
831.009644	193.900000
831.044312	201.800000
831.078979	195.200000
831.113525	184.400000
831.148193	193.700000
831.182861	191.300000
831.217407	195.500000
831.252075	210.200000
831.286621	189.900000
831.321289	187.700000
831.355896	192.000000
831.390564	199.500000
831.425110	193.800000
831.459778	199.000000
831.494324	206.400000
831.528931	195.100000
831.563599	196.500000
831.598145	185.900000
831.632751	192.300000
831.667419	192.100000
831.701965	195.000000
831.736572	195.900000
831.771179	186.900000
831.805786	190.000000
831.840393	198.600000
831.874939	184.700000
831.909546	197.000000
831.944153	183.900000
831.978760	190.800000
832.013306	186.700000
832.047913	200.000000
832.082458	200.600000
832.117065	188.900000
832.151672	201.700000
832.186218	194.400000
832.220825	195.300000
832.255432	184.000000
832.289978	189.600000
832.324585	194.800000
832.359192	195.600000
832.393677	190.900000
832.428284	194.100000
832.462830	190.400000
832.497437	190.800000
832.531982	196.300000
832.566589	191.600000
832.601135	194.200000
832.635681	184.900000
832.670227	193.000000
832.704773	200.000000
832.739380	194.500000
832.773926	193.100000
832.808472	188.500000
832.843079	193.100000
832.877563	196.700000
832.912170	190.600000
832.946716	184.200000
832.981201	198.500000
833.015808	195.000000
833.050293	190.500000
833.084839	188.300000
833.119446	191.600000
833.153992	196.000000
833.188477	193.200000
833.223022	188.700000
833.257568	193.200000
833.292114	198.700000
833.326660	202.900000
833.361145	188.700000
833.395691	183.500000
833.430237	192.200000
833.464783	196.500000
833.499329	189.500000
833.533875	185.600000
833.568359	194.700000
833.602905	199.000000
833.637390	197.300000
833.671875	189.600000
833.706421	191.100000
833.740906	187.500000
833.775452	181.900000
833.809998	190.500000
833.844482	199.300000
833.879028	191.100000
833.913513	189.800000
833.947998	195.000000
833.982544	188.300000
834.017090	189.400000
834.051514	181.000000
834.086060	196.600000
834.120544	192.400000
834.155029	194.200000
834.189575	191.700000
834.223999	195.500000
834.258545	194.000000
834.293030	191.800000
834.327515	193.800000
834.362000	189.500000
834.396545	197.800000
834.430969	191.900000
834.465454	196.700000
834.500000	183.100000
834.534424	195.700000
834.568970	182.800000
834.603455	184.200000
834.637878	189.300000
834.672363	192.400000
834.706909	193.200000
834.741333	193.200000
834.775818	184.700000
834.810242	187.600000
834.844727	192.400000
834.879211	190.300000
834.913635	193.600000
834.948181	193.400000
834.982666	192.800000
835.017090	190.900000
835.051575	195.300000
835.086060	189.300000
835.120483	195.800000
835.154907	198.000000
835.189331	190.900000
835.223816	195.400000
835.258301	186.300000
835.292786	187.900000
835.327209	197.300000
835.361694	186.900000
835.396057	189.900000
835.430542	195.600000
835.465027	193.000000
835.499390	187.100000
835.533875	211.400000
835.568359	189.600000
835.602722	184.200000
835.637207	193.300000
835.671692	186.900000
835.706055	208.100000
835.740540	194.000000
835.774902	195.900000
835.809387	192.100000
835.843811	185.200000
835.878235	199.500000
835.912659	185.100000
835.947083	188.800000
835.981506	193.100000
836.015930	184.900000
836.050354	196.100000
836.084778	202.700000
836.119202	198.000000
836.153625	206.000000
836.187988	188.600000
836.222473	188.900000
836.256897	194.400000
836.291260	191.300000
836.325684	194.100000
836.360046	189.400000
836.394470	190.200000
836.428894	199.900000
836.463318	189.500000
836.497681	197.500000
836.532104	199.600000
836.566467	193.100000
836.600891	190.600000
836.635315	197.500000
836.669678	195.800000
836.704102	196.800000
836.738525	193.100000
836.772888	185.200000
836.807251	189.400000
836.841675	195.800000
836.876038	186.300000
836.910461	187.600000
836.944763	195.900000
836.979187	188.700000
837.013611	197.700000
837.047974	185.200000
837.082336	205.100000
837.116699	194.700000
837.151062	191.900000
837.185486	185.300000
837.219849	191.300000
837.254211	196.700000
837.288574	193.300000
837.322937	187.300000
837.357300	180.700000
837.391663	205.600000
837.426086	197.600000
837.460388	194.000000
837.494751	198.600000
837.529114	190.200000
837.563477	198.500000
837.597839	195.500000
837.632141	191.200000
837.666565	189.000000
837.700928	195.000000
837.735229	195.300000
837.769592	195.500000
837.803955	198.200000
837.838257	189.700000
837.872620	189.100000
837.906982	199.700000
837.941284	193.400000
837.975647	194.200000
838.010010	199.100000
838.044312	191.500000
838.078674	189.400000
838.112976	192.500000
838.147339	195.200000
838.181702	192.200000
838.216003	202.600000
838.250366	195.100000
838.284668	193.900000
838.318970	185.200000
838.353333	192.100000
838.387634	191.500000
838.421936	192.900000
838.456299	194.300000
838.490601	200.500000
838.524902	197.200000
838.559265	198.300000
838.593567	196.100000
838.627869	185.600000
838.662170	196.100000
838.696472	185.600000
838.730774	188.300000
838.765137	197.200000
838.799377	177.900000
838.833740	193.700000
838.868042	199.300000
838.902283	184.500000
838.936646	198.200000
838.970947	195.500000
839.005188	196.800000
839.039551	184.700000
839.073792	199.700000
839.108093	190.200000
839.142395	201.700000
839.176697	186.500000
839.210937	193.100000
839.245300	203.400000
839.279541	185.900000
839.313843	191.300000
839.348145	196.400000
839.382385	197.100000
839.416687	198.100000
839.450989	196.400000
839.485229	191.700000
839.519531	187.900000
839.553833	198.300000
839.588013	192.800000
839.622314	193.500000
839.656555	195.300000
839.690857	193.900000
839.725159	186.300000
839.759460	190.900000
839.793640	191.600000
839.827942	191.300000
839.862183	189.600000
839.896423	195.600000
839.930725	201.700000
839.964966	201.000000
839.999207	201.600000
840.033508	200.800000
840.067688	189.500000
840.101990	200.600000
840.136230	193.200000
840.170471	200.500000
840.204712	189.500000
840.238953	188.500000
840.273193	194.900000
840.307434	197.000000
840.341736	189.400000
840.375916	186.500000
840.410217	189.400000
840.444397	196.800000
840.478638	195.700000
840.512878	200.200000
840.547119	191.600000
840.581360	195.900000
840.615601	203.700000
840.649780	201.400000
840.684021	192.800000
840.718262	201.600000
840.752441	197.500000
840.786682	194.500000
840.820862	194.800000
840.855103	200.100000
840.889343	193.300000
840.923584	198.500000
840.957764	195.300000
840.992004	195.300000
841.026184	208.400000
841.060425	192.900000
841.094666	190.000000
841.128845	196.700000
841.163025	193.500000
841.197266	196.900000
841.231445	194.200000
841.265686	194.600000
841.299866	188.900000
841.334045	200.700000
841.368286	191.500000
841.402405	200.500000
841.436646	198.000000
841.470825	190.600000
841.505005	191.300000
841.539185	189.800000
841.573425	189.300000
841.607544	194.100000
841.641785	193.600000
841.675964	188.100000
841.710144	194.400000
841.744324	192.200000
841.778503	191.900000
841.812683	189.700000
841.846863	202.700000
841.881042	201.200000
841.915222	192.300000
841.949402	208.300000
841.983521	184.700000
842.017700	193.100000
842.051880	193.600000
842.086060	195.500000
842.120239	194.900000
842.154419	193.100000
842.188538	194.700000
842.222717	189.800000
842.256897	204.000000
842.291016	192.300000
842.325195	197.300000
842.359375	203.700000
842.393494	200.800000
842.427673	193.100000
842.461853	196.600000
842.495911	202.400000
842.530090	195.900000
842.564209	192.600000
842.598389	196.100000
842.632568	195.000000
842.666626	198.300000
842.700806	190.500000
842.734985	191.900000
842.769043	194.500000
842.803223	192.200000
842.837402	190.700000
842.871460	190.300000
842.905640	201.400000
842.939697	189.900000
842.973877	196.800000
843.007996	198.500000
843.042175	202.900000
843.076233	191.000000
843.110413	194.800000
843.144470	202.700000
843.178589	197.700000
843.212769	190.400000
843.246826	199.300000
843.280945	192.400000
843.315125	191.900000
843.349182	189.500000
843.383301	202.000000
843.417419	206.500000
843.451538	194.000000
843.485657	192.200000
843.519714	192.900000
843.553833	196.100000
843.587952	192.100000
843.622070	189.100000
843.656128	198.500000
843.690247	191.900000
843.724304	190.100000
843.758423	194.800000
843.792542	192.400000
843.826599	193.400000
843.860718	192.100000
843.894836	186.400000
843.928894	194.300000
843.963013	195.700000
843.997070	189.500000
844.031128	186.300000
844.065247	199.300000
844.099304	197.300000
844.133362	196.000000
844.167480	196.300000
844.201599	202.300000
844.235596	196.500000
844.269714	196.000000
844.303711	196.900000
844.337830	184.900000
844.371948	197.100000
844.405945	192.700000
844.440063	188.200000
844.474121	209.200000
844.508118	192.900000
844.542236	193.700000
844.576294	192.300000
844.610352	189.200000
844.644409	192.500000
844.678406	185.500000
844.712524	197.900000
844.746582	201.100000
844.780640	193.500000
844.814636	193.000000
844.848755	204.600000
844.882751	193.200000
844.916809	198.000000
844.950867	196.100000
844.984863	202.100000
845.018921	193.200000
845.052979	189.300000
845.086975	195.300000
845.121033	188.400000
845.155090	189.200000
845.189087	201.500000
845.223145	191.100000
845.257141	193.600000
845.291199	197.500000
845.325256	202.000000
845.359253	195.600000
845.393250	204.900000
845.427307	193.400000
845.461304	195.700000
845.495361	194.100000
845.529358	205.600000
845.563354	191.200000
845.597412	190.200000
845.631409	202.000000
845.665405	201.200000
845.699463	198.900000
845.733459	192.300000
845.767456	201.000000
845.801453	193.200000
845.835449	200.600000
845.869446	199.100000
845.903503	198.800000
845.937439	190.200000
845.971497	201.200000
846.005493	187.400000
846.039429	197.200000
846.073486	203.500000
846.107483	192.100000
846.141418	193.800000
846.175476	193.700000
846.209473	201.300000
846.243408	190.000000
846.277405	195.500000
846.311401	188.700000
846.345337	194.400000
846.379395	199.300000
846.413330	191.300000
846.447327	201.700000
846.481323	190.400000
846.515259	191.400000
846.549255	194.800000
846.583252	195.800000
846.617187	189.400000
846.651184	195.700000
846.685120	191.300000
846.719055	201.200000
846.753052	197.500000
846.786987	199.000000
846.820984	187.700000
846.854980	202.400000
846.888916	189.200000
846.922852	196.300000
846.956848	203.200000
846.990723	189.400000
847.024719	195.500000
847.058716	193.100000
847.092590	201.700000
847.126587	196.000000
847.160522	192.000000
847.194458	198.800000
847.228455	189.400000
847.262390	188.300000
847.296265	191.800000
847.330261	201.700000
847.364136	191.200000
847.398132	191.000000
847.432068	194.300000
847.466003	191.300000
847.499939	192.500000
847.533875	196.600000
847.567749	191.100000
847.601746	191.600000
847.635681	198.400000
847.669556	185.700000
847.703491	200.100000
847.737427	210.300000
847.771301	189.300000
847.805237	196.600000
847.839233	194.400000
847.873108	194.300000
847.907043	193.600000
847.940918	200.100000
847.974854	196.000000
848.008789	198.700000
848.042664	194.500000
848.076538	198.800000
848.110474	194.600000
848.144348	196.500000
848.178284	188.300000
848.212219	195.100000
848.246094	192.500000
848.279968	196.200000
848.313904	198.100000
848.347778	195.200000
848.381653	193.800000
848.415588	191.500000
848.449463	193.600000
848.483337	197.600000
848.517212	200.100000
848.551086	194.400000
848.585022	190.400000
848.618835	202.800000
848.652771	192.300000
848.686646	189.200000
848.720520	203.100000
848.754395	192.700000
848.788330	198.500000
848.822144	198.000000
848.856018	194.300000
848.889954	204.300000
848.923767	189.600000
848.957642	191.800000
848.991577	199.700000
849.025391	191.300000
849.059265	192.900000
849.093079	190.100000
849.126953	189.400000
849.160828	199.500000
849.194641	195.100000
849.228577	191.400000
849.262451	194.500000
849.296265	192.100000
849.330139	188.800000
849.364014	194.500000
849.397827	198.500000
849.431702	193.800000
849.465515	199.300000
849.499329	185.100000
849.533203	189.000000
849.567078	185.000000
849.600891	198.000000
849.634766	193.800000
849.668518	199.000000
849.702393	194.500000
849.736267	188.600000
849.770020	206.900000
849.803894	197.300000
849.837769	194.100000
849.871521	193.900000
849.905396	200.900000
849.939270	191.100000
849.973022	192.500000
850.006897	197.900000
850.040710	197.200000
850.074524	198.200000
850.108337	193.700000
850.142151	197.500000
850.175964	200.800000
850.209778	193.900000
850.243530	181.400000
850.277405	199.300000
850.311218	194.200000
850.344971	191.000000
850.378845	203.000000
850.412659	191.500000
850.446411	195.300000
850.480225	193.600000
850.514038	200.200000
850.547791	196.900000
850.581665	193.700000
850.615417	192.400000
850.649231	195.800000
850.683044	192.800000
850.716858	193.600000
850.750610	196.400000
850.784424	198.500000
850.818176	191.700000
850.851929	192.000000
850.885742	190.400000
850.919495	193.800000
850.953308	200.300000
850.987122	202.100000
851.020874	188.700000
851.054626	186.300000
851.088440	196.500000
851.122192	198.900000
851.156006	194.300000
851.189697	192.700000
851.223511	188.800000
851.257263	197.500000
851.291077	196.600000
851.324829	192.300000
851.358582	191.000000
851.392334	191.400000
851.426086	192.100000
851.459900	201.400000
851.493591	193.900000
851.527344	194.200000
851.561157	194.900000
851.594849	196.800000
851.628662	196.400000
851.662415	203.000000
851.696106	197.600000
851.729858	200.100000
851.763611	188.300000
851.797363	195.900000
851.831116	190.400000
851.864868	196.900000
851.898560	198.100000
851.932312	192.200000
851.966064	196.800000
851.999817	193.900000
852.033569	194.000000
852.067261	198.200000
852.101013	191.100000
852.134766	194.300000
852.168457	184.600000
852.202209	198.400000
852.235901	191.100000
852.269592	196.800000
852.303345	203.300000
852.337036	198.400000
852.370789	193.900000
852.404541	197.400000
852.438171	190.900000
852.471924	192.500000
852.505676	187.300000
852.539307	195.900000
852.573059	190.400000
852.606812	191.800000
852.640442	194.100000
852.674194	199.000000
852.707886	204.300000
852.741577	202.900000
852.775269	188.700000
852.809021	194.600000
852.842651	197.200000
852.876404	198.400000
852.910034	196.200000
852.943787	200.600000
852.977478	197.600000
853.011108	189.400000
853.044861	190.600000
853.078552	202.200000
853.112183	195.900000
853.145874	196.600000
853.179626	185.300000
853.213257	196.800000
853.246948	192.100000
853.280640	202.700000
853.314270	194.800000
853.347961	201.500000
853.381653	196.100000
853.415283	198.800000
853.448975	190.900000
853.482605	197.000000
853.516296	193.700000
853.549988	189.400000
853.583618	195.300000
853.617310	196.000000
853.651001	196.500000
853.684631	190.700000
853.718323	192.000000
853.751953	201.300000
853.785583	184.800000
853.819275	198.000000
853.852966	193.800000
853.886536	185.500000
853.920227	188.900000
853.953918	199.900000
853.987488	192.000000
854.021179	198.400000
854.054749	201.200000
854.088440	196.400000
854.122131	190.900000
854.155701	199.100000
854.189331	190.900000
854.223022	197.400000
854.256592	196.300000
854.290283	191.100000
854.323914	198.000000
854.357483	196.400000
854.391174	197.500000
854.424744	205.000000
854.458374	196.500000
854.492065	204.600000
854.525696	193.000000
854.559265	201.600000
854.592896	206.400000
854.626465	195.500000
854.660095	195.800000
854.693787	196.200000
854.727356	194.600000
854.760986	199.200000
854.794617	196.000000
854.828186	192.700000
854.861816	198.000000
854.895447	195.000000
854.929016	196.900000
854.962585	196.800000
854.996155	203.500000
855.029785	196.300000
855.063416	198.300000
855.097046	199.200000
855.130615	189.600000
855.164185	201.100000
855.197754	194.800000
855.231384	198.400000
855.264954	193.900000
855.298523	198.300000
855.332153	195.600000
855.365723	204.200000
855.399292	191.100000
855.432922	194.800000
855.466492	196.500000
855.500061	189.700000
855.533630	191.900000
855.567200	198.400000
855.600769	198.800000
855.634338	199.900000
855.667969	196.200000
855.701477	190.100000
855.735046	190.700000
855.768616	186.500000
855.802185	196.400000
855.835754	209.600000
855.869324	186.300000
855.902893	193.400000
855.936401	201.200000
855.969971	195.600000
856.003540	187.900000
856.037109	198.200000
856.070618	195.100000
856.104187	188.400000
856.137695	192.900000
856.171265	186.000000
856.204834	195.400000
856.238403	200.500000
856.271912	191.400000
856.305481	196.300000
856.338989	187.600000
856.372559	198.900000
856.406128	196.400000
856.439636	200.200000
856.473145	192.400000
856.506653	202.300000
856.540222	194.200000
856.573792	204.200000
856.607300	198.100000
856.640808	188.700000
856.674377	195.600000
856.707825	223.600000
856.741394	198.800000
856.774902	191.000000
856.808472	184.900000
856.841980	198.000000
856.875488	202.200000
856.908936	188.600000
856.942505	192.700000
856.976013	195.400000
857.009521	189.500000
857.043030	195.000000
857.076477	193.900000
857.110046	199.600000
857.143555	196.000000
857.177063	200.400000
857.210571	192.100000
857.244080	188.900000
857.277527	197.700000
857.311035	194.400000
857.344543	198.800000
857.378052	193.400000
857.411499	199.400000
857.445068	205.000000
857.478516	194.300000
857.512024	189.000000
857.545532	193.700000
857.578979	198.500000
857.612427	195.400000
857.645874	192.900000
857.679382	195.900000
857.712891	199.300000
857.746399	195.300000
857.779846	200.400000
857.813354	200.700000
857.846741	194.400000
857.880249	192.000000
857.913757	196.200000
857.947266	196.600000
857.980652	197.100000
858.014160	192.400000
858.047546	193.300000
858.081055	194.000000
858.114563	202.100000
858.147949	188.500000
858.181458	198.700000
858.214844	194.500000
858.248352	186.700000
858.281799	200.000000
858.315308	207.200000
858.348694	196.400000
858.382141	203.600000
858.415588	197.600000
858.449036	199.700000
858.482483	198.200000
858.515930	190.500000
858.549377	194.400000
858.582825	202.000000
858.616211	197.700000
858.649658	196.900000
858.683105	189.400000
858.716553	189.900000
858.750000	189.200000
858.783386	193.900000
858.816833	186.600000
858.850281	196.100000
858.883728	197.100000
858.917114	193.300000
858.950562	203.000000
858.983948	204.000000
859.017395	198.600000
859.050781	192.400000
859.084167	192.100000
859.117615	187.900000
859.151062	197.800000
859.184448	190.900000
859.217834	193.500000
859.251282	193.200000
859.284668	190.300000
859.318054	185.500000
859.351440	193.000000
859.384888	203.800000
859.418274	186.400000
859.451721	185.400000
859.485046	196.700000
859.518494	195.800000
859.551819	191.200000
859.585266	197.100000
859.618652	197.300000
859.652039	189.500000
859.685425	190.400000
859.718811	189.100000
859.752197	183.300000
859.785583	203.000000
859.819031	202.600000
859.852356	198.000000
859.885742	191.600000
859.919067	195.100000
859.952454	192.500000
859.985901	199.700000
860.019287	191.600000
860.052612	0.000000
860.085999	0.000000
860.119324	0.000000
860.152710	0.000000
860.186096	0.000000
860.219421	0.000000
860.252808	0.000000
860.286133	0.000000
860.319519	0.000000
860.352905	0.000000
860.386292	0.000000
860.419617	0.000000
860.452942	0.000000
860.486267	0.000000
860.519653	0.000000
860.553040	0.000000
860.586365	0.000000
860.619690	0.000000
860.653076	0.000000
860.686340	0.000000
860.719727	0.000000
860.753113	0.000000
860.786377	0.000000
860.819763	0.000000
860.853027	0.000000
860.886414	0.000000
860.919739	0.000000
860.953125	0.000000
860.986389	0.000000
861.019714	0.000000
861.053040	0.000000
861.086365	0.000000
861.119690	0.000000
861.153076	0.000000
861.186340	0.000000
861.219666	0.000000
861.252930	0.000000
861.286316	0.000000
861.319641	0.000000
861.352905	0.000000
861.386230	0.000000
861.419495	0.000000
861.452820	0.000000
861.486145	0.000000
861.519470	0.000000
861.552734	0.000000
861.586060	0.000000
861.619324	0.000000
861.652649	0.000000
861.685974	0.000000
861.719238	0.000000
861.752563	0.000000
861.785828	0.000000
861.819092	0.000000
861.852417	0.000000
861.885742	0.000000
861.918945	0.000000
861.952271	0.000000
861.985535	0.000000
862.018799	0.000000
862.052124	0.000000
862.085449	0.000000
862.118652	0.000000
862.151978	0.000000
862.185181	0.000000
862.218506	0.000000
862.251770	0.000000
862.285034	0.000000
862.318298	0.000000
862.351562	0.000000
862.384827	0.000000
862.418091	0.000000
862.451355	0.000000
862.484619	0.000000
862.517883	0.000000
862.551086	0.000000
862.584351	0.000000
862.617676	0.000000
862.650940	0.000000
862.684143	0.000000
862.717407	0.000000
862.750610	0.000000
862.783875	0.000000
862.817139	0.000000
862.850342	0.000000
862.883606	0.000000
862.916870	0.000000
862.950073	0.000000
862.983337	0.000000
863.016602	0.000000
863.049805	0.000000
863.083069	0.000000
863.116211	0.000000
863.149475	0.000000
863.182739	0.000000
863.216003	0.000000
863.249146	0.000000
863.282410	0.000000
863.315613	0.000000
863.348816	0.000000
863.382080	0.000000
863.415222	0.000000
863.448486	0.000000
863.481689	0.000000
863.514893	0.000000
863.548157	0.000000
863.581360	0.000000
863.614502	0.000000
863.647766	0.000000
863.680908	0.000000
863.714172	0.000000
863.747375	0.000000
863.780579	0.000000
863.813721	0.000000
863.846985	0.000000
863.880127	0.000000
863.913330	0.000000
863.946533	0.000000
863.979675	0.000000
864.012939	0.000000
