Model Number: SPM-001-M   
Serial Number: 10090201
Firmware Version: 004.17.6
Exposure Time: 500000.000000us
Data Taken on: 10-03-2021 11:28:09.978
Wavelength	Amplitude
733.770752	0.000000
733.808716	0.000000
733.846619	0.000000
733.884583	0.000000
733.922546	0.000000
733.960449	0.000000
733.998413	0.000000
734.036377	0.000000
734.074219	0.000000
734.112183	0.000000
734.150085	0.000000
734.188049	0.000000
734.226013	0.000000
734.263916	0.000000
734.301819	0.000000
734.339783	0.000000
734.377686	0.000000
734.415588	0.000000
734.453552	0.000000
734.491455	0.000000
734.529419	0.000000
734.567322	0.000000
734.605225	0.000000
734.643127	0.000000
734.681091	0.000000
734.718994	0.000000
734.756897	0.000000
734.794800	0.000000
734.832703	0.000000
734.870667	0.000000
734.908508	0.000000
734.946472	0.000000
734.984375	0.000000
735.022278	0.000000
735.060181	0.000000
735.098083	0.000000
735.135986	0.000000
735.173889	0.000000
735.211792	0.000000
735.249695	0.000000
735.287598	0.000000
735.325439	0.000000
735.363403	0.000000
735.401306	0.000000
735.439148	0.000000
735.477051	0.000000
735.515015	0.000000
735.552856	0.000000
735.590759	0.000000
735.628662	0.000000
735.666504	0.000000
735.704407	0.000000
735.742310	0.000000
735.780212	0.000000
735.818115	0.000000
735.856018	0.000000
735.893860	0.000000
735.931763	0.000000
735.969604	0.000000
736.007507	0.000000
736.045410	0.000000
736.083252	0.000000
736.121094	0.000000
736.158997	0.000000
736.196838	0.000000
736.234741	0.000000
736.272644	0.000000
736.310486	0.000000
736.348389	0.000000
736.386230	0.000000
736.424072	0.000000
736.461975	0.000000
736.499878	0.000000
736.537720	0.000000
736.575562	0.000000
736.613403	0.000000
736.651306	0.000000
736.689148	0.000000
736.726990	0.000000
736.764893	0.000000
736.802734	0.000000
736.840576	0.000000
736.878418	0.000000
736.916321	0.000000
736.954102	0.000000
736.992004	0.000000
737.029846	0.000000
737.067688	0.000000
737.105530	0.000000
737.143372	0.000000
737.181213	0.000000
737.219116	0.000000
737.256897	0.000000
737.294739	0.000000
737.332642	0.000000
737.370422	0.000000
737.408325	0.000000
737.446167	0.000000
737.483948	0.000000
737.521790	0.000000
737.559692	0.000000
737.597473	0.000000
737.635315	0.000000
737.673157	0.000000
737.710999	0.000000
737.748840	0.000000
737.786621	0.000000
737.824463	0.000000
737.862305	0.000000
737.900085	0.000000
737.937927	0.000000
737.975769	0.000000
738.013550	0.000000
738.051392	0.000000
738.089233	0.000000
738.127014	0.000000
738.164856	0.000000
738.202698	0.000000
738.240479	0.000000
738.278320	0.000000
738.316162	0.000000
738.353943	0.000000
738.391785	0.000000
738.429565	0.000000
738.467407	0.000000
738.505188	0.000000
738.542969	0.000000
738.580811	0.000000
738.618652	0.000000
738.656372	0.000000
738.694214	0.000000
738.732056	0.000000
738.769836	0.000000
738.807617	0.000000
738.845459	0.000000
738.883240	0.000000
738.921021	0.000000
738.958862	0.000000
738.996582	0.000000
739.034424	0.000000
739.072205	0.000000
739.109985	0.000000
739.147827	0.000000
739.185547	0.000000
739.223389	0.000000
739.261169	0.000000
739.298889	0.000000
739.336731	0.000000
739.374512	0.000000
739.412292	0.000000
739.450073	0.000000
739.487854	0.000000
739.525635	0.000000
739.563416	0.000000
739.601135	0.000000
739.638977	0.000000
739.676758	0.000000
739.714478	0.000000
739.752258	0.000000
739.790100	0.000000
739.827820	0.000000
739.865601	0.000000
739.903381	0.000000
739.941101	0.000000
739.978882	196.000000
740.016724	191.700000
740.054443	197.400000
740.092224	190.300000
740.130005	188.700000
740.167725	190.300000
740.205505	188.900000
740.243225	200.600000
740.281006	193.800000
740.318787	186.300000
740.356506	197.500000
740.394287	198.700000
740.432068	188.900000
740.469727	188.200000
740.507507	196.900000
740.545288	192.700000
740.583008	196.800000
740.620789	195.000000
740.658569	185.200000
740.696228	193.700000
740.734009	197.700000
740.771790	181.700000
740.809509	197.000000
740.847229	189.400000
740.884949	189.800000
740.922729	186.000000
740.960449	192.500000
740.998169	187.800000
741.035950	189.100000
741.073669	194.900000
741.111389	193.000000
741.149170	203.900000
741.186890	203.800000
741.224609	197.600000
741.262329	195.100000
741.300110	202.400000
741.337769	188.500000
741.375549	187.400000
741.413208	194.900000
741.450989	188.200000
741.488708	190.900000
741.526367	191.700000
741.564148	196.800000
741.601868	197.000000
741.639526	192.800000
741.677307	195.600000
741.715027	194.800000
741.752686	188.900000
741.790466	200.600000
741.828186	196.800000
741.865845	188.300000
741.903564	183.400000
741.941345	193.200000
741.979004	188.500000
742.016724	195.800000
742.054382	194.500000
742.092102	199.200000
742.129822	186.000000
742.167480	192.400000
742.205200	191.000000
742.242920	193.300000
742.280640	196.500000
742.318359	189.200000
742.356079	190.100000
742.393738	197.600000
742.431396	192.600000
742.469116	195.800000
742.506775	182.600000
742.544495	196.400000
742.582214	196.900000
742.619873	191.800000
742.657593	199.900000
742.695251	197.700000
742.732971	191.300000
742.770630	194.800000
742.808289	192.400000
742.846008	193.600000
742.883728	195.200000
742.921326	193.400000
742.959045	189.700000
742.996765	194.600000
743.034424	191.900000
743.072083	190.200000
743.109802	194.800000
743.147400	187.100000
743.185120	194.000000
743.222839	193.500000
743.260437	198.400000
743.298157	193.900000
743.335754	184.500000
743.373474	191.000000
743.411133	184.500000
743.448792	193.300000
743.486450	192.700000
743.524170	187.000000
743.561768	193.300000
743.599487	199.500000
743.637146	203.900000
743.674744	191.100000
743.712463	190.700000
743.750122	193.600000
743.787720	196.800000
743.825439	188.800000
743.863037	191.600000
743.900696	192.500000
743.938416	217.400000
743.976013	191.800000
744.013672	202.700000
744.051331	197.800000
744.088928	202.700000
744.126587	198.600000
744.164307	194.300000
744.201904	189.900000
744.239563	197.100000
744.277222	195.700000
744.314819	193.600000
744.352478	200.400000
744.390137	195.200000
744.427734	194.800000
744.465393	190.400000
744.502991	188.800000
744.540649	197.300000
744.578308	194.400000
744.615906	186.900000
744.653564	182.000000
744.691223	196.200000
744.728821	184.300000
744.766418	193.500000
744.804077	195.800000
744.841675	190.800000
744.879333	186.700000
744.916992	191.500000
744.954529	189.400000
744.992187	199.800000
745.029785	191.700000
745.067444	189.100000
745.105042	193.800000
745.142639	196.000000
745.180298	201.600000
745.217896	191.300000
745.255493	191.600000
745.293152	195.700000
745.330750	196.700000
745.368347	201.200000
745.405945	195.500000
745.443604	192.800000
745.481140	197.700000
745.518799	191.600000
745.556396	197.800000
745.593994	197.700000
745.631592	192.100000
745.669189	186.900000
745.706787	195.300000
745.744385	188.200000
745.781982	196.300000
745.819580	188.900000
745.857178	192.300000
745.894775	192.800000
745.932373	193.700000
745.969971	193.600000
746.007568	184.000000
746.045166	202.000000
746.082764	198.300000
746.120300	196.800000
746.157898	197.600000
746.195557	192.800000
746.233093	186.500000
746.270691	196.700000
746.308228	195.000000
746.345825	198.900000
746.383423	197.100000
746.420959	188.400000
746.458557	192.300000
746.496155	191.400000
746.533691	193.000000
746.571289	187.900000
746.608887	193.000000
746.646423	194.800000
746.684021	194.900000
746.721619	190.900000
746.759155	195.400000
746.796753	184.900000
746.834351	185.500000
746.871826	189.300000
746.909424	200.000000
746.946960	194.800000
746.984558	192.300000
747.022156	190.900000
747.059631	199.200000
747.097229	196.100000
747.134827	192.600000
747.172363	201.500000
747.209900	194.500000
747.247498	189.500000
747.285034	199.600000
747.322571	200.500000
747.360168	192.600000
747.397644	185.600000
747.435242	196.400000
747.472778	200.200000
747.510315	189.900000
747.547913	191.600000
747.585388	200.300000
747.622925	191.800000
747.660522	183.900000
747.697998	191.700000
747.735596	194.200000
747.773132	191.800000
747.810669	192.300000
747.848206	196.900000
747.885742	188.500000
747.923279	188.900000
747.960815	194.900000
747.998352	194.900000
748.035889	198.700000
748.073425	199.200000
748.110901	189.700000
748.148437	190.300000
748.185974	193.600000
748.223511	204.100000
748.261047	195.800000
748.298584	195.600000
748.336060	192.000000
748.373596	196.100000
748.411133	210.700000
748.448608	190.000000
748.486145	195.900000
748.523682	201.100000
748.561218	198.500000
748.598755	193.500000
748.636292	195.800000
748.673706	191.400000
748.711243	200.000000
748.748718	196.100000
748.786255	193.100000
748.823792	192.900000
748.861267	188.500000
748.898804	196.100000
748.936340	196.400000
748.973816	191.800000
749.011292	198.600000
749.048828	194.000000
749.086304	196.100000
749.123840	205.600000
749.161316	189.600000
749.198792	202.800000
749.236328	199.900000
749.273743	193.500000
749.311279	191.900000
749.348816	195.900000
749.386230	195.100000
749.423767	180.900000
749.461304	197.400000
749.498718	194.200000
749.536255	201.000000
749.573730	206.400000
749.611206	199.600000
749.648682	194.000000
749.686218	193.400000
749.723633	196.700000
749.761169	192.400000
749.798645	189.100000
749.836060	194.300000
749.873596	189.500000
749.911011	194.300000
749.948547	200.700000
749.986023	193.200000
750.023437	192.200000
750.060913	186.200000
750.098450	187.800000
750.135864	193.800000
750.173340	193.800000
750.210815	198.800000
750.248291	188.300000
750.285767	193.000000
750.323242	202.000000
750.360657	196.000000
750.398132	188.700000
750.435608	197.600000
750.473022	187.800000
750.510498	187.600000
750.547974	188.200000
750.585449	190.300000
750.622925	182.400000
750.660339	201.400000
750.697815	194.200000
750.735291	192.600000
750.772644	193.800000
750.810120	193.800000
750.847595	195.900000
750.885010	187.400000
750.922485	203.300000
750.959961	191.600000
750.997375	201.500000
751.034851	197.000000
751.072266	199.700000
751.109680	187.000000
751.147156	200.300000
751.184570	197.800000
751.221985	195.300000
751.259460	184.700000
751.296875	194.800000
751.334290	193.900000
751.371765	200.100000
751.409180	196.700000
751.446594	200.000000
751.484070	196.300000
751.521423	194.700000
751.558899	195.300000
751.596375	201.600000
751.633728	201.800000
751.671204	208.100000
751.708618	189.000000
751.746033	195.400000
751.783447	188.400000
751.820801	191.300000
751.858276	195.400000
751.895691	193.100000
751.933105	191.300000
751.970520	188.300000
752.007935	191.600000
752.045349	198.200000
752.082764	193.800000
752.120178	191.200000
752.157532	188.300000
752.195007	191.000000
752.232422	196.100000
752.269775	199.000000
752.307190	195.900000
752.344543	189.100000
752.382019	192.500000
752.419434	191.800000
752.456787	195.200000
752.494202	197.800000
752.531616	196.100000
752.568970	197.600000
752.606384	194.200000
752.643799	195.700000
752.681152	203.900000
752.718567	198.000000
752.755981	186.400000
752.793335	196.100000
752.830750	184.800000
752.868164	199.900000
752.905518	189.100000
752.942932	197.100000
752.980225	188.800000
753.017639	198.200000
753.055054	192.600000
753.092407	196.100000
753.129822	199.900000
753.167175	203.000000
753.204529	193.900000
753.241943	190.700000
753.279358	188.200000
753.316650	198.000000
753.354065	196.000000
753.391479	197.800000
753.428772	203.200000
753.466187	197.800000
753.503479	188.000000
753.540894	192.400000
753.578308	188.300000
753.615601	187.300000
753.653015	194.600000
753.690369	191.200000
753.727722	190.600000
753.765076	186.400000
753.802490	188.600000
753.839783	185.500000
753.877136	192.100000
753.914551	209.500000
753.951843	188.900000
753.989258	197.700000
754.026611	194.400000
754.063904	194.600000
754.101257	188.100000
754.138611	185.800000
754.175964	194.700000
754.213318	206.000000
754.250610	187.400000
754.288025	192.300000
754.325378	188.000000
754.362671	200.500000
754.400024	191.900000
754.437378	203.000000
754.474670	204.700000
754.512085	189.800000
754.549438	194.700000
754.586731	190.900000
754.624084	193.500000
754.661438	189.400000
754.698730	202.900000
754.736084	192.300000
754.773376	193.900000
754.810730	196.800000
754.848083	191.700000
754.885315	199.600000
754.922668	186.900000
754.960022	188.900000
754.997314	197.900000
755.034668	194.800000
755.072021	195.800000
755.109253	194.100000
755.146606	202.700000
755.183960	193.400000
755.221252	204.900000
755.258545	201.300000
755.295898	201.100000
755.333191	204.500000
755.370544	199.900000
755.407776	196.100000
755.445129	196.800000
755.482422	201.500000
755.519714	193.400000
755.557068	189.300000
755.594360	187.400000
755.631653	200.500000
755.668945	205.800000
755.706299	200.500000
755.743530	207.100000
755.780884	205.300000
755.818176	205.100000
755.855408	204.200000
755.892761	197.900000
755.930054	199.300000
755.967346	200.600000
756.004639	202.700000
756.041870	199.500000
756.079224	204.900000
756.116516	196.700000
756.153748	202.700000
756.191040	207.900000
756.228394	202.100000
756.265625	195.500000
756.302917	200.300000
756.340210	195.800000
756.377441	205.500000
756.414795	209.100000
756.452087	200.600000
756.489319	193.200000
756.526611	201.800000
756.563843	203.000000
756.601135	212.300000
756.638428	209.100000
756.675659	200.800000
756.712952	206.000000
756.750244	206.300000
756.787476	202.500000
756.824768	210.100000
756.862061	201.300000
756.899292	247.500000
756.936584	208.700000
756.973816	213.800000
757.011047	216.000000
757.048340	204.200000
757.085632	204.600000
757.122864	219.700000
757.160156	202.800000
757.197327	206.600000
757.234619	209.700000
757.271912	205.000000
757.309082	209.400000
757.346375	201.600000
757.383667	211.900000
757.420837	206.300000
757.458130	207.500000
757.495422	206.300000
757.532593	208.300000
757.569885	198.100000
757.607117	201.600000
757.644348	207.200000
757.681580	219.300000
757.718811	193.800000
757.756042	205.700000
757.793335	203.900000
757.830505	209.800000
757.867798	203.700000
757.905029	203.100000
757.942200	210.600000
757.979492	204.600000
758.016724	207.200000
758.053894	205.500000
758.091187	226.500000
758.128418	209.800000
758.165588	207.900000
758.202820	221.600000
758.240112	210.900000
758.277283	219.800000
758.314514	211.200000
758.351685	206.400000
758.388916	219.000000
758.426147	217.700000
758.463379	220.900000
758.500610	214.500000
758.537842	211.200000
758.575012	219.000000
758.612244	207.900000
758.649475	224.800000
758.686646	205.900000
758.723877	220.000000
758.761108	221.300000
758.798279	210.700000
758.835510	215.100000
758.872742	219.200000
758.909851	215.000000
758.947083	215.700000
758.984253	216.000000
759.021484	220.300000
759.058716	217.900000
759.095886	218.800000
759.133057	213.600000
759.170288	218.200000
759.207458	211.600000
759.244690	226.100000
759.281860	225.900000
759.319031	215.300000
759.356262	213.800000
759.393433	216.300000
759.430603	214.200000
759.467773	214.000000
759.505005	223.100000
759.542175	220.400000
759.579346	214.900000
759.616516	217.500000
759.653687	219.700000
759.690918	213.400000
759.728027	218.100000
759.765259	218.400000
759.802429	220.400000
759.839539	220.100000
759.876770	223.600000
759.913940	228.800000
759.951111	219.600000
759.988281	219.200000
760.025452	215.900000
760.062561	216.500000
760.099792	228.000000
760.136963	222.900000
760.174072	217.600000
760.211243	214.200000
760.248413	215.100000
760.285583	215.800000
760.322754	231.100000
760.359863	225.200000
760.397034	227.200000
760.434204	219.800000
760.471375	220.700000
760.508545	219.800000
760.545715	221.700000
760.582825	217.000000
760.619995	226.500000
760.657166	217.200000
760.694275	228.700000
760.731445	224.600000
760.768555	225.100000
760.805664	225.000000
760.842834	225.900000
760.879944	227.700000
760.917114	226.600000
760.954285	223.200000
760.991394	216.700000
761.028564	230.100000
761.065674	229.600000
761.102783	222.100000
761.139954	231.200000
761.177124	232.100000
761.214172	234.300000
761.251343	226.300000
761.288452	228.900000
761.325562	232.500000
761.362732	226.800000
761.399841	228.400000
761.436951	232.100000
761.474121	226.700000
761.511169	233.100000
761.548340	235.400000
761.585449	235.300000
761.622559	235.600000
761.659668	234.000000
761.696838	239.300000
761.733887	238.300000
761.771057	233.500000
761.808167	235.800000
761.845276	242.100000
761.882385	249.900000
761.919434	237.900000
761.956604	258.800000
761.993713	234.800000
762.030762	247.000000
762.067871	240.000000
762.105042	238.200000
762.142090	248.000000
762.179199	242.600000
762.216309	247.200000
762.253418	259.000000
762.290527	252.500000
762.327637	249.600000
762.364685	239.300000
762.401794	249.100000
762.438904	246.000000
762.475952	241.200000
762.513062	239.100000
762.550110	242.900000
762.587219	257.300000
762.624329	256.500000
762.661377	251.100000
762.698486	248.400000
762.735596	250.700000
762.772644	243.500000
762.809753	241.000000
762.846863	249.200000
762.883911	254.300000
762.921021	254.800000
762.958069	252.300000
762.995117	260.800000
763.032227	259.600000
763.069336	253.800000
763.106323	249.100000
763.143433	246.000000
763.180481	255.500000
763.217590	256.200000
763.254639	253.800000
763.291687	253.300000
763.328735	263.400000
763.365845	254.900000
763.402893	256.900000
763.439941	258.500000
763.477051	263.500000
763.514038	262.400000
763.551147	255.600000
763.588196	258.800000
763.625244	259.600000
763.662292	267.000000
763.699402	269.900000
763.736389	265.900000
763.773499	274.600000
763.810486	268.500000
763.847534	265.400000
763.884644	267.400000
763.921631	262.900000
763.958679	276.500000
763.995728	268.000000
764.032776	275.200000
764.069824	261.300000
764.106873	272.300000
764.143860	277.500000
764.180969	267.800000
764.218018	279.200000
764.255005	269.800000
764.292053	271.800000
764.329102	283.300000
764.366089	283.800000
764.403137	281.900000
764.440125	271.200000
764.477173	274.300000
764.514221	277.500000
764.551208	274.700000
764.588257	270.800000
764.625305	283.500000
764.662292	288.000000
764.699341	293.800000
764.736389	284.100000
764.773376	300.000000
764.810425	285.500000
764.847473	295.400000
764.884399	289.300000
764.921448	297.400000
764.958435	294.800000
764.995483	282.900000
765.032532	301.300000
765.069458	285.100000
765.106506	289.200000
765.143555	286.600000
765.180481	291.400000
765.217529	300.600000
765.254578	285.000000
765.291504	296.400000
765.328552	291.300000
765.365540	288.300000
765.402527	303.400000
765.439575	289.300000
765.476501	284.100000
765.513550	286.400000
765.550537	292.100000
765.587463	299.800000
765.624512	292.000000
765.661499	283.500000
765.698486	300.400000
765.735474	292.500000
765.772461	294.800000
765.809448	304.400000
765.846436	299.600000
765.883423	303.200000
765.920410	298.600000
765.957397	295.300000
765.994385	298.900000
766.031311	308.700000
766.068359	304.400000
766.105286	304.200000
766.142273	309.800000
766.179260	304.400000
766.216187	298.600000
766.253174	297.200000
766.290161	304.100000
766.327148	309.500000
766.364136	309.900000
766.401123	325.800000
766.438049	303.200000
766.475037	319.900000
766.512024	315.000000
766.548950	329.400000
766.585937	324.200000
766.622864	319.200000
766.659790	319.300000
766.696777	309.000000
766.733704	327.200000
766.770691	315.300000
766.807678	333.400000
766.844604	325.800000
766.881531	327.100000
766.918518	332.900000
766.955444	336.100000
766.992432	330.200000
767.029358	333.900000
767.066284	336.700000
767.103271	332.800000
767.140198	361.600000
767.177124	350.700000
767.214050	341.800000
767.251038	343.500000
767.287964	340.400000
767.324890	338.400000
767.361816	344.400000
767.398743	352.400000
767.435730	343.200000
767.472595	351.900000
767.509583	355.000000
767.546509	344.100000
767.583374	352.500000
767.620361	348.000000
767.657288	351.900000
767.694214	352.300000
767.731140	351.400000
767.768066	352.400000
767.804993	360.900000
767.841919	348.600000
767.878845	358.200000
767.915710	365.600000
767.952698	358.200000
767.989563	362.900000
768.026489	366.600000
768.063416	359.900000
768.100281	358.100000
768.137207	373.800000
768.174133	370.700000
768.211060	371.800000
768.247986	369.900000
768.284912	369.700000
768.321777	372.500000
768.358704	368.300000
768.395630	376.800000
768.432495	367.900000
768.469421	378.600000
768.506348	384.500000
768.543152	390.900000
768.580078	386.200000
768.616943	387.600000
768.653870	389.900000
768.690796	390.200000
768.727661	387.600000
768.764587	389.700000
768.801453	385.400000
768.838318	398.100000
768.875244	393.800000
768.912109	399.000000
768.948975	392.400000
768.985901	398.000000
769.022766	395.500000
769.059631	401.400000
769.096558	398.600000
769.133362	401.300000
769.170288	400.600000
769.207214	404.500000
769.244019	409.800000
769.280945	406.900000
769.317810	415.500000
769.354675	410.600000
769.391541	420.300000
769.428406	416.900000
769.465271	428.200000
769.502136	414.500000
769.539062	420.100000
769.575867	416.500000
769.612732	422.000000
769.649597	425.700000
769.686462	430.500000
769.723328	424.100000
769.760193	422.500000
769.797058	426.500000
769.833923	440.300000
769.870728	430.200000
769.907593	437.700000
769.944519	436.000000
769.981323	441.600000
770.018188	441.800000
770.055054	436.600000
770.091858	436.800000
770.128723	450.100000
770.165588	454.500000
770.202393	440.400000
770.239258	454.300000
770.276062	451.000000
770.312927	449.700000
770.349792	457.900000
770.386597	454.400000
770.423462	463.700000
770.460327	470.100000
770.497131	454.900000
770.533997	447.600000
770.570862	466.600000
770.607605	466.200000
770.644470	460.400000
770.681335	464.000000
770.718140	463.700000
770.754944	454.300000
770.791809	455.500000
770.828613	458.800000
770.865479	457.300000
770.902222	469.000000
770.939087	463.400000
770.975952	456.300000
771.012695	461.400000
771.049561	477.800000
771.086365	462.800000
771.123169	461.100000
771.159973	464.100000
771.196838	464.600000
771.233582	468.700000
771.270447	469.800000
771.307251	470.400000
771.344055	469.500000
771.380859	472.600000
771.417664	468.100000
771.454468	473.700000
771.491272	475.400000
771.528076	475.800000
771.564880	475.800000
771.601685	489.300000
771.638428	477.600000
771.675293	485.600000
771.712097	473.900000
771.748840	493.700000
771.785645	484.100000
771.822449	488.600000
771.859253	493.000000
771.896057	488.600000
771.932861	504.300000
771.969604	491.000000
772.006409	487.700000
772.043213	503.200000
772.079956	499.900000
772.116760	488.900000
772.153503	496.700000
772.190308	506.300000
772.227112	496.800000
772.263855	495.200000
772.300659	501.400000
772.337463	511.000000
772.374207	498.500000
772.411011	495.300000
772.447754	504.800000
772.484497	523.600000
772.521301	516.800000
772.558105	515.400000
772.594849	518.500000
772.631592	522.100000
772.668396	523.700000
772.705139	530.500000
772.741882	528.300000
772.778625	541.400000
772.815430	544.900000
772.852173	540.100000
772.888916	551.700000
772.925720	551.300000
772.962463	559.700000
772.999207	554.800000
773.035950	560.100000
773.072754	558.100000
773.109436	554.900000
773.146240	558.900000
773.182922	558.300000
773.219727	568.100000
773.256470	564.700000
773.293152	549.200000
773.329956	558.000000
773.366699	565.200000
773.403381	556.200000
773.440186	568.700000
773.476929	573.600000
773.513611	564.600000
773.550354	567.500000
773.587158	567.500000
773.623840	567.900000
773.660583	579.900000
773.697327	592.200000
773.734009	578.200000
773.770813	577.700000
773.807495	580.100000
773.844238	583.300000
773.880981	604.600000
773.917664	597.700000
773.954407	603.300000
773.991150	593.000000
774.027832	599.500000
774.064575	590.900000
774.101318	604.800000
774.138000	614.100000
774.174744	608.600000
774.211487	607.400000
774.248108	600.700000
774.284851	600.200000
774.321594	614.700000
774.358276	620.800000
774.395020	628.700000
774.431702	623.700000
774.468384	617.900000
774.505127	617.500000
774.541809	631.800000
774.578491	646.000000
774.615234	646.800000
774.651917	635.100000
774.688599	640.400000
774.725342	649.400000
774.762024	647.200000
774.798706	652.900000
774.835449	655.900000
774.872070	661.000000
774.908813	655.600000
774.945496	653.300000
774.982178	656.800000
775.018860	664.400000
775.055542	671.000000
775.092224	667.100000
775.128967	674.100000
775.165588	672.600000
775.202271	662.000000
775.239014	680.200000
775.275635	683.100000
775.312317	680.600000
775.349060	681.800000
775.385681	682.800000
775.422363	671.900000
775.459045	683.900000
775.495667	689.200000
775.532410	695.100000
775.569092	694.800000
775.605713	693.300000
775.642395	692.000000
775.679016	696.100000
775.715698	702.200000
775.752380	706.500000
775.789001	699.600000
775.825684	697.500000
775.862366	698.600000
775.898987	710.200000
775.935669	699.700000
775.972351	724.600000
776.008972	722.800000
776.045654	716.700000
776.082336	711.400000
776.118958	710.800000
776.155640	720.300000
776.192322	728.700000
776.228882	737.200000
776.265564	728.400000
776.302185	722.800000
776.338867	729.500000
776.375488	713.800000
776.412109	731.600000
776.448792	743.400000
776.485413	743.900000
776.522034	732.500000
776.558716	726.200000
776.595337	725.500000
776.631958	732.900000
776.668579	734.100000
776.705261	740.400000
776.741882	733.400000
776.778503	727.900000
776.815186	723.700000
776.851746	735.100000
776.888367	737.700000
776.924988	744.100000
776.961609	735.800000
776.998291	738.000000
777.034851	724.500000
777.071472	739.000000
777.108154	740.600000
777.144714	751.900000
777.181335	748.700000
777.218018	740.800000
777.254578	751.200000
777.291199	747.100000
777.327759	756.400000
777.364380	766.500000
777.401062	772.200000
777.437622	782.600000
777.474243	768.100000
777.510864	773.800000
777.547424	772.600000
777.584045	779.500000
777.620667	780.900000
777.657227	790.200000
777.693848	787.900000
777.730469	802.800000
777.767029	795.600000
777.803650	801.100000
777.840271	794.800000
777.876831	793.100000
777.913452	800.300000
777.950012	776.900000
777.986633	779.000000
778.023193	780.300000
778.059753	779.700000
778.096375	783.200000
778.132996	797.500000
778.169556	783.800000
778.206116	785.700000
778.242737	781.000000
778.279297	797.400000
778.315857	788.900000
778.352478	796.100000
778.389038	810.700000
778.425598	812.500000
778.462219	824.900000
778.498718	822.800000
778.535339	836.700000
778.571838	828.600000
778.608459	839.600000
778.645020	834.000000
778.681580	846.900000
778.718140	849.700000
778.754761	844.200000
778.791260	849.400000
778.827881	863.000000
778.864441	859.800000
778.900940	861.300000
778.937561	859.500000
778.974121	863.300000
779.010620	846.200000
779.047241	856.000000
779.083801	871.400000
779.120300	869.300000
779.156860	875.900000
779.193359	869.600000
779.229980	868.500000
779.266541	878.500000
779.303040	887.700000
779.339600	878.100000
779.376160	873.800000
779.412659	884.300000
779.449219	875.100000
779.485779	887.800000
779.522278	886.500000
779.558838	894.600000
779.595398	895.900000
779.631897	897.300000
779.668457	886.000000
779.705017	893.200000
779.741516	884.300000
779.778076	882.200000
779.814575	892.800000
779.851074	904.600000
779.887634	896.600000
779.924133	905.000000
779.960693	893.200000
779.997253	903.500000
780.033691	906.400000
780.070251	911.300000
780.106812	922.200000
780.143250	921.500000
780.179810	915.100000
780.216370	924.800000
780.252808	939.000000
780.289368	947.500000
780.325867	953.200000
780.362366	947.000000
780.398865	958.400000
780.435364	950.600000
780.471863	969.700000
780.508423	968.300000
780.544861	974.300000
780.581421	980.700000
780.617920	968.500000
780.654419	966.800000
780.690918	977.200000
780.727417	985.200000
780.763916	981.100000
780.800415	986.600000
780.836914	969.700000
780.873352	977.600000
780.909912	966.100000
780.946411	979.400000
780.982849	992.100000
781.019348	1006.700000
781.055786	1000.000000
781.092346	995.700000
781.128845	1002.500000
781.165283	1014.000000
781.201782	1018.100000
781.238281	1024.100000
781.274719	1032.200000
781.311218	1019.100000
781.347717	1032.500000
781.384155	1016.500000
781.420654	1018.600000
781.457092	1036.200000
781.493591	1030.700000
781.530090	1020.200000
781.566528	1021.900000
781.602966	1027.900000
781.639465	1023.900000
781.675903	1023.000000
781.712402	1036.000000
781.748901	1045.800000
781.785278	1032.500000
781.821777	1037.900000
781.858276	1032.700000
781.894714	1049.000000
781.931152	1041.500000
781.967651	1048.600000
782.004089	1037.500000
782.040527	1045.400000
782.076965	1050.200000
782.113403	1054.300000
782.149902	1053.200000
782.186340	1049.000000
782.222778	1065.700000
782.259277	1049.800000
782.295654	1046.600000
782.332092	1052.600000
782.368591	1045.500000
782.404968	1043.800000
782.441467	1051.800000
782.477905	1052.600000
782.514282	1042.200000
782.550781	1064.900000
782.587219	1063.800000
782.623596	1065.500000
782.660095	1068.200000
782.696472	1075.500000
782.732910	1069.300000
782.769348	1080.600000
782.805786	1094.200000
782.842224	1091.600000
782.878662	1086.600000
782.915039	1087.200000
782.951477	1084.700000
782.987915	1077.900000
783.024292	1090.900000
783.060730	1090.500000
783.097168	1077.800000
783.133545	1069.900000
783.169983	1061.700000
783.206421	1063.300000
783.242798	1055.800000
783.279236	1042.900000
783.315613	1042.000000
783.352051	1033.300000
783.388489	1024.200000
783.424866	1003.500000
783.461304	1015.300000
783.497681	1022.600000
783.534058	1018.600000
783.570496	1006.100000
783.606934	1001.200000
783.643250	1014.500000
783.679687	1029.500000
783.716125	1020.400000
783.752441	1036.500000
783.788879	1050.100000
783.825317	1055.000000
783.861633	1060.000000
783.898071	1067.200000
783.934448	1088.200000
783.970825	1104.000000
784.007263	1100.300000
784.043579	1101.000000
784.080017	1097.600000
784.116394	1068.900000
784.152710	1015.100000
784.189148	917.700000
784.225525	758.500000
784.261902	578.200000
784.298279	444.000000
784.334656	358.800000
784.371033	316.400000
784.407410	311.300000
784.443787	314.300000
784.480164	346.000000
784.516541	408.500000
784.552856	529.300000
784.589233	670.800000
784.625610	802.400000
784.661987	945.600000
784.698364	1000.400000
784.734741	1022.800000
784.771057	1040.400000
784.807434	1054.800000
784.843811	1080.700000
784.880127	1082.100000
784.916504	1116.000000
784.952881	1117.200000
784.989197	1112.400000
785.025574	1113.000000
785.061951	1126.400000
785.098267	1156.700000
785.134644	1149.800000
785.170959	1151.700000
785.207275	1160.100000
785.243652	1159.800000
785.279968	1141.300000
785.316345	1157.000000
785.352722	1154.200000
785.388977	1163.300000
785.425354	1146.400000
785.461731	1123.500000
785.498047	1112.600000
785.534363	1107.200000
785.570679	1107.300000
785.606995	1115.600000
785.643372	1113.200000
785.679687	1103.700000
785.716003	1085.600000
785.752380	1083.000000
785.788635	1084.000000
785.825012	1109.400000
785.861328	1123.700000
785.897644	1110.800000
785.933960	1125.400000
785.970337	1127.500000
786.006592	1149.800000
786.042908	1166.800000
786.079285	1184.900000
786.115540	1198.300000
786.151855	1193.000000
786.188171	1187.800000
786.224487	1184.700000
786.260803	1185.600000
786.297119	1206.100000
786.333435	1204.100000
786.369751	1192.100000
786.406006	1202.200000
786.442322	1179.600000
786.478638	1167.100000
786.514954	1190.400000
786.551270	1189.000000
786.587585	1202.100000
786.623840	1188.700000
786.660156	1171.300000
786.696472	1155.800000
786.732727	1153.100000
786.769043	1162.300000
786.805298	1152.700000
786.841614	1155.400000
786.877930	1159.000000
786.914124	1142.100000
786.950439	1156.000000
786.986755	1162.800000
787.023010	1182.100000
787.059326	1190.900000
787.095642	1190.900000
787.131836	1207.700000
787.168152	1195.600000
787.204468	1203.400000
787.240723	1228.500000
787.276978	1245.400000
787.313293	1246.800000
787.349548	1243.200000
787.385803	1245.000000
787.422058	1237.500000
787.458313	1239.500000
787.494629	1242.500000
787.530823	1242.300000
787.567139	1226.400000
787.603455	1216.000000
787.639648	1198.200000
787.675903	1197.200000
787.712219	1197.400000
787.748413	1203.800000
787.784729	1208.000000
787.820984	1195.900000
787.857178	1179.900000
787.893494	1176.100000
787.929749	1166.300000
787.965942	1178.300000
788.002258	1191.600000
788.038452	1199.800000
788.074707	1186.700000
788.110962	1185.400000
788.147217	1182.500000
788.183472	1192.300000
788.219727	1211.100000
788.255920	1228.500000
788.292175	1236.200000
788.328430	1226.600000
788.364624	1206.900000
788.400879	1200.500000
788.437134	1208.300000
788.473328	1213.400000
788.509583	1209.700000
788.545837	1199.100000
788.582031	1189.500000
788.618286	1176.600000
788.654480	1173.900000
788.690735	1187.700000
788.726990	1208.500000
788.763184	1201.700000
788.799377	1216.300000
788.835632	1205.100000
788.871826	1226.800000
788.908081	1224.200000
788.944336	1220.300000
788.980469	1242.000000
789.016724	1235.000000
789.052979	1229.000000
789.089111	1202.900000
789.125366	1210.200000
789.161621	1188.300000
789.197754	1203.800000
789.234009	1201.600000
789.270142	1181.000000
789.306396	1171.300000
789.342590	1158.900000
789.378784	1135.000000
789.414978	1134.800000
789.451233	1153.700000
789.487366	1155.700000
789.523621	1159.900000
789.559814	1147.800000
789.595947	1137.300000
789.632202	1146.800000
789.668335	1162.800000
789.704529	1183.500000
789.740784	1207.000000
789.776917	1203.000000
789.813110	1190.900000
789.849304	1205.800000
789.885498	1205.400000
789.921692	1221.100000
789.957886	1233.500000
789.994019	1239.400000
790.030212	1227.500000
790.066406	1220.600000
790.102539	1217.500000
790.138733	1231.400000
790.174927	1223.800000
790.211060	1239.200000
790.247253	1225.800000
790.283386	1202.400000
790.319580	1188.300000
790.355774	1172.200000
790.391907	1183.900000
790.428101	1207.800000
790.464294	1208.500000
790.500427	1211.200000
790.536621	1195.100000
790.572754	1176.100000
790.608887	1177.100000
790.645081	1192.200000
790.681274	1199.400000
790.717346	1200.400000
790.753540	1155.500000
790.789734	1073.100000
790.825867	1018.800000
790.862000	1025.300000
790.898132	1074.200000
790.934265	1145.700000
790.970459	1205.200000
791.006592	1220.500000
791.042725	1225.500000
791.078918	1213.000000
791.114990	1217.100000
791.151184	1236.900000
791.187317	1266.500000
791.223389	1249.100000
791.259583	1234.600000
791.295715	1238.600000
791.331848	1250.800000
791.367981	1268.100000
791.404114	1269.000000
791.440247	1266.500000
791.476379	1265.600000
791.512451	1242.000000
791.548584	1241.500000
791.584778	1240.700000
791.620850	1264.200000
791.656982	1267.600000
791.693115	1260.000000
791.729187	1257.200000
791.765381	1241.200000
791.801514	1245.800000
791.837585	1243.200000
791.873718	1254.000000
791.909851	1274.800000
791.945923	1280.600000
791.982056	1239.600000
792.018188	1234.800000
792.054260	1236.800000
792.090393	1241.500000
792.126465	1238.000000
792.162598	1249.100000
792.198669	1228.300000
792.234741	1224.600000
792.270874	1217.400000
792.307007	1198.000000
792.343079	1214.000000
792.379150	1230.300000
792.415283	1209.500000
792.451355	1209.400000
792.487488	1183.300000
792.523560	1185.200000
792.559631	1189.600000
792.595764	1188.600000
792.631836	1188.900000
792.667908	1200.200000
792.703979	1176.400000
792.740051	1176.000000
792.776184	1183.400000
792.812256	1186.900000
792.848328	1194.600000
792.884399	1200.100000
792.920471	1196.800000
792.956543	1189.000000
792.992615	1183.000000
793.028748	1184.200000
793.064758	1191.100000
793.100830	1214.800000
793.136963	1231.600000
793.172974	1214.800000
793.209045	1207.000000
793.245178	1223.400000
793.281189	1201.300000
793.317261	1211.300000
793.353271	1210.700000
793.389404	1218.900000
793.425476	1214.600000
793.461487	1193.300000
793.497559	1191.100000
793.533630	1205.500000
793.569641	1205.600000
793.605713	1205.200000
793.641785	1206.900000
793.677795	1220.700000
793.713867	1198.600000
793.749878	1201.400000
793.785950	1213.800000
793.822021	1223.200000
793.858032	1205.600000
793.894104	1219.900000
793.930176	1203.700000
793.966187	1203.400000
794.002258	1194.600000
794.038269	1201.200000
794.074280	1199.100000
794.110352	1225.600000
794.146423	1193.200000
794.182373	1187.900000
794.218445	1182.400000
794.254517	1170.500000
794.290466	1156.800000
794.326538	1161.300000
794.362549	1160.100000
794.398560	1168.800000
794.434631	1168.000000
794.470581	1142.000000
794.506653	1130.900000
794.542664	1135.500000
794.578674	1135.100000
794.614685	1134.100000
794.650757	1124.000000
794.686707	1119.800000
794.722778	1109.100000
794.758789	1115.100000
794.794739	1123.900000
794.830811	1146.900000
794.866821	1167.600000
794.902771	1160.900000
794.938843	1144.800000
794.974792	1141.100000
795.010803	1142.700000
795.046814	1139.900000
795.082825	1129.800000
795.118835	1142.800000
795.154846	1121.200000
795.190796	1132.000000
795.226807	1107.200000
795.262817	1112.200000
795.298767	1114.000000
795.334778	1116.300000
795.370850	1101.300000
795.406799	1102.700000
795.442810	1077.400000
795.478821	1076.300000
795.514709	1085.000000
795.550720	1097.900000
795.586670	1081.700000
795.622681	1088.400000
795.658691	1079.500000
795.694641	1073.700000
795.730652	1063.100000
795.766663	1070.700000
795.802551	1071.900000
795.838562	1092.600000
795.874573	1075.700000
795.910522	1075.900000
795.946472	1056.100000
795.982483	1061.000000
796.018433	1069.600000
796.054382	1081.400000
796.090393	1067.600000
796.126282	1061.900000
796.162292	1044.300000
796.198242	1036.800000
796.234192	1041.800000
796.270203	1041.900000
796.306091	1045.700000
796.342041	1059.800000
796.378052	1046.200000
796.413940	1037.800000
796.449951	1041.600000
796.485901	1039.700000
796.521790	1041.900000
796.557800	1052.200000
796.593689	1055.100000
796.629639	1039.900000
796.665649	1036.800000
796.701599	1032.500000
796.737488	1032.300000
796.773437	1038.100000
796.809387	1038.700000
796.845337	1033.200000
796.881287	1023.500000
796.917175	1001.000000
796.953125	1007.200000
796.989075	1020.100000
797.024963	1026.200000
797.060913	1020.200000
797.096863	1018.200000
797.132751	1013.500000
797.168701	989.100000
797.204590	996.700000
797.240540	998.700000
797.276489	1005.900000
797.312439	1012.400000
797.348328	1007.900000
797.384277	990.700000
797.420166	985.000000
797.456055	991.300000
797.492004	987.200000
797.527893	997.300000
797.563843	999.900000
797.599731	981.000000
797.635620	967.600000
797.671570	976.100000
797.707520	976.800000
797.743347	978.800000
797.779297	985.000000
797.815125	980.000000
797.851074	969.000000
797.887024	962.300000
797.922913	958.500000
797.958801	970.800000
797.994690	969.600000
798.030579	973.700000
798.066467	970.600000
798.102356	956.300000
798.138245	952.500000
798.174133	948.900000
798.210083	955.900000
798.245911	956.300000
798.281799	966.100000
798.317749	956.000000
798.353577	944.100000
798.389465	944.000000
798.425293	940.900000
798.461243	937.800000
798.497131	942.500000
798.532959	943.900000
798.568848	943.000000
798.604736	931.800000
798.640564	919.500000
798.676453	916.200000
798.712402	926.900000
798.748230	935.900000
798.784119	928.500000
798.820007	929.000000
798.855835	919.800000
798.891724	916.500000
798.927551	912.000000
798.963379	923.400000
798.999268	924.000000
799.035095	913.500000
799.070984	908.200000
799.106873	893.200000
799.142700	907.500000
799.178528	895.700000
799.214417	896.800000
799.250244	912.900000
799.286133	903.700000
799.321960	900.100000
799.357788	892.500000
799.393677	895.300000
799.429504	889.100000
799.465332	893.000000
799.501221	902.000000
799.537048	896.800000
799.572876	886.700000
799.608704	889.300000
799.644531	893.600000
799.680359	895.500000
799.716248	901.200000
799.752014	901.000000
799.787903	892.400000
799.823730	889.100000
799.859558	879.000000
799.895386	881.700000
799.931213	886.400000
799.967041	875.100000
800.002869	870.200000
800.038696	879.800000
800.074463	858.100000
800.110352	861.100000
800.146179	854.100000
800.181946	864.000000
800.217773	862.500000
800.253540	861.100000
800.289429	853.300000
800.325256	846.200000
800.361023	841.200000
800.396851	842.500000
800.432678	845.200000
800.468445	845.500000
800.504272	837.700000
800.540100	816.000000
800.575867	818.600000
800.611694	824.500000
800.647461	815.600000
800.683289	818.700000
800.719116	821.700000
800.754883	814.000000
800.790649	798.700000
800.826477	790.800000
800.862244	813.800000
800.898071	796.300000
800.933838	790.900000
800.969604	790.300000
801.005432	789.900000
801.041199	790.300000
801.076965	783.300000
801.112793	768.800000
801.148560	764.400000
801.184326	763.900000
801.220154	767.800000
801.255859	756.500000
801.291687	756.900000
801.327454	748.000000
801.363281	747.400000
801.398987	746.700000
801.434814	747.700000
801.470520	757.100000
801.506287	741.500000
801.542114	731.600000
801.577820	737.800000
801.613647	737.100000
801.649414	729.500000
801.685120	729.700000
801.720886	737.700000
801.756714	724.700000
801.792419	717.900000
801.828186	713.900000
801.863892	722.100000
801.899719	710.800000
801.935486	710.100000
801.971252	715.300000
802.006958	710.600000
802.042725	703.900000
802.078430	706.400000
802.114197	698.300000
802.149963	712.800000
802.185669	699.200000
802.221436	698.000000
802.257202	697.400000
802.292908	694.100000
802.328674	701.400000
802.364441	701.000000
802.400146	693.700000
802.435913	689.200000
802.471558	683.000000
802.507324	680.500000
802.543091	673.500000
802.578796	682.500000
802.614502	685.700000
802.650269	690.800000
802.685974	673.800000
802.721741	676.800000
802.757446	681.900000
802.793152	673.400000
802.828918	685.700000
802.864624	676.100000
802.900330	673.400000
802.936035	670.100000
802.971802	668.300000
803.007446	664.100000
803.043213	657.700000
803.078857	662.000000
803.114624	648.200000
803.150330	655.300000
803.185974	645.200000
803.221741	646.300000
803.257446	652.500000
803.293152	653.300000
803.328857	642.200000
803.364563	635.400000
803.400208	632.100000
803.435974	641.500000
803.471680	630.700000
803.507324	627.300000
803.543030	638.500000
803.578735	636.400000
803.614441	623.300000
803.650146	632.900000
803.685791	619.500000
803.721497	619.200000
803.757202	611.900000
803.792847	620.400000
803.828552	610.700000
803.864258	612.500000
803.899902	610.200000
803.935608	592.600000
803.971313	601.100000
804.006958	600.400000
804.042664	597.600000
804.078308	605.900000
804.113953	593.900000
804.149658	600.000000
804.185364	592.400000
804.221008	602.100000
804.256714	589.100000
804.292297	589.200000
804.328003	585.500000
804.363708	577.700000
804.399292	577.200000
804.434998	578.000000
804.470703	569.300000
804.506287	583.800000
804.541992	576.800000
804.577637	577.800000
804.613281	565.600000
804.648926	563.300000
804.684570	569.600000
804.720215	565.000000
804.755920	564.000000
804.791565	557.700000
804.827209	564.300000
804.862854	555.800000
804.898437	550.900000
804.934143	553.300000
804.969788	551.800000
805.005371	553.400000
805.041077	554.500000
805.076721	555.000000
805.112305	542.700000
805.147949	541.400000
805.183655	540.900000
805.219238	541.400000
805.254883	542.900000
805.290466	551.000000
805.326111	538.800000
805.361755	529.500000
805.397400	534.200000
805.432983	541.500000
805.468628	540.300000
805.504211	542.500000
805.539856	536.500000
805.575500	543.700000
805.611084	532.700000
805.646729	518.300000
805.682373	524.800000
805.717957	539.500000
805.753601	538.600000
805.789246	520.100000
805.824768	532.100000
805.860413	531.800000
805.895996	520.300000
805.931641	520.000000
805.967224	526.600000
806.002869	518.300000
806.038452	526.900000
806.074036	525.000000
806.109619	513.200000
806.145264	510.200000
806.180847	511.300000
806.216431	506.000000
806.252014	511.400000
806.287659	511.200000
806.323181	524.000000
806.358826	515.900000
806.394409	493.200000
806.429993	496.800000
806.465576	512.300000
806.501160	494.200000
806.536743	489.600000
806.572327	496.900000
806.607910	491.900000
806.643494	491.800000
806.679077	490.200000
806.714661	491.600000
806.750244	490.300000
806.785828	481.800000
806.821350	484.100000
806.856934	490.700000
806.892517	483.200000
806.928101	477.200000
806.963684	478.100000
806.999268	487.800000
807.034790	466.800000
807.070374	473.600000
807.105896	469.900000
807.141479	465.000000
807.177063	474.300000
807.212585	462.900000
807.248169	461.600000
807.283752	470.900000
807.319275	462.300000
807.354858	464.700000
807.390381	456.600000
807.425903	461.200000
807.461487	455.200000
807.497070	448.300000
807.532593	449.100000
807.568115	449.700000
807.603699	444.100000
807.639221	439.700000
807.674744	443.400000
807.710266	451.000000
807.745850	453.400000
807.781372	442.000000
807.816895	438.600000
807.852417	441.700000
807.888000	438.100000
807.923523	435.800000
807.959045	441.200000
807.994629	429.700000
808.030090	427.600000
808.065613	434.600000
808.101135	434.700000
808.136658	432.200000
808.172241	427.200000
808.207764	426.400000
808.243225	422.100000
808.278809	417.400000
808.314270	426.400000
808.349792	412.500000
808.385315	413.500000
808.420837	418.800000
808.456360	423.100000
808.491882	418.900000
808.527344	416.000000
808.562866	426.300000
808.598389	416.600000
808.633850	409.100000
808.669434	405.800000
808.704895	416.000000
808.740417	417.200000
808.775940	408.800000
808.811462	404.200000
808.846924	396.600000
808.882385	396.300000
808.917847	393.700000
808.953369	398.000000
808.988892	389.300000
809.024353	399.400000
809.059875	396.700000
809.095398	394.100000
809.130798	388.100000
809.166321	386.600000
809.201843	384.700000
809.237305	387.900000
809.272766	393.300000
809.308228	381.700000
809.343750	381.400000
809.379211	381.700000
809.414734	381.700000
809.450134	390.800000
809.485657	370.600000
809.521118	380.700000
809.556580	378.300000
809.592102	375.400000
809.627502	371.900000
809.663025	371.100000
809.698486	366.500000
809.733887	362.700000
809.769409	365.900000
809.804871	355.000000
809.840271	359.700000
809.875793	365.000000
809.911194	365.000000
809.946655	358.100000
809.982178	353.300000
810.017639	358.800000
810.053040	355.200000
810.088501	350.200000
810.123901	350.200000
810.159424	347.700000
810.194885	343.400000
810.230286	348.700000
810.265747	342.400000
810.301208	340.000000
810.336609	344.900000
810.372070	335.900000
810.407532	340.000000
810.442932	339.700000
810.478394	347.600000
810.513794	339.700000
810.549255	337.900000
810.584717	336.800000
810.620117	332.300000
810.655518	339.800000
810.690979	338.000000
810.726379	336.700000
810.761841	326.500000
810.797302	328.000000
810.832642	326.500000
810.868103	339.000000
810.903564	326.900000
810.938904	333.700000
810.974365	320.300000
811.009827	326.600000
811.045166	322.000000
811.080627	314.100000
811.115967	321.700000
811.151428	328.000000
811.186829	321.100000
811.222229	319.600000
811.257629	313.100000
811.293091	317.400000
811.328430	325.800000
811.363892	319.100000
811.399292	324.700000
811.434631	313.100000
811.470093	319.600000
811.505493	310.600000
811.540833	313.800000
811.576294	317.600000
811.611694	313.000000
811.647034	307.300000
811.682434	311.000000
811.717773	312.500000
811.753235	317.000000
811.788635	309.600000
811.823975	310.900000
811.859375	317.200000
811.894775	303.500000
811.930115	306.100000
811.965515	306.500000
812.000916	311.000000
812.036255	304.500000
812.071655	310.200000
812.106995	300.800000
812.142395	302.900000
812.177795	309.700000
812.213196	306.600000
812.248474	306.600000
812.283875	296.400000
812.319214	301.200000
812.354614	302.800000
812.390015	298.100000
812.425293	300.300000
812.460693	298.800000
812.496094	296.400000
812.531433	290.800000
812.566772	291.900000
812.602173	293.900000
812.637451	295.200000
812.672852	289.100000
812.708191	296.200000
812.743530	286.800000
812.778931	281.900000
812.814270	284.100000
812.849609	293.100000
812.884949	286.100000
812.920227	280.100000
812.955627	296.000000
812.990967	286.100000
813.026306	282.000000
813.061646	271.200000
813.096985	270.700000
813.132324	268.100000
813.167664	273.700000
813.203003	279.700000
813.238281	265.100000
813.273682	265.800000
813.308960	262.400000
813.344299	265.600000
813.379639	275.300000
813.414978	266.900000
813.450256	267.500000
813.485596	272.100000
813.520874	263.400000
813.556213	269.700000
813.591614	272.100000
813.626831	264.800000
813.662170	269.000000
813.697510	278.200000
813.732788	260.100000
813.768127	267.200000
813.803467	266.300000
813.838745	260.400000
813.874084	265.500000
813.909363	263.800000
813.944641	266.500000
813.979980	253.400000
814.015320	261.000000
814.050598	255.800000
814.085876	262.900000
814.121155	259.000000
814.156494	257.200000
814.191772	259.600000
814.227051	255.100000
814.262390	256.300000
814.297668	258.600000
814.332947	257.700000
814.368225	250.600000
814.403564	254.900000
814.438782	251.000000
814.474121	252.800000
814.509338	251.300000
814.544617	260.600000
814.579956	249.100000
814.615173	259.400000
814.650513	255.600000
814.685791	248.800000
814.721008	251.800000
814.756348	248.800000
814.791626	246.500000
814.826843	247.000000
814.862122	248.200000
814.897400	244.700000
814.932678	248.500000
814.967957	247.300000
815.003235	245.300000
815.038452	240.000000
815.073730	238.600000
815.108948	247.700000
815.144226	246.200000
815.179504	250.600000
815.214722	234.400000
815.250000	234.800000
815.285278	242.200000
815.320496	235.600000
815.355774	238.700000
815.391052	241.200000
815.426270	238.300000
815.461487	237.600000
815.496765	232.600000
815.531982	228.000000
815.567261	234.500000
815.602539	243.200000
815.637695	238.000000
815.672974	239.900000
815.708191	239.600000
815.743408	242.100000
815.778687	232.500000
815.813904	245.400000
815.849121	225.000000
815.884399	229.000000
815.919556	228.500000
815.954834	230.700000
815.990051	233.500000
816.025269	237.200000
816.060486	226.900000
816.095703	227.200000
816.130920	230.900000
816.166199	226.500000
816.201416	230.700000
816.236572	235.800000
816.271851	226.300000
816.307007	232.100000
816.342224	221.700000
816.377441	227.200000
816.412659	219.000000
816.447876	230.200000
816.483093	225.800000
816.518250	225.400000
816.553467	225.300000
816.588745	228.600000
816.623901	219.100000
816.659119	214.600000
816.694275	221.100000
816.729492	217.900000
816.764709	253.700000
816.799927	214.900000
816.835083	220.600000
816.870300	214.900000
816.905457	219.200000
816.940674	222.600000
816.975830	216.600000
817.010986	213.400000
817.046204	215.600000
817.081421	210.600000
817.116577	212.900000
817.151733	222.500000
817.186951	222.600000
817.222107	216.800000
817.257324	221.000000
817.292419	218.200000
817.327637	209.000000
817.362854	215.300000
817.398010	209.300000
817.433167	211.700000
817.468323	211.300000
817.503479	213.200000
817.538635	221.500000
817.573853	215.900000
817.608948	213.500000
817.644165	208.500000
817.679321	209.100000
817.714478	207.900000
817.749634	213.900000
817.784790	223.600000
817.819946	219.600000
817.855103	200.200000
817.890198	210.500000
817.925415	203.800000
817.960571	212.800000
817.995667	210.300000
818.030823	210.400000
818.066040	204.600000
818.101135	210.200000
818.136292	208.300000
818.171448	203.300000
818.206543	206.800000
818.241699	210.100000
818.276855	206.300000
818.311951	206.900000
818.347107	203.700000
818.382263	211.200000
818.417358	212.700000
818.452515	214.600000
818.487610	215.500000
818.522766	204.800000
818.557922	214.000000
818.593018	210.700000
818.628113	208.600000
818.663269	201.700000
818.698364	206.400000
818.733521	204.000000
818.768677	211.000000
818.803711	200.500000
818.838867	202.600000
818.874023	205.000000
818.909058	202.000000
818.944214	200.600000
818.979370	208.400000
819.014404	205.700000
819.049561	202.700000
819.084595	207.400000
819.119751	198.800000
819.154846	207.500000
819.189941	204.500000
819.225037	197.600000
819.260193	194.200000
819.295227	195.800000
819.330322	193.600000
819.365479	192.100000
819.400513	226.600000
819.435608	191.500000
819.470764	190.300000
819.505798	192.300000
819.540894	196.900000
819.575989	195.100000
819.611084	203.400000
819.646179	202.500000
819.681213	200.200000
819.716309	197.500000
819.751404	197.100000
819.786438	202.200000
819.821533	195.300000
819.856628	200.600000
819.891663	202.700000
819.926758	208.300000
819.961853	204.600000
819.996887	194.900000
820.031982	201.300000
820.067017	196.900000
820.102112	225.000000
820.137207	196.900000
820.172302	211.700000
820.207275	193.900000
820.242371	194.100000
820.277405	194.000000
820.312500	197.600000
820.347534	199.700000
820.382568	202.000000
820.417664	195.400000
820.452759	195.200000
820.487732	192.500000
820.522827	194.800000
820.557861	192.600000
820.592896	194.000000
820.627930	195.400000
820.662964	193.600000
820.698059	198.400000
820.733093	194.100000
820.768127	199.300000
820.803162	195.600000
820.838196	193.100000
820.873230	196.200000
820.908264	196.800000
820.943298	192.000000
820.978333	200.500000
821.013367	196.100000
821.048401	201.500000
821.083435	203.300000
821.118469	187.400000
821.153503	199.700000
821.188477	195.500000
821.223511	188.700000
821.258484	195.300000
821.293579	197.000000
821.328613	188.000000
821.363647	194.200000
821.398621	188.600000
821.433655	190.600000
821.468628	206.500000
821.503662	193.100000
821.538696	196.400000
821.573669	188.700000
821.608704	196.700000
821.643677	192.100000
821.678650	197.900000
821.713684	204.200000
821.748718	192.800000
821.783691	192.900000
821.818726	196.100000
821.853638	194.400000
821.888672	192.200000
821.923706	194.400000
821.958618	190.900000
821.993652	191.600000
822.028687	198.700000
822.063599	201.000000
822.098633	195.500000
822.133667	191.400000
822.168579	193.200000
822.203613	194.300000
822.238586	190.900000
822.273560	197.900000
822.308533	190.400000
822.343567	192.400000
822.378479	192.800000
822.413452	192.800000
822.448425	189.400000
822.483398	199.400000
822.518372	199.100000
822.553345	190.600000
822.588318	201.400000
822.623291	192.100000
822.658203	191.900000
822.693237	193.900000
822.728210	189.200000
822.763123	195.900000
822.798096	187.900000
822.833069	193.600000
822.867981	193.300000
822.902954	196.800000
822.937927	197.700000
822.972900	204.400000
823.007874	185.900000
823.042725	196.700000
823.077698	206.300000
823.112671	190.900000
823.147583	192.100000
823.182556	195.600000
823.217529	198.200000
823.252441	190.900000
823.287415	207.600000
823.322388	196.100000
823.357239	193.200000
823.392212	201.300000
823.427185	196.700000
823.462097	189.300000
823.497009	195.700000
823.531982	191.300000
823.566895	193.800000
823.601807	188.700000
823.636719	193.100000
823.671631	196.800000
823.706604	192.800000
823.741455	197.100000
823.776428	188.200000
823.811340	196.700000
823.846252	200.600000
823.881165	201.800000
823.916138	196.600000
823.950989	202.900000
823.985901	190.600000
824.020813	194.800000
824.055725	191.200000
824.090637	189.400000
824.125610	195.300000
824.160461	194.100000
824.195374	194.800000
824.230225	198.000000
824.265198	187.900000
824.300110	191.200000
824.334961	204.700000
824.369873	183.500000
824.404785	197.500000
824.439636	200.400000
824.474548	185.700000
824.509460	183.200000
824.544312	199.700000
824.579224	196.000000
824.614075	196.900000
824.648987	192.700000
824.683899	192.900000
824.718811	189.900000
824.753662	199.500000
824.788574	199.200000
824.823364	194.500000
824.858276	191.400000
824.893188	201.300000
824.928040	200.900000
824.962952	197.300000
824.997803	197.100000
825.032654	195.100000
825.067566	198.200000
825.102417	191.400000
825.137268	192.500000
825.172119	194.800000
825.206970	191.300000
825.241882	192.000000
825.276733	190.700000
825.311646	191.100000
825.346436	188.600000
825.381348	190.000000
825.416138	195.300000
825.450989	190.200000
825.485901	185.900000
825.520691	184.600000
825.555542	187.000000
825.590454	194.700000
825.625244	185.100000
825.660095	200.500000
825.695007	198.900000
825.729797	191.900000
825.764648	190.000000
825.799438	191.600000
825.834290	194.200000
825.869202	186.400000
825.903992	195.900000
825.938843	188.900000
825.973694	190.400000
826.008484	205.400000
826.043335	189.900000
826.078186	182.800000
826.112976	200.800000
826.147827	198.400000
826.182678	203.300000
826.217468	185.200000
826.252319	197.600000
826.287109	188.700000
826.321899	201.000000
826.356750	190.800000
826.391541	188.100000
826.426392	198.300000
826.461182	192.100000
826.495972	187.000000
826.530823	183.800000
826.565613	192.300000
826.600403	186.900000
826.635254	196.700000
826.670044	184.600000
826.704834	184.000000
826.739685	189.600000
826.774475	194.600000
826.809265	192.400000
826.844055	189.900000
826.878906	198.600000
826.913635	194.900000
826.948425	196.200000
826.983215	195.300000
827.018005	197.000000
827.052856	192.600000
827.087585	196.900000
827.122375	185.700000
827.157227	192.400000
827.191956	205.600000
827.226746	188.100000
827.261536	197.800000
827.296265	185.400000
827.331116	189.700000
827.365906	196.100000
827.400635	189.600000
827.435425	183.600000
827.470215	199.800000
827.504944	191.700000
827.539734	196.800000
827.574463	191.500000
827.609253	198.900000
827.644043	193.300000
827.678772	199.200000
827.713562	189.200000
827.748352	189.900000
827.783081	189.700000
827.817871	193.000000
827.852600	187.500000
827.887329	193.900000
827.922119	182.200000
827.956848	196.300000
827.991638	205.100000
828.026367	195.100000
828.061157	191.800000
828.095886	191.100000
828.130615	205.800000
828.165344	183.800000
828.200073	193.400000
828.234863	191.400000
828.269592	192.000000
828.304321	197.600000
828.339111	193.100000
828.373779	189.400000
828.408569	197.700000
828.443298	197.500000
828.477966	189.900000
828.512756	194.300000
828.547424	187.000000
828.582214	190.600000
828.616943	191.300000
828.651672	190.500000
828.686340	196.500000
828.721130	189.100000
828.755798	190.300000
828.790527	193.100000
828.825256	194.400000
828.859924	193.100000
828.894714	200.000000
828.929443	200.400000
828.964111	190.700000
828.998840	196.300000
829.033569	189.500000
829.068237	190.600000
829.102966	191.400000
829.137634	193.700000
829.172363	194.600000
829.207092	193.100000
829.241821	189.800000
829.276489	185.000000
829.311157	194.000000
829.345825	190.000000
829.380554	197.200000
829.415283	187.900000
829.449951	186.300000
829.484619	199.400000
829.519348	200.600000
829.554016	192.000000
829.588745	191.700000
829.623413	186.100000
829.658081	204.700000
829.692749	185.800000
829.727417	197.700000
829.762146	193.200000
829.796814	187.900000
829.831482	190.100000
829.866150	195.300000
829.900879	190.200000
829.935486	196.000000
829.970154	190.900000
830.004883	202.600000
830.039490	193.800000
830.074219	189.900000
830.108887	192.700000
830.143494	190.900000
830.178223	187.300000
830.212891	190.100000
830.247498	193.200000
830.282166	200.800000
830.316772	199.100000
830.351501	190.600000
830.386169	193.400000
830.420776	190.900000
830.455444	194.100000
830.490112	190.200000
830.524719	184.200000
830.559387	194.800000
830.594055	195.100000
830.628662	192.700000
830.663330	192.000000
830.697998	200.200000
830.732605	191.800000
830.767273	194.500000
830.801941	192.800000
830.836487	202.300000
830.871155	194.200000
830.905762	195.200000
830.940430	185.300000
830.975098	188.200000
831.009644	194.600000
831.044312	199.400000
831.078979	194.200000
831.113525	184.000000
831.148193	192.400000
831.182861	190.400000
831.217407	195.900000
831.252075	209.900000
831.286621	190.700000
831.321289	188.700000
831.355896	191.900000
831.390564	199.600000
831.425110	193.900000
831.459778	199.500000
831.494324	205.000000
831.528931	195.400000
831.563599	195.000000
831.598145	185.600000
831.632751	193.600000
831.667419	190.700000
831.701965	194.100000
831.736572	196.900000
831.771179	186.400000
831.805786	189.800000
831.840393	200.000000
831.874939	183.700000
831.909546	198.100000
831.944153	185.200000
831.978760	191.500000
832.013306	188.400000
832.047913	200.800000
832.082458	202.500000
832.117065	189.400000
832.151672	202.000000
832.186218	194.600000
832.220825	196.100000
832.255432	183.600000
832.289978	188.200000
832.324585	194.800000
832.359192	195.100000
832.393677	190.400000
832.428284	193.700000
832.462830	190.300000
832.497437	192.200000
832.531982	196.800000
832.566589	189.700000
832.601135	192.400000
832.635681	184.900000
832.670227	192.900000
832.704773	199.900000
832.739380	193.500000
832.773926	193.100000
832.808472	187.800000
832.843079	193.100000
832.877563	196.500000
832.912170	189.800000
832.946716	184.600000
832.981201	198.900000
833.015808	195.200000
833.050293	191.600000
833.084839	189.100000
833.119446	190.900000
833.153992	195.800000
833.188477	192.300000
833.223022	188.300000
833.257568	193.900000
833.292114	199.500000
833.326660	204.100000
833.361145	190.000000
833.395691	184.400000
833.430237	191.300000
833.464783	196.100000
833.499329	189.500000
833.533875	186.800000
833.568359	196.400000
833.602905	198.800000
833.637390	198.100000
833.671875	189.300000
833.706421	191.400000
833.740906	188.000000
833.775452	183.600000
833.809998	190.200000
833.844482	199.800000
833.879028	191.800000
833.913513	190.500000
833.947998	193.900000
833.982544	188.600000
834.017090	189.600000
834.051514	181.000000
834.086060	194.900000
834.120544	191.700000
834.155029	193.300000
834.189575	190.800000
834.223999	194.800000
834.258545	192.000000
834.293030	191.800000
834.327515	193.200000
834.362000	188.600000
834.396545	198.400000
834.430969	189.500000
834.465454	197.900000
834.500000	184.300000
834.534424	195.300000
834.568970	181.300000
834.603455	184.000000
834.637878	187.400000
834.672363	193.300000
834.706909	192.700000
834.741333	191.900000
834.775818	183.500000
834.810242	187.100000
834.844727	193.300000
834.879211	190.700000
834.913635	192.700000
834.948181	195.200000
834.982666	192.100000
835.017090	191.200000
835.051575	195.500000
835.086060	188.700000
835.120483	196.100000
835.154907	196.700000
835.189331	192.500000
835.223816	194.000000
835.258301	187.900000
835.292786	186.500000
835.327209	198.500000
835.361694	187.700000
835.396057	190.400000
835.430542	195.000000
835.465027	194.100000
835.499390	187.200000
835.533875	210.900000
835.568359	190.400000
835.602722	185.700000
835.637207	193.500000
835.671692	186.700000
835.706055	207.600000
835.740540	194.400000
835.774902	196.000000
835.809387	193.600000
835.843811	186.200000
835.878235	199.800000
835.912659	185.100000
835.947083	188.500000
835.981506	192.900000
836.015930	185.300000
836.050354	197.700000
836.084778	201.600000
836.119202	196.200000
836.153625	205.400000
836.187988	188.000000
836.222473	189.200000
836.256897	193.900000
836.291260	191.700000
836.325684	194.600000
836.360046	189.200000
836.394470	192.000000
836.428894	199.100000
836.463318	188.800000
836.497681	197.200000
836.532104	200.200000
836.566467	192.500000
836.600891	191.000000
836.635315	196.600000
836.669678	195.800000
836.704102	196.300000
836.738525	193.300000
836.772888	184.400000
836.807251	190.700000
836.841675	194.000000
836.876038	188.000000
836.910461	189.300000
836.944763	196.600000
836.979187	187.700000
837.013611	198.600000
837.047974	185.400000
837.082336	204.700000
837.116699	197.000000
837.151062	192.100000
837.185486	185.900000
837.219849	191.600000
837.254211	196.500000
837.288574	192.500000
837.322937	186.900000
837.357300	181.700000
837.391663	204.700000
837.426086	197.800000
837.460388	191.700000
837.494751	197.300000
837.529114	190.000000
837.563477	197.300000
837.597839	194.200000
837.632141	191.000000
837.666565	188.200000
837.700928	194.600000
837.735229	195.500000
837.769592	195.400000
837.803955	197.200000
837.838257	189.800000
837.872620	188.700000
837.906982	199.000000
837.941284	194.100000
837.975647	192.700000
838.010010	199.300000
838.044312	189.900000
838.078674	189.900000
838.112976	192.400000
838.147339	196.200000
838.181702	192.100000
838.216003	203.000000
838.250366	194.700000
838.284668	194.700000
838.318970	183.900000
838.353333	193.600000
838.387634	191.400000
838.421936	193.700000
838.456299	192.400000
838.490601	201.500000
838.524902	195.100000
838.559265	198.200000
838.593567	195.900000
838.627869	187.100000
838.662170	194.100000
838.696472	186.500000
838.730774	188.900000
838.765137	198.700000
838.799377	178.500000
838.833740	194.000000
838.868042	198.700000
838.902283	184.200000
838.936646	199.000000
838.970947	194.500000
839.005188	197.700000
839.039551	185.700000
839.073792	198.800000
839.108093	190.000000
839.142395	201.200000
839.176697	185.400000
839.210937	193.100000
839.245300	204.900000
839.279541	185.200000
839.313843	191.200000
839.348145	196.300000
839.382385	197.500000
839.416687	195.900000
839.450989	195.900000
839.485229	190.900000
839.519531	188.300000
839.553833	198.400000
839.588013	192.800000
839.622314	193.200000
839.656555	195.500000
839.690857	193.200000
839.725159	185.700000
839.759460	191.300000
839.793640	191.100000
839.827942	192.000000
839.862183	187.300000
839.896423	193.500000
839.930725	202.700000
839.964966	200.300000
839.999207	200.100000
840.033508	199.300000
840.067688	190.100000
840.101990	201.700000
840.136230	192.000000
840.170471	200.600000
840.204712	187.800000
840.238953	188.500000
840.273193	193.200000
840.307434	196.500000
840.341736	187.600000
840.375916	186.700000
840.410217	189.800000
840.444397	197.100000
840.478638	196.400000
840.512878	200.500000
840.547119	192.600000
840.581360	195.200000
840.615601	202.100000
840.649780	200.500000
840.684021	191.100000
840.718262	201.300000
840.752441	198.100000
840.786682	193.800000
840.820862	195.200000
840.855103	200.700000
840.889343	193.100000
840.923584	197.800000
840.957764	194.800000
840.992004	192.600000
841.026184	207.100000
841.060425	191.900000
841.094666	188.800000
841.128845	195.500000
841.163025	193.900000
841.197266	195.000000
841.231445	195.100000
841.265686	191.900000
841.299866	188.200000
841.334045	201.400000
841.368286	191.800000
841.402405	202.100000
841.436646	198.100000
841.470825	189.500000
841.505005	192.000000
841.539185	189.600000
841.573425	190.000000
841.607544	193.400000
841.641785	194.200000
841.675964	188.200000
841.710144	194.200000
841.744324	190.400000
841.778503	192.700000
841.812683	188.400000
841.846863	201.800000
841.881042	199.800000
841.915222	191.300000
841.949402	207.500000
841.983521	184.700000
842.017700	191.500000
842.051880	194.300000
842.086060	195.200000
842.120239	194.500000
842.154419	191.200000
842.188538	195.700000
842.222717	190.800000
842.256897	203.000000
842.291016	192.500000
842.325195	195.400000
842.359375	203.400000
842.393494	202.300000
842.427673	193.300000
842.461853	196.700000
842.495911	200.500000
842.530090	195.200000
842.564209	192.100000
842.598389	196.200000
842.632568	194.300000
842.666626	198.000000
842.700806	190.000000
842.734985	191.400000
842.769043	196.300000
842.803223	190.200000
842.837402	192.200000
842.871460	190.000000
842.905640	202.000000
842.939697	190.800000
842.973877	196.500000
843.007996	198.300000
843.042175	202.200000
843.076233	190.200000
843.110413	194.400000
843.144470	203.500000
843.178589	197.700000
843.212769	190.500000
843.246826	198.900000
843.280945	192.200000
843.315125	193.300000
843.349182	189.400000
843.383301	201.100000
843.417419	206.100000
843.451538	194.400000
843.485657	191.800000
843.519714	193.400000
843.553833	195.100000
843.587952	191.100000
843.622070	189.400000
843.656128	197.600000
843.690247	192.000000
843.724304	191.000000
843.758423	194.800000
843.792542	193.000000
843.826599	193.500000
843.860718	192.700000
843.894836	187.200000
843.928894	194.800000
843.963013	196.400000
843.997070	190.200000
844.031128	186.100000
844.065247	198.600000
844.099304	199.100000
844.133362	194.400000
844.167480	196.600000
844.201599	201.200000
844.235596	196.200000
844.269714	194.800000
844.303711	197.500000
844.337830	186.200000
844.371948	196.000000
844.405945	191.400000
844.440063	187.500000
844.474121	207.400000
844.508118	193.500000
844.542236	191.500000
844.576294	192.400000
844.610352	188.600000
844.644409	193.100000
844.678406	186.300000
844.712524	198.500000
844.746582	200.500000
844.780640	192.600000
844.814636	193.400000
844.848755	205.100000
844.882751	191.600000
844.916809	201.300000
844.950867	195.400000
844.984863	203.000000
845.018921	192.700000
845.052979	191.200000
845.086975	194.100000
845.121033	187.800000
845.155090	188.300000
845.189087	201.700000
845.223145	190.600000
845.257141	194.200000
845.291199	195.500000
845.325256	201.700000
845.359253	193.400000
845.393250	204.700000
845.427307	191.500000
845.461304	196.100000
845.495361	194.600000
845.529358	204.800000
845.563354	190.300000
845.597412	190.300000
845.631409	201.400000
845.665405	201.800000
845.699463	198.400000
845.733459	192.200000
845.767456	199.300000
845.801453	193.000000
845.835449	199.900000
845.869446	198.100000
845.903503	198.000000
845.937439	190.100000
845.971497	201.000000
846.005493	187.500000
846.039429	198.700000
846.073486	204.700000
846.107483	193.400000
846.141418	194.000000
846.175476	194.000000
846.209473	201.300000
846.243408	190.800000
846.277405	194.800000
846.311401	190.500000
846.345337	195.000000
846.379395	200.900000
846.413330	190.900000
846.447327	202.400000
846.481323	188.900000
846.515259	191.800000
846.549255	194.400000
846.583252	196.300000
846.617187	188.000000
846.651184	197.000000
846.685120	192.400000
846.719055	202.400000
846.753052	198.500000
846.786987	199.100000
846.820984	186.200000
846.854980	201.800000
846.888916	188.500000
846.922852	197.900000
846.956848	202.900000
846.990723	191.100000
847.024719	194.400000
847.058716	191.800000
847.092590	201.400000
847.126587	195.300000
847.160522	192.200000
847.194458	197.700000
847.228455	190.000000
847.262390	189.100000
847.296265	192.500000
847.330261	201.200000
847.364136	193.300000
847.398132	190.800000
847.432068	194.200000
847.466003	192.700000
847.499939	191.600000
847.533875	196.200000
847.567749	192.000000
847.601746	191.800000
847.635681	197.500000
847.669556	184.900000
847.703491	200.100000
847.737427	209.100000
847.771301	190.200000
847.805237	195.700000
847.839233	195.500000
847.873108	194.300000
847.907043	193.900000
847.940918	199.400000
847.974854	197.900000
848.008789	198.500000
848.042664	195.400000
848.076538	196.200000
848.110474	194.500000
848.144348	194.800000
848.178284	187.700000
848.212219	194.300000
848.246094	192.800000
848.279968	195.900000
848.313904	198.600000
848.347778	193.900000
848.381653	194.800000
848.415588	191.900000
848.449463	193.500000
848.483337	196.800000
848.517212	200.000000
848.551086	193.500000
848.585022	189.100000
848.618835	201.800000
848.652771	192.400000
848.686646	188.700000
848.720520	203.100000
848.754395	192.200000
848.788330	198.200000
848.822144	198.900000
848.856018	193.900000
848.889954	205.000000
848.923767	190.300000
848.957642	191.700000
848.991577	197.900000
849.025391	191.500000
849.059265	192.500000
849.093079	190.900000
849.126953	189.500000
849.160828	199.400000
849.194641	194.700000
849.228577	191.200000
849.262451	192.500000
849.296265	193.200000
849.330139	188.800000
849.364014	195.400000
849.397827	198.500000
849.431702	194.900000
849.465515	198.900000
849.499329	186.000000
849.533203	187.800000
849.567078	184.400000
849.600891	196.600000
849.634766	194.000000
849.668518	197.500000
849.702393	194.900000
849.736267	187.800000
849.770020	206.500000
849.803894	197.700000
849.837769	194.900000
849.871521	193.300000
849.905396	200.500000
849.939270	189.100000
849.973022	194.600000
850.006897	198.400000
850.040710	196.600000
850.074524	197.300000
850.108337	192.300000
850.142151	198.000000
850.175964	199.900000
850.209778	194.200000
850.243530	180.900000
850.277405	199.200000
850.311218	193.300000
850.344971	190.600000
850.378845	203.200000
850.412659	191.500000
850.446411	193.900000
850.480225	192.600000
850.514038	200.300000
850.547791	196.100000
850.581665	193.200000
850.615417	191.200000
850.649231	194.800000
850.683044	192.400000
850.716858	193.500000
850.750610	194.300000
850.784424	198.500000
850.818176	190.800000
850.851929	191.100000
850.885742	191.400000
850.919495	192.200000
850.953308	200.900000
850.987122	202.100000
851.020874	189.600000
851.054626	186.500000
851.088440	199.300000
851.122192	198.500000
851.156006	195.500000
851.189697	193.500000
851.223511	190.400000
851.257263	199.100000
851.291077	198.000000
851.324829	192.600000
851.358582	191.100000
851.392334	192.000000
851.426086	192.800000
851.459900	201.800000
851.493591	195.700000
851.527344	194.700000
851.561157	195.400000
851.594849	196.700000
851.628662	197.300000
851.662415	200.600000
851.696106	198.100000
851.729858	198.400000
851.763611	189.500000
851.797363	195.800000
851.831116	189.300000
851.864868	196.600000
851.898560	198.500000
851.932312	190.000000
851.966064	196.700000
851.999817	194.200000
852.033569	194.300000
852.067261	199.100000
852.101013	190.500000
852.134766	194.900000
852.168457	183.600000
852.202209	198.900000
852.235901	189.200000
852.269592	197.800000
852.303345	203.400000
852.337036	198.000000
852.370789	194.400000
852.404541	198.400000
852.438171	190.300000
852.471924	193.800000
852.505676	189.300000
852.539307	196.300000
852.573059	189.400000
852.606812	191.600000
852.640442	193.500000
852.674194	200.500000
852.707886	205.900000
852.741577	202.200000
852.775269	190.300000
852.809021	195.800000
852.842651	197.600000
852.876404	199.100000
852.910034	195.800000
852.943787	201.400000
852.977478	197.600000
853.011108	191.400000
853.044861	190.900000
853.078552	201.400000
853.112183	196.300000
853.145874	197.700000
853.179626	185.900000
853.213257	196.600000
853.246948	191.100000
853.280640	203.000000
853.314270	194.400000
853.347961	203.200000
853.381653	196.700000
853.415283	198.100000
853.448975	190.300000
853.482605	196.800000
853.516296	192.700000
853.549988	189.300000
853.583618	194.600000
853.617310	195.600000
853.651001	195.400000
853.684631	189.800000
853.718323	192.300000
853.751953	202.300000
853.785583	183.200000
853.819275	198.500000
853.852966	194.600000
853.886536	185.600000
853.920227	188.600000
853.953918	199.900000
853.987488	192.100000
854.021179	197.000000
854.054749	202.200000
854.088440	196.300000
854.122131	190.200000
854.155701	198.400000
854.189331	190.100000
854.223022	197.200000
854.256592	197.400000
854.290283	190.800000
854.323914	198.500000
854.357483	195.300000
854.391174	197.900000
854.424744	205.400000
854.458374	197.700000
854.492065	205.500000
854.525696	194.400000
854.559265	200.800000
854.592896	207.500000
854.626465	195.500000
854.660095	195.700000
854.693787	196.800000
854.727356	193.400000
854.760986	198.600000
854.794617	197.100000
854.828186	193.100000
854.861816	198.600000
854.895447	195.900000
854.929016	196.700000
854.962585	197.000000
854.996155	202.200000
855.029785	195.500000
855.063416	197.100000
855.097046	199.200000
855.130615	188.400000
855.164185	201.400000
855.197754	195.100000
855.231384	198.500000
855.264954	193.500000
855.298523	197.800000
855.332153	195.300000
855.365723	201.900000
855.399292	190.100000
855.432922	193.000000
855.466492	196.200000
855.500061	190.200000
855.533630	191.200000
855.567200	197.800000
855.600769	199.500000
855.634338	199.500000
855.667969	197.000000
855.701477	189.500000
855.735046	190.600000
855.768616	186.900000
855.802185	195.600000
855.835754	209.600000
855.869324	186.000000
855.902893	192.600000
855.936401	201.300000
855.969971	196.300000
856.003540	187.900000
856.037109	198.100000
856.070618	194.700000
856.104187	189.700000
856.137695	192.400000
856.171265	185.400000
856.204834	194.900000
856.238403	199.800000
856.271912	191.400000
856.305481	196.800000
856.338989	189.000000
856.372559	198.100000
856.406128	195.300000
856.439636	199.300000
856.473145	192.200000
856.506653	201.400000
856.540222	193.600000
856.573792	202.800000
856.607300	197.100000
856.640808	187.900000
856.674377	196.500000
856.707825	222.800000
856.741394	198.800000
856.774902	191.000000
856.808472	184.400000
856.841980	197.000000
856.875488	201.900000
856.908936	186.400000
856.942505	193.700000
856.976013	193.800000
857.009521	188.400000
857.043030	194.300000
857.076477	193.300000
857.110046	200.300000
857.143555	195.000000
857.177063	200.200000
857.210571	192.000000
857.244080	188.100000
857.277527	197.700000
857.311035	192.800000
857.344543	198.400000
857.378052	192.800000
857.411499	200.600000
857.445068	205.200000
857.478516	195.000000
857.512024	188.600000
857.545532	194.400000
857.578979	197.400000
857.612427	195.500000
857.645874	190.500000
857.679382	196.600000
857.712891	197.300000
857.746399	195.500000
857.779846	199.800000
857.813354	200.700000
857.846741	192.300000
857.880249	191.400000
857.913757	196.400000
857.947266	198.000000
857.980652	196.800000
858.014160	190.800000
858.047546	192.200000
858.081055	193.200000
858.114563	202.900000
858.147949	189.400000
858.181458	197.800000
858.214844	194.000000
858.248352	185.300000
858.281799	199.100000
858.315308	207.100000
858.348694	198.000000
858.382141	202.600000
858.415588	197.400000
858.449036	199.800000
858.482483	197.700000
858.515930	190.600000
858.549377	194.400000
858.582825	202.100000
858.616211	197.700000
858.649658	196.300000
858.683105	188.500000
858.716553	191.000000
858.750000	188.900000
858.783386	191.200000
858.816833	186.900000
858.850281	195.600000
858.883728	195.600000
858.917114	193.800000
858.950562	201.800000
858.983948	204.400000
859.017395	197.600000
859.050781	193.000000
859.084167	190.100000
859.117615	187.700000
859.151062	196.700000
859.184448	191.000000
859.217834	192.200000
859.251282	194.200000
859.284668	189.900000
859.318054	184.700000
859.351440	191.700000
859.384888	203.300000
859.418274	186.100000
859.451721	186.800000
859.485046	196.700000
859.518494	196.700000
859.551819	189.700000
859.585266	198.100000
859.618652	196.900000
859.652039	188.300000
859.685425	189.100000
859.718811	188.500000
859.752197	183.500000
859.785583	201.800000
859.819031	201.100000
859.852356	197.500000
859.885742	190.800000
859.919067	193.900000
859.952454	192.100000
859.985901	200.000000
860.019287	191.800000
860.052612	0.000000
860.085999	0.000000
860.119324	0.000000
860.152710	0.000000
860.186096	0.000000
860.219421	0.000000
860.252808	0.000000
860.286133	0.000000
860.319519	0.000000
860.352905	0.000000
860.386292	0.000000
860.419617	0.000000
860.452942	0.000000
860.486267	0.000000
860.519653	0.000000
860.553040	0.000000
860.586365	0.000000
860.619690	0.000000
860.653076	0.000000
860.686340	0.000000
860.719727	0.000000
860.753113	0.000000
860.786377	0.000000
860.819763	0.000000
860.853027	0.000000
860.886414	0.000000
860.919739	0.000000
860.953125	0.000000
860.986389	0.000000
861.019714	0.000000
861.053040	0.000000
861.086365	0.000000
861.119690	0.000000
861.153076	0.000000
861.186340	0.000000
861.219666	0.000000
861.252930	0.000000
861.286316	0.000000
861.319641	0.000000
861.352905	0.000000
861.386230	0.000000
861.419495	0.000000
861.452820	0.000000
861.486145	0.000000
861.519470	0.000000
861.552734	0.000000
861.586060	0.000000
861.619324	0.000000
861.652649	0.000000
861.685974	0.000000
861.719238	0.000000
861.752563	0.000000
861.785828	0.000000
861.819092	0.000000
861.852417	0.000000
861.885742	0.000000
861.918945	0.000000
861.952271	0.000000
861.985535	0.000000
862.018799	0.000000
862.052124	0.000000
862.085449	0.000000
862.118652	0.000000
862.151978	0.000000
862.185181	0.000000
862.218506	0.000000
862.251770	0.000000
862.285034	0.000000
862.318298	0.000000
862.351562	0.000000
862.384827	0.000000
862.418091	0.000000
862.451355	0.000000
862.484619	0.000000
862.517883	0.000000
862.551086	0.000000
862.584351	0.000000
862.617676	0.000000
862.650940	0.000000
862.684143	0.000000
862.717407	0.000000
862.750610	0.000000
862.783875	0.000000
862.817139	0.000000
862.850342	0.000000
862.883606	0.000000
862.916870	0.000000
862.950073	0.000000
862.983337	0.000000
863.016602	0.000000
863.049805	0.000000
863.083069	0.000000
863.116211	0.000000
863.149475	0.000000
863.182739	0.000000
863.216003	0.000000
863.249146	0.000000
863.282410	0.000000
863.315613	0.000000
863.348816	0.000000
863.382080	0.000000
863.415222	0.000000
863.448486	0.000000
863.481689	0.000000
863.514893	0.000000
863.548157	0.000000
863.581360	0.000000
863.614502	0.000000
863.647766	0.000000
863.680908	0.000000
863.714172	0.000000
863.747375	0.000000
863.780579	0.000000
863.813721	0.000000
863.846985	0.000000
863.880127	0.000000
863.913330	0.000000
863.946533	0.000000
863.979675	0.000000
864.012939	0.000000
