Model Number: SPM-001-M   
Serial Number: 10090201
Firmware Version: 004.17.6
Exposure Time: 500000.000000us
Data Taken on: 10-03-2021 11:29:51.477
Wavelength	Amplitude
733.770752	0.000000
733.808716	0.000000
733.846619	0.000000
733.884583	0.000000
733.922546	0.000000
733.960449	0.000000
733.998413	0.000000
734.036377	0.000000
734.074219	0.000000
734.112183	0.000000
734.150085	0.000000
734.188049	0.000000
734.226013	0.000000
734.263916	0.000000
734.301819	0.000000
734.339783	0.000000
734.377686	0.000000
734.415588	0.000000
734.453552	0.000000
734.491455	0.000000
734.529419	0.000000
734.567322	0.000000
734.605225	0.000000
734.643127	0.000000
734.681091	0.000000
734.718994	0.000000
734.756897	0.000000
734.794800	0.000000
734.832703	0.000000
734.870667	0.000000
734.908508	0.000000
734.946472	0.000000
734.984375	0.000000
735.022278	0.000000
735.060181	0.000000
735.098083	0.000000
735.135986	0.000000
735.173889	0.000000
735.211792	0.000000
735.249695	0.000000
735.287598	0.000000
735.325439	0.000000
735.363403	0.000000
735.401306	0.000000
735.439148	0.000000
735.477051	0.000000
735.515015	0.000000
735.552856	0.000000
735.590759	0.000000
735.628662	0.000000
735.666504	0.000000
735.704407	0.000000
735.742310	0.000000
735.780212	0.000000
735.818115	0.000000
735.856018	0.000000
735.893860	0.000000
735.931763	0.000000
735.969604	0.000000
736.007507	0.000000
736.045410	0.000000
736.083252	0.000000
736.121094	0.000000
736.158997	0.000000
736.196838	0.000000
736.234741	0.000000
736.272644	0.000000
736.310486	0.000000
736.348389	0.000000
736.386230	0.000000
736.424072	0.000000
736.461975	0.000000
736.499878	0.000000
736.537720	0.000000
736.575562	0.000000
736.613403	0.000000
736.651306	0.000000
736.689148	0.000000
736.726990	0.000000
736.764893	0.000000
736.802734	0.000000
736.840576	0.000000
736.878418	0.000000
736.916321	0.000000
736.954102	0.000000
736.992004	0.000000
737.029846	0.000000
737.067688	0.000000
737.105530	0.000000
737.143372	0.000000
737.181213	0.000000
737.219116	0.000000
737.256897	0.000000
737.294739	0.000000
737.332642	0.000000
737.370422	0.000000
737.408325	0.000000
737.446167	0.000000
737.483948	0.000000
737.521790	0.000000
737.559692	0.000000
737.597473	0.000000
737.635315	0.000000
737.673157	0.000000
737.710999	0.000000
737.748840	0.000000
737.786621	0.000000
737.824463	0.000000
737.862305	0.000000
737.900085	0.000000
737.937927	0.000000
737.975769	0.000000
738.013550	0.000000
738.051392	0.000000
738.089233	0.000000
738.127014	0.000000
738.164856	0.000000
738.202698	0.000000
738.240479	0.000000
738.278320	0.000000
738.316162	0.000000
738.353943	0.000000
738.391785	0.000000
738.429565	0.000000
738.467407	0.000000
738.505188	0.000000
738.542969	0.000000
738.580811	0.000000
738.618652	0.000000
738.656372	0.000000
738.694214	0.000000
738.732056	0.000000
738.769836	0.000000
738.807617	0.000000
738.845459	0.000000
738.883240	0.000000
738.921021	0.000000
738.958862	0.000000
738.996582	0.000000
739.034424	0.000000
739.072205	0.000000
739.109985	0.000000
739.147827	0.000000
739.185547	0.000000
739.223389	0.000000
739.261169	0.000000
739.298889	0.000000
739.336731	0.000000
739.374512	0.000000
739.412292	0.000000
739.450073	0.000000
739.487854	0.000000
739.525635	0.000000
739.563416	0.000000
739.601135	0.000000
739.638977	0.000000
739.676758	0.000000
739.714478	0.000000
739.752258	0.000000
739.790100	0.000000
739.827820	0.000000
739.865601	0.000000
739.903381	0.000000
739.941101	0.000000
739.978882	194.000000
740.016724	191.800000
740.054443	195.900000
740.092224	190.400000
740.130005	187.700000
740.167725	189.800000
740.205505	188.800000
740.243225	199.500000
740.281006	192.700000
740.318787	186.300000
740.356506	198.600000
740.394287	197.700000
740.432068	187.700000
740.469727	186.400000
740.507507	196.600000
740.545288	192.300000
740.583008	195.800000
740.620789	193.400000
740.658569	184.900000
740.696228	193.300000
740.734009	199.200000
740.771790	181.000000
740.809509	197.400000
740.847229	187.800000
740.884949	190.100000
740.922729	186.400000
740.960449	192.300000
740.998169	186.500000
741.035950	189.100000
741.073669	193.100000
741.111389	193.700000
741.149170	201.300000
741.186890	204.600000
741.224609	195.900000
741.262329	195.900000
741.300110	201.100000
741.337769	188.700000
741.375549	185.600000
741.413208	194.600000
741.450989	188.200000
741.488708	191.700000
741.526367	190.000000
741.564148	196.400000
741.601868	197.300000
741.639526	194.800000
741.677307	193.300000
741.715027	195.100000
741.752686	188.500000
741.790466	201.100000
741.828186	195.900000
741.865845	188.000000
741.903564	182.900000
741.941345	194.600000
741.979004	189.300000
742.016724	196.300000
742.054382	193.100000
742.092102	199.100000
742.129822	185.200000
742.167480	192.200000
742.205200	191.400000
742.242920	196.000000
742.280640	197.700000
742.318359	188.800000
742.356079	189.800000
742.393738	197.600000
742.431396	191.500000
742.469116	197.600000
742.506775	183.100000
742.544495	195.700000
742.582214	197.000000
742.619873	192.500000
742.657593	200.400000
742.695251	197.000000
742.732971	193.100000
742.770630	193.800000
742.808289	193.900000
742.846008	191.900000
742.883728	196.100000
742.921326	192.300000
742.959045	191.000000
742.996765	192.500000
743.034424	193.000000
743.072083	188.200000
743.109802	195.200000
743.147400	185.300000
743.185120	195.900000
743.222839	190.900000
743.260437	199.200000
743.298157	193.900000
743.335754	185.800000
743.373474	190.800000
743.411133	186.100000
743.448792	191.800000
743.486450	193.400000
743.524170	183.300000
743.561768	193.700000
743.599487	198.700000
743.637146	204.700000
743.674744	191.400000
743.712463	191.200000
743.750122	192.400000
743.787720	196.400000
743.825439	189.100000
743.863037	190.700000
743.900696	193.200000
743.938416	217.700000
743.976013	191.900000
744.013672	202.900000
744.051331	197.300000
744.088928	202.300000
744.126587	200.700000
744.164307	193.700000
744.201904	191.700000
744.239563	195.900000
744.277222	195.800000
744.314819	192.800000
744.352478	199.900000
744.390137	194.600000
744.427734	195.700000
744.465393	191.200000
744.502991	189.000000
744.540649	197.300000
744.578308	195.700000
744.615906	186.100000
744.653564	183.700000
744.691223	195.700000
744.728821	186.900000
744.766418	192.900000
744.804077	196.700000
744.841675	190.500000
744.879333	187.200000
744.916992	190.500000
744.954529	190.300000
744.992187	197.800000
745.029785	192.500000
745.067444	188.900000
745.105042	195.000000
745.142639	195.700000
745.180298	203.400000
745.217896	190.400000
745.255493	192.700000
745.293152	197.800000
745.330750	198.100000
745.368347	200.000000
745.405945	197.200000
745.443604	193.200000
745.481140	199.100000
745.518799	190.500000
745.556396	197.200000
745.593994	197.300000
745.631592	192.700000
745.669189	187.300000
745.706787	194.800000
745.744385	188.900000
745.781982	196.000000
745.819580	190.900000
745.857178	191.700000
745.894775	193.400000
745.932373	194.400000
745.969971	194.900000
746.007568	184.000000
746.045166	202.700000
746.082764	198.700000
746.120300	196.400000
746.157898	197.900000
746.195557	193.000000
746.233093	187.000000
746.270691	195.700000
746.308228	195.900000
746.345825	199.900000
746.383423	196.000000
746.420959	189.300000
746.458557	190.100000
746.496155	191.900000
746.533691	192.100000
746.571289	189.100000
746.608887	191.700000
746.646423	194.900000
746.684021	192.000000
746.721619	191.700000
746.759155	194.500000
746.796753	188.100000
746.834351	184.800000
746.871826	189.800000
746.909424	200.200000
746.946960	193.900000
746.984558	190.900000
747.022156	191.700000
747.059631	199.000000
747.097229	195.300000
747.134827	191.600000
747.172363	199.800000
747.209900	192.900000
747.247498	188.200000
747.285034	200.400000
747.322571	201.800000
747.360168	191.800000
747.397644	185.700000
747.435242	196.300000
747.472778	199.600000
747.510315	190.400000
747.547913	190.400000
747.585388	200.500000
747.622925	193.100000
747.660522	184.000000
747.697998	188.900000
747.735596	192.900000
747.773132	190.500000
747.810669	193.600000
747.848206	197.400000
747.885742	187.900000
747.923279	187.500000
747.960815	196.000000
747.998352	194.700000
748.035889	199.700000
748.073425	198.600000
748.110901	189.000000
748.148437	188.500000
748.185974	194.400000
748.223511	203.900000
748.261047	194.500000
748.298584	194.300000
748.336060	194.000000
748.373596	195.500000
748.411133	213.500000
748.448608	189.100000
748.486145	198.200000
748.523682	200.800000
748.561218	201.100000
748.598755	193.100000
748.636292	197.400000
748.673706	190.300000
748.711243	199.700000
748.748718	194.700000
748.786255	193.400000
748.823792	193.000000
748.861267	188.300000
748.898804	194.400000
748.936340	196.400000
748.973816	190.800000
749.011292	199.500000
749.048828	194.100000
749.086304	196.500000
749.123840	203.700000
749.161316	188.700000
749.198792	203.900000
749.236328	200.400000
749.273743	193.700000
749.311279	192.000000
749.348816	195.600000
749.386230	194.300000
749.423767	181.700000
749.461304	196.000000
749.498718	194.500000
749.536255	200.600000
749.573730	206.100000
749.611206	199.300000
749.648682	193.300000
749.686218	193.400000
749.723633	197.700000
749.761169	191.100000
749.798645	188.900000
749.836060	193.000000
749.873596	189.700000
749.911011	193.400000
749.948547	202.800000
749.986023	193.900000
750.023437	192.700000
750.060913	186.100000
750.098450	188.500000
750.135864	192.800000
750.173340	193.900000
750.210815	196.800000
750.248291	188.000000
750.285767	191.800000
750.323242	201.300000
750.360657	193.100000
750.398132	189.300000
750.435608	196.000000
750.473022	189.200000
750.510498	188.300000
750.547974	189.800000
750.585449	190.200000
750.622925	183.200000
750.660339	202.500000
750.697815	193.500000
750.735291	192.900000
750.772644	194.600000
750.810120	189.800000
750.847595	195.800000
750.885010	188.500000
750.922485	202.600000
750.959961	191.300000
750.997375	200.400000
751.034851	195.600000
751.072266	199.100000
751.109680	187.000000
751.147156	200.500000
751.184570	196.800000
751.221985	195.200000
751.259460	183.500000
751.296875	194.800000
751.334290	194.500000
751.371765	197.900000
751.409180	197.400000
751.446594	200.200000
751.484070	195.900000
751.521423	195.100000
751.558899	195.200000
751.596375	201.500000
751.633728	201.600000
751.671204	207.200000
751.708618	188.800000
751.746033	195.000000
751.783447	188.200000
751.820801	188.400000
751.858276	196.700000
751.895691	191.600000
751.933105	191.500000
751.970520	187.700000
752.007935	191.800000
752.045349	197.400000
752.082764	194.500000
752.120178	191.400000
752.157532	190.900000
752.195007	190.300000
752.232422	197.200000
752.269775	197.400000
752.307190	196.900000
752.344543	188.300000
752.382019	193.100000
752.419434	191.200000
752.456787	195.800000
752.494202	195.500000
752.531616	196.700000
752.568970	197.800000
752.606384	194.100000
752.643799	195.700000
752.681152	203.600000
752.718567	196.100000
752.755981	186.200000
752.793335	196.500000
752.830750	184.600000
752.868164	199.100000
752.905518	187.500000
752.942932	197.800000
752.980225	188.500000
753.017639	200.100000
753.055054	192.000000
753.092407	196.100000
753.129822	200.100000
753.167175	204.200000
753.204529	192.700000
753.241943	191.200000
753.279358	188.000000
753.316650	197.900000
753.354065	194.100000
753.391479	197.400000
753.428772	203.100000
753.466187	197.600000
753.503479	187.900000
753.540894	193.800000
753.578308	188.200000
753.615601	187.800000
753.653015	193.800000
753.690369	193.100000
753.727722	189.500000
753.765076	188.300000
753.802490	187.600000
753.839783	186.600000
753.877136	189.300000
753.914551	210.100000
753.951843	187.800000
753.989258	198.700000
754.026611	195.400000
754.063904	198.200000
754.101257	188.500000
754.138611	186.800000
754.175964	193.600000
754.213318	205.900000
754.250610	186.300000
754.288025	191.700000
754.325378	186.900000
754.362671	200.100000
754.400024	190.500000
754.437378	205.300000
754.474670	202.700000
754.512085	190.300000
754.549438	193.500000
754.586731	192.000000
754.624084	193.600000
754.661438	188.900000
754.698730	201.900000
754.736084	193.200000
754.773376	193.000000
754.810730	196.700000
754.848083	192.600000
754.885315	198.400000
754.922668	186.600000
754.960022	189.700000
754.997314	199.800000
755.034668	195.700000
755.072021	195.600000
755.109253	192.200000
755.146606	203.200000
755.183960	194.000000
755.221252	205.800000
755.258545	199.600000
755.295898	201.500000
755.333191	202.200000
755.370544	201.300000
755.407776	194.800000
755.445129	197.000000
755.482422	198.700000
755.519714	193.900000
755.557068	187.000000
755.594360	189.100000
755.631653	200.200000
755.668945	204.900000
755.706299	199.500000
755.743530	209.800000
755.780884	204.700000
755.818176	203.600000
755.855408	201.700000
755.892761	200.300000
755.930054	199.000000
755.967346	200.700000
756.004639	201.800000
756.041870	198.500000
756.079224	202.500000
756.116516	195.800000
756.153748	203.400000
756.191040	206.500000
756.228394	201.700000
756.265625	195.000000
756.302917	198.500000
756.340210	194.800000
756.377441	204.800000
756.414795	206.500000
756.452087	200.100000
756.489319	193.100000
756.526611	202.900000
756.563843	203.000000
756.601135	212.600000
756.638428	210.400000
756.675659	202.000000
756.712952	206.500000
756.750244	204.100000
756.787476	201.600000
756.824768	210.500000
756.862061	200.100000
756.899292	249.200000
756.936584	206.800000
756.973816	214.900000
757.011047	214.500000
757.048340	205.500000
757.085632	201.100000
757.122864	218.000000
757.160156	201.600000
757.197327	207.300000
757.234619	207.500000
757.271912	205.000000
757.309082	209.100000
757.346375	202.100000
757.383667	209.100000
757.420837	206.700000
757.458130	203.800000
757.495422	204.700000
757.532593	205.900000
757.569885	198.500000
757.607117	201.000000
757.644348	207.700000
757.681580	217.900000
757.718811	195.500000
757.756042	204.900000
757.793335	203.900000
757.830505	210.100000
757.867798	203.200000
757.905029	202.400000
757.942200	210.300000
757.979492	202.600000
758.016724	207.200000
758.053894	206.000000
758.091187	224.800000
758.128418	208.100000
758.165588	207.200000
758.202820	219.100000
758.240112	209.600000
758.277283	219.900000
758.314514	211.600000
758.351685	206.600000
758.388916	218.900000
758.426147	218.700000
758.463379	218.700000
758.500610	213.500000
758.537842	210.500000
758.575012	217.800000
758.612244	205.600000
758.649475	224.400000
758.686646	204.800000
758.723877	218.300000
758.761108	219.900000
758.798279	211.600000
758.835510	212.600000
758.872742	220.300000
758.909851	214.400000
758.947083	216.200000
758.984253	213.800000
759.021484	219.400000
759.058716	218.600000
759.095886	217.500000
759.133057	212.800000
759.170288	218.900000
759.207458	210.100000
759.244690	227.700000
759.281860	223.500000
759.319031	215.400000
759.356262	213.200000
759.393433	214.900000
759.430603	212.500000
759.467773	215.000000
759.505005	221.300000
759.542175	222.600000
759.579346	213.500000
759.616516	216.400000
759.653687	218.000000
759.690918	213.400000
759.728027	218.000000
759.765259	216.600000
759.802429	220.700000
759.839539	220.900000
759.876770	222.900000
759.913940	228.000000
759.951111	218.100000
759.988281	220.500000
760.025452	216.500000
760.062561	212.600000
760.099792	227.000000
760.136963	220.400000
760.174072	220.200000
760.211243	212.500000
760.248413	214.900000
760.285583	213.600000
760.322754	230.900000
760.359863	226.600000
760.397034	229.300000
760.434204	218.100000
760.471375	222.500000
760.508545	218.700000
760.545715	220.900000
760.582825	215.500000
760.619995	226.200000
760.657166	214.300000
760.694275	228.700000
760.731445	223.000000
760.768555	226.500000
760.805664	224.900000
760.842834	226.100000
760.879944	227.000000
760.917114	226.900000
760.954285	223.100000
760.991394	218.800000
761.028564	229.500000
761.065674	229.900000
761.102783	221.700000
761.139954	230.900000
761.177124	230.400000
761.214172	234.400000
761.251343	224.200000
761.288452	227.500000
761.325562	232.000000
761.362732	226.200000
761.399841	228.400000
761.436951	231.000000
761.474121	226.500000
761.511169	230.900000
761.548340	236.200000
761.585449	235.600000
761.622559	235.900000
761.659668	233.700000
761.696838	240.300000
761.733887	236.500000
761.771057	232.400000
761.808167	235.200000
761.845276	241.200000
761.882385	248.800000
761.919434	237.000000
761.956604	256.800000
761.993713	234.200000
762.030762	246.000000
762.067871	238.700000
762.105042	237.600000
762.142090	246.800000
762.179199	239.400000
762.216309	247.900000
762.253418	257.100000
762.290527	252.200000
762.327637	247.900000
762.364685	238.000000
762.401794	246.500000
762.438904	245.500000
762.475952	240.200000
762.513062	241.100000
762.550110	239.600000
762.587219	257.500000
762.624329	256.300000
762.661377	250.600000
762.698486	246.900000
762.735596	249.300000
762.772644	239.500000
762.809753	241.200000
762.846863	249.200000
762.883911	253.300000
762.921021	251.900000
762.958069	249.800000
762.995117	258.500000
763.032227	259.500000
763.069336	251.500000
763.106323	248.600000
763.143433	245.600000
763.180481	253.600000
763.217590	254.700000
763.254639	251.000000
763.291687	253.900000
763.328735	264.100000
763.365845	255.300000
763.402893	254.400000
763.439941	258.200000
763.477051	260.900000
763.514038	262.600000
763.551147	254.800000
763.588196	257.800000
763.625244	255.900000
763.662292	266.100000
763.699402	269.200000
763.736389	265.900000
763.773499	272.300000
763.810486	267.300000
763.847534	264.600000
763.884644	267.700000
763.921631	262.000000
763.958679	277.300000
763.995728	263.200000
764.032776	275.700000
764.069824	259.100000
764.106873	270.200000
764.143860	276.300000
764.180969	269.700000
764.218018	277.900000
764.255005	269.400000
764.292053	270.100000
764.329102	284.700000
764.366089	280.700000
764.403137	280.300000
764.440125	269.100000
764.477173	272.900000
764.514221	275.900000
764.551208	273.600000
764.588257	267.900000
764.625305	280.200000
764.662292	285.700000
764.699341	290.800000
764.736389	283.500000
764.773376	299.600000
764.810425	283.900000
764.847473	294.100000
764.884399	288.100000
764.921448	295.700000
764.958435	295.400000
764.995483	283.700000
765.032532	299.800000
765.069458	285.500000
765.106506	285.600000
765.143555	285.800000
765.180481	290.800000
765.217529	298.300000
765.254578	283.100000
765.291504	294.300000
765.328552	289.700000
765.365540	285.700000
765.402527	302.900000
765.439575	288.300000
765.476501	285.400000
765.513550	285.000000
765.550537	290.300000
765.587463	297.800000
765.624512	290.500000
765.661499	282.500000
765.698486	300.700000
765.735474	288.800000
765.772461	292.200000
765.809448	301.100000
765.846436	301.600000
765.883423	302.600000
765.920410	298.200000
765.957397	292.000000
765.994385	298.600000
766.031311	306.100000
766.068359	302.200000
766.105286	300.600000
766.142273	309.500000
766.179260	304.400000
766.216187	297.400000
766.253174	294.400000
766.290161	303.600000
766.327148	304.600000
766.364136	310.000000
766.401123	323.300000
766.438049	302.800000
766.475037	316.000000
766.512024	312.800000
766.548950	326.300000
766.585937	322.500000
766.622864	319.100000
766.659790	317.700000
766.696777	307.000000
766.733704	324.800000
766.770691	314.200000
766.807678	331.100000
766.844604	324.400000
766.881531	325.100000
766.918518	331.800000
766.955444	333.900000
766.992432	328.600000
767.029358	331.900000
767.066284	336.600000
767.103271	331.900000
767.140198	360.200000
767.177124	347.600000
767.214050	341.100000
767.251038	339.800000
767.287964	339.300000
767.324890	335.300000
767.361816	344.200000
767.398743	347.500000
767.435730	343.400000
767.472595	345.100000
767.509583	355.100000
767.546509	341.900000
767.583374	349.500000
767.620361	341.100000
767.657288	349.800000
767.694214	348.600000
767.731140	349.000000
767.768066	351.900000
767.804993	356.400000
767.841919	344.800000
767.878845	358.300000
767.915710	361.700000
767.952698	359.200000
767.989563	360.100000
768.026489	362.300000
768.063416	353.800000
768.100281	355.300000
768.137207	370.300000
768.174133	369.600000
768.211060	368.300000
768.247986	366.000000
768.284912	366.900000
768.321777	371.600000
768.358704	368.400000
768.395630	371.200000
768.432495	364.700000
768.469421	373.600000
768.506348	379.900000
768.543152	390.100000
768.580078	383.100000
768.616943	386.100000
768.653870	387.100000
768.690796	384.600000
768.727661	384.600000
768.764587	389.100000
768.801453	382.700000
768.838318	392.700000
768.875244	390.500000
768.912109	398.900000
768.948975	389.700000
768.985901	393.800000
769.022766	395.900000
769.059631	399.700000
769.096558	394.700000
769.133362	395.400000
769.170288	398.800000
769.207214	396.700000
769.244019	406.800000
769.280945	402.400000
769.317810	413.300000
769.354675	406.800000
769.391541	418.500000
769.428406	413.300000
769.465271	424.200000
769.502136	410.500000
769.539062	416.600000
769.575867	414.900000
769.612732	419.100000
769.649597	422.700000
769.686462	427.600000
769.723328	419.900000
769.760193	423.200000
769.797058	421.500000
769.833923	434.300000
769.870728	423.800000
769.907593	432.500000
769.944519	434.000000
769.981323	433.700000
770.018188	436.300000
770.055054	437.000000
770.091858	431.100000
770.128723	444.900000
770.165588	453.300000
770.202393	436.100000
770.239258	449.600000
770.276062	444.400000
770.312927	443.700000
770.349792	453.300000
770.386597	451.100000
770.423462	458.900000
770.460327	468.600000
770.497131	453.900000
770.533997	443.500000
770.570862	462.800000
770.607605	460.000000
770.644470	456.100000
770.681335	457.000000
770.718140	457.700000
770.754944	449.600000
770.791809	449.200000
770.828613	453.200000
770.865479	454.900000
770.902222	467.200000
770.939087	457.900000
770.975952	449.300000
771.012695	455.200000
771.049561	472.000000
771.086365	459.000000
771.123169	459.100000
771.159973	459.300000
771.196838	461.900000
771.233582	462.300000
771.270447	464.100000
771.307251	467.800000
771.344055	464.900000
771.380859	467.400000
771.417664	464.000000
771.454468	471.400000
771.491272	472.100000
771.528076	470.000000
771.564880	471.200000
771.601685	481.700000
771.638428	473.600000
771.675293	479.200000
771.712097	471.000000
771.748840	489.700000
771.785645	480.300000
771.822449	483.600000
771.859253	488.900000
771.896057	483.700000
771.932861	496.200000
771.969604	488.300000
772.006409	479.100000
772.043213	498.700000
772.079956	494.300000
772.116760	484.600000
772.153503	489.700000
772.190308	501.500000
772.227112	491.800000
772.263855	489.100000
772.300659	497.100000
772.337463	507.700000
772.374207	494.500000
772.411011	490.300000
772.447754	497.000000
772.484497	518.300000
772.521301	510.800000
772.558105	511.200000
772.594849	510.200000
772.631592	517.000000
772.668396	518.200000
772.705139	527.500000
772.741882	522.800000
772.778625	537.200000
772.815430	537.500000
772.852173	536.400000
772.888916	542.200000
772.925720	544.100000
772.962463	553.900000
772.999207	554.700000
773.035950	557.500000
773.072754	556.500000
773.109436	551.400000
773.146240	555.600000
773.182922	553.400000
773.219727	567.100000
773.256470	561.800000
773.293152	546.000000
773.329956	554.900000
773.366699	562.300000
773.403381	552.000000
773.440186	564.600000
773.476929	567.200000
773.513611	561.100000
773.550354	564.200000
773.587158	563.900000
773.623840	561.200000
773.660583	570.800000
773.697327	589.100000
773.734009	574.600000
773.770813	576.800000
773.807495	578.700000
773.844238	581.400000
773.880981	599.600000
773.917664	595.800000
773.954407	599.600000
773.991150	589.200000
774.027832	596.200000
774.064575	587.800000
774.101318	601.800000
774.138000	608.600000
774.174744	600.800000
774.211487	605.300000
774.248108	592.600000
774.284851	594.800000
774.321594	608.500000
774.358276	614.700000
774.395020	622.900000
774.431702	620.900000
774.468384	610.800000
774.505127	609.700000
774.541809	625.000000
774.578491	640.200000
774.615234	640.800000
774.651917	632.000000
774.688599	637.400000
774.725342	645.500000
774.762024	640.700000
774.798706	650.300000
774.835449	650.400000
774.872070	660.600000
774.908813	652.600000
774.945496	647.800000
774.982178	650.300000
775.018860	661.700000
775.055542	659.900000
775.092224	662.000000
775.128967	669.700000
775.165588	666.600000
775.202271	658.500000
775.239014	672.700000
775.275635	677.000000
775.312317	672.000000
775.349060	677.300000
775.385681	677.000000
775.422363	668.400000
775.459045	678.200000
775.495667	682.500000
775.532410	688.600000
775.569092	690.000000
775.605713	685.900000
775.642395	684.500000
775.679016	687.400000
775.715698	697.500000
775.752380	696.100000
775.789001	696.100000
775.825684	689.000000
775.862366	693.200000
775.898987	706.200000
775.935669	696.900000
775.972351	719.000000
776.008972	712.600000
776.045654	711.500000
776.082336	704.900000
776.118958	703.700000
776.155640	711.800000
776.192322	725.800000
776.228882	725.800000
776.265564	722.400000
776.302185	715.100000
776.338867	724.400000
776.375488	710.700000
776.412109	724.200000
776.448792	734.500000
776.485413	736.000000
776.522034	728.300000
776.558716	719.200000
776.595337	718.700000
776.631958	725.300000
776.668579	728.300000
776.705261	737.000000
776.741882	730.800000
776.778503	727.300000
776.815186	720.300000
776.851746	732.800000
776.888367	732.100000
776.924988	739.900000
776.961609	725.500000
776.998291	729.300000
777.034851	717.200000
777.071472	737.800000
777.108154	735.300000
777.144714	745.700000
777.181335	746.800000
777.218018	734.200000
777.254578	740.800000
777.291199	741.300000
777.327759	753.800000
777.364380	759.700000
777.401062	760.900000
777.437622	774.700000
777.474243	761.100000
777.510864	771.900000
777.547424	764.800000
777.584045	773.100000
777.620667	773.700000
777.657227	782.800000
777.693848	779.800000
777.730469	797.900000
777.767029	788.400000
777.803650	791.600000
777.840271	783.500000
777.876831	788.000000
777.913452	793.500000
777.950012	774.800000
777.986633	773.600000
778.023193	776.000000
778.059753	775.400000
778.096375	782.400000
778.132996	791.300000
778.169556	778.300000
778.206116	778.500000
778.242737	778.800000
778.279297	793.000000
778.315857	779.600000
778.352478	788.800000
778.389038	806.400000
778.425598	805.200000
778.462219	812.700000
778.498718	817.000000
778.535339	821.500000
778.571838	823.400000
778.608459	835.200000
778.645020	825.800000
778.681580	837.200000
778.718140	841.500000
778.754761	838.200000
778.791260	842.100000
778.827881	855.800000
778.864441	851.300000
778.900940	852.600000
778.937561	854.100000
778.974121	850.400000
779.010620	840.800000
779.047241	849.700000
779.083801	860.700000
779.120300	862.500000
779.156860	870.200000
779.193359	860.000000
779.229980	866.000000
779.266541	873.400000
779.303040	878.200000
779.339600	867.600000
779.376160	864.000000
779.412659	872.900000
779.449219	867.400000
779.485779	876.500000
779.522278	884.200000
779.558838	886.400000
779.595398	885.700000
779.631897	883.300000
779.668457	878.200000
779.705017	884.200000
779.741516	883.300000
779.778076	875.100000
779.814575	885.200000
779.851074	893.900000
779.887634	893.500000
779.924133	896.200000
779.960693	881.900000
779.997253	896.500000
780.033691	903.400000
780.070251	905.900000
780.106812	921.000000
780.143250	915.300000
780.179810	917.200000
780.216370	917.100000
780.252808	930.900000
780.289368	949.100000
780.325867	943.000000
780.362366	938.200000
780.398865	953.900000
780.435364	944.300000
780.471863	957.000000
780.508423	958.400000
780.544861	969.200000
780.581421	970.800000
780.617920	962.400000
780.654419	955.700000
780.690918	970.800000
780.727417	978.400000
780.763916	973.100000
780.800415	978.600000
780.836914	959.100000
780.873352	972.300000
780.909912	956.100000
780.946411	969.200000
780.982849	981.000000
781.019348	996.600000
781.055786	989.900000
781.092346	985.600000
781.128845	997.100000
781.165283	1003.300000
781.201782	1010.500000
781.238281	1016.800000
781.274719	1020.800000
781.311218	1007.400000
781.347717	1020.500000
781.384155	1010.400000
781.420654	1012.000000
781.457092	1022.600000
781.493591	1019.100000
781.530090	1013.600000
781.566528	1013.400000
781.602966	1017.600000
781.639465	1016.600000
781.675903	1013.600000
781.712402	1026.700000
781.748901	1034.900000
781.785278	1025.000000
781.821777	1027.100000
781.858276	1025.800000
781.894714	1044.500000
781.931152	1031.400000
781.967651	1039.700000
782.004089	1028.600000
782.040527	1041.200000
782.076965	1042.200000
782.113403	1043.500000
782.149902	1042.300000
782.186340	1038.200000
782.222778	1056.300000
782.259277	1040.300000
782.295654	1034.900000
782.332092	1042.200000
782.368591	1046.600000
782.404968	1029.600000
782.441467	1037.400000
782.477905	1038.400000
782.514282	1035.800000
782.550781	1056.200000
782.587219	1052.800000
782.623596	1057.700000
782.660095	1059.100000
782.696472	1064.600000
782.732910	1069.800000
782.769348	1073.000000
782.805786	1094.500000
782.842224	1089.600000
782.878662	1081.300000
782.915039	1082.800000
782.951477	1083.100000
782.987915	1073.800000
783.024292	1082.500000
783.060730	1080.500000
783.097168	1066.600000
783.133545	1057.600000
783.169983	1049.800000
783.206421	1047.600000
783.242798	1047.900000
783.279236	1038.900000
783.315613	1034.900000
783.352051	1025.500000
783.388489	1015.200000
783.424866	1000.700000
783.461304	1005.800000
783.497681	1014.200000
783.534058	1006.600000
783.570496	1002.500000
783.606934	996.400000
783.643250	1005.500000
783.679687	1016.400000
783.716125	1012.800000
783.752441	1028.000000
783.788879	1045.600000
783.825317	1049.100000
783.861633	1054.200000
783.898071	1060.200000
783.934448	1077.900000
783.970825	1090.300000
784.007263	1088.300000
784.043579	1070.800000
784.080017	1047.300000
784.116394	983.000000
784.152710	914.100000
784.189148	835.000000
784.225525	746.000000
784.261902	657.600000
784.298279	594.700000
784.334656	542.200000
784.371033	491.800000
784.407410	465.500000
784.443787	441.600000
784.480164	442.100000
784.516541	473.300000
784.552856	546.600000
784.589233	620.600000
784.625610	694.200000
784.661987	798.100000
784.698364	846.400000
784.734741	899.200000
784.771057	943.800000
784.807434	988.900000
784.843811	1035.700000
784.880127	1053.900000
784.916504	1092.000000
784.952881	1106.000000
784.989197	1098.300000
785.025574	1110.600000
785.061951	1118.000000
785.098267	1150.100000
785.134644	1145.100000
785.170959	1146.600000
785.207275	1156.300000
785.243652	1155.000000
785.279968	1135.600000
785.316345	1152.800000
785.352722	1156.500000
785.388977	1151.000000
785.425354	1135.200000
785.461731	1112.900000
785.498047	1104.500000
785.534363	1098.400000
785.570679	1101.600000
785.606995	1104.900000
785.643372	1107.900000
785.679687	1095.100000
785.716003	1076.100000
785.752380	1079.900000
785.788635	1086.400000
785.825012	1107.900000
785.861328	1118.600000
785.897644	1101.300000
785.933960	1122.400000
785.970337	1125.800000
786.006592	1142.400000
786.042908	1160.600000
786.079285	1177.400000
786.115540	1182.000000
786.151855	1189.200000
786.188171	1180.300000
786.224487	1181.400000
786.260803	1180.900000
786.297119	1198.600000
786.333435	1203.600000
786.369751	1197.500000
786.406006	1193.400000
786.442322	1174.900000
786.478638	1162.800000
786.514954	1186.400000
786.551270	1180.200000
786.587585	1196.100000
786.623840	1177.600000
786.660156	1171.200000
786.696472	1153.300000
786.732727	1155.300000
786.769043	1161.300000
786.805298	1146.200000
786.841614	1149.500000
786.877930	1152.400000
786.914124	1135.400000
786.950439	1151.100000
786.986755	1158.400000
787.023010	1181.200000
787.059326	1195.200000
787.095642	1183.000000
787.131836	1200.600000
787.168152	1189.000000
787.204468	1198.700000
787.240723	1216.100000
787.276978	1239.800000
787.313293	1242.000000
787.349548	1244.700000
787.385803	1244.600000
787.422058	1231.500000
787.458313	1236.300000
787.494629	1240.100000
787.530823	1234.000000
787.567139	1220.500000
787.603455	1208.700000
787.639648	1191.700000
787.675903	1195.500000
787.712219	1202.500000
787.748413	1192.900000
787.784729	1208.300000
787.820984	1188.000000
787.857178	1180.200000
787.893494	1166.100000
787.929749	1168.600000
787.965942	1168.600000
788.002258	1190.200000
788.038452	1194.600000
788.074707	1181.700000
788.110962	1186.400000
788.147217	1180.800000
788.183472	1191.100000
788.219727	1202.600000
788.255920	1223.900000
788.292175	1227.000000
788.328430	1220.200000
788.364624	1200.000000
788.400879	1196.100000
788.437134	1209.100000
788.473328	1205.000000
788.509583	1208.200000
788.545837	1192.600000
788.582031	1189.600000
788.618286	1175.300000
788.654480	1171.200000
788.690735	1184.700000
788.726990	1204.700000
788.763184	1202.500000
788.799377	1218.000000
788.835632	1200.800000
788.871826	1219.100000
788.908081	1223.000000
788.944336	1218.600000
788.980469	1237.300000
789.016724	1231.700000
789.052979	1228.200000
789.089111	1203.200000
789.125366	1209.000000
789.161621	1185.700000
789.197754	1205.300000
789.234009	1192.200000
789.270142	1175.600000
789.306396	1164.500000
789.342590	1149.400000
789.378784	1131.400000
789.414978	1134.300000
789.451233	1150.000000
789.487366	1149.800000
789.523621	1160.000000
789.559814	1148.900000
789.595947	1135.300000
789.632202	1146.100000
789.668335	1155.700000
789.704529	1185.400000
789.740784	1204.700000
789.776917	1208.100000
789.813110	1185.200000
789.849304	1203.000000
789.885498	1206.300000
789.921692	1226.200000
789.957886	1228.200000
789.994019	1235.400000
790.030212	1227.000000
790.066406	1227.300000
790.102539	1221.600000
790.138733	1235.700000
790.174927	1229.700000
790.211060	1243.500000
790.247253	1223.100000
790.283386	1206.400000
790.319580	1190.000000
790.355774	1172.300000
790.391907	1179.800000
790.428101	1204.700000
790.464294	1216.800000
790.500427	1215.200000
790.536621	1193.000000
790.572754	1175.800000
790.608887	1179.900000
790.645081	1191.900000
790.681274	1203.600000
790.717346	1199.400000
790.753540	1158.200000
790.789734	1088.000000
790.825867	1027.500000
790.862000	1030.400000
790.898132	1084.200000
790.934265	1155.100000
790.970459	1218.400000
791.006592	1238.700000
791.042725	1247.100000
791.078918	1233.300000
791.114990	1241.700000
791.151184	1255.300000
791.187317	1285.900000
791.223389	1272.800000
791.259583	1260.200000
791.295715	1263.700000
791.331848	1268.800000
791.367981	1287.000000
791.404114	1289.200000
791.440247	1284.900000
791.476379	1285.900000
791.512451	1256.300000
791.548584	1262.100000
791.584778	1257.400000
791.620850	1281.800000
791.656982	1288.500000
791.693115	1278.500000
791.729187	1273.900000
791.765381	1266.600000
791.801514	1259.500000
791.837585	1271.600000
791.873718	1272.800000
791.909851	1297.400000
791.945923	1301.700000
791.982056	1262.700000
792.018188	1254.300000
792.054260	1260.800000
792.090393	1264.300000
792.126465	1259.400000
792.162598	1274.800000
792.198669	1254.500000
792.234741	1247.100000
792.270874	1236.400000
792.307007	1217.800000
792.343079	1229.900000
792.379150	1251.000000
792.415283	1231.400000
792.451355	1231.800000
792.487488	1202.700000
792.523560	1199.800000
792.559631	1207.000000
792.595764	1207.000000
792.631836	1209.200000
792.667908	1218.500000
792.703979	1199.900000
792.740051	1200.000000
792.776184	1203.700000
792.812256	1206.600000
792.848328	1217.200000
792.884399	1222.300000
792.920471	1219.800000
792.956543	1213.000000
792.992615	1209.500000
793.028748	1207.400000
793.064758	1210.600000
793.100830	1238.200000
793.136963	1250.300000
793.172974	1241.600000
793.209045	1228.400000
793.245178	1236.200000
793.281189	1223.200000
793.317261	1237.500000
793.353271	1237.500000
793.389404	1243.300000
793.425476	1236.100000
793.461487	1220.800000
793.497559	1215.600000
793.533630	1224.000000
793.569641	1226.800000
793.605713	1224.900000
793.641785	1225.600000
793.677795	1241.600000
793.713867	1221.500000
793.749878	1227.200000
793.785950	1240.000000
793.822021	1247.500000
793.858032	1231.900000
793.894104	1243.600000
793.930176	1227.500000
793.966187	1229.800000
794.002258	1217.500000
794.038269	1220.300000
794.074280	1218.200000
794.110352	1242.700000
794.146423	1211.900000
794.182373	1208.100000
794.218445	1200.700000
794.254517	1189.400000
794.290466	1173.900000
794.326538	1180.800000
794.362549	1183.500000
794.398560	1186.600000
794.434631	1193.300000
794.470581	1160.900000
794.506653	1154.800000
794.542664	1156.000000
794.578674	1153.100000
794.614685	1151.900000
794.650757	1151.400000
794.686707	1142.300000
794.722778	1128.600000
794.758789	1138.300000
794.794739	1149.400000
794.830811	1166.900000
794.866821	1192.900000
794.902771	1179.300000
794.938843	1167.000000
794.974792	1160.600000
795.010803	1162.800000
795.046814	1156.400000
795.082825	1156.700000
795.118835	1167.400000
795.154846	1142.200000
795.190796	1148.300000
795.226807	1126.600000
795.262817	1128.300000
795.298767	1128.800000
795.334778	1130.900000
795.370850	1120.100000
795.406799	1123.300000
795.442810	1101.000000
795.478821	1097.500000
795.514709	1097.900000
795.550720	1119.600000
795.586670	1102.400000
795.622681	1107.600000
795.658691	1103.200000
795.694641	1097.900000
795.730652	1086.900000
795.766663	1093.400000
795.802551	1101.000000
795.838562	1114.400000
795.874573	1094.600000
795.910522	1092.500000
795.946472	1080.000000
795.982483	1090.600000
796.018433	1095.100000
796.054382	1102.500000
796.090393	1084.600000
796.126282	1078.100000
796.162292	1061.400000
796.198242	1058.000000
796.234192	1059.500000
796.270203	1062.800000
796.306091	1070.400000
796.342041	1080.200000
796.378052	1063.300000
796.413940	1061.400000
796.449951	1062.900000
796.485901	1064.300000
796.521790	1066.100000
796.557800	1081.700000
796.593689	1071.300000
796.629639	1063.100000
796.665649	1058.100000
796.701599	1056.000000
796.737488	1056.400000
796.773437	1058.000000
796.809387	1057.200000
796.845337	1055.900000
796.881287	1044.200000
796.917175	1027.000000
796.953125	1023.000000
796.989075	1039.600000
797.024963	1044.200000
797.060913	1043.200000
797.096863	1038.800000
797.132751	1031.000000
797.168701	1011.700000
797.204590	1020.100000
797.240540	1023.800000
797.276489	1029.600000
797.312439	1029.700000
797.348328	1027.000000
797.384277	1016.500000
797.420166	1008.700000
797.456055	1014.700000
797.492004	1006.400000
797.527893	1016.300000
797.563843	1020.900000
797.599731	1004.800000
797.635620	990.300000
797.671570	1002.900000
797.707520	992.800000
797.743347	997.000000
797.779297	1006.300000
797.815125	1004.900000
797.851074	993.200000
797.887024	986.000000
797.922913	978.700000
797.958801	990.900000
797.994690	984.600000
798.030579	994.700000
798.066467	996.800000
798.102356	980.000000
798.138245	969.500000
798.174133	966.000000
798.210083	972.300000
798.245911	981.800000
798.281799	987.800000
798.317749	981.700000
798.353577	965.800000
798.389465	962.400000
798.425293	963.100000
798.461243	957.800000
798.497131	962.800000
798.532959	966.900000
798.568848	967.600000
798.604736	955.300000
798.640564	941.600000
798.676453	937.300000
798.712402	944.400000
798.748230	956.500000
798.784119	945.800000
798.820007	954.200000
798.855835	945.400000
798.891724	938.000000
798.927551	936.100000
798.963379	946.600000
798.999268	938.800000
799.035095	936.900000
799.070984	925.400000
799.106873	917.000000
799.142700	924.300000
799.178528	918.300000
799.214417	921.500000
799.250244	939.200000
799.286133	926.600000
799.321960	914.900000
799.357788	916.100000
799.393677	914.300000
799.429504	915.500000
799.465332	915.700000
799.501221	923.800000
799.537048	917.700000
799.572876	911.700000
799.608704	907.200000
799.644531	913.900000
799.680359	913.700000
799.716248	922.400000
799.752014	927.200000
799.787903	920.500000
799.823730	911.300000
799.859558	904.400000
799.895386	903.200000
799.931213	909.400000
799.967041	895.100000
800.002869	899.000000
800.038696	903.000000
800.074463	884.900000
800.110352	883.800000
800.146179	875.100000
800.181946	883.800000
800.217773	884.400000
800.253540	882.900000
800.289429	879.100000
800.325256	873.700000
800.361023	860.100000
800.396851	866.000000
800.432678	867.300000
800.468445	861.100000
800.504272	854.800000
800.540100	839.000000
800.575867	838.100000
800.611694	843.200000
800.647461	834.400000
800.683289	839.700000
800.719116	840.800000
800.754883	835.000000
800.790649	818.800000
800.826477	809.000000
800.862244	833.200000
800.898071	815.500000
800.933838	810.300000
800.969604	810.400000
801.005432	806.600000
801.041199	809.700000
801.076965	800.200000
801.112793	789.400000
801.148560	777.200000
801.184326	788.300000
801.220154	784.700000
801.255859	778.600000
801.291687	772.500000
801.327454	769.400000
801.363281	767.800000
801.398987	761.400000
801.434814	766.900000
801.470520	776.500000
801.506287	754.900000
801.542114	750.300000
801.577820	752.500000
801.613647	753.000000
801.649414	746.700000
801.685120	747.000000
801.720886	751.500000
801.756714	742.300000
801.792419	730.500000
801.828186	728.400000
801.863892	736.900000
801.899719	730.300000
801.935486	725.700000
801.971252	737.700000
802.006958	725.500000
802.042725	718.400000
802.078430	719.000000
802.114197	712.500000
802.149963	730.900000
802.185669	718.300000
802.221436	714.000000
802.257202	716.200000
802.292908	710.700000
802.328674	718.600000
802.364441	714.700000
802.400146	708.400000
802.435913	703.400000
802.471558	703.900000
802.507324	696.200000
802.543091	686.700000
802.578796	701.400000
802.614502	703.800000
802.650269	705.400000
802.685974	686.300000
802.721741	694.700000
802.757446	694.500000
802.793152	693.500000
802.828918	698.900000
802.864624	693.200000
802.900330	689.900000
802.936035	688.800000
802.971802	682.300000
803.007446	681.500000
803.043213	674.100000
803.078857	678.400000
803.114624	662.800000
803.150330	670.900000
803.185974	655.900000
803.221741	662.000000
803.257446	665.900000
803.293152	669.000000
803.328857	655.700000
803.364563	654.200000
803.400208	645.700000
803.435974	654.700000
803.471680	648.100000
803.507324	645.400000
803.543030	650.100000
803.578735	656.800000
803.614441	641.600000
803.650146	651.600000
803.685791	636.200000
803.721497	637.200000
803.757202	626.800000
803.792847	636.900000
803.828552	626.000000
803.864258	626.800000
803.899902	623.300000
803.935608	610.000000
803.971313	615.500000
804.006958	617.500000
804.042664	611.400000
804.078308	617.800000
804.113953	610.700000
804.149658	618.200000
804.185364	606.900000
804.221008	611.000000
804.256714	603.500000
804.292297	602.700000
804.328003	599.400000
804.363708	591.100000
804.399292	592.600000
804.434998	591.700000
804.470703	583.700000
804.506287	596.000000
804.541992	589.900000
804.577637	592.500000
804.613281	579.900000
804.648926	575.300000
804.684570	584.300000
804.720215	575.800000
804.755920	580.000000
804.791565	572.000000
804.827209	579.200000
804.862854	568.600000
804.898437	564.000000
804.934143	565.000000
804.969788	566.600000
805.005371	568.900000
805.041077	568.500000
805.076721	565.600000
805.112305	554.500000
805.147949	555.500000
805.183655	551.500000
805.219238	552.800000
805.254883	558.400000
805.290466	560.200000
805.326111	550.700000
805.361755	543.300000
805.397400	549.500000
805.432983	549.100000
805.468628	551.300000
805.504211	555.800000
805.539856	553.500000
805.575500	557.700000
805.611084	547.200000
805.646729	533.600000
805.682373	540.500000
805.717957	551.200000
805.753601	553.700000
805.789246	533.700000
805.824768	545.400000
805.860413	548.700000
805.895996	533.200000
805.931641	535.100000
805.967224	540.700000
806.002869	532.100000
806.038452	544.000000
806.074036	540.600000
806.109619	526.000000
806.145264	522.500000
806.180847	523.400000
806.216431	522.100000
806.252014	524.200000
806.287659	523.300000
806.323181	530.700000
806.358826	526.700000
806.394409	504.600000
806.429993	511.800000
806.465576	524.000000
806.501160	509.100000
806.536743	498.200000
806.572327	512.300000
806.607910	503.300000
806.643494	505.900000
806.679077	499.600000
806.714661	505.200000
806.750244	501.700000
806.785828	494.300000
806.821350	494.500000
806.856934	501.000000
806.892517	493.200000
806.928101	490.100000
806.963684	488.900000
806.999268	502.900000
807.034790	476.600000
807.070374	488.700000
807.105896	482.000000
807.141479	480.200000
807.177063	485.200000
807.212585	474.800000
807.248169	476.300000
807.283752	480.900000
807.319275	478.700000
807.354858	476.100000
807.390381	467.100000
807.425903	471.600000
807.461487	467.200000
807.497070	460.000000
807.532593	462.700000
807.568115	458.200000
807.603699	455.900000
807.639221	450.500000
807.674744	456.800000
807.710266	458.100000
807.745850	462.300000
807.781372	452.700000
807.816895	448.300000
807.852417	449.900000
807.888000	450.400000
807.923523	445.900000
807.959045	451.700000
807.994629	437.000000
808.030090	437.400000
808.065613	440.600000
808.101135	444.800000
808.136658	439.700000
808.172241	442.100000
808.207764	437.400000
808.243225	431.400000
808.278809	425.600000
808.314270	437.300000
808.349792	420.400000
808.385315	423.600000
808.420837	424.700000
808.456360	430.800000
808.491882	429.500000
808.527344	424.200000
808.562866	433.600000
808.598389	424.900000
808.633850	417.600000
808.669434	418.000000
808.704895	425.400000
808.740417	429.500000
808.775940	420.900000
808.811462	414.300000
808.846924	407.300000
808.882385	405.100000
808.917847	403.400000
808.953369	407.400000
808.988892	402.000000
809.024353	410.400000
809.059875	406.300000
809.095398	402.300000
809.130798	398.000000
809.166321	399.100000
809.201843	395.600000
809.237305	395.900000
809.272766	405.400000
809.308228	388.900000
809.343750	390.000000
809.379211	392.500000
809.414734	391.100000
809.450134	397.600000
809.485657	382.200000
809.521118	387.200000
809.556580	387.400000
809.592102	383.400000
809.627502	382.400000
809.663025	377.500000
809.698486	374.900000
809.733887	368.600000
809.769409	374.900000
809.804871	364.000000
809.840271	367.300000
809.875793	369.800000
809.911194	374.400000
809.946655	363.600000
809.982178	361.800000
810.017639	366.800000
810.053040	365.300000
810.088501	360.100000
810.123901	361.800000
810.159424	355.300000
810.194885	352.300000
810.230286	356.500000
810.265747	353.100000
810.301208	349.000000
810.336609	352.400000
810.372070	346.800000
810.407532	348.900000
810.442932	348.800000
810.478394	353.500000
810.513794	349.100000
810.549255	347.600000
810.584717	343.300000
810.620117	340.100000
810.655518	347.200000
810.690979	345.200000
810.726379	342.800000
810.761841	334.600000
810.797302	333.900000
810.832642	333.600000
810.868103	345.300000
810.903564	332.000000
810.938904	339.800000
810.974365	327.300000
811.009827	330.900000
811.045166	325.300000
811.080627	321.500000
811.115967	324.900000
811.151428	334.800000
811.186829	325.300000
811.222229	327.800000
811.257629	316.700000
811.293091	325.500000
811.328430	333.800000
811.363892	328.000000
811.399292	327.100000
811.434631	321.400000
811.470093	325.200000
811.505493	318.800000
811.540833	317.800000
811.576294	325.800000
811.611694	317.300000
811.647034	313.800000
811.682434	314.900000
811.717773	319.400000
811.753235	322.900000
811.788635	315.600000
811.823975	314.700000
811.859375	325.200000
811.894775	308.600000
811.930115	313.200000
811.965515	312.100000
812.000916	317.800000
812.036255	308.400000
812.071655	315.200000
812.106995	307.600000
812.142395	306.800000
812.177795	314.600000
812.213196	311.300000
812.248474	310.900000
812.283875	304.900000
812.319214	305.900000
812.354614	307.500000
812.390015	302.700000
812.425293	305.500000
812.460693	304.300000
812.496094	300.600000
812.531433	296.500000
812.566772	296.500000
812.602173	301.400000
812.637451	300.000000
812.672852	296.700000
812.708191	301.900000
812.743530	293.500000
812.778931	286.100000
812.814270	291.000000
812.849609	296.700000
812.884949	291.800000
812.920227	282.700000
812.955627	303.300000
812.990967	291.800000
813.026306	286.800000
813.061646	275.300000
813.096985	276.500000
813.132324	272.200000
813.167664	277.800000
813.203003	282.300000
813.238281	271.500000
813.273682	271.200000
813.308960	269.100000
813.344299	268.600000
813.379639	281.400000
813.414978	271.300000
813.450256	272.100000
813.485596	274.000000
813.520874	268.800000
813.556213	272.100000
813.591614	276.200000
813.626831	266.300000
813.662170	273.100000
813.697510	281.600000
813.732788	263.800000
813.768127	270.000000
813.803467	271.200000
813.838745	263.800000
813.874084	270.200000
813.909363	266.300000
813.944641	272.000000
813.979980	259.300000
814.015320	263.500000
814.050598	259.700000
814.085876	265.800000
814.121155	264.600000
814.156494	260.800000
814.191772	264.200000
814.227051	257.100000
814.262390	261.100000
814.297668	259.700000
814.332947	261.700000
814.368225	254.100000
814.403564	259.600000
814.438782	253.100000
814.474121	257.400000
814.509338	253.000000
814.544617	263.200000
814.579956	251.400000
814.615173	265.300000
814.650513	257.300000
814.685791	251.900000
814.721008	252.700000
814.756348	254.200000
814.791626	248.200000
814.826843	252.900000
814.862122	249.300000
814.897400	247.900000
814.932678	249.400000
814.967957	250.700000
815.003235	247.700000
815.038452	242.400000
815.073730	240.900000
815.108948	252.400000
815.144226	247.400000
815.179504	251.900000
815.214722	235.500000
815.250000	238.000000
815.285278	244.500000
815.320496	239.000000
815.355774	240.900000
815.391052	244.800000
815.426270	239.100000
815.461487	239.700000
815.496765	236.400000
815.531982	232.800000
815.567261	238.700000
815.602539	246.100000
815.637695	240.900000
815.672974	243.300000
815.708191	242.900000
815.743408	243.700000
815.778687	236.600000
815.813904	246.200000
815.849121	228.700000
815.884399	230.500000
815.919556	232.500000
815.954834	232.300000
815.990051	236.000000
816.025269	238.800000
816.060486	229.000000
816.095703	228.800000
816.130920	232.000000
816.166199	228.200000
816.201416	234.600000
816.236572	236.700000
816.271851	228.000000
816.307007	234.100000
816.342224	223.100000
816.377441	226.800000
816.412659	219.900000
816.447876	230.400000
816.483093	227.600000
816.518250	227.300000
816.553467	224.000000
816.588745	229.100000
816.623901	222.500000
816.659119	216.300000
816.694275	223.000000
816.729492	217.400000
816.764709	255.600000
816.799927	214.400000
816.835083	223.700000
816.870300	216.300000
816.905457	221.100000
816.940674	223.400000
816.975830	216.800000
817.010986	214.400000
817.046204	217.700000
817.081421	213.600000
817.116577	214.400000
817.151733	224.300000
817.186951	223.500000
817.222107	218.600000
817.257324	221.000000
817.292419	219.800000
817.327637	211.800000
817.362854	216.800000
817.398010	211.900000
817.433167	213.500000
817.468323	212.200000
817.503479	215.500000
817.538635	223.300000
817.573853	218.200000
817.608948	215.300000
817.644165	210.800000
817.679321	208.900000
817.714478	209.700000
817.749634	213.900000
817.784790	227.300000
817.819946	219.300000
817.855103	202.200000
817.890198	211.000000
817.925415	203.000000
817.960571	212.300000
817.995667	212.600000
818.030823	212.700000
818.066040	207.700000
818.101135	209.300000
818.136292	209.800000
818.171448	202.400000
818.206543	209.900000
818.241699	212.400000
818.276855	210.800000
818.311951	208.000000
818.347107	205.100000
818.382263	208.900000
818.417358	215.900000
818.452515	215.800000
818.487610	216.000000
818.522766	203.900000
818.557922	217.300000
818.593018	210.300000
818.628113	208.100000
818.663269	204.600000
818.698364	207.700000
818.733521	205.800000
818.768677	208.900000
818.803711	200.700000
818.838867	203.600000
818.874023	206.700000
818.909058	202.900000
818.944214	201.100000
818.979370	209.600000
819.014404	206.800000
819.049561	203.900000
819.084595	208.400000
819.119751	198.900000
819.154846	208.900000
819.189941	204.100000
819.225037	198.300000
819.260193	194.700000
819.295227	198.200000
819.330322	192.900000
819.365479	193.600000
819.400513	225.400000
819.435608	193.500000
819.470764	189.500000
819.505798	194.300000
819.540894	196.700000
819.575989	195.500000
819.611084	203.600000
819.646179	204.200000
819.681213	199.300000
819.716309	196.900000
819.751404	196.400000
819.786438	202.700000
819.821533	193.600000
819.856628	199.900000
819.891663	201.100000
819.926758	210.400000
819.961853	202.300000
819.996887	196.700000
820.031982	199.600000
820.067017	198.400000
820.102112	224.000000
820.137207	195.200000
820.172302	213.500000
820.207275	195.300000
820.242371	193.200000
820.277405	195.300000
820.312500	197.400000
820.347534	199.300000
820.382568	202.300000
820.417664	196.300000
820.452759	196.600000
820.487732	193.600000
820.522827	196.400000
820.557861	193.100000
820.592896	194.900000
820.627930	195.700000
820.662964	194.100000
820.698059	198.400000
820.733093	193.700000
820.768127	198.400000
820.803162	196.500000
820.838196	193.900000
820.873230	198.000000
820.908264	195.800000
820.943298	192.900000
820.978333	200.800000
821.013367	198.400000
821.048401	198.900000
821.083435	203.600000
821.118469	187.100000
821.153503	202.200000
821.188477	195.500000
821.223511	188.700000
821.258484	194.200000
821.293579	197.100000
821.328613	186.100000
821.363647	194.400000
821.398621	189.300000
821.433655	192.600000
821.468628	206.200000
821.503662	194.200000
821.538696	195.300000
821.573669	189.100000
821.608704	197.200000
821.643677	192.100000
821.678650	197.500000
821.713684	203.700000
821.748718	191.400000
821.783691	192.900000
821.818726	195.900000
821.853638	196.300000
821.888672	193.600000
821.923706	194.200000
821.958618	192.400000
821.993652	193.200000
822.028687	200.100000
822.063599	201.900000
822.098633	196.000000
822.133667	189.800000
822.168579	192.100000
822.203613	194.600000
822.238586	190.900000
822.273560	196.500000
822.308533	192.400000
822.343567	192.800000
822.378479	193.700000
822.413452	192.000000
822.448425	190.400000
822.483398	199.800000
822.518372	199.800000
822.553345	189.600000
822.588318	201.500000
822.623291	191.700000
822.658203	192.400000
822.693237	192.400000
822.728210	188.800000
822.763123	193.800000
822.798096	189.500000
822.833069	192.300000
822.867981	194.100000
822.902954	194.800000
822.937927	197.000000
822.972900	204.000000
823.007874	185.700000
823.042725	195.900000
823.077698	207.200000
823.112671	187.200000
823.147583	193.300000
823.182556	195.700000
823.217529	199.400000
823.252441	190.500000
823.287415	208.200000
823.322388	194.200000
823.357239	194.100000
823.392212	200.700000
823.427185	198.700000
823.462097	189.400000
823.497009	197.000000
823.531982	192.000000
823.566895	193.800000
823.601807	189.900000
823.636719	191.700000
823.671631	198.500000
823.706604	192.100000
823.741455	196.500000
823.776428	187.300000
823.811340	199.300000
823.846252	201.200000
823.881165	202.600000
823.916138	195.300000
823.950989	203.700000
823.985901	190.600000
824.020813	196.400000
824.055725	192.700000
824.090637	191.700000
824.125610	195.800000
824.160461	196.100000
824.195374	195.500000
824.230225	199.700000
824.265198	185.800000
824.300110	191.400000
824.334961	202.800000
824.369873	185.300000
824.404785	194.800000
824.439636	201.100000
824.474548	184.200000
824.509460	185.200000
824.544312	197.100000
824.579224	196.000000
824.614075	194.400000
824.648987	193.500000
824.683899	191.900000
824.718811	191.500000
824.753662	198.500000
824.788574	198.800000
824.823364	192.700000
824.858276	190.500000
824.893188	197.300000
824.928040	199.900000
824.962952	197.000000
824.997803	198.500000
825.032654	194.400000
825.067566	197.600000
825.102417	190.700000
825.137268	192.800000
825.172119	195.300000
825.206970	192.900000
825.241882	191.800000
825.276733	191.300000
825.311646	190.900000
825.346436	188.000000
825.381348	188.800000
825.416138	194.300000
825.450989	189.800000
825.485901	184.800000
825.520691	186.400000
825.555542	186.700000
825.590454	194.800000
825.625244	185.500000
825.660095	201.200000
825.695007	197.300000
825.729797	192.500000
825.764648	187.700000
825.799438	192.700000
825.834290	193.300000
825.869202	188.500000
825.903992	194.000000
825.938843	190.900000
825.973694	187.400000
826.008484	207.400000
826.043335	188.000000
826.078186	185.400000
826.112976	197.700000
826.147827	198.500000
826.182678	201.700000
826.217468	185.700000
826.252319	197.500000
826.287109	189.100000
826.321899	199.900000
826.356750	191.600000
826.391541	185.900000
826.426392	198.900000
826.461182	191.500000
826.495972	187.500000
826.530823	184.200000
826.565613	194.000000
826.600403	186.600000
826.635254	197.500000
826.670044	183.200000
826.704834	185.200000
826.739685	187.500000
826.774475	195.600000
826.809265	191.600000
826.844055	190.200000
826.878906	197.600000
826.913635	194.900000
826.948425	195.900000
826.983215	193.200000
827.018005	197.800000
827.052856	191.500000
827.087585	196.400000
827.122375	184.400000
827.157227	194.600000
827.191956	205.500000
827.226746	189.700000
827.261536	196.700000
827.296265	186.300000
827.331116	190.700000
827.365906	197.600000
827.400635	189.100000
827.435425	185.300000
827.470215	199.000000
827.504944	191.500000
827.539734	196.200000
827.574463	193.400000
827.609253	199.400000
827.644043	194.200000
827.678772	197.000000
827.713562	190.600000
827.748352	189.100000
827.783081	189.100000
827.817871	191.800000
827.852600	187.600000
827.887329	192.500000
827.922119	182.500000
827.956848	193.700000
827.991638	206.100000
828.026367	192.700000
828.061157	194.400000
828.095886	191.500000
828.130615	206.900000
828.165344	181.100000
828.200073	193.400000
828.234863	188.900000
828.269592	193.200000
828.304321	197.500000
828.339111	193.800000
828.373779	188.500000
828.408569	197.700000
828.443298	195.800000
828.477966	191.400000
828.512756	194.200000
828.547424	187.000000
828.582214	191.400000
828.616943	191.800000
828.651672	191.800000
828.686340	197.000000
828.721130	188.700000
828.755798	192.800000
828.790527	192.900000
828.825256	195.500000
828.859924	192.400000
828.894714	199.900000
828.929443	201.500000
828.964111	188.000000
828.998840	195.600000
829.033569	188.300000
829.068237	191.700000
829.102966	190.400000
829.137634	195.600000
829.172363	194.700000
829.207092	193.900000
829.241821	187.800000
829.276489	184.700000
829.311157	192.700000
829.345825	191.000000
829.380554	195.200000
829.415283	187.500000
829.449951	185.600000
829.484619	201.800000
829.519348	198.600000
829.554016	193.300000
829.588745	190.200000
829.623413	186.300000
829.658081	201.900000
829.692749	187.200000
829.727417	196.700000
829.762146	195.600000
829.796814	187.200000
829.831482	190.500000
829.866150	195.600000
829.900879	189.900000
829.935486	194.500000
829.970154	190.800000
830.004883	201.900000
830.039490	193.800000
830.074219	190.300000
830.108887	193.300000
830.143494	191.400000
830.178223	186.900000
830.212891	189.100000
830.247498	192.600000
830.282166	201.600000
830.316772	199.000000
830.351501	190.000000
830.386169	191.300000
830.420776	190.700000
830.455444	192.100000
830.490112	190.000000
830.524719	184.400000
830.559387	195.700000
830.594055	195.000000
830.628662	193.100000
830.663330	190.600000
830.697998	201.300000
830.732605	191.500000
830.767273	195.000000
830.801941	189.900000
830.836487	202.400000
830.871155	193.200000
830.905762	195.300000
830.940430	184.200000
830.975098	189.700000
831.009644	193.100000
831.044312	201.500000
831.078979	193.700000
831.113525	186.200000
831.148193	191.400000
831.182861	192.000000
831.217407	194.800000
831.252075	211.000000
831.286621	189.100000
831.321289	189.100000
831.355896	189.600000
831.390564	201.400000
831.425110	192.600000
831.459778	199.800000
831.494324	205.100000
831.528931	195.600000
831.563599	197.300000
831.598145	186.800000
831.632751	192.700000
831.667419	192.500000
831.701965	195.900000
831.736572	196.000000
831.771179	184.500000
831.805786	189.800000
831.840393	199.000000
831.874939	183.900000
831.909546	197.200000
831.944153	184.400000
831.978760	191.500000
832.013306	187.500000
832.047913	200.600000
832.082458	201.600000
832.117065	189.400000
832.151672	200.600000
832.186218	194.000000
832.220825	195.100000
832.255432	185.700000
832.289978	188.100000
832.324585	195.400000
832.359192	193.500000
832.393677	191.600000
832.428284	191.900000
832.462830	192.600000
832.497437	189.600000
832.531982	194.900000
832.566589	188.400000
832.601135	193.300000
832.635681	183.200000
832.670227	191.400000
832.704773	198.700000
832.739380	195.000000
832.773926	192.000000
832.808472	188.200000
832.843079	191.400000
832.877563	196.700000
832.912170	188.000000
832.946716	185.700000
832.981201	198.600000
833.015808	195.900000
833.050293	190.900000
833.084839	189.600000
833.119446	189.800000
833.153992	197.500000
833.188477	190.900000
833.223022	189.800000
833.257568	192.400000
833.292114	199.800000
833.326660	203.000000
833.361145	189.700000
833.395691	184.800000
833.430237	191.000000
833.464783	196.200000
833.499329	188.500000
833.533875	186.600000
833.568359	195.800000
833.602905	199.800000
833.637390	197.600000
833.671875	189.900000
833.706421	191.400000
833.740906	189.200000
833.775452	181.900000
833.809998	191.600000
833.844482	200.600000
833.879028	193.600000
833.913513	189.300000
833.947998	195.900000
833.982544	187.100000
834.017090	189.900000
834.051514	180.400000
834.086060	196.800000
834.120544	191.200000
834.155029	194.400000
834.189575	189.900000
834.223999	196.200000
834.258545	192.900000
834.293030	194.100000
834.327515	192.500000
834.362000	189.300000
834.396545	195.300000
834.430969	192.100000
834.465454	195.100000
834.500000	184.400000
834.534424	194.400000
834.568970	182.400000
834.603455	182.400000
834.637878	189.300000
834.672363	191.300000
834.706909	192.500000
834.741333	192.500000
834.775818	183.600000
834.810242	186.400000
834.844727	192.600000
834.879211	188.700000
834.913635	193.300000
834.948181	194.300000
834.982666	193.400000
835.017090	192.400000
835.051575	194.800000
835.086060	188.500000
835.120483	196.500000
835.154907	196.800000
835.189331	191.700000
835.223816	195.700000
835.258301	187.700000
835.292786	187.300000
835.327209	198.300000
835.361694	189.000000
835.396057	189.500000
835.430542	195.600000
835.465027	191.800000
835.499390	187.900000
835.533875	210.400000
835.568359	190.600000
835.602722	183.200000
835.637207	194.200000
835.671692	185.100000
835.706055	209.100000
835.740540	192.600000
835.774902	196.700000
835.809387	191.300000
835.843811	185.600000
835.878235	199.800000
835.912659	186.600000
835.947083	186.900000
835.981506	192.600000
836.015930	182.800000
836.050354	196.000000
836.084778	199.600000
836.119202	198.000000
836.153625	203.400000
836.187988	189.500000
836.222473	188.300000
836.256897	194.200000
836.291260	191.700000
836.325684	193.800000
836.360046	189.400000
836.394470	192.700000
836.428894	198.600000
836.463318	189.900000
836.497681	197.500000
836.532104	199.300000
836.566467	193.600000
836.600891	190.900000
836.635315	198.200000
836.669678	195.700000
836.704102	196.700000
836.738525	193.100000
836.772888	184.300000
836.807251	189.900000
836.841675	194.800000
836.876038	187.800000
836.910461	189.000000
836.944763	195.400000
836.979187	189.500000
837.013611	197.400000
837.047974	185.800000
837.082336	204.100000
837.116699	196.700000
837.151062	191.700000
837.185486	188.100000
837.219849	188.400000
837.254211	197.000000
837.288574	189.900000
837.322937	188.400000
837.357300	179.100000
837.391663	206.000000
837.426086	196.700000
837.460388	194.400000
837.494751	196.100000
837.529114	191.000000
837.563477	197.200000
837.597839	193.700000
837.632141	189.900000
837.666565	189.500000
837.700928	193.700000
837.735229	196.400000
837.769592	194.000000
837.803955	199.600000
837.838257	188.500000
837.872620	189.700000
837.906982	199.000000
837.941284	193.900000
837.975647	191.300000
838.010010	198.800000
838.044312	190.200000
838.078674	190.000000
838.112976	192.700000
838.147339	196.300000
838.181702	191.000000
838.216003	203.000000
838.250366	195.300000
838.284668	195.400000
838.318970	185.600000
838.353333	191.900000
838.387634	190.500000
838.421936	193.700000
838.456299	193.700000
838.490601	200.000000
838.524902	195.800000
838.559265	197.000000
838.593567	197.300000
838.627869	186.900000
838.662170	195.800000
838.696472	186.200000
838.730774	189.800000
838.765137	195.600000
838.799377	179.000000
838.833740	192.200000
838.868042	199.700000
838.902283	182.800000
838.936646	199.700000
838.970947	193.600000
839.005188	197.300000
839.039551	183.600000
839.073792	200.300000
839.108093	190.400000
839.142395	201.500000
839.176697	184.700000
839.210937	194.800000
839.245300	202.900000
839.279541	186.800000
839.313843	188.800000
839.348145	196.900000
839.382385	196.500000
839.416687	197.800000
839.450989	194.800000
839.485229	192.700000
839.519531	188.000000
839.553833	199.300000
839.588013	193.000000
839.622314	194.900000
839.656555	194.100000
839.690857	194.300000
839.725159	185.300000
839.759460	192.400000
839.793640	190.100000
839.827942	192.100000
839.862183	188.500000
839.896423	194.500000
839.930725	201.800000
839.964966	200.400000
839.999207	201.100000
840.033508	201.500000
840.067688	190.400000
840.101990	201.600000
840.136230	192.500000
840.170471	199.600000
840.204712	188.600000
840.238953	186.500000
840.273193	195.100000
840.307434	194.600000
840.341736	190.000000
840.375916	185.200000
840.410217	190.800000
840.444397	197.100000
840.478638	196.300000
840.512878	197.800000
840.547119	193.200000
840.581360	192.800000
840.615601	202.600000
840.649780	200.200000
840.684021	193.000000
840.718262	199.400000
840.752441	198.300000
840.786682	191.700000
840.820862	195.500000
840.855103	199.200000
840.889343	195.500000
840.923584	196.900000
840.957764	195.400000
840.992004	194.300000
841.026184	208.200000
841.060425	191.300000
841.094666	189.200000
841.128845	196.600000
841.163025	194.300000
841.197266	195.300000
841.231445	196.200000
841.265686	193.200000
841.299866	188.200000
841.334045	201.100000
841.368286	194.300000
841.402405	203.300000
841.436646	197.900000
841.470825	190.400000
841.505005	193.100000
841.539185	188.900000
841.573425	190.800000
841.607544	194.800000
841.641785	192.300000
841.675964	188.300000
841.710144	193.200000
841.744324	191.300000
841.778503	193.400000
841.812683	188.200000
841.846863	202.000000
841.881042	200.600000
841.915222	190.500000
841.949402	208.800000
841.983521	184.800000
842.017700	193.200000
842.051880	192.400000
842.086060	196.400000
842.120239	191.500000
842.154419	191.700000
842.188538	192.300000
842.222717	190.400000
842.256897	200.900000
842.291016	191.900000
842.325195	193.000000
842.359375	205.100000
842.393494	199.200000
842.427673	194.500000
842.461853	196.000000
842.495911	204.500000
842.530090	194.400000
842.564209	192.100000
842.598389	194.300000
842.632568	195.100000
842.666626	197.700000
842.700806	190.600000
842.734985	189.800000
842.769043	197.100000
842.803223	191.400000
842.837402	192.100000
842.871460	191.000000
842.905640	201.900000
842.939697	188.700000
842.973877	196.000000
843.007996	198.500000
843.042175	202.600000
843.076233	191.200000
843.110413	195.900000
843.144470	202.800000
843.178589	198.900000
843.212769	191.100000
843.246826	198.500000
843.280945	192.200000
843.315125	192.400000
843.349182	190.000000
843.383301	200.900000
843.417419	206.700000
843.451538	193.200000
843.485657	193.000000
843.519714	192.200000
843.553833	195.500000
843.587952	189.700000
843.622070	190.300000
843.656128	196.300000
843.690247	192.300000
843.724304	190.400000
843.758423	195.700000
843.792542	189.000000
843.826599	192.900000
843.860718	189.700000
843.894836	187.800000
843.928894	192.500000
843.963013	196.200000
843.997070	189.100000
844.031128	187.600000
844.065247	197.200000
844.099304	199.400000
844.133362	193.400000
844.167480	196.600000
844.201599	200.600000
844.235596	198.400000
844.269714	194.600000
844.303711	197.800000
844.337830	183.400000
844.371948	197.400000
844.405945	191.700000
844.440063	188.800000
844.474121	208.700000
844.508118	192.900000
844.542236	192.400000
844.576294	193.500000
844.610352	188.500000
844.644409	194.700000
844.678406	185.700000
844.712524	199.100000
844.746582	201.100000
844.780640	194.100000
844.814636	195.200000
844.848755	205.500000
844.882751	193.200000
844.916809	197.200000
844.950867	196.700000
844.984863	202.700000
845.018921	194.000000
845.052979	189.100000
845.086975	195.800000
845.121033	187.100000
845.155090	189.600000
845.189087	199.800000
845.223145	191.300000
845.257141	193.000000
845.291199	197.800000
845.325256	201.500000
845.359253	195.900000
845.393250	203.300000
845.427307	192.900000
845.461304	194.800000
845.495361	195.000000
845.529358	203.000000
845.563354	192.100000
845.597412	187.500000
845.631409	202.300000
845.665405	199.400000
845.699463	197.900000
845.733459	191.000000
845.767456	200.400000
845.801453	192.000000
845.835449	202.300000
845.869446	195.900000
845.903503	198.400000
845.937439	189.600000
845.971497	202.000000
846.005493	188.900000
846.039429	197.600000
846.073486	203.600000
846.107483	193.000000
846.141418	193.900000
846.175476	193.100000
846.209473	200.700000
846.243408	190.200000
846.277405	193.300000
846.311401	188.500000
846.345337	194.000000
846.379395	199.600000
846.413330	191.400000
846.447327	201.600000
846.481323	190.100000
846.515259	190.200000
846.549255	195.100000
846.583252	195.800000
846.617187	189.900000
846.651184	194.000000
846.685120	193.300000
846.719055	201.300000
846.753052	199.600000
846.786987	197.800000
846.820984	187.900000
846.854980	199.300000
846.888916	190.200000
846.922852	194.700000
846.956848	202.900000
846.990723	189.600000
847.024719	195.700000
847.058716	191.900000
847.092590	201.900000
847.126587	193.100000
847.160522	191.900000
847.194458	196.600000
847.228455	191.400000
847.262390	186.900000
847.296265	191.200000
847.330261	200.500000
847.364136	192.400000
847.398132	189.000000
847.432068	196.200000
847.466003	192.200000
847.499939	192.200000
847.533875	195.600000
847.567749	192.400000
847.601746	191.000000
847.635681	198.700000
847.669556	185.400000
847.703491	199.700000
847.737427	208.800000
847.771301	189.400000
847.805237	194.200000
847.839233	195.600000
847.873108	194.800000
847.907043	193.000000
847.940918	201.700000
847.974854	195.300000
848.008789	199.000000
848.042664	194.300000
848.076538	198.700000
848.110474	195.000000
848.144348	196.600000
848.178284	187.000000
848.212219	195.400000
848.246094	190.700000
848.279968	196.900000
848.313904	196.300000
848.347778	195.200000
848.381653	192.100000
848.415588	191.100000
848.449463	190.400000
848.483337	196.500000
848.517212	198.000000
848.551086	194.300000
848.585022	188.700000
848.618835	201.900000
848.652771	189.400000
848.686646	189.200000
848.720520	199.700000
848.754395	194.000000
848.788330	197.400000
848.822144	199.700000
848.856018	192.400000
848.889954	204.700000
848.923767	188.300000
848.957642	190.600000
848.991577	197.500000
849.025391	192.400000
849.059265	193.300000
849.093079	191.700000
849.126953	187.700000
849.160828	199.800000
849.194641	194.800000
849.228577	191.300000
849.262451	193.600000
849.296265	192.300000
849.330139	187.800000
849.364014	193.700000
849.397827	197.600000
849.431702	194.000000
849.465515	199.500000
849.499329	185.000000
849.533203	189.800000
849.567078	182.900000
849.600891	197.600000
849.634766	194.300000
849.668518	199.500000
849.702393	193.200000
849.736267	188.500000
849.770020	205.300000
849.803894	198.400000
849.837769	193.100000
849.871521	195.700000
849.905396	199.000000
849.939270	190.800000
849.973022	190.400000
850.006897	198.400000
850.040710	195.000000
850.074524	198.300000
850.108337	191.800000
850.142151	198.000000
850.175964	199.500000
850.209778	194.500000
850.243530	177.800000
850.277405	199.600000
850.311218	191.600000
850.344971	191.400000
850.378845	200.400000
850.412659	191.700000
850.446411	192.000000
850.480225	193.800000
850.514038	199.800000
850.547791	196.900000
850.581665	192.500000
850.615417	192.200000
850.649231	194.600000
850.683044	193.900000
850.716858	193.400000
850.750610	194.500000
850.784424	198.600000
850.818176	191.700000
850.851929	191.100000
850.885742	190.200000
850.919495	193.700000
850.953308	201.500000
850.987122	200.800000
851.020874	188.300000
851.054626	186.100000
851.088440	198.200000
851.122192	198.500000
851.156006	194.300000
851.189697	194.100000
851.223511	188.600000
851.257263	199.000000
851.291077	196.900000
851.324829	194.500000
851.358582	189.900000
851.392334	192.500000
851.426086	191.900000
851.459900	203.200000
851.493591	193.000000
851.527344	194.500000
851.561157	191.900000
851.594849	197.900000
851.628662	195.200000
851.662415	201.000000
851.696106	195.000000
851.729858	198.900000
851.763611	186.600000
851.797363	195.100000
851.831116	188.700000
851.864868	197.100000
851.898560	196.900000
851.932312	192.700000
851.966064	193.600000
851.999817	194.400000
852.033569	193.400000
852.067261	198.200000
852.101013	189.100000
852.134766	193.600000
852.168457	182.300000
852.202209	198.800000
852.235901	189.400000
852.269592	198.000000
852.303345	204.100000
852.337036	198.500000
852.370789	193.500000
852.404541	197.500000
852.438171	189.800000
852.471924	193.700000
852.505676	188.900000
852.539307	196.600000
852.573059	189.500000
852.606812	192.400000
852.640442	193.100000
852.674194	200.400000
852.707886	205.700000
852.741577	201.200000
852.775269	189.100000
852.809021	196.000000
852.842651	198.800000
852.876404	199.200000
852.910034	196.200000
852.943787	200.100000
852.977478	197.400000
853.011108	190.900000
853.044861	191.700000
853.078552	201.000000
853.112183	197.400000
853.145874	194.900000
853.179626	185.600000
853.213257	194.400000
853.246948	192.200000
853.280640	202.000000
853.314270	194.800000
853.347961	200.100000
853.381653	196.900000
853.415283	198.000000
853.448975	192.400000
853.482605	194.600000
853.516296	194.000000
853.549988	188.400000
853.583618	195.300000
853.617310	195.500000
853.651001	196.200000
853.684631	187.100000
853.718323	191.500000
853.751953	202.200000
853.785583	185.900000
853.819275	197.600000
853.852966	194.600000
853.886536	184.200000
853.920227	188.700000
853.953918	199.900000
853.987488	193.200000
854.021179	198.400000
854.054749	203.100000
854.088440	196.500000
854.122131	190.600000
854.155701	199.100000
854.189331	190.500000
854.223022	197.800000
854.256592	197.000000
854.290283	192.300000
854.323914	198.000000
854.357483	197.500000
854.391174	197.500000
854.424744	205.300000
854.458374	195.600000
854.492065	204.500000
854.525696	192.200000
854.559265	201.100000
854.592896	204.200000
854.626465	195.400000
854.660095	193.700000
854.693787	196.900000
854.727356	191.600000
854.760986	198.000000
854.794617	195.000000
854.828186	194.100000
854.861816	196.500000
854.895447	196.300000
854.929016	194.700000
854.962585	196.800000
854.996155	201.500000
855.029785	196.100000
855.063416	196.200000
855.097046	198.300000
855.130615	187.100000
855.164185	201.100000
855.197754	192.800000
855.231384	197.100000
855.264954	192.100000
855.298523	198.400000
855.332153	194.800000
855.365723	203.000000
855.399292	189.600000
855.432922	195.000000
855.466492	197.900000
855.500061	189.000000
855.533630	191.500000
855.567200	199.100000
855.600769	198.400000
855.634338	199.800000
855.667969	197.200000
855.701477	190.400000
855.735046	192.300000
855.768616	186.700000
855.802185	197.500000
855.835754	209.300000
855.869324	187.700000
855.902893	192.600000
855.936401	201.300000
855.969971	194.900000
856.003540	188.300000
856.037109	198.600000
856.070618	195.600000
856.104187	188.400000
856.137695	192.900000
856.171265	183.600000
856.204834	195.300000
856.238403	197.000000
856.271912	192.800000
856.305481	196.200000
856.338989	187.600000
856.372559	196.500000
856.406128	196.600000
856.439636	198.900000
856.473145	193.000000
856.506653	199.700000
856.540222	195.900000
856.573792	200.200000
856.607300	197.800000
856.640808	187.900000
856.674377	195.800000
856.707825	221.300000
856.741394	200.300000
856.774902	189.900000
856.808472	185.500000
856.841980	196.600000
856.875488	203.300000
856.908936	185.900000
856.942505	193.500000
856.976013	193.900000
857.009521	190.000000
857.043030	195.000000
857.076477	194.400000
857.110046	198.700000
857.143555	195.900000
857.177063	200.600000
857.210571	192.300000
857.244080	187.900000
857.277527	197.500000
857.311035	192.100000
857.344543	199.500000
857.378052	193.200000
857.411499	199.300000
857.445068	204.400000
857.478516	194.700000
857.512024	189.700000
857.545532	191.600000
857.578979	197.300000
857.612427	194.100000
857.645874	191.400000
857.679382	194.800000
857.712891	199.500000
857.746399	193.000000
857.779846	200.000000
857.813354	198.100000
857.846741	195.500000
857.880249	188.500000
857.913757	195.900000
857.947266	195.000000
857.980652	197.700000
858.014160	189.500000
858.047546	193.500000
858.081055	191.900000
858.114563	202.500000
858.147949	187.600000
858.181458	198.500000
858.214844	192.700000
858.248352	186.700000
858.281799	198.400000
858.315308	207.600000
858.348694	196.500000
858.382141	203.900000
858.415588	195.100000
858.449036	200.600000
858.482483	197.900000
858.515930	191.000000
858.549377	194.000000
858.582825	201.800000
858.616211	196.900000
858.649658	197.800000
858.683105	190.200000
858.716553	193.000000
858.750000	188.400000
858.783386	192.200000
858.816833	187.100000
858.850281	196.700000
858.883728	198.000000
858.917114	193.500000
858.950562	203.500000
858.983948	204.500000
859.017395	198.300000
859.050781	192.300000
859.084167	192.000000
859.117615	188.700000
859.151062	199.200000
859.184448	190.800000
859.217834	194.100000
859.251282	192.000000
859.284668	191.600000
859.318054	185.400000
859.351440	192.200000
859.384888	202.100000
859.418274	187.200000
859.451721	184.500000
859.485046	197.900000
859.518494	193.900000
859.551819	191.900000
859.585266	195.900000
859.618652	197.400000
859.652039	187.300000
859.685425	189.900000
859.718811	185.300000
859.752197	182.800000
859.785583	201.300000
859.819031	201.400000
859.852356	196.100000
859.885742	191.500000
859.919067	192.700000
859.952454	193.700000
859.985901	197.700000
860.019287	193.600000
860.052612	0.000000
860.085999	0.000000
860.119324	0.000000
860.152710	0.000000
860.186096	0.000000
860.219421	0.000000
860.252808	0.000000
860.286133	0.000000
860.319519	0.000000
860.352905	0.000000
860.386292	0.000000
860.419617	0.000000
860.452942	0.000000
860.486267	0.000000
860.519653	0.000000
860.553040	0.000000
860.586365	0.000000
860.619690	0.000000
860.653076	0.000000
860.686340	0.000000
860.719727	0.000000
860.753113	0.000000
860.786377	0.000000
860.819763	0.000000
860.853027	0.000000
860.886414	0.000000
860.919739	0.000000
860.953125	0.000000
860.986389	0.000000
861.019714	0.000000
861.053040	0.000000
861.086365	0.000000
861.119690	0.000000
861.153076	0.000000
861.186340	0.000000
861.219666	0.000000
861.252930	0.000000
861.286316	0.000000
861.319641	0.000000
861.352905	0.000000
861.386230	0.000000
861.419495	0.000000
861.452820	0.000000
861.486145	0.000000
861.519470	0.000000
861.552734	0.000000
861.586060	0.000000
861.619324	0.000000
861.652649	0.000000
861.685974	0.000000
861.719238	0.000000
861.752563	0.000000
861.785828	0.000000
861.819092	0.000000
861.852417	0.000000
861.885742	0.000000
861.918945	0.000000
861.952271	0.000000
861.985535	0.000000
862.018799	0.000000
862.052124	0.000000
862.085449	0.000000
862.118652	0.000000
862.151978	0.000000
862.185181	0.000000
862.218506	0.000000
862.251770	0.000000
862.285034	0.000000
862.318298	0.000000
862.351562	0.000000
862.384827	0.000000
862.418091	0.000000
862.451355	0.000000
862.484619	0.000000
862.517883	0.000000
862.551086	0.000000
862.584351	0.000000
862.617676	0.000000
862.650940	0.000000
862.684143	0.000000
862.717407	0.000000
862.750610	0.000000
862.783875	0.000000
862.817139	0.000000
862.850342	0.000000
862.883606	0.000000
862.916870	0.000000
862.950073	0.000000
862.983337	0.000000
863.016602	0.000000
863.049805	0.000000
863.083069	0.000000
863.116211	0.000000
863.149475	0.000000
863.182739	0.000000
863.216003	0.000000
863.249146	0.000000
863.282410	0.000000
863.315613	0.000000
863.348816	0.000000
863.382080	0.000000
863.415222	0.000000
863.448486	0.000000
863.481689	0.000000
863.514893	0.000000
863.548157	0.000000
863.581360	0.000000
863.614502	0.000000
863.647766	0.000000
863.680908	0.000000
863.714172	0.000000
863.747375	0.000000
863.780579	0.000000
863.813721	0.000000
863.846985	0.000000
863.880127	0.000000
863.913330	0.000000
863.946533	0.000000
863.979675	0.000000
864.012939	0.000000
