Model Number: SPM-001-M   
Serial Number: 10090201
Firmware Version: 004.17.6
Exposure Time: 500000.000000us
Data Taken on: 10-03-2021 11:30:33.979
Wavelength	Amplitude
733.770752	0.000000
733.808716	0.000000
733.846619	0.000000
733.884583	0.000000
733.922546	0.000000
733.960449	0.000000
733.998413	0.000000
734.036377	0.000000
734.074219	0.000000
734.112183	0.000000
734.150085	0.000000
734.188049	0.000000
734.226013	0.000000
734.263916	0.000000
734.301819	0.000000
734.339783	0.000000
734.377686	0.000000
734.415588	0.000000
734.453552	0.000000
734.491455	0.000000
734.529419	0.000000
734.567322	0.000000
734.605225	0.000000
734.643127	0.000000
734.681091	0.000000
734.718994	0.000000
734.756897	0.000000
734.794800	0.000000
734.832703	0.000000
734.870667	0.000000
734.908508	0.000000
734.946472	0.000000
734.984375	0.000000
735.022278	0.000000
735.060181	0.000000
735.098083	0.000000
735.135986	0.000000
735.173889	0.000000
735.211792	0.000000
735.249695	0.000000
735.287598	0.000000
735.325439	0.000000
735.363403	0.000000
735.401306	0.000000
735.439148	0.000000
735.477051	0.000000
735.515015	0.000000
735.552856	0.000000
735.590759	0.000000
735.628662	0.000000
735.666504	0.000000
735.704407	0.000000
735.742310	0.000000
735.780212	0.000000
735.818115	0.000000
735.856018	0.000000
735.893860	0.000000
735.931763	0.000000
735.969604	0.000000
736.007507	0.000000
736.045410	0.000000
736.083252	0.000000
736.121094	0.000000
736.158997	0.000000
736.196838	0.000000
736.234741	0.000000
736.272644	0.000000
736.310486	0.000000
736.348389	0.000000
736.386230	0.000000
736.424072	0.000000
736.461975	0.000000
736.499878	0.000000
736.537720	0.000000
736.575562	0.000000
736.613403	0.000000
736.651306	0.000000
736.689148	0.000000
736.726990	0.000000
736.764893	0.000000
736.802734	0.000000
736.840576	0.000000
736.878418	0.000000
736.916321	0.000000
736.954102	0.000000
736.992004	0.000000
737.029846	0.000000
737.067688	0.000000
737.105530	0.000000
737.143372	0.000000
737.181213	0.000000
737.219116	0.000000
737.256897	0.000000
737.294739	0.000000
737.332642	0.000000
737.370422	0.000000
737.408325	0.000000
737.446167	0.000000
737.483948	0.000000
737.521790	0.000000
737.559692	0.000000
737.597473	0.000000
737.635315	0.000000
737.673157	0.000000
737.710999	0.000000
737.748840	0.000000
737.786621	0.000000
737.824463	0.000000
737.862305	0.000000
737.900085	0.000000
737.937927	0.000000
737.975769	0.000000
738.013550	0.000000
738.051392	0.000000
738.089233	0.000000
738.127014	0.000000
738.164856	0.000000
738.202698	0.000000
738.240479	0.000000
738.278320	0.000000
738.316162	0.000000
738.353943	0.000000
738.391785	0.000000
738.429565	0.000000
738.467407	0.000000
738.505188	0.000000
738.542969	0.000000
738.580811	0.000000
738.618652	0.000000
738.656372	0.000000
738.694214	0.000000
738.732056	0.000000
738.769836	0.000000
738.807617	0.000000
738.845459	0.000000
738.883240	0.000000
738.921021	0.000000
738.958862	0.000000
738.996582	0.000000
739.034424	0.000000
739.072205	0.000000
739.109985	0.000000
739.147827	0.000000
739.185547	0.000000
739.223389	0.000000
739.261169	0.000000
739.298889	0.000000
739.336731	0.000000
739.374512	0.000000
739.412292	0.000000
739.450073	0.000000
739.487854	0.000000
739.525635	0.000000
739.563416	0.000000
739.601135	0.000000
739.638977	0.000000
739.676758	0.000000
739.714478	0.000000
739.752258	0.000000
739.790100	0.000000
739.827820	0.000000
739.865601	0.000000
739.903381	0.000000
739.941101	0.000000
739.978882	196.400000
740.016724	189.900000
740.054443	198.900000
740.092224	188.000000
740.130005	190.700000
740.167725	189.400000
740.205505	190.900000
740.243225	199.200000
740.281006	194.600000
740.318787	186.600000
740.356506	198.800000
740.394287	197.100000
740.432068	190.600000
740.469727	187.400000
740.507507	197.700000
740.545288	194.500000
740.583008	196.000000
740.620789	194.700000
740.658569	186.500000
740.696228	191.600000
740.734009	199.400000
740.771790	181.200000
740.809509	196.300000
740.847229	188.800000
740.884949	189.500000
740.922729	185.700000
740.960449	189.300000
740.998169	186.700000
741.035950	188.100000
741.073669	194.500000
741.111389	192.300000
741.149170	203.900000
741.186890	202.600000
741.224609	197.300000
741.262329	194.400000
741.300110	202.900000
741.337769	187.100000
741.375549	187.800000
741.413208	193.200000
741.450989	188.400000
741.488708	190.000000
741.526367	190.900000
741.564148	196.700000
741.601868	197.700000
741.639526	192.500000
741.677307	194.500000
741.715027	195.400000
741.752686	189.200000
741.790466	199.500000
741.828186	197.400000
741.865845	188.400000
741.903564	185.000000
741.941345	193.100000
741.979004	189.100000
742.016724	194.800000
742.054382	194.600000
742.092102	200.200000
742.129822	187.100000
742.167480	190.500000
742.205200	192.400000
742.242920	194.600000
742.280640	198.200000
742.318359	188.400000
742.356079	191.100000
742.393738	196.700000
742.431396	191.200000
742.469116	195.900000
742.506775	182.100000
742.544495	195.500000
742.582214	197.900000
742.619873	192.900000
742.657593	200.300000
742.695251	196.900000
742.732971	191.500000
742.770630	194.700000
742.808289	191.900000
742.846008	193.800000
742.883728	194.500000
742.921326	193.300000
742.959045	189.300000
742.996765	193.800000
743.034424	192.200000
743.072083	190.900000
743.109802	193.900000
743.147400	187.200000
743.185120	194.100000
743.222839	194.400000
743.260437	198.100000
743.298157	196.500000
743.335754	184.000000
743.373474	191.800000
743.411133	185.700000
743.448792	195.300000
743.486450	192.000000
743.524170	185.300000
743.561768	193.000000
743.599487	202.000000
743.637146	204.100000
743.674744	192.000000
743.712463	189.200000
743.750122	193.300000
743.787720	195.300000
743.825439	191.000000
743.863037	190.100000
743.900696	192.700000
743.938416	217.100000
743.976013	193.100000
744.013672	201.900000
744.051331	198.300000
744.088928	202.800000
744.126587	200.500000
744.164307	193.600000
744.201904	189.300000
744.239563	195.400000
744.277222	195.200000
744.314819	193.300000
744.352478	199.300000
744.390137	194.300000
744.427734	194.500000
744.465393	191.200000
744.502991	188.900000
744.540649	196.800000
744.578308	192.100000
744.615906	186.000000
744.653564	181.000000
744.691223	196.800000
744.728821	185.200000
744.766418	193.900000
744.804077	196.000000
744.841675	190.600000
744.879333	184.100000
744.916992	193.400000
744.954529	191.100000
744.992187	199.600000
745.029785	190.100000
745.067444	189.500000
745.105042	193.100000
745.142639	196.100000
745.180298	202.100000
745.217896	193.400000
745.255493	192.500000
745.293152	197.500000
745.330750	196.300000
745.368347	202.100000
745.405945	196.300000
745.443604	194.200000
745.481140	196.700000
745.518799	193.300000
745.556396	196.400000
745.593994	199.000000
745.631592	192.000000
745.669189	188.300000
745.706787	193.700000
745.744385	189.700000
745.781982	195.100000
745.819580	190.800000
745.857178	190.600000
745.894775	193.900000
745.932373	193.300000
745.969971	193.800000
746.007568	184.300000
746.045166	202.400000
746.082764	198.300000
746.120300	197.000000
746.157898	197.800000
746.195557	192.600000
746.233093	187.500000
746.270691	195.600000
746.308228	195.100000
746.345825	197.600000
746.383423	197.200000
746.420959	187.100000
746.458557	190.600000
746.496155	190.500000
746.533691	191.700000
746.571289	186.500000
746.608887	193.400000
746.646423	194.100000
746.684021	194.500000
746.721619	189.000000
746.759155	194.500000
746.796753	184.600000
746.834351	187.600000
746.871826	188.400000
746.909424	201.800000
746.946960	194.900000
746.984558	192.600000
747.022156	190.400000
747.059631	200.000000
747.097229	193.600000
747.134827	192.500000
747.172363	199.700000
747.209900	196.800000
747.247498	187.900000
747.285034	202.500000
747.322571	199.100000
747.360168	192.400000
747.397644	185.900000
747.435242	197.300000
747.472778	199.600000
747.510315	190.100000
747.547913	189.800000
747.585388	198.900000
747.622925	192.800000
747.660522	184.200000
747.697998	189.800000
747.735596	191.800000
747.773132	189.700000
747.810669	192.900000
747.848206	197.900000
747.885742	187.300000
747.923279	187.700000
747.960815	194.200000
747.998352	192.600000
748.035889	198.200000
748.073425	198.000000
748.110901	189.100000
748.148437	191.200000
748.185974	193.100000
748.223511	204.000000
748.261047	193.000000
748.298584	195.600000
748.336060	190.600000
748.373596	196.700000
748.411133	210.300000
748.448608	190.600000
748.486145	196.500000
748.523682	202.900000
748.561218	199.700000
748.598755	195.700000
748.636292	195.300000
748.673706	193.400000
748.711243	200.100000
748.748718	196.000000
748.786255	193.300000
748.823792	194.000000
748.861267	188.200000
748.898804	196.800000
748.936340	195.500000
748.973816	192.000000
749.011292	199.600000
749.048828	195.000000
749.086304	196.300000
749.123840	206.300000
749.161316	188.800000
749.198792	204.700000
749.236328	200.800000
749.273743	193.900000
749.311279	192.000000
749.348816	195.600000
749.386230	194.200000
749.423767	181.600000
749.461304	196.000000
749.498718	194.700000
749.536255	200.000000
749.573730	205.600000
749.611206	199.100000
749.648682	191.500000
749.686218	192.700000
749.723633	196.800000
749.761169	191.400000
749.798645	187.700000
749.836060	191.800000
749.873596	188.500000
749.911011	193.400000
749.948547	199.700000
749.986023	193.400000
750.023437	191.600000
750.060913	187.400000
750.098450	186.900000
750.135864	194.000000
750.173340	192.900000
750.210815	198.600000
750.248291	188.000000
750.285767	195.300000
750.323242	200.100000
750.360657	196.000000
750.398132	188.500000
750.435608	198.500000
750.473022	189.400000
750.510498	189.900000
750.547974	188.700000
750.585449	192.500000
750.622925	182.800000
750.660339	201.600000
750.697815	192.800000
750.735291	194.000000
750.772644	194.500000
750.810120	192.400000
750.847595	196.700000
750.885010	189.000000
750.922485	201.900000
750.959961	192.600000
750.997375	201.100000
751.034851	198.200000
751.072266	199.400000
751.109680	185.800000
751.147156	199.700000
751.184570	197.300000
751.221985	196.200000
751.259460	186.100000
751.296875	194.700000
751.334290	193.300000
751.371765	199.600000
751.409180	196.600000
751.446594	201.400000
751.484070	195.900000
751.521423	195.100000
751.558899	193.700000
751.596375	201.500000
751.633728	200.600000
751.671204	207.900000
751.708618	188.900000
751.746033	193.900000
751.783447	186.800000
751.820801	190.100000
751.858276	195.100000
751.895691	193.800000
751.933105	190.300000
751.970520	189.300000
752.007935	191.700000
752.045349	199.300000
752.082764	193.000000
752.120178	192.100000
752.157532	188.700000
752.195007	192.100000
752.232422	196.700000
752.269775	200.900000
752.307190	195.500000
752.344543	190.200000
752.382019	192.400000
752.419434	194.300000
752.456787	194.600000
752.494202	199.800000
752.531616	195.100000
752.568970	198.600000
752.606384	193.900000
752.643799	197.200000
752.681152	203.300000
752.718567	198.400000
752.755981	186.700000
752.793335	194.800000
752.830750	185.500000
752.868164	200.600000
752.905518	189.400000
752.942932	197.000000
752.980225	188.900000
753.017639	198.300000
753.055054	193.600000
753.092407	196.200000
753.129822	200.500000
753.167175	202.400000
753.204529	192.700000
753.241943	190.300000
753.279358	188.300000
753.316650	196.800000
753.354065	196.000000
753.391479	197.700000
753.428772	204.400000
753.466187	196.200000
753.503479	188.300000
753.540894	191.200000
753.578308	189.300000
753.615601	187.200000
753.653015	195.100000
753.690369	191.900000
753.727722	189.800000
753.765076	186.100000
753.802490	189.500000
753.839783	184.500000
753.877136	192.400000
753.914551	207.600000
753.951843	190.300000
753.989258	198.000000
754.026611	196.700000
754.063904	197.000000
754.101257	190.200000
754.138611	185.000000
754.175964	194.800000
754.213318	205.500000
754.250610	187.600000
754.288025	190.000000
754.325378	189.100000
754.362671	199.800000
754.400024	193.100000
754.437378	202.300000
754.474670	205.300000
754.512085	189.800000
754.549438	194.800000
754.586731	192.600000
754.624084	193.700000
754.661438	189.200000
754.698730	201.800000
754.736084	191.700000
754.773376	194.100000
754.810730	197.900000
754.848083	192.900000
754.885315	197.400000
754.922668	186.200000
754.960022	189.800000
754.997314	197.500000
755.034668	196.900000
755.072021	195.300000
755.109253	192.800000
755.146606	201.700000
755.183960	194.600000
755.221252	203.100000
755.258545	202.400000
755.295898	199.800000
755.333191	203.700000
755.370544	197.100000
755.407776	196.500000
755.445129	196.100000
755.482422	202.800000
755.519714	192.200000
755.557068	189.100000
755.594360	187.100000
755.631653	201.200000
755.668945	204.600000
755.706299	201.000000
755.743530	207.900000
755.780884	207.600000
755.818176	203.600000
755.855408	203.300000
755.892761	199.700000
755.930054	199.700000
755.967346	199.500000
756.004639	202.300000
756.041870	198.500000
756.079224	205.600000
756.116516	194.200000
756.153748	203.700000
756.191040	207.600000
756.228394	202.400000
756.265625	194.400000
756.302917	201.000000
756.340210	194.500000
756.377441	206.200000
756.414795	207.300000
756.452087	200.200000
756.489319	194.600000
756.526611	203.200000
756.563843	202.300000
756.601135	211.800000
756.638428	209.700000
756.675659	200.100000
756.712952	206.900000
756.750244	203.400000
756.787476	203.200000
756.824768	208.900000
756.862061	199.900000
756.899292	247.700000
756.936584	206.300000
756.973816	213.200000
757.011047	215.600000
757.048340	203.800000
757.085632	202.900000
757.122864	217.400000
757.160156	201.300000
757.197327	205.700000
757.234619	208.700000
757.271912	202.200000
757.309082	209.800000
757.346375	201.600000
757.383667	212.000000
757.420837	204.300000
757.458130	207.000000
757.495422	202.900000
757.532593	208.000000
757.569885	198.000000
757.607117	201.800000
757.644348	207.900000
757.681580	219.800000
757.718811	193.600000
757.756042	207.500000
757.793335	202.900000
757.830505	210.100000
757.867798	203.300000
757.905029	204.700000
757.942200	208.500000
757.979492	203.600000
758.016724	206.100000
758.053894	205.100000
758.091187	227.200000
758.128418	208.600000
758.165588	207.200000
758.202820	219.200000
758.240112	209.100000
758.277283	217.200000
758.314514	210.100000
758.351685	204.300000
758.388916	219.800000
758.426147	218.200000
758.463379	218.700000
758.500610	213.000000
758.537842	211.400000
758.575012	215.800000
758.612244	206.400000
758.649475	222.100000
758.686646	203.900000
758.723877	216.300000
758.761108	220.600000
758.798279	210.700000
758.835510	214.900000
758.872742	217.500000
758.909851	213.400000
758.947083	215.100000
758.984253	214.900000
759.021484	217.500000
759.058716	219.100000
759.095886	216.600000
759.133057	214.400000
759.170288	216.300000
759.207458	211.300000
759.244690	226.100000
759.281860	225.700000
759.319031	213.200000
759.356262	213.800000
759.393433	213.100000
759.430603	214.800000
759.467773	213.800000
759.505005	222.900000
759.542175	221.300000
759.579346	216.300000
759.616516	216.800000
759.653687	219.100000
759.690918	213.300000
759.728027	217.600000
759.765259	217.700000
759.802429	221.000000
759.839539	220.100000
759.876770	223.700000
759.913940	226.500000
759.951111	218.800000
759.988281	217.400000
760.025452	214.700000
760.062561	213.500000
760.099792	228.100000
760.136963	221.100000
760.174072	218.100000
760.211243	211.800000
760.248413	214.700000
760.285583	214.600000
760.322754	230.100000
760.359863	225.200000
760.397034	226.000000
760.434204	218.400000
760.471375	219.900000
760.508545	219.300000
760.545715	218.100000
760.582825	216.500000
760.619995	226.600000
760.657166	212.900000
760.694275	227.000000
760.731445	226.300000
760.768555	223.100000
760.805664	227.000000
760.842834	223.900000
760.879944	228.600000
760.917114	224.500000
760.954285	222.600000
760.991394	217.200000
761.028564	232.300000
761.065674	227.800000
761.102783	223.500000
761.139954	229.200000
761.177124	231.300000
761.214172	231.800000
761.251343	225.500000
761.288452	225.600000
761.325562	232.400000
761.362732	225.600000
761.399841	228.700000
761.436951	230.300000
761.474121	226.300000
761.511169	229.800000
761.548340	234.500000
761.585449	234.400000
761.622559	235.700000
761.659668	232.500000
761.696838	238.100000
761.733887	235.800000
761.771057	232.500000
761.808167	234.500000
761.845276	239.100000
761.882385	248.300000
761.919434	236.000000
761.956604	257.000000
761.993713	230.700000
762.030762	245.600000
762.067871	237.900000
762.105042	237.100000
762.142090	245.400000
762.179199	241.400000
762.216309	244.500000
762.253418	257.300000
762.290527	250.200000
762.327637	247.300000
762.364685	233.700000
762.401794	247.800000
762.438904	244.700000
762.475952	241.400000
762.513062	239.300000
762.550110	239.700000
762.587219	254.900000
762.624329	256.800000
762.661377	247.600000
762.698486	250.000000
762.735596	247.300000
762.772644	243.400000
762.809753	238.800000
762.846863	248.800000
762.883911	252.000000
762.921021	254.000000
762.958069	250.200000
762.995117	259.400000
763.032227	258.400000
763.069336	253.100000
763.106323	245.900000
763.143433	244.800000
763.180481	253.700000
763.217590	254.400000
763.254639	250.200000
763.291687	252.900000
763.328735	261.100000
763.365845	253.300000
763.402893	252.500000
763.439941	256.500000
763.477051	259.900000
763.514038	259.700000
763.551147	251.300000
763.588196	257.000000
763.625244	255.400000
763.662292	264.300000
763.699402	268.600000
763.736389	262.300000
763.773499	272.300000
763.810486	265.300000
763.847534	265.000000
763.884644	267.000000
763.921631	261.700000
763.958679	272.800000
763.995728	264.700000
764.032776	272.700000
764.069824	258.400000
764.106873	269.400000
764.143860	277.700000
764.180969	267.800000
764.218018	277.300000
764.255005	266.400000
764.292053	271.600000
764.329102	281.400000
764.366089	281.400000
764.403137	279.100000
764.440125	268.900000
764.477173	271.900000
764.514221	275.100000
764.551208	273.000000
764.588257	270.500000
764.625305	280.100000
764.662292	288.600000
764.699341	288.600000
764.736389	283.100000
764.773376	296.600000
764.810425	284.800000
764.847473	291.100000
764.884399	286.000000
764.921448	293.800000
764.958435	293.400000
764.995483	280.500000
765.032532	300.000000
765.069458	283.700000
765.106506	286.800000
765.143555	284.000000
765.180481	287.500000
765.217529	297.700000
765.254578	281.800000
765.291504	293.000000
765.328552	288.200000
765.365540	285.100000
765.402527	300.900000
765.439575	286.600000
765.476501	280.800000
765.513550	283.700000
765.550537	287.000000
765.587463	297.500000
765.624512	288.400000
765.661499	280.500000
765.698486	298.400000
765.735474	288.400000
765.772461	291.300000
765.809448	301.800000
765.846436	295.500000
765.883423	301.100000
765.920410	294.600000
765.957397	292.200000
765.994385	295.400000
766.031311	306.600000
766.068359	298.300000
766.105286	301.600000
766.142273	307.400000
766.179260	304.000000
766.216187	296.000000
766.253174	293.900000
766.290161	301.800000
766.327148	306.700000
766.364136	307.000000
766.401123	323.000000
766.438049	300.600000
766.475037	317.400000
766.512024	309.800000
766.548950	326.200000
766.585937	317.700000
766.622864	316.400000
766.659790	314.200000
766.696777	306.300000
766.733704	320.200000
766.770691	315.300000
766.807678	329.800000
766.844604	323.200000
766.881531	324.400000
766.918518	330.900000
766.955444	334.200000
766.992432	326.800000
767.029358	327.700000
767.066284	331.300000
767.103271	328.700000
767.140198	359.900000
767.177124	346.700000
767.214050	338.600000
767.251038	340.300000
767.287964	337.600000
767.324890	333.600000
767.361816	340.900000
767.398743	348.900000
767.435730	338.600000
767.472595	348.000000
767.509583	350.000000
767.546509	340.600000
767.583374	344.700000
767.620361	341.100000
767.657288	346.400000
767.694214	350.300000
767.731140	345.400000
767.768066	350.100000
767.804993	352.600000
767.841919	345.400000
767.878845	352.000000
767.915710	360.500000
767.952698	354.200000
767.989563	358.700000
768.026489	360.400000
768.063416	355.800000
768.100281	353.100000
768.137207	370.000000
768.174133	365.700000
768.211060	368.000000
768.247986	364.500000
768.284912	363.900000
768.321777	368.000000
768.358704	365.500000
768.395630	369.800000
768.432495	363.600000
768.469421	371.400000
768.506348	377.500000
768.543152	385.100000
768.580078	381.900000
768.616943	381.700000
768.653870	383.800000
768.690796	382.100000
768.727661	379.500000
768.764587	384.800000
768.801453	380.000000
768.838318	390.800000
768.875244	389.200000
768.912109	394.400000
768.948975	386.900000
768.985901	390.300000
769.022766	388.100000
769.059631	398.500000
769.096558	390.600000
769.133362	394.000000
769.170288	392.100000
769.207214	395.700000
769.244019	400.200000
769.280945	401.000000
769.317810	407.900000
769.354675	403.000000
769.391541	412.900000
769.428406	408.100000
769.465271	421.200000
769.502136	411.800000
769.539062	413.200000
769.575867	414.200000
769.612732	411.000000
769.649597	421.400000
769.686462	426.300000
769.723328	420.500000
769.760193	417.900000
769.797058	421.800000
769.833923	428.600000
769.870728	426.300000
769.907593	429.300000
769.944519	431.500000
769.981323	432.400000
770.018188	437.000000
770.055054	432.100000
770.091858	432.800000
770.128723	445.000000
770.165588	450.800000
770.202393	432.000000
770.239258	446.500000
770.276062	439.600000
770.312927	441.500000
770.349792	448.000000
770.386597	444.200000
770.423462	455.100000
770.460327	463.700000
770.497131	446.300000
770.533997	441.000000
770.570862	459.100000
770.607605	459.800000
770.644470	451.900000
770.681335	455.400000
770.718140	455.000000
770.754944	446.600000
770.791809	448.200000
770.828613	451.700000
770.865479	453.100000
770.902222	462.800000
770.939087	459.300000
770.975952	446.100000
771.012695	454.100000
771.049561	470.300000
771.086365	457.000000
771.123169	452.100000
771.159973	459.600000
771.196838	459.000000
771.233582	462.400000
771.270447	462.200000
771.307251	465.000000
771.344055	461.300000
771.380859	466.800000
771.417664	458.900000
771.454468	470.900000
771.491272	469.600000
771.528076	471.700000
771.564880	469.400000
771.601685	482.200000
771.638428	470.800000
771.675293	475.100000
771.712097	466.900000
771.748840	488.200000
771.785645	476.800000
771.822449	482.400000
771.859253	483.900000
771.896057	480.500000
771.932861	495.400000
771.969604	484.700000
772.006409	478.800000
772.043213	493.700000
772.079956	489.500000
772.116760	480.900000
772.153503	486.600000
772.190308	497.300000
772.227112	489.100000
772.263855	487.400000
772.300659	494.500000
772.337463	500.300000
772.374207	491.800000
772.411011	487.200000
772.447754	495.600000
772.484497	512.300000
772.521301	506.900000
772.558105	504.100000
772.594849	509.100000
772.631592	513.700000
772.668396	515.800000
772.705139	519.600000
772.741882	520.900000
772.778625	535.500000
772.815430	538.300000
772.852173	532.800000
772.888916	538.100000
772.925720	542.200000
772.962463	553.600000
772.999207	546.200000
773.035950	553.900000
773.072754	550.800000
773.109436	549.200000
773.146240	550.300000
773.182922	552.800000
773.219727	562.400000
773.256470	558.600000
773.293152	541.000000
773.329956	555.100000
773.366699	558.300000
773.403381	547.900000
773.440186	560.900000
773.476929	568.800000
773.513611	559.300000
773.550354	560.400000
773.587158	560.200000
773.623840	557.800000
773.660583	569.300000
773.697327	584.000000
773.734009	571.400000
773.770813	573.800000
773.807495	569.600000
773.844238	576.200000
773.880981	594.300000
773.917664	590.800000
773.954407	592.400000
773.991150	584.800000
774.027832	590.300000
774.064575	582.200000
774.101318	596.800000
774.138000	603.000000
774.174744	597.200000
774.211487	600.500000
774.248108	592.700000
774.284851	590.500000
774.321594	603.700000
774.358276	607.600000
774.395020	619.700000
774.431702	613.300000
774.468384	609.400000
774.505127	601.300000
774.541809	620.600000
774.578491	633.800000
774.615234	635.200000
774.651917	623.800000
774.688599	632.600000
774.725342	636.700000
774.762024	638.200000
774.798706	643.500000
774.835449	644.100000
774.872070	651.000000
774.908813	651.500000
774.945496	645.100000
774.982178	649.400000
775.018860	656.100000
775.055542	658.600000
775.092224	657.800000
775.128967	665.100000
775.165588	659.400000
775.202271	652.900000
775.239014	668.800000
775.275635	671.700000
775.312317	669.100000
775.349060	673.000000
775.385681	668.100000
775.422363	661.400000
775.459045	674.800000
775.495667	677.200000
775.532410	682.700000
775.569092	681.900000
775.605713	680.900000
775.642395	677.200000
775.679016	684.600000
775.715698	687.900000
775.752380	691.600000
775.789001	686.600000
775.825684	682.400000
775.862366	687.200000
775.898987	695.800000
775.935669	684.900000
775.972351	711.700000
776.008972	708.000000
776.045654	708.400000
776.082336	699.100000
776.118958	701.700000
776.155640	704.400000
776.192322	721.100000
776.228882	719.800000
776.265564	720.600000
776.302185	710.700000
776.338867	715.900000
776.375488	705.200000
776.412109	723.700000
776.448792	721.800000
776.485413	735.100000
776.522034	718.700000
776.558716	712.500000
776.595337	714.500000
776.631958	724.200000
776.668579	723.800000
776.705261	731.000000
776.741882	723.800000
776.778503	718.400000
776.815186	711.800000
776.851746	724.200000
776.888367	724.100000
776.924988	737.000000
776.961609	721.500000
776.998291	723.700000
777.034851	711.100000
777.071472	731.000000
777.108154	727.600000
777.144714	741.400000
777.181335	739.600000
777.218018	730.000000
777.254578	734.800000
777.291199	735.700000
777.327759	744.900000
777.364380	749.000000
777.401062	756.500000
777.437622	770.200000
777.474243	755.200000
777.510864	763.500000
777.547424	761.800000
777.584045	765.000000
777.620667	772.900000
777.657227	771.400000
777.693848	772.400000
777.730469	789.200000
777.767029	782.700000
777.803650	789.900000
777.840271	780.200000
777.876831	779.300000
777.913452	790.400000
777.950012	766.800000
777.986633	770.900000
778.023193	768.600000
778.059753	771.900000
778.096375	770.600000
778.132996	785.200000
778.169556	770.800000
778.206116	777.100000
778.242737	769.000000
778.279297	785.300000
778.315857	776.200000
778.352478	785.100000
778.389038	797.200000
778.425598	801.000000
778.462219	810.300000
778.498718	808.700000
778.535339	812.600000
778.571838	817.800000
778.608459	825.100000
778.645020	822.600000
778.681580	834.100000
778.718140	838.700000
778.754761	833.600000
778.791260	840.800000
778.827881	852.200000
778.864441	843.200000
778.900940	849.800000
778.937561	849.100000
778.974121	848.000000
779.010620	834.100000
779.047241	841.700000
779.083801	859.000000
779.120300	852.500000
779.156860	861.500000
779.193359	863.200000
779.229980	858.900000
779.266541	870.200000
779.303040	876.400000
779.339600	864.800000
779.376160	859.900000
779.412659	866.500000
779.449219	858.200000
779.485779	868.200000
779.522278	876.700000
779.558838	880.000000
779.595398	881.200000
779.631897	883.700000
779.668457	869.800000
779.705017	885.300000
779.741516	876.500000
779.778076	872.600000
779.814575	881.400000
779.851074	895.600000
779.887634	880.700000
779.924133	893.300000
779.960693	878.200000
779.997253	889.900000
780.033691	893.200000
780.070251	903.500000
780.106812	907.900000
780.143250	910.000000
780.179810	906.200000
780.216370	911.900000
780.252808	921.200000
780.289368	938.200000
780.325867	936.300000
780.362366	932.000000
780.398865	946.400000
780.435364	936.000000
780.471863	951.100000
780.508423	950.700000
780.544861	959.100000
780.581421	961.500000
780.617920	954.000000
780.654419	950.500000
780.690918	961.300000
780.727417	970.100000
780.763916	962.300000
780.800415	972.400000
780.836914	954.300000
780.873352	960.900000
780.909912	952.700000
780.946411	957.700000
780.982849	972.600000
781.019348	988.800000
781.055786	984.500000
781.092346	977.700000
781.128845	990.000000
781.165283	998.500000
781.201782	1007.200000
781.238281	1005.700000
781.274719	1018.500000
781.311218	1002.300000
781.347717	1018.200000
781.384155	1001.000000
781.420654	1008.300000
781.457092	1017.300000
781.493591	1015.200000
781.530090	1005.600000
781.566528	1011.800000
781.602966	1011.100000
781.639465	1010.100000
781.675903	1005.000000
781.712402	1020.000000
781.748901	1026.800000
781.785278	1017.100000
781.821777	1023.200000
781.858276	1018.400000
781.894714	1031.100000
781.931152	1026.400000
781.967651	1030.600000
782.004089	1020.500000
782.040527	1034.000000
782.076965	1032.800000
782.113403	1037.400000
782.149902	1036.300000
782.186340	1030.500000
782.222778	1045.300000
782.259277	1033.600000
782.295654	1027.000000
782.332092	1039.500000
782.368591	1036.300000
782.404968	1027.800000
782.441467	1027.000000
782.477905	1031.000000
782.514282	1026.800000
782.550781	1043.600000
782.587219	1043.500000
782.623596	1052.800000
782.660095	1051.300000
782.696472	1058.200000
782.732910	1060.800000
782.769348	1067.000000
782.805786	1083.400000
782.842224	1077.600000
782.878662	1071.900000
782.915039	1073.500000
782.951477	1073.800000
782.987915	1069.900000
783.024292	1076.500000
783.060730	1073.500000
783.097168	1055.300000
783.133545	1052.600000
783.169983	1050.300000
783.206421	1042.300000
783.242798	1038.600000
783.279236	1028.800000
783.315613	1024.500000
783.352051	1022.500000
783.388489	1010.300000
783.424866	992.400000
783.461304	1000.700000
783.497681	1008.000000
783.534058	1001.500000
783.570496	994.100000
783.606934	987.100000
783.643250	1000.200000
783.679687	1010.300000
783.716125	1006.400000
783.752441	1015.600000
783.788879	1034.900000
783.825317	1037.500000
783.861633	1045.700000
783.898071	1050.100000
783.934448	1067.300000
783.970825	1076.000000
784.007263	1058.600000
784.043579	1035.300000
784.080017	999.100000
784.116394	932.200000
784.152710	868.900000
784.189148	814.000000
784.225525	749.300000
784.261902	682.800000
784.298279	629.800000
784.334656	590.000000
784.371033	540.300000
784.407410	523.200000
784.443787	504.400000
784.480164	511.000000
784.516541	534.100000
784.552856	597.600000
784.589233	645.100000
784.625610	698.800000
784.661987	779.400000
784.698364	818.700000
784.734741	855.900000
784.771057	897.500000
784.807434	937.100000
784.843811	991.500000
784.880127	1010.400000
784.916504	1070.800000
784.952881	1084.700000
784.989197	1084.400000
785.025574	1089.200000
785.061951	1106.900000
785.098267	1134.400000
785.134644	1134.400000
785.170959	1137.900000
785.207275	1147.000000
785.243652	1140.800000
785.279968	1131.500000
785.316345	1135.100000
785.352722	1143.600000
785.388977	1147.100000
785.425354	1128.500000
785.461731	1103.800000
785.498047	1092.700000
785.534363	1095.000000
785.570679	1094.700000
785.606995	1093.900000
785.643372	1095.800000
785.679687	1081.900000
785.716003	1068.700000
785.752380	1067.300000
785.788635	1073.900000
785.825012	1098.200000
785.861328	1108.100000
785.897644	1098.800000
785.933960	1111.400000
785.970337	1119.600000
786.006592	1137.600000
786.042908	1155.800000
786.079285	1171.200000
786.115540	1185.100000
786.151855	1180.200000
786.188171	1177.400000
786.224487	1172.000000
786.260803	1178.000000
786.297119	1196.400000
786.333435	1195.600000
786.369751	1182.500000
786.406006	1186.300000
786.442322	1167.500000
786.478638	1158.200000
786.514954	1177.300000
786.551270	1178.200000
786.587585	1188.400000
786.623840	1175.100000
786.660156	1166.400000
786.696472	1151.000000
786.732727	1141.100000
786.769043	1144.300000
786.805298	1138.100000
786.841614	1143.100000
786.877930	1148.600000
786.914124	1125.800000
786.950439	1142.100000
786.986755	1155.200000
787.023010	1175.300000
787.059326	1187.400000
787.095642	1180.600000
787.131836	1203.600000
787.168152	1184.400000
787.204468	1192.000000
787.240723	1214.800000
787.276978	1226.000000
787.313293	1239.000000
787.349548	1235.900000
787.385803	1236.200000
787.422058	1224.700000
787.458313	1229.200000
787.494629	1234.100000
787.530823	1229.200000
787.567139	1217.000000
787.603455	1204.700000
787.639648	1187.100000
787.675903	1187.200000
787.712219	1188.000000
787.748413	1192.500000
787.784729	1191.800000
787.820984	1180.600000
787.857178	1167.300000
787.893494	1160.600000
787.929749	1152.700000
787.965942	1165.400000
788.002258	1181.100000
788.038452	1189.500000
788.074707	1170.200000
788.110962	1180.100000
788.147217	1171.900000
788.183472	1185.700000
788.219727	1198.100000
788.255920	1216.900000
788.292175	1223.800000
788.328430	1214.400000
788.364624	1192.200000
788.400879	1189.600000
788.437134	1197.000000
788.473328	1199.100000
788.509583	1194.500000
788.545837	1189.600000
788.582031	1179.200000
788.618286	1167.000000
788.654480	1159.600000
788.690735	1177.800000
788.726990	1200.500000
788.763184	1195.900000
788.799377	1203.300000
788.835632	1196.200000
788.871826	1209.700000
788.908081	1209.000000
788.944336	1209.800000
788.980469	1234.100000
789.016724	1221.600000
789.052979	1223.600000
789.089111	1197.400000
789.125366	1198.800000
789.161621	1178.500000
789.197754	1191.500000
789.234009	1189.000000
789.270142	1172.600000
789.306396	1158.200000
789.342590	1148.300000
789.378784	1122.100000
789.414978	1124.400000
789.451233	1143.700000
789.487366	1141.700000
789.523621	1151.200000
789.559814	1135.900000
789.595947	1129.000000
789.632202	1134.700000
789.668335	1152.700000
789.704529	1170.600000
789.740784	1198.400000
789.776917	1195.900000
789.813110	1179.100000
789.849304	1199.200000
789.885498	1201.100000
789.921692	1218.000000
789.957886	1229.700000
789.994019	1227.400000
790.030212	1213.500000
790.066406	1217.800000
790.102539	1213.300000
790.138733	1216.100000
790.174927	1220.300000
790.211060	1234.300000
790.247253	1218.800000
790.283386	1199.100000
790.319580	1179.700000
790.355774	1160.400000
790.391907	1174.600000
790.428101	1201.400000
790.464294	1205.000000
790.500427	1205.300000
790.536621	1188.300000
790.572754	1167.000000
790.608887	1169.100000
790.645081	1181.500000
790.681274	1193.400000
790.717346	1193.300000
790.753540	1154.400000
790.789734	1075.600000
790.825867	1016.100000
790.862000	1005.500000
790.898132	1051.900000
790.934265	1115.300000
790.970459	1173.400000
791.006592	1196.800000
791.042725	1200.600000
791.078918	1193.300000
791.114990	1195.300000
791.151184	1211.000000
791.187317	1237.200000
791.223389	1228.500000
791.259583	1212.500000
791.295715	1216.500000
791.331848	1222.300000
791.367981	1236.900000
791.404114	1247.800000
791.440247	1240.200000
791.476379	1239.000000
791.512451	1227.400000
791.548584	1221.300000
791.584778	1214.600000
791.620850	1233.500000
791.656982	1248.700000
791.693115	1234.900000
791.729187	1232.000000
791.765381	1218.000000
791.801514	1221.400000
791.837585	1217.200000
791.873718	1228.500000
791.909851	1245.600000
791.945923	1254.900000
791.982056	1215.300000
792.018188	1213.300000
792.054260	1221.900000
792.090393	1224.300000
792.126465	1214.700000
792.162598	1229.300000
792.198669	1207.600000
792.234741	1204.100000
792.270874	1191.500000
792.307007	1176.500000
792.343079	1187.700000
792.379150	1210.000000
792.415283	1189.400000
792.451355	1192.400000
792.487488	1166.800000
792.523560	1161.500000
792.559631	1162.100000
792.595764	1157.900000
792.631836	1168.600000
792.667908	1181.300000
792.703979	1158.800000
792.740051	1159.500000
792.776184	1159.900000
792.812256	1164.600000
792.848328	1170.100000
792.884399	1176.100000
792.920471	1173.600000
792.956543	1166.900000
792.992615	1160.400000
793.028748	1162.800000
793.064758	1165.900000
793.100830	1187.800000
793.136963	1201.300000
793.172974	1190.600000
793.209045	1186.500000
793.245178	1190.900000
793.281189	1186.500000
793.317261	1189.100000
793.353271	1194.600000
793.389404	1201.500000
793.425476	1193.600000
793.461487	1177.800000
793.497559	1170.700000
793.533630	1175.400000
793.569641	1180.900000
793.605713	1181.900000
793.641785	1189.200000
793.677795	1189.300000
793.713867	1177.700000
793.749878	1182.900000
793.785950	1199.300000
793.822021	1204.000000
793.858032	1187.200000
793.894104	1193.600000
793.930176	1185.900000
793.966187	1188.600000
794.002258	1177.000000
794.038269	1181.300000
794.074280	1183.600000
794.110352	1211.800000
794.146423	1168.200000
794.182373	1160.700000
794.218445	1158.200000
794.254517	1150.200000
794.290466	1138.100000
794.326538	1142.700000
794.362549	1140.900000
794.398560	1147.400000
794.434631	1149.600000
794.470581	1120.400000
794.506653	1111.900000
794.542664	1116.500000
794.578674	1108.300000
794.614685	1113.200000
794.650757	1109.800000
794.686707	1102.200000
794.722778	1092.800000
794.758789	1098.700000
794.794739	1106.200000
794.830811	1131.200000
794.866821	1148.300000
794.902771	1144.400000
794.938843	1128.300000
794.974792	1125.400000
795.010803	1119.800000
795.046814	1122.800000
795.082825	1107.100000
795.118835	1127.700000
795.154846	1103.400000
795.190796	1111.900000
795.226807	1085.500000
795.262817	1098.200000
795.298767	1094.300000
795.334778	1097.300000
795.370850	1090.200000
795.406799	1090.000000
795.442810	1065.300000
795.478821	1063.400000
795.514709	1063.800000
795.550720	1085.600000
795.586670	1064.300000
795.622681	1069.900000
795.658691	1063.800000
795.694641	1066.200000
795.730652	1044.700000
795.766663	1053.100000
795.802551	1052.800000
795.838562	1073.500000
795.874573	1061.400000
795.910522	1057.100000
795.946472	1042.800000
795.982483	1048.100000
796.018433	1053.200000
796.054382	1069.200000
796.090393	1052.300000
796.126282	1044.500000
796.162292	1028.600000
796.198242	1021.800000
796.234192	1024.800000
796.270203	1023.000000
796.306091	1039.000000
796.342041	1048.700000
796.378052	1034.200000
796.413940	1027.300000
796.449951	1025.700000
796.485901	1026.800000
796.521790	1030.800000
796.557800	1038.300000
796.593689	1041.400000
796.629639	1025.700000
796.665649	1024.000000
796.701599	1017.200000
796.737488	1019.900000
796.773437	1027.500000
796.809387	1027.800000
796.845337	1020.400000
796.881287	1008.100000
796.917175	990.000000
796.953125	993.800000
796.989075	1002.300000
797.024963	1008.300000
797.060913	1005.500000
797.096863	1009.400000
797.132751	997.300000
797.168701	985.700000
797.204590	991.200000
797.240540	991.100000
797.276489	993.000000
797.312439	997.200000
797.348328	996.500000
797.384277	984.600000
797.420166	974.100000
797.456055	976.500000
797.492004	973.600000
797.527893	987.500000
797.563843	988.000000
797.599731	973.300000
797.635620	955.500000
797.671570	966.500000
797.707520	961.800000
797.743347	960.200000
797.779297	973.100000
797.815125	967.100000
797.851074	962.600000
797.887024	951.500000
797.922913	942.100000
797.958801	957.600000
797.994690	956.400000
798.030579	962.300000
798.066467	961.800000
798.102356	946.800000
798.138245	934.200000
798.174133	929.800000
798.210083	946.600000
798.245911	951.600000
798.281799	955.500000
798.317749	946.700000
798.353577	938.300000
798.389465	935.200000
798.425293	932.500000
798.461243	924.000000
798.497131	933.400000
798.532959	933.600000
798.568848	939.200000
798.604736	925.300000
798.640564	910.900000
798.676453	907.400000
798.712402	917.600000
798.748230	922.100000
798.784119	916.600000
798.820007	919.800000
798.855835	914.200000
798.891724	905.900000
798.927551	906.200000
798.963379	915.000000
798.999268	911.400000
799.035095	908.000000
799.070984	902.300000
799.106873	886.300000
799.142700	898.700000
799.178528	886.200000
799.214417	883.800000
799.250244	902.700000
799.286133	893.800000
799.321960	890.200000
799.357788	884.100000
799.393677	887.400000
799.429504	882.600000
799.465332	882.000000
799.501221	890.400000
799.537048	889.400000
799.572876	877.500000
799.608704	876.900000
799.644531	887.400000
799.680359	883.600000
799.716248	889.000000
799.752014	896.700000
799.787903	888.800000
799.823730	882.600000
799.859558	871.800000
799.895386	879.400000
799.931213	876.900000
799.967041	868.500000
800.002869	862.400000
800.038696	874.900000
800.074463	848.800000
800.110352	859.800000
800.146179	849.100000
800.181946	858.600000
800.217773	856.200000
800.253540	856.700000
800.289429	851.100000
800.325256	844.500000
800.361023	836.100000
800.396851	837.100000
800.432678	840.500000
800.468445	840.400000
800.504272	830.400000
800.540100	815.100000
800.575867	811.100000
800.611694	821.700000
800.647461	808.100000
800.683289	814.700000
800.719116	816.700000
800.754883	810.000000
800.790649	794.900000
800.826477	783.100000
800.862244	803.300000
800.898071	787.700000
800.933838	789.500000
800.969604	784.300000
801.005432	785.300000
801.041199	785.800000
801.076965	778.700000
801.112793	762.900000
801.148560	756.000000
801.184326	759.100000
801.220154	760.800000
801.255859	748.100000
801.291687	748.700000
801.327454	739.700000
801.363281	742.600000
801.398987	744.700000
801.434814	744.000000
801.470520	752.800000
801.506287	735.200000
801.542114	729.800000
801.577820	734.900000
801.613647	729.300000
801.649414	723.300000
801.685120	723.800000
801.720886	732.700000
801.756714	716.300000
801.792419	709.300000
801.828186	709.200000
801.863892	718.600000
801.899719	707.000000
801.935486	705.900000
801.971252	713.600000
802.006958	703.700000
802.042725	696.000000
802.078430	698.900000
802.114197	690.900000
802.149963	712.600000
802.185669	698.300000
802.221436	692.100000
802.257202	692.600000
802.292908	690.300000
802.328674	697.400000
802.364441	695.500000
802.400146	690.000000
802.435913	688.300000
802.471558	682.100000
802.507324	677.800000
802.543091	668.200000
802.578796	683.000000
802.614502	685.600000
802.650269	687.400000
802.685974	667.100000
802.721741	672.100000
802.757446	674.700000
802.793152	673.100000
802.828918	679.800000
802.864624	672.600000
802.900330	668.400000
802.936035	665.200000
802.971802	661.800000
803.007446	660.000000
803.043213	655.400000
803.078857	662.400000
803.114624	645.900000
803.150330	649.000000
803.185974	639.100000
803.221741	638.100000
803.257446	650.800000
803.293152	650.500000
803.328857	639.900000
803.364563	637.100000
803.400208	631.800000
803.435974	641.300000
803.471680	634.500000
803.507324	624.400000
803.543030	633.300000
803.578735	636.000000
803.614441	622.900000
803.650146	629.500000
803.685791	618.700000
803.721497	617.300000
803.757202	609.600000
803.792847	618.800000
803.828552	610.100000
803.864258	607.700000
803.899902	611.500000
803.935608	594.100000
803.971313	600.000000
804.006958	596.400000
804.042664	596.900000
804.078308	598.900000
804.113953	592.500000
804.149658	597.200000
804.185364	590.400000
804.221008	596.500000
804.256714	587.500000
804.292297	586.400000
804.328003	583.700000
804.363708	574.400000
804.399292	573.500000
804.434998	578.500000
804.470703	568.700000
804.506287	581.100000
804.541992	572.500000
804.577637	575.800000
804.613281	566.200000
804.648926	563.200000
804.684570	563.200000
804.720215	562.300000
804.755920	560.100000
804.791565	555.400000
804.827209	561.300000
804.862854	558.200000
804.898437	546.900000
804.934143	551.900000
804.969788	552.500000
805.005371	553.500000
805.041077	553.000000
805.076721	554.500000
805.112305	541.300000
805.147949	544.100000
805.183655	537.300000
805.219238	543.800000
805.254883	542.100000
805.290466	546.700000
805.326111	539.700000
805.361755	531.400000
805.397400	534.400000
805.432983	538.000000
805.468628	537.800000
805.504211	542.100000
805.539856	536.100000
805.575500	542.500000
805.611084	531.500000
805.646729	521.400000
805.682373	525.600000
805.717957	535.200000
805.753601	534.400000
805.789246	520.200000
805.824768	530.700000
805.860413	533.400000
805.895996	520.200000
805.931641	519.000000
805.967224	527.000000
806.002869	515.000000
806.038452	529.500000
806.074036	523.300000
806.109619	512.900000
806.145264	508.500000
806.180847	509.500000
806.216431	506.400000
806.252014	510.700000
806.287659	509.600000
806.323181	519.400000
806.358826	508.900000
806.394409	493.500000
806.429993	497.100000
806.465576	511.300000
806.501160	493.400000
806.536743	490.200000
806.572327	498.000000
806.607910	494.200000
806.643494	493.700000
806.679077	487.900000
806.714661	489.100000
806.750244	495.400000
806.785828	484.600000
806.821350	484.400000
806.856934	490.200000
806.892517	485.900000
806.928101	475.400000
806.963684	480.500000
806.999268	487.000000
807.034790	467.400000
807.070374	475.900000
807.105896	471.900000
807.141479	466.100000
807.177063	476.300000
807.212585	464.700000
807.248169	464.400000
807.283752	473.400000
807.319275	466.100000
807.354858	463.700000
807.390381	458.000000
807.425903	459.900000
807.461487	455.400000
807.497070	447.500000
807.532593	452.400000
807.568115	451.400000
807.603699	444.800000
807.639221	439.900000
807.674744	444.300000
807.710266	447.800000
807.745850	451.100000
807.781372	438.600000
807.816895	439.100000
807.852417	444.200000
807.888000	439.300000
807.923523	437.800000
807.959045	440.200000
807.994629	429.600000
808.030090	426.800000
808.065613	433.600000
808.101135	434.900000
808.136658	432.400000
808.172241	426.900000
808.207764	427.400000
808.243225	420.400000
808.278809	419.500000
808.314270	425.900000
808.349792	413.400000
808.385315	412.500000
808.420837	417.400000
808.456360	422.000000
808.491882	421.800000
808.527344	414.900000
808.562866	431.300000
808.598389	417.900000
808.633850	411.100000
808.669434	409.200000
808.704895	416.700000
808.740417	420.800000
808.775940	411.800000
808.811462	406.500000
808.846924	399.900000
808.882385	394.500000
808.917847	395.100000
808.953369	397.000000
808.988892	392.700000
809.024353	399.800000
809.059875	400.400000
809.095398	395.500000
809.130798	391.100000
809.166321	389.700000
809.201843	387.600000
809.237305	390.900000
809.272766	397.000000
809.308228	379.500000
809.343750	383.300000
809.379211	385.000000
809.414734	383.000000
809.450134	390.100000
809.485657	371.200000
809.521118	380.600000
809.556580	377.900000
809.592102	377.200000
809.627502	373.300000
809.663025	374.900000
809.698486	366.300000
809.733887	363.800000
809.769409	367.200000
809.804871	356.400000
809.840271	358.300000
809.875793	363.600000
809.911194	366.000000
809.946655	360.400000
809.982178	355.700000
810.017639	359.900000
810.053040	355.300000
810.088501	356.400000
810.123901	354.900000
810.159424	350.800000
810.194885	346.100000
810.230286	354.200000
810.265747	343.500000
810.301208	342.800000
810.336609	345.200000
810.372070	339.900000
810.407532	343.000000
810.442932	345.000000
810.478394	347.700000
810.513794	342.900000
810.549255	340.400000
810.584717	341.700000
810.620117	333.200000
810.655518	343.000000
810.690979	337.800000
810.726379	337.100000
810.761841	324.900000
810.797302	327.800000
810.832642	327.300000
810.868103	338.400000
810.903564	328.600000
810.938904	334.700000
810.974365	323.000000
811.009827	325.700000
811.045166	321.800000
811.080627	315.600000
811.115967	322.700000
811.151428	328.900000
811.186829	322.100000
811.222229	319.800000
811.257629	315.600000
811.293091	319.000000
811.328430	328.200000
811.363892	320.700000
811.399292	322.800000
811.434631	317.400000
811.470093	321.300000
811.505493	314.200000
811.540833	314.100000
811.576294	317.800000
811.611694	314.100000
811.647034	309.600000
811.682434	312.100000
811.717773	312.800000
811.753235	318.400000
811.788635	308.700000
811.823975	314.400000
811.859375	318.300000
811.894775	308.500000
811.930115	307.400000
811.965515	309.700000
812.000916	310.800000
812.036255	306.400000
812.071655	308.900000
812.106995	303.700000
812.142395	302.800000
812.177795	310.800000
812.213196	307.000000
812.248474	308.600000
812.283875	299.100000
812.319214	303.200000
812.354614	304.200000
812.390015	301.300000
812.425293	298.600000
812.460693	301.800000
812.496094	296.200000
812.531433	289.300000
812.566772	293.600000
812.602173	296.500000
812.637451	297.700000
812.672852	291.400000
812.708191	297.900000
812.743530	289.300000
812.778931	282.100000
812.814270	286.400000
812.849609	293.100000
812.884949	288.300000
812.920227	280.900000
812.955627	297.300000
812.990967	289.200000
813.026306	282.300000
813.061646	274.800000
813.096985	271.200000
813.132324	268.800000
813.167664	273.200000
813.203003	280.500000
813.238281	265.400000
813.273682	269.700000
813.308960	264.900000
813.344299	268.700000
813.379639	276.400000
813.414978	268.400000
813.450256	268.000000
813.485596	275.200000
813.520874	263.800000
813.556213	269.300000
813.591614	270.900000
813.626831	263.700000
813.662170	267.000000
813.697510	278.700000
813.732788	260.900000
813.768127	268.300000
813.803467	269.300000
813.838745	264.100000
813.874084	266.100000
813.909363	266.600000
813.944641	266.000000
813.979980	257.900000
814.015320	262.700000
814.050598	259.400000
814.085876	263.400000
814.121155	261.800000
814.156494	258.500000
814.191772	261.400000
814.227051	256.100000
814.262390	259.900000
814.297668	259.700000
814.332947	259.000000
814.368225	250.900000
814.403564	255.800000
814.438782	253.000000
814.474121	254.300000
814.509338	252.100000
814.544617	258.900000
814.579956	248.900000
814.615173	259.800000
814.650513	257.900000
814.685791	248.200000
814.721008	252.400000
814.756348	250.400000
814.791626	248.400000
814.826843	248.300000
814.862122	249.400000
814.897400	244.000000
814.932678	249.200000
814.967957	248.500000
815.003235	249.000000
815.038452	238.600000
815.073730	239.500000
815.108948	248.200000
815.144226	247.100000
815.179504	249.300000
815.214722	237.100000
815.250000	234.800000
815.285278	244.000000
815.320496	236.200000
815.355774	241.400000
815.391052	242.500000
815.426270	238.100000
815.461487	237.900000
815.496765	235.400000
815.531982	229.200000
815.567261	237.600000
815.602539	244.600000
815.637695	239.900000
815.672974	239.800000
815.708191	240.400000
815.743408	241.100000
815.778687	235.000000
815.813904	243.800000
815.849121	227.000000
815.884399	229.500000
815.919556	229.300000
815.954834	228.700000
815.990051	235.100000
816.025269	238.300000
816.060486	228.100000
816.095703	228.300000
816.130920	230.900000
816.166199	227.300000
816.201416	231.100000
816.236572	237.600000
816.271851	226.200000
816.307007	235.800000
816.342224	222.100000
816.377441	227.100000
816.412659	218.200000
816.447876	230.600000
816.483093	224.900000
816.518250	227.000000
816.553467	222.700000
816.588745	228.500000
816.623901	219.000000
816.659119	215.300000
816.694275	221.100000
816.729492	219.100000
816.764709	253.900000
816.799927	217.300000
816.835083	220.900000
816.870300	216.200000
816.905457	218.800000
816.940674	224.700000
816.975830	215.600000
817.010986	214.600000
817.046204	216.000000
817.081421	213.700000
817.116577	213.500000
817.151733	223.500000
817.186951	222.600000
817.222107	220.100000
817.257324	220.800000
817.292419	220.000000
817.327637	209.100000
817.362854	215.300000
817.398010	210.400000
817.433167	212.700000
817.468323	211.500000
817.503479	213.900000
817.538635	221.100000
817.573853	216.000000
817.608948	214.700000
817.644165	210.600000
817.679321	208.900000
817.714478	208.300000
817.749634	214.100000
817.784790	225.300000
817.819946	220.300000
817.855103	200.600000
817.890198	211.500000
817.925415	202.100000
817.960571	212.100000
817.995667	210.800000
818.030823	213.500000
818.066040	206.100000
818.101135	210.400000
818.136292	208.200000
818.171448	203.200000
818.206543	206.900000
818.241699	214.300000
818.276855	207.400000
818.311951	208.600000
818.347107	204.000000
818.382263	211.000000
818.417358	213.100000
818.452515	216.800000
818.487610	214.400000
818.522766	205.300000
818.557922	215.900000
818.593018	212.800000
818.628113	207.300000
818.663269	204.100000
818.698364	207.200000
818.733521	205.800000
818.768677	208.700000
818.803711	201.300000
818.838867	202.300000
818.874023	206.600000
818.909058	200.900000
818.944214	201.300000
818.979370	208.600000
819.014404	207.200000
819.049561	202.700000
819.084595	207.600000
819.119751	198.000000
819.154846	208.500000
819.189941	203.800000
819.225037	198.700000
819.260193	193.400000
819.295227	196.700000
819.330322	192.600000
819.365479	194.100000
819.400513	227.400000
819.435608	191.100000
819.470764	190.500000
819.505798	191.500000
819.540894	196.700000
819.575989	194.300000
819.611084	204.800000
819.646179	204.900000
819.681213	200.000000
819.716309	195.200000
819.751404	196.400000
819.786438	201.300000
819.821533	194.700000
819.856628	197.900000
819.891663	202.100000
819.926758	207.000000
819.961853	205.000000
819.996887	194.300000
820.031982	203.700000
820.067017	195.600000
820.102112	227.100000
820.137207	195.700000
820.172302	214.700000
820.207275	193.500000
820.242371	197.000000
820.277405	194.100000
820.312500	198.500000
820.347534	198.300000
820.382568	202.500000
820.417664	193.900000
820.452759	195.600000
820.487732	191.700000
820.522827	196.100000
820.557861	191.900000
820.592896	195.500000
820.627930	194.600000
820.662964	192.200000
820.698059	197.700000
820.733093	194.600000
820.768127	199.600000
820.803162	196.400000
820.838196	193.800000
820.873230	196.200000
820.908264	195.900000
820.943298	193.400000
820.978333	201.500000
821.013367	196.900000
821.048401	200.900000
821.083435	201.100000
821.118469	187.600000
821.153503	200.300000
821.188477	199.300000
821.223511	187.700000
821.258484	196.200000
821.293579	194.600000
821.328613	188.900000
821.363647	193.100000
821.398621	190.000000
821.433655	189.200000
821.468628	208.000000
821.503662	193.400000
821.538696	196.600000
821.573669	189.000000
821.608704	199.700000
821.643677	190.700000
821.678650	198.800000
821.713684	201.900000
821.748718	194.100000
821.783691	192.400000
821.818726	197.100000
821.853638	194.700000
821.888672	194.600000
821.923706	194.200000
821.958618	191.800000
821.993652	191.700000
822.028687	199.400000
822.063599	199.500000
822.098633	196.900000
822.133667	191.100000
822.168579	192.800000
822.203613	194.600000
822.238586	191.100000
822.273560	196.200000
822.308533	190.600000
822.343567	190.800000
822.378479	193.800000
822.413452	192.900000
822.448425	189.400000
822.483398	198.700000
822.518372	199.200000
822.553345	191.400000
822.588318	201.200000
822.623291	191.600000
822.658203	191.600000
822.693237	194.400000
822.728210	189.100000
822.763123	194.600000
822.798096	188.000000
822.833069	194.700000
822.867981	193.500000
822.902954	196.000000
822.937927	195.900000
822.972900	205.600000
823.007874	184.700000
823.042725	197.200000
823.077698	204.200000
823.112671	189.800000
823.147583	192.600000
823.182556	197.100000
823.217529	196.700000
823.252441	192.200000
823.287415	206.800000
823.322388	197.000000
823.357239	194.000000
823.392212	202.500000
823.427185	196.200000
823.462097	189.300000
823.497009	196.300000
823.531982	192.300000
823.566895	192.300000
823.601807	188.600000
823.636719	192.600000
823.671631	198.700000
823.706604	190.200000
823.741455	198.100000
823.776428	186.200000
823.811340	199.000000
823.846252	199.900000
823.881165	202.900000
823.916138	195.200000
823.950989	205.600000
823.985901	190.500000
824.020813	195.300000
824.055725	191.700000
824.090637	190.500000
824.125610	195.600000
824.160461	194.600000
824.195374	195.000000
824.230225	199.100000
824.265198	186.600000
824.300110	189.600000
824.334961	206.000000
824.369873	183.800000
824.404785	196.800000
824.439636	200.300000
824.474548	185.700000
824.509460	181.800000
824.544312	199.400000
824.579224	195.400000
824.614075	197.000000
824.648987	191.300000
824.683899	193.000000
824.718811	189.600000
824.753662	200.300000
824.788574	197.400000
824.823364	195.400000
824.858276	189.200000
824.893188	201.200000
824.928040	198.100000
824.962952	197.900000
824.997803	196.200000
825.032654	195.400000
825.067566	196.900000
825.102417	192.900000
825.137268	192.200000
825.172119	194.400000
825.206970	189.900000
825.241882	192.300000
825.276733	189.000000
825.311646	192.600000
825.346436	187.300000
825.381348	189.400000
825.416138	192.800000
825.450989	189.600000
825.485901	185.500000
825.520691	186.800000
825.555542	187.600000
825.590454	193.100000
825.625244	184.300000
825.660095	201.300000
825.695007	196.900000
825.729797	192.500000
825.764648	190.400000
825.799438	192.400000
825.834290	194.900000
825.869202	185.900000
825.903992	195.000000
825.938843	189.400000
825.973694	188.200000
826.008484	205.500000
826.043335	188.700000
826.078186	183.700000
826.112976	200.800000
826.147827	198.300000
826.182678	203.400000
826.217468	184.400000
826.252319	198.500000
826.287109	188.100000
826.321899	201.000000
826.356750	189.900000
826.391541	189.000000
826.426392	196.900000
826.461182	193.400000
826.495972	185.600000
826.530823	184.400000
826.565613	193.000000
826.600403	188.600000
826.635254	194.600000
826.670044	185.300000
826.704834	184.600000
826.739685	189.200000
826.774475	193.800000
826.809265	192.700000
826.844055	190.200000
826.878906	199.400000
826.913635	193.000000
826.948425	195.400000
826.983215	192.300000
827.018005	197.500000
827.052856	190.500000
827.087585	196.200000
827.122375	183.500000
827.157227	192.100000
827.191956	203.400000
827.226746	189.500000
827.261536	196.600000
827.296265	187.900000
827.331116	191.400000
827.365906	197.600000
827.400635	187.500000
827.435425	185.100000
827.470215	199.700000
827.504944	190.700000
827.539734	197.800000
827.574463	191.100000
827.609253	200.500000
827.644043	191.400000
827.678772	199.900000
827.713562	188.200000
827.748352	192.000000
827.783081	187.300000
827.817871	194.400000
827.852600	186.600000
827.887329	194.300000
827.922119	181.100000
827.956848	196.500000
827.991638	204.600000
828.026367	195.400000
828.061157	193.100000
828.095886	192.800000
828.130615	206.300000
828.165344	183.900000
828.200073	193.500000
828.234863	190.100000
828.269592	190.500000
828.304321	198.700000
828.339111	192.700000
828.373779	188.500000
828.408569	197.300000
828.443298	198.100000
828.477966	190.300000
828.512756	194.500000
828.547424	185.300000
828.582214	191.400000
828.616943	189.900000
828.651672	192.200000
828.686340	197.000000
828.721130	190.600000
828.755798	192.700000
828.790527	192.400000
828.825256	193.900000
828.859924	193.500000
828.894714	198.800000
828.929443	201.600000
828.964111	189.000000
828.998840	194.400000
829.033569	190.000000
829.068237	190.600000
829.102966	191.300000
829.137634	194.200000
829.172363	194.100000
829.207092	193.100000
829.241821	189.100000
829.276489	184.900000
829.311157	194.000000
829.345825	189.700000
829.380554	197.700000
829.415283	187.900000
829.449951	185.700000
829.484619	200.200000
829.519348	199.600000
829.554016	192.300000
829.588745	191.300000
829.623413	184.700000
829.658081	203.200000
829.692749	183.700000
829.727417	198.300000
829.762146	193.000000
829.796814	190.400000
829.831482	189.300000
829.866150	194.300000
829.900879	188.600000
829.935486	195.100000
829.970154	190.200000
830.004883	203.400000
830.039490	193.100000
830.074219	191.000000
830.108887	192.700000
830.143494	192.300000
830.178223	186.100000
830.212891	192.600000
830.247498	192.300000
830.282166	201.800000
830.316772	197.000000
830.351501	190.500000
830.386169	191.200000
830.420776	192.000000
830.455444	191.600000
830.490112	188.800000
830.524719	183.300000
830.559387	194.900000
830.594055	195.300000
830.628662	193.100000
830.663330	193.400000
830.697998	201.500000
830.732605	191.300000
830.767273	194.500000
830.801941	192.200000
830.836487	201.200000
830.871155	193.100000
830.905762	193.400000
830.940430	186.400000
830.975098	190.000000
831.009644	192.800000
831.044312	200.800000
831.078979	195.500000
831.113525	182.600000
831.148193	193.500000
831.182861	191.100000
831.217407	196.900000
831.252075	209.400000
831.286621	190.400000
831.321289	186.700000
831.355896	192.500000
831.390564	199.400000
831.425110	195.100000
831.459778	197.900000
831.494324	206.200000
831.528931	194.100000
831.563599	197.800000
831.598145	184.300000
831.632751	192.800000
831.667419	190.100000
831.701965	195.700000
831.736572	194.700000
831.771179	185.700000
831.805786	190.100000
831.840393	198.300000
831.874939	182.800000
831.909546	198.100000
831.944153	183.600000
831.978760	191.800000
832.013306	187.100000
832.047913	199.600000
832.082458	200.600000
832.117065	188.900000
832.151672	201.700000
832.186218	195.400000
832.220825	195.500000
832.255432	185.100000
832.289978	187.200000
832.324585	193.800000
832.359192	195.300000
832.393677	190.300000
832.428284	192.700000
832.462830	189.000000
832.497437	191.100000
832.531982	196.700000
832.566589	191.900000
832.601135	191.800000
832.635681	183.900000
832.670227	191.000000
832.704773	200.600000
832.739380	194.100000
832.773926	193.300000
832.808472	187.700000
832.843079	193.100000
832.877563	194.300000
832.912170	189.900000
832.946716	183.200000
832.981201	198.500000
833.015808	193.400000
833.050293	192.500000
833.084839	186.900000
833.119446	190.400000
833.153992	195.100000
833.188477	192.200000
833.223022	187.600000
833.257568	194.000000
833.292114	197.900000
833.326660	205.100000
833.361145	189.000000
833.395691	185.900000
833.430237	189.200000
833.464783	196.900000
833.499329	189.300000
833.533875	188.000000
833.568359	195.100000
833.602905	200.100000
833.637390	196.400000
833.671875	190.500000
833.706421	190.200000
833.740906	189.900000
833.775452	181.200000
833.809998	189.600000
833.844482	200.100000
833.879028	192.500000
833.913513	190.900000
833.947998	194.500000
833.982544	189.500000
834.017090	187.500000
834.051514	180.600000
834.086060	194.500000
834.120544	191.800000
834.155029	192.600000
834.189575	191.300000
834.223999	194.400000
834.258545	193.600000
834.293030	191.900000
834.327515	193.300000
834.362000	188.500000
834.396545	196.500000
834.430969	190.700000
834.465454	197.000000
834.500000	183.100000
834.534424	195.300000
834.568970	181.500000
834.603455	185.200000
834.637878	188.100000
834.672363	192.600000
834.706909	193.900000
834.741333	195.000000
834.775818	183.800000
834.810242	187.500000
834.844727	193.400000
834.879211	190.300000
834.913635	193.100000
834.948181	195.700000
834.982666	190.800000
835.017090	192.300000
835.051575	194.300000
835.086060	190.800000
835.120483	196.100000
835.154907	197.900000
835.189331	191.200000
835.223816	195.800000
835.258301	188.300000
835.292786	187.200000
835.327209	196.900000
835.361694	187.600000
835.396057	189.000000
835.430542	194.800000
835.465027	194.000000
835.499390	187.700000
835.533875	212.000000
835.568359	189.700000
835.602722	184.500000
835.637207	193.400000
835.671692	188.100000
835.706055	208.000000
835.740540	194.400000
835.774902	194.700000
835.809387	193.000000
835.843811	184.500000
835.878235	201.100000
835.912659	184.800000
835.947083	189.800000
835.981506	191.300000
836.015930	185.600000
836.050354	197.400000
836.084778	203.000000
836.119202	196.200000
836.153625	205.500000
836.187988	187.700000
836.222473	187.900000
836.256897	193.100000
836.291260	192.400000
836.325684	193.200000
836.360046	190.800000
836.394470	190.400000
836.428894	199.400000
836.463318	188.800000
836.497681	196.900000
836.532104	198.600000
836.566467	194.500000
836.600891	191.100000
836.635315	198.400000
836.669678	195.000000
836.704102	198.600000
836.738525	192.600000
836.772888	185.100000
836.807251	190.700000
836.841675	195.800000
836.876038	187.300000
836.910461	189.000000
836.944763	196.300000
836.979187	189.500000
837.013611	198.200000
837.047974	186.300000
837.082336	204.200000
837.116699	194.500000
837.151062	192.300000
837.185486	186.000000
837.219849	191.300000
837.254211	197.000000
837.288574	191.800000
837.322937	187.100000
837.357300	180.600000
837.391663	204.200000
837.426086	197.900000
837.460388	192.700000
837.494751	198.000000
837.529114	190.100000
837.563477	198.600000
837.597839	192.800000
837.632141	192.800000
837.666565	188.000000
837.700928	195.600000
837.735229	195.900000
837.769592	195.300000
837.803955	196.700000
837.838257	191.500000
837.872620	188.900000
837.906982	201.600000
837.941284	192.700000
837.975647	193.300000
838.010010	197.700000
838.044312	191.700000
838.078674	189.500000
838.112976	194.400000
838.147339	196.100000
838.181702	193.100000
838.216003	200.600000
838.250366	196.800000
838.284668	196.200000
838.318970	185.600000
838.353333	192.100000
838.387634	192.600000
838.421936	193.700000
838.456299	193.600000
838.490601	199.900000
838.524902	196.900000
838.559265	197.700000
838.593567	197.600000
838.627869	187.700000
838.662170	195.000000
838.696472	185.500000
838.730774	189.100000
838.765137	198.100000
838.799377	178.300000
838.833740	193.700000
838.868042	199.200000
838.902283	185.100000
838.936646	198.100000
838.970947	195.100000
839.005188	197.300000
839.039551	185.300000
839.073792	199.100000
839.108093	190.800000
839.142395	202.600000
839.176697	185.800000
839.210937	193.200000
839.245300	205.000000
839.279541	186.300000
839.313843	191.100000
839.348145	195.500000
839.382385	199.400000
839.416687	197.600000
839.450989	197.800000
839.485229	190.600000
839.519531	189.100000
839.553833	198.100000
839.588013	194.600000
839.622314	192.700000
839.656555	196.100000
839.690857	192.100000
839.725159	186.500000
839.759460	190.000000
839.793640	191.500000
839.827942	191.600000
839.862183	189.200000
839.896423	195.300000
839.930725	202.500000
839.964966	199.200000
839.999207	201.100000
840.033508	199.300000
840.067688	189.900000
840.101990	202.600000
840.136230	193.800000
840.170471	201.200000
840.204712	187.800000
840.238953	188.500000
840.273193	196.300000
840.307434	196.900000
840.341736	189.300000
840.375916	186.400000
840.410217	189.300000
840.444397	197.300000
840.478638	195.500000
840.512878	200.300000
840.547119	192.900000
840.581360	194.300000
840.615601	202.700000
840.649780	201.500000
840.684021	191.600000
840.718262	201.100000
840.752441	198.200000
840.786682	195.100000
840.820862	194.800000
840.855103	202.200000
840.889343	193.100000
840.923584	198.500000
840.957764	194.800000
840.992004	195.800000
841.026184	207.200000
841.060425	193.500000
841.094666	189.400000
841.128845	196.500000
841.163025	194.200000
841.197266	196.700000
841.231445	193.700000
841.265686	195.000000
841.299866	187.900000
841.334045	203.000000
841.368286	192.900000
841.402405	201.900000
841.436646	197.900000
841.470825	191.800000
841.505005	191.400000
841.539185	189.500000
841.573425	190.100000
841.607544	195.000000
841.641785	192.600000
841.675964	188.700000
841.710144	193.200000
841.744324	191.600000
841.778503	192.100000
841.812683	190.300000
841.846863	201.900000
841.881042	200.900000
841.915222	191.400000
841.949402	208.700000
841.983521	184.700000
842.017700	192.000000
842.051880	194.200000
842.086060	195.500000
842.120239	194.600000
842.154419	189.400000
842.188538	193.200000
842.222717	190.900000
842.256897	203.100000
842.291016	191.700000
842.325195	196.600000
842.359375	203.800000
842.393494	202.300000
842.427673	194.200000
842.461853	196.400000
842.495911	201.100000
842.530090	197.000000
842.564209	191.400000
842.598389	196.600000
842.632568	193.500000
842.666626	200.200000
842.700806	188.400000
842.734985	193.300000
842.769043	196.300000
842.803223	192.100000
842.837402	191.100000
842.871460	192.200000
842.905640	201.000000
842.939697	189.800000
842.973877	194.700000
843.007996	200.600000
843.042175	202.800000
843.076233	191.000000
843.110413	194.200000
843.144470	202.900000
843.178589	196.900000
843.212769	191.100000
843.246826	197.800000
843.280945	191.300000
843.315125	189.400000
843.349182	190.000000
843.383301	201.700000
843.417419	205.500000
843.451538	192.800000
843.485657	191.500000
843.519714	192.300000
843.553833	196.500000
843.587952	191.900000
843.622070	189.600000
843.656128	198.100000
843.690247	190.400000
843.724304	192.000000
843.758423	194.200000
843.792542	193.200000
843.826599	193.500000
843.860718	192.700000
843.894836	186.200000
843.928894	195.100000
843.963013	195.400000
843.997070	190.300000
844.031128	185.900000
844.065247	199.300000
844.099304	197.600000
844.133362	196.800000
844.167480	196.200000
844.201599	202.500000
844.235596	196.000000
844.269714	196.700000
844.303711	197.100000
844.337830	187.100000
844.371948	195.900000
844.405945	194.100000
844.440063	188.300000
844.474121	208.600000
844.508118	192.200000
844.542236	193.800000
844.576294	192.300000
844.610352	189.500000
844.644409	192.500000
844.678406	186.300000
844.712524	198.500000
844.746582	201.600000
844.780640	191.800000
844.814636	194.700000
844.848755	204.800000
844.882751	194.200000
844.916809	198.800000
844.950867	195.800000
844.984863	201.500000
845.018921	194.600000
845.052979	189.100000
845.086975	194.800000
845.121033	188.000000
845.155090	189.900000
845.189087	201.700000
845.223145	190.600000
845.257141	194.300000
845.291199	197.800000
845.325256	201.500000
845.359253	194.600000
845.393250	203.500000
845.427307	192.100000
845.461304	196.700000
845.495361	195.300000
845.529358	205.700000
845.563354	191.200000
845.597412	190.100000
845.631409	201.400000
845.665405	201.000000
845.699463	198.100000
845.733459	193.000000
845.767456	200.200000
845.801453	193.100000
845.835449	200.000000
845.869446	199.000000
845.903503	196.400000
845.937439	191.200000
845.971497	199.400000
846.005493	188.900000
846.039429	197.600000
846.073486	204.900000
846.107483	191.500000
846.141418	193.700000
846.175476	193.900000
846.209473	201.900000
846.243408	190.600000
846.277405	197.300000
846.311401	188.600000
846.345337	195.800000
846.379395	199.600000
846.413330	192.700000
846.447327	202.100000
846.481323	189.300000
846.515259	191.000000
846.549255	193.600000
846.583252	195.500000
846.617187	188.700000
846.651184	195.800000
846.685120	192.900000
846.719055	203.000000
846.753052	200.500000
846.786987	197.700000
846.820984	187.300000
846.854980	200.700000
846.888916	189.800000
846.922852	196.900000
846.956848	201.600000
846.990723	189.700000
847.024719	194.300000
847.058716	193.600000
847.092590	201.300000
847.126587	195.500000
847.160522	191.300000
847.194458	199.500000
847.228455	190.000000
847.262390	189.900000
847.296265	192.100000
847.330261	201.600000
847.364136	191.700000
847.398132	190.400000
847.432068	193.100000
847.466003	193.300000
847.499939	191.900000
847.533875	196.500000
847.567749	190.900000
847.601746	192.800000
847.635681	198.400000
847.669556	185.900000
847.703491	198.100000
847.737427	209.600000
847.771301	189.000000
847.805237	196.400000
847.839233	194.300000
847.873108	194.600000
847.907043	192.900000
847.940918	200.900000
847.974854	195.500000
848.008789	198.800000
848.042664	194.600000
848.076538	198.100000
848.110474	194.300000
848.144348	197.100000
848.178284	188.100000
848.212219	195.500000
848.246094	192.800000
848.279968	196.000000
848.313904	198.000000
848.347778	193.000000
848.381653	192.900000
848.415588	190.300000
848.449463	192.100000
848.483337	196.700000
848.517212	199.600000
848.551086	195.800000
848.585022	189.800000
848.618835	201.100000
848.652771	191.900000
848.686646	188.500000
848.720520	203.700000
848.754395	192.000000
848.788330	199.100000
848.822144	197.600000
848.856018	193.900000
848.889954	202.400000
848.923767	190.400000
848.957642	188.500000
848.991577	199.100000
849.025391	190.900000
849.059265	193.600000
849.093079	190.300000
849.126953	189.900000
849.160828	199.300000
849.194641	196.700000
849.228577	191.000000
849.262451	193.600000
849.296265	191.000000
849.330139	188.800000
849.364014	194.400000
849.397827	198.900000
849.431702	192.700000
849.465515	199.600000
849.499329	184.500000
849.533203	189.400000
849.567078	184.300000
849.600891	198.000000
849.634766	191.900000
849.668518	199.900000
849.702393	194.200000
849.736267	188.300000
849.770020	206.700000
849.803894	198.000000
849.837769	195.600000
849.871521	194.200000
849.905396	199.700000
849.939270	191.100000
849.973022	192.400000
850.006897	197.400000
850.040710	197.300000
850.074524	197.200000
850.108337	192.500000
850.142151	197.900000
850.175964	200.800000
850.209778	194.300000
850.243530	181.100000
850.277405	199.000000
850.311218	194.700000
850.344971	190.000000
850.378845	202.900000
850.412659	190.700000
850.446411	196.100000
850.480225	192.200000
850.514038	199.700000
850.547791	196.100000
850.581665	195.800000
850.615417	193.100000
850.649231	194.700000
850.683044	192.600000
850.716858	194.500000
850.750610	193.300000
850.784424	198.700000
850.818176	190.100000
850.851929	193.300000
850.885742	191.400000
850.919495	195.800000
850.953308	199.800000
850.987122	202.800000
851.020874	188.600000
851.054626	186.900000
851.088440	198.300000
851.122192	199.500000
851.156006	194.200000
851.189697	194.300000
851.223511	190.100000
851.257263	200.200000
851.291077	198.000000
851.324829	193.300000
851.358582	191.000000
851.392334	192.100000
851.426086	194.500000
851.459900	203.400000
851.493591	193.500000
851.527344	195.500000
851.561157	194.100000
851.594849	197.600000
851.628662	196.300000
851.662415	201.800000
851.696106	198.000000
851.729858	197.200000
851.763611	188.900000
851.797363	193.800000
851.831116	190.300000
851.864868	195.100000
851.898560	198.200000
851.932312	191.700000
851.966064	196.100000
851.999817	194.300000
852.033569	193.500000
852.067261	196.900000
852.101013	190.600000
852.134766	193.600000
852.168457	184.400000
852.202209	197.200000
852.235901	190.300000
852.269592	196.200000
852.303345	205.000000
852.337036	197.800000
852.370789	195.200000
852.404541	196.100000
852.438171	191.100000
852.471924	193.300000
852.505676	188.500000
852.539307	196.500000
852.573059	190.400000
852.606812	192.000000
852.640442	194.900000
852.674194	200.100000
852.707886	205.600000
852.741577	201.200000
852.775269	191.100000
852.809021	195.600000
852.842651	197.300000
852.876404	198.300000
852.910034	196.600000
852.943787	201.000000
852.977478	197.800000
853.011108	192.200000
853.044861	190.900000
853.078552	202.200000
853.112183	196.100000
853.145874	196.600000
853.179626	184.700000
853.213257	195.000000
853.246948	191.300000
853.280640	202.900000
853.314270	194.300000
853.347961	200.600000
853.381653	195.000000
853.415283	200.000000
853.448975	191.000000
853.482605	195.600000
853.516296	192.700000
853.549988	190.000000
853.583618	194.800000
853.617310	196.600000
853.651001	196.400000
853.684631	189.200000
853.718323	192.100000
853.751953	204.100000
853.785583	184.800000
853.819275	198.700000
853.852966	196.000000
853.886536	185.800000
853.920227	188.600000
853.953918	199.800000
853.987488	192.500000
854.021179	198.900000
854.054749	202.200000
854.088440	197.700000
854.122131	190.000000
854.155701	200.300000
854.189331	191.100000
854.223022	198.200000
854.256592	198.100000
854.290283	192.400000
854.323914	197.900000
854.357483	197.300000
854.391174	196.400000
854.424744	204.300000
854.458374	197.000000
854.492065	206.700000
854.525696	200.100000
854.559265	202.500000
854.592896	204.600000
854.626465	195.700000
854.660095	197.100000
854.693787	195.400000
854.727356	194.600000
854.760986	198.600000
854.794617	196.700000
854.828186	191.000000
854.861816	198.900000
854.895447	195.700000
854.929016	196.700000
854.962585	195.300000
854.996155	203.100000
855.029785	195.700000
855.063416	198.800000
855.097046	198.800000
855.130615	189.900000
855.164185	199.400000
855.197754	195.600000
855.231384	196.500000
855.264954	193.700000
855.298523	198.300000
855.332153	196.400000
855.365723	202.600000
855.399292	191.400000
855.432922	192.100000
855.466492	196.900000
855.500061	190.100000
855.533630	192.200000
855.567200	197.200000
855.600769	201.600000
855.634338	198.700000
855.667969	197.000000
855.701477	188.600000
855.735046	191.500000
855.768616	186.900000
855.802185	196.700000
855.835754	210.100000
855.869324	187.800000
855.902893	192.200000
855.936401	202.900000
855.969971	197.000000
856.003540	189.700000
856.037109	197.800000
856.070618	193.600000
856.104187	190.100000
856.137695	193.800000
856.171265	185.600000
856.204834	195.200000
856.238403	200.300000
856.271912	190.600000
856.305481	196.600000
856.338989	189.200000
856.372559	198.600000
856.406128	196.200000
856.439636	199.700000
856.473145	190.700000
856.506653	201.100000
856.540222	193.600000
856.573792	202.600000
856.607300	197.800000
856.640808	189.000000
856.674377	195.700000
856.707825	222.800000
856.741394	198.900000
856.774902	190.800000
856.808472	184.900000
856.841980	198.200000
856.875488	202.400000
856.908936	188.000000
856.942505	193.500000
856.976013	195.900000
857.009521	189.300000
857.043030	196.100000
857.076477	193.300000
857.110046	199.700000
857.143555	195.700000
857.177063	201.200000
857.210571	190.300000
857.244080	189.900000
857.277527	198.700000
857.311035	195.100000
857.344543	197.000000
857.378052	195.200000
857.411499	199.800000
857.445068	205.500000
857.478516	194.900000
857.512024	189.300000
857.545532	193.000000
857.578979	196.200000
857.612427	194.700000
857.645874	194.100000
857.679382	196.200000
857.712891	198.800000
857.746399	194.300000
857.779846	200.500000
857.813354	200.300000
857.846741	193.500000
857.880249	191.700000
857.913757	197.000000
857.947266	197.600000
857.980652	197.800000
858.014160	192.200000
858.047546	192.000000
858.081055	194.800000
858.114563	202.300000
858.147949	190.600000
858.181458	199.000000
858.214844	194.100000
858.248352	185.400000
858.281799	200.600000
858.315308	207.300000
858.348694	200.000000
858.382141	201.600000
858.415588	197.300000
858.449036	200.200000
858.482483	198.900000
858.515930	190.200000
858.549377	196.000000
858.582825	202.000000
858.616211	199.400000
858.649658	195.900000
858.683105	191.300000
858.716553	190.800000
858.750000	189.100000
858.783386	192.500000
858.816833	187.500000
858.850281	196.600000
858.883728	198.200000
858.917114	192.700000
858.950562	204.400000
858.983948	203.900000
859.017395	198.700000
859.050781	194.200000
859.084167	191.300000
859.117615	188.800000
859.151062	197.800000
859.184448	191.900000
859.217834	193.200000
859.251282	193.100000
859.284668	189.600000
859.318054	184.200000
859.351440	193.800000
859.384888	203.400000
859.418274	186.200000
859.451721	186.100000
859.485046	196.600000
859.518494	196.800000
859.551819	189.500000
859.585266	197.000000
859.618652	197.300000
859.652039	189.000000
859.685425	188.800000
859.718811	187.000000
859.752197	182.800000
859.785583	203.200000
859.819031	201.600000
859.852356	198.000000
859.885742	190.000000
859.919067	195.000000
859.952454	191.300000
859.985901	200.600000
860.019287	192.300000
860.052612	0.000000
860.085999	0.000000
860.119324	0.000000
860.152710	0.000000
860.186096	0.000000
860.219421	0.000000
860.252808	0.000000
860.286133	0.000000
860.319519	0.000000
860.352905	0.000000
860.386292	0.000000
860.419617	0.000000
860.452942	0.000000
860.486267	0.000000
860.519653	0.000000
860.553040	0.000000
860.586365	0.000000
860.619690	0.000000
860.653076	0.000000
860.686340	0.000000
860.719727	0.000000
860.753113	0.000000
860.786377	0.000000
860.819763	0.000000
860.853027	0.000000
860.886414	0.000000
860.919739	0.000000
860.953125	0.000000
860.986389	0.000000
861.019714	0.000000
861.053040	0.000000
861.086365	0.000000
861.119690	0.000000
861.153076	0.000000
861.186340	0.000000
861.219666	0.000000
861.252930	0.000000
861.286316	0.000000
861.319641	0.000000
861.352905	0.000000
861.386230	0.000000
861.419495	0.000000
861.452820	0.000000
861.486145	0.000000
861.519470	0.000000
861.552734	0.000000
861.586060	0.000000
861.619324	0.000000
861.652649	0.000000
861.685974	0.000000
861.719238	0.000000
861.752563	0.000000
861.785828	0.000000
861.819092	0.000000
861.852417	0.000000
861.885742	0.000000
861.918945	0.000000
861.952271	0.000000
861.985535	0.000000
862.018799	0.000000
862.052124	0.000000
862.085449	0.000000
862.118652	0.000000
862.151978	0.000000
862.185181	0.000000
862.218506	0.000000
862.251770	0.000000
862.285034	0.000000
862.318298	0.000000
862.351562	0.000000
862.384827	0.000000
862.418091	0.000000
862.451355	0.000000
862.484619	0.000000
862.517883	0.000000
862.551086	0.000000
862.584351	0.000000
862.617676	0.000000
862.650940	0.000000
862.684143	0.000000
862.717407	0.000000
862.750610	0.000000
862.783875	0.000000
862.817139	0.000000
862.850342	0.000000
862.883606	0.000000
862.916870	0.000000
862.950073	0.000000
862.983337	0.000000
863.016602	0.000000
863.049805	0.000000
863.083069	0.000000
863.116211	0.000000
863.149475	0.000000
863.182739	0.000000
863.216003	0.000000
863.249146	0.000000
863.282410	0.000000
863.315613	0.000000
863.348816	0.000000
863.382080	0.000000
863.415222	0.000000
863.448486	0.000000
863.481689	0.000000
863.514893	0.000000
863.548157	0.000000
863.581360	0.000000
863.614502	0.000000
863.647766	0.000000
863.680908	0.000000
863.714172	0.000000
863.747375	0.000000
863.780579	0.000000
863.813721	0.000000
863.846985	0.000000
863.880127	0.000000
863.913330	0.000000
863.946533	0.000000
863.979675	0.000000
864.012939	0.000000
