Model Number: SPM-001-M   
Serial Number: 10090201
Firmware Version: 004.17.6
Exposure Time: 500000.000000us
Data Taken on: 10-03-2021 10:56:56.989
Wavelength	Amplitude
733.770752	0.000000
733.808716	0.000000
733.846619	0.000000
733.884583	0.000000
733.922546	0.000000
733.960449	0.000000
733.998413	0.000000
734.036377	0.000000
734.074219	0.000000
734.112183	0.000000
734.150085	0.000000
734.188049	0.000000
734.226013	0.000000
734.263916	0.000000
734.301819	0.000000
734.339783	0.000000
734.377686	0.000000
734.415588	0.000000
734.453552	0.000000
734.491455	0.000000
734.529419	0.000000
734.567322	0.000000
734.605225	0.000000
734.643127	0.000000
734.681091	0.000000
734.718994	0.000000
734.756897	0.000000
734.794800	0.000000
734.832703	0.000000
734.870667	0.000000
734.908508	0.000000
734.946472	0.000000
734.984375	0.000000
735.022278	0.000000
735.060181	0.000000
735.098083	0.000000
735.135986	0.000000
735.173889	0.000000
735.211792	0.000000
735.249695	0.000000
735.287598	0.000000
735.325439	0.000000
735.363403	0.000000
735.401306	0.000000
735.439148	0.000000
735.477051	0.000000
735.515015	0.000000
735.552856	0.000000
735.590759	0.000000
735.628662	0.000000
735.666504	0.000000
735.704407	0.000000
735.742310	0.000000
735.780212	0.000000
735.818115	0.000000
735.856018	0.000000
735.893860	0.000000
735.931763	0.000000
735.969604	0.000000
736.007507	0.000000
736.045410	0.000000
736.083252	0.000000
736.121094	0.000000
736.158997	0.000000
736.196838	0.000000
736.234741	0.000000
736.272644	0.000000
736.310486	0.000000
736.348389	0.000000
736.386230	0.000000
736.424072	0.000000
736.461975	0.000000
736.499878	0.000000
736.537720	0.000000
736.575562	0.000000
736.613403	0.000000
736.651306	0.000000
736.689148	0.000000
736.726990	0.000000
736.764893	0.000000
736.802734	0.000000
736.840576	0.000000
736.878418	0.000000
736.916321	0.000000
736.954102	0.000000
736.992004	0.000000
737.029846	0.000000
737.067688	0.000000
737.105530	0.000000
737.143372	0.000000
737.181213	0.000000
737.219116	0.000000
737.256897	0.000000
737.294739	0.000000
737.332642	0.000000
737.370422	0.000000
737.408325	0.000000
737.446167	0.000000
737.483948	0.000000
737.521790	0.000000
737.559692	0.000000
737.597473	0.000000
737.635315	0.000000
737.673157	0.000000
737.710999	0.000000
737.748840	0.000000
737.786621	0.000000
737.824463	0.000000
737.862305	0.000000
737.900085	0.000000
737.937927	0.000000
737.975769	0.000000
738.013550	0.000000
738.051392	0.000000
738.089233	0.000000
738.127014	0.000000
738.164856	0.000000
738.202698	0.000000
738.240479	0.000000
738.278320	0.000000
738.316162	0.000000
738.353943	0.000000
738.391785	0.000000
738.429565	0.000000
738.467407	0.000000
738.505188	0.000000
738.542969	0.000000
738.580811	0.000000
738.618652	0.000000
738.656372	0.000000
738.694214	0.000000
738.732056	0.000000
738.769836	0.000000
738.807617	0.000000
738.845459	0.000000
738.883240	0.000000
738.921021	0.000000
738.958862	0.000000
738.996582	0.000000
739.034424	0.000000
739.072205	0.000000
739.109985	0.000000
739.147827	0.000000
739.185547	0.000000
739.223389	0.000000
739.261169	0.000000
739.298889	0.000000
739.336731	0.000000
739.374512	0.000000
739.412292	0.000000
739.450073	0.000000
739.487854	0.000000
739.525635	0.000000
739.563416	0.000000
739.601135	0.000000
739.638977	0.000000
739.676758	0.000000
739.714478	0.000000
739.752258	0.000000
739.790100	0.000000
739.827820	0.000000
739.865601	0.000000
739.903381	0.000000
739.941101	0.000000
739.978882	197.000000
740.016724	193.000000
740.054443	198.300000
740.092224	190.100000
740.130005	189.000000
740.167725	190.300000
740.205505	189.900000
740.243225	201.600000
740.281006	195.300000
740.318787	187.000000
740.356506	198.600000
740.394287	198.900000
740.432068	189.100000
740.469727	187.700000
740.507507	197.200000
740.545288	192.800000
740.583008	196.700000
740.620789	195.500000
740.658569	185.100000
740.696228	192.900000
740.734009	199.800000
740.771790	181.200000
740.809509	197.200000
740.847229	188.200000
740.884949	191.600000
740.922729	185.900000
740.960449	190.100000
740.998169	187.300000
741.035950	187.900000
741.073669	193.600000
741.111389	194.200000
741.149170	203.400000
741.186890	203.500000
741.224609	196.600000
741.262329	194.400000
741.300110	203.200000
741.337769	188.400000
741.375549	188.200000
741.413208	196.200000
741.450989	188.800000
741.488708	190.800000
741.526367	191.200000
741.564148	196.400000
741.601868	197.800000
741.639526	193.000000
741.677307	193.900000
741.715027	195.400000
741.752686	190.400000
741.790466	200.300000
741.828186	197.200000
741.865845	189.400000
741.903564	184.100000
741.941345	193.800000
741.979004	189.900000
742.016724	196.800000
742.054382	193.000000
742.092102	199.100000
742.129822	185.800000
742.167480	190.900000
742.205200	193.500000
742.242920	195.900000
742.280640	199.000000
742.318359	188.300000
742.356079	190.000000
742.393738	196.900000
742.431396	193.200000
742.469116	196.400000
742.506775	182.700000
742.544495	196.200000
742.582214	197.900000
742.619873	192.400000
742.657593	200.300000
742.695251	197.100000
742.732971	192.700000
742.770630	194.800000
742.808289	193.200000
742.846008	193.800000
742.883728	196.200000
742.921326	192.900000
742.959045	190.200000
742.996765	193.300000
743.034424	192.400000
743.072083	189.500000
743.109802	192.000000
743.147400	185.200000
743.185120	194.700000
743.222839	192.300000
743.260437	198.600000
743.298157	194.400000
743.335754	185.100000
743.373474	190.600000
743.411133	186.100000
743.448792	193.700000
743.486450	193.300000
743.524170	185.500000
743.561768	195.200000
743.599487	201.100000
743.637146	205.600000
743.674744	193.800000
743.712463	191.500000
743.750122	195.000000
743.787720	196.600000
743.825439	190.400000
743.863037	192.000000
743.900696	192.500000
743.938416	218.800000
743.976013	193.600000
744.013672	202.400000
744.051331	198.500000
744.088928	203.900000
744.126587	201.000000
744.164307	195.200000
744.201904	191.200000
744.239563	198.600000
744.277222	194.700000
744.314819	193.700000
744.352478	200.100000
744.390137	196.000000
744.427734	195.900000
744.465393	191.900000
744.502991	189.400000
744.540649	197.200000
744.578308	194.000000
744.615906	189.100000
744.653564	182.700000
744.691223	196.300000
744.728821	184.700000
744.766418	193.800000
744.804077	195.600000
744.841675	189.700000
744.879333	185.900000
744.916992	191.400000
744.954529	189.500000
744.992187	198.700000
745.029785	190.500000
745.067444	189.400000
745.105042	194.100000
745.142639	196.200000
745.180298	203.700000
745.217896	191.200000
745.255493	193.200000
745.293152	198.100000
745.330750	198.300000
745.368347	201.500000
745.405945	197.500000
745.443604	194.500000
745.481140	197.500000
745.518799	191.800000
745.556396	197.900000
745.593994	198.300000
745.631592	193.500000
745.669189	187.800000
745.706787	194.900000
745.744385	188.300000
745.781982	194.700000
745.819580	192.300000
745.857178	193.000000
745.894775	194.000000
745.932373	193.200000
745.969971	194.200000
746.007568	184.100000
746.045166	202.900000
746.082764	199.600000
746.120300	195.800000
746.157898	195.500000
746.195557	193.300000
746.233093	186.800000
746.270691	196.100000
746.308228	196.100000
746.345825	197.800000
746.383423	196.300000
746.420959	189.000000
746.458557	189.300000
746.496155	190.100000
746.533691	192.800000
746.571289	187.700000
746.608887	193.800000
746.646423	194.000000
746.684021	194.200000
746.721619	191.200000
746.759155	195.100000
746.796753	186.100000
746.834351	186.400000
746.871826	188.600000
746.909424	201.000000
746.946960	195.200000
746.984558	191.200000
747.022156	192.500000
747.059631	200.400000
747.097229	195.700000
747.134827	191.300000
747.172363	201.500000
747.209900	195.700000
747.247498	188.500000
747.285034	200.300000
747.322571	200.400000
747.360168	194.300000
747.397644	187.100000
747.435242	197.900000
747.472778	201.100000
747.510315	190.300000
747.547913	190.900000
747.585388	201.100000
747.622925	193.400000
747.660522	183.800000
747.697998	190.000000
747.735596	194.400000
747.773132	190.300000
747.810669	193.500000
747.848206	198.100000
747.885742	188.300000
747.923279	187.700000
747.960815	194.700000
747.998352	194.600000
748.035889	198.600000
748.073425	197.800000
748.110901	190.000000
748.148437	188.800000
748.185974	194.800000
748.223511	203.200000
748.261047	193.800000
748.298584	193.800000
748.336060	193.100000
748.373596	196.200000
748.411133	211.400000
748.448608	190.000000
748.486145	198.000000
748.523682	201.500000
748.561218	200.200000
748.598755	194.700000
748.636292	197.100000
748.673706	190.400000
748.711243	200.000000
748.748718	196.000000
748.786255	193.300000
748.823792	191.900000
748.861267	189.600000
748.898804	195.500000
748.936340	195.600000
748.973816	192.100000
749.011292	199.500000
749.048828	196.200000
749.086304	197.900000
749.123840	206.600000
749.161316	189.300000
749.198792	204.100000
749.236328	201.400000
749.273743	194.300000
749.311279	192.700000
749.348816	195.100000
749.386230	194.900000
749.423767	181.500000
749.461304	195.600000
749.498718	193.900000
749.536255	201.800000
749.573730	208.000000
749.611206	199.000000
749.648682	192.400000
749.686218	194.300000
749.723633	198.200000
749.761169	191.200000
749.798645	189.400000
749.836060	191.700000
749.873596	189.200000
749.911011	192.700000
749.948547	201.500000
749.986023	192.800000
750.023437	191.500000
750.060913	187.100000
750.098450	186.100000
750.135864	193.900000
750.173340	194.500000
750.210815	198.300000
750.248291	187.100000
750.285767	193.700000
750.323242	201.500000
750.360657	194.500000
750.398132	187.800000
750.435608	199.400000
750.473022	188.600000
750.510498	188.800000
750.547974	190.500000
750.585449	191.300000
750.622925	184.200000
750.660339	203.100000
750.697815	195.000000
750.735291	193.300000
750.772644	194.700000
750.810120	191.700000
750.847595	197.400000
750.885010	190.700000
750.922485	203.200000
750.959961	192.400000
750.997375	201.300000
751.034851	197.700000
751.072266	199.000000
751.109680	187.600000
751.147156	200.700000
751.184570	198.000000
751.221985	195.100000
751.259460	185.700000
751.296875	194.300000
751.334290	193.400000
751.371765	200.200000
751.409180	195.700000
751.446594	199.600000
751.484070	195.300000
751.521423	196.200000
751.558899	196.100000
751.596375	201.600000
751.633728	201.400000
751.671204	207.900000
751.708618	189.200000
751.746033	196.100000
751.783447	187.200000
751.820801	190.000000
751.858276	195.400000
751.895691	193.900000
751.933105	192.200000
751.970520	188.000000
752.007935	191.900000
752.045349	198.000000
752.082764	192.900000
752.120178	192.000000
752.157532	189.500000
752.195007	189.900000
752.232422	196.700000
752.269775	199.500000
752.307190	196.000000
752.344543	188.700000
752.382019	192.000000
752.419434	192.300000
752.456787	197.100000
752.494202	198.200000
752.531616	197.600000
752.568970	199.400000
752.606384	195.700000
752.643799	196.700000
752.681152	204.300000
752.718567	197.800000
752.755981	187.600000
752.793335	196.500000
752.830750	186.300000
752.868164	202.200000
752.905518	190.700000
752.942932	198.600000
752.980225	189.700000
753.017639	199.100000
753.055054	192.600000
753.092407	196.900000
753.129822	198.900000
753.167175	203.600000
753.204529	193.100000
753.241943	190.200000
753.279358	187.100000
753.316650	198.000000
753.354065	194.500000
753.391479	198.800000
753.428772	202.600000
753.466187	197.800000
753.503479	187.500000
753.540894	191.500000
753.578308	188.400000
753.615601	188.800000
753.653015	193.700000
753.690369	191.200000
753.727722	189.900000
753.765076	187.200000
753.802490	187.800000
753.839783	184.900000
753.877136	190.500000
753.914551	209.600000
753.951843	189.000000
753.989258	197.700000
754.026611	195.800000
754.063904	196.500000
754.101257	189.700000
754.138611	186.500000
754.175964	193.800000
754.213318	205.800000
754.250610	187.600000
754.288025	191.700000
754.325378	188.600000
754.362671	201.000000
754.400024	192.400000
754.437378	204.500000
754.474670	204.600000
754.512085	192.700000
754.549438	195.300000
754.586731	192.600000
754.624084	193.300000
754.661438	189.800000
754.698730	201.600000
754.736084	193.300000
754.773376	194.000000
754.810730	199.000000
754.848083	193.200000
754.885315	198.900000
754.922668	187.100000
754.960022	189.100000
754.997314	198.700000
755.034668	195.000000
755.072021	195.300000
755.109253	192.100000
755.146606	202.100000
755.183960	193.900000
755.221252	204.100000
755.258545	200.700000
755.295898	202.000000
755.333191	203.600000
755.370544	198.200000
755.407776	196.200000
755.445129	196.500000
755.482422	201.300000
755.519714	192.900000
755.557068	188.600000
755.594360	188.900000
755.631653	201.200000
755.668945	207.500000
755.706299	198.800000
755.743530	209.600000
755.780884	205.900000
755.818176	204.900000
755.855408	203.800000
755.892761	200.700000
755.930054	198.900000
755.967346	201.100000
756.004639	203.200000
756.041870	199.600000
756.079224	204.600000
756.116516	194.500000
756.153748	203.500000
756.191040	208.800000
756.228394	201.800000
756.265625	195.500000
756.302917	202.000000
756.340210	197.200000
756.377441	205.600000
756.414795	208.900000
756.452087	201.300000
756.489319	194.800000
756.526611	204.000000
756.563843	201.700000
756.601135	212.400000
756.638428	210.300000
756.675659	199.700000
756.712952	205.900000
756.750244	206.100000
756.787476	202.200000
756.824768	208.900000
756.862061	199.900000
756.899292	248.300000
756.936584	205.700000
756.973816	213.500000
757.011047	214.800000
757.048340	203.300000
757.085632	202.400000
757.122864	218.900000
757.160156	201.900000
757.197327	205.200000
757.234619	207.700000
757.271912	202.700000
757.309082	209.400000
757.346375	200.500000
757.383667	211.500000
757.420837	205.300000
757.458130	205.500000
757.495422	203.200000
757.532593	207.700000
757.569885	197.800000
757.607117	201.300000
757.644348	208.100000
757.681580	219.300000
757.718811	194.600000
757.756042	206.500000
757.793335	204.700000
757.830505	209.900000
757.867798	203.500000
757.905029	204.000000
757.942200	209.200000
757.979492	204.600000
758.016724	205.400000
758.053894	204.400000
758.091187	226.300000
758.128418	208.000000
758.165588	207.300000
758.202820	220.200000
758.240112	207.400000
758.277283	219.300000
758.314514	211.700000
758.351685	206.400000
758.388916	219.600000
758.426147	217.900000
758.463379	219.700000
758.500610	212.800000
758.537842	210.600000
758.575012	217.000000
758.612244	205.600000
758.649475	223.600000
758.686646	203.500000
758.723877	218.700000
758.761108	219.600000
758.798279	211.500000
758.835510	213.400000
758.872742	219.300000
758.909851	214.400000
758.947083	214.900000
758.984253	215.700000
759.021484	217.700000
759.058716	216.200000
759.095886	217.500000
759.133057	212.000000
759.170288	217.700000
759.207458	211.400000
759.244690	226.400000
759.281860	223.800000
759.319031	214.200000
759.356262	212.900000
759.393433	213.400000
759.430603	214.300000
759.467773	215.300000
759.505005	221.700000
759.542175	221.900000
759.579346	214.300000
759.616516	218.300000
759.653687	219.300000
759.690918	214.000000
759.728027	217.800000
759.765259	218.000000
759.802429	221.200000
759.839539	219.800000
759.876770	222.400000
759.913940	227.500000
759.951111	218.500000
759.988281	218.700000
760.025452	214.600000
760.062561	212.600000
760.099792	226.500000
760.136963	221.000000
760.174072	216.800000
760.211243	211.600000
760.248413	213.600000
760.285583	215.300000
760.322754	229.400000
760.359863	226.000000
760.397034	227.200000
760.434204	218.400000
760.471375	219.800000
760.508545	217.700000
760.545715	219.900000
760.582825	215.500000
760.619995	225.900000
760.657166	213.600000
760.694275	228.200000
760.731445	223.500000
760.768555	223.800000
760.805664	225.600000
760.842834	223.700000
760.879944	226.600000
760.917114	225.000000
760.954285	223.200000
760.991394	217.700000
761.028564	229.900000
761.065674	229.300000
761.102783	222.300000
761.139954	231.500000
761.177124	230.900000
761.214172	232.500000
761.251343	224.500000
761.288452	228.500000
761.325562	232.900000
761.362732	226.100000
761.399841	228.600000
761.436951	231.800000
761.474121	225.500000
761.511169	232.500000
761.548340	234.800000
761.585449	235.000000
761.622559	236.600000
761.659668	233.100000
761.696838	238.700000
761.733887	236.100000
761.771057	233.200000
761.808167	235.200000
761.845276	239.000000
761.882385	248.900000
761.919434	236.000000
761.956604	256.800000
761.993713	234.000000
762.030762	244.500000
762.067871	237.200000
762.105042	236.400000
762.142090	247.600000
762.179199	240.900000
762.216309	246.000000
762.253418	257.100000
762.290527	250.800000
762.327637	245.700000
762.364685	235.400000
762.401794	246.600000
762.438904	244.700000
762.475952	238.200000
762.513062	238.600000
762.550110	238.300000
762.587219	254.300000
762.624329	256.200000
762.661377	248.100000
762.698486	247.200000
762.735596	246.600000
762.772644	242.000000
762.809753	239.800000
762.846863	247.000000
762.883911	250.500000
762.921021	251.700000
762.958069	250.500000
762.995117	258.600000
763.032227	259.800000
763.069336	250.400000
763.106323	246.800000
763.143433	245.200000
763.180481	253.400000
763.217590	254.400000
763.254639	251.500000
763.291687	253.500000
763.328735	261.500000
763.365845	254.900000
763.402893	253.100000
763.439941	257.300000
763.477051	260.500000
763.514038	260.300000
763.551147	252.800000
763.588196	256.400000
763.625244	257.300000
763.662292	265.000000
763.699402	266.100000
763.736389	261.900000
763.773499	273.700000
763.810486	265.800000
763.847534	262.200000
763.884644	266.500000
763.921631	263.200000
763.958679	273.100000
763.995728	263.800000
764.032776	273.400000
764.069824	259.000000
764.106873	267.500000
764.143860	273.900000
764.180969	265.000000
764.218018	274.200000
764.255005	266.900000
764.292053	269.500000
764.329102	279.500000
764.366089	279.800000
764.403137	278.200000
764.440125	267.000000
764.477173	271.500000
764.514221	273.600000
764.551208	271.800000
764.588257	267.400000
764.625305	279.900000
764.662292	283.500000
764.699341	288.000000
764.736389	280.700000
764.773376	296.700000
764.810425	283.100000
764.847473	292.900000
764.884399	284.900000
764.921448	293.600000
764.958435	290.900000
764.995483	281.400000
765.032532	298.400000
765.069458	284.000000
765.106506	285.200000
765.143555	282.300000
765.180481	287.800000
765.217529	295.200000
765.254578	280.700000
765.291504	289.500000
765.328552	285.900000
765.365540	285.100000
765.402527	299.100000
765.439575	284.600000
765.476501	279.600000
765.513550	282.900000
765.550537	288.600000
765.587463	293.600000
765.624512	286.400000
765.661499	279.200000
765.698486	296.200000
765.735474	286.400000
765.772461	289.500000
765.809448	299.000000
765.846436	295.500000
765.883423	298.100000
765.920410	294.900000
765.957397	288.900000
765.994385	296.100000
766.031311	305.000000
766.068359	298.900000
766.105286	298.700000
766.142273	305.700000
766.179260	302.800000
766.216187	296.000000
766.253174	291.600000
766.290161	301.000000
766.327148	306.700000
766.364136	307.300000
766.401123	320.900000
766.438049	298.800000
766.475037	312.300000
766.512024	309.000000
766.548950	325.600000
766.585937	321.100000
766.622864	315.900000
766.659790	312.100000
766.696777	305.500000
766.733704	320.500000
766.770691	313.100000
766.807678	326.300000
766.844604	322.600000
766.881531	324.100000
766.918518	328.600000
766.955444	329.900000
766.992432	324.900000
767.029358	328.500000
767.066284	330.000000
767.103271	325.500000
767.140198	356.900000
767.177124	346.100000
767.214050	337.500000
767.251038	339.200000
767.287964	334.400000
767.324890	332.200000
767.361816	339.900000
767.398743	346.400000
767.435730	339.500000
767.472595	344.400000
767.509583	348.800000
767.546509	338.400000
767.583374	346.700000
767.620361	335.700000
767.657288	345.200000
767.694214	345.300000
767.731140	345.700000
767.768066	346.600000
767.804993	351.700000
767.841919	344.700000
767.878845	351.600000
767.915710	360.300000
767.952698	353.300000
767.989563	355.100000
768.026489	358.000000
768.063416	350.300000
768.100281	350.700000
768.137207	368.000000
768.174133	364.200000
768.211060	364.000000
768.247986	362.900000
768.284912	362.800000
768.321777	367.300000
768.358704	366.800000
768.395630	369.900000
768.432495	361.300000
768.469421	369.600000
768.506348	376.400000
768.543152	381.900000
768.580078	380.500000
768.616943	380.000000
768.653870	381.800000
768.690796	383.300000
768.727661	377.900000
768.764587	383.100000
768.801453	377.000000
768.838318	388.200000
768.875244	387.400000
768.912109	394.500000
768.948975	385.400000
768.985901	390.300000
769.022766	388.900000
769.059631	396.900000
769.096558	389.000000
769.133362	392.300000
769.170288	392.200000
769.207214	393.100000
769.244019	399.600000
769.280945	398.500000
769.317810	405.200000
769.354675	400.500000
769.391541	410.700000
769.428406	407.100000
769.465271	419.100000
769.502136	406.500000
769.539062	411.700000
769.575867	410.500000
769.612732	411.500000
769.649597	418.400000
769.686462	422.900000
769.723328	418.100000
769.760193	414.000000
769.797058	420.200000
769.833923	429.800000
769.870728	423.200000
769.907593	427.700000
769.944519	427.200000
769.981323	431.200000
770.018188	429.700000
770.055054	430.100000
770.091858	429.400000
770.128723	439.400000
770.165588	447.100000
770.202393	430.200000
770.239258	445.500000
770.276062	441.100000
770.312927	440.000000
770.349792	444.000000
770.386597	443.800000
770.423462	454.900000
770.460327	460.600000
770.497131	446.200000
770.533997	439.400000
770.570862	455.600000
770.607605	456.100000
770.644470	451.200000
770.681335	451.400000
770.718140	450.600000
770.754944	441.400000
770.791809	444.400000
770.828613	448.400000
770.865479	450.000000
770.902222	460.000000
770.939087	450.800000
770.975952	444.000000
771.012695	450.600000
771.049561	468.400000
771.086365	452.600000
771.123169	453.100000
771.159973	453.700000
771.196838	454.900000
771.233582	459.100000
771.270447	461.900000
771.307251	464.200000
771.344055	458.600000
771.380859	465.000000
771.417664	453.500000
771.454468	467.100000
771.491272	468.000000
771.528076	467.200000
771.564880	468.000000
771.601685	479.600000
771.638428	470.000000
771.675293	475.800000
771.712097	465.400000
771.748840	483.400000
771.785645	474.700000
771.822449	480.000000
771.859253	485.500000
771.896057	477.100000
771.932861	494.700000
771.969604	482.200000
772.006409	475.000000
772.043213	489.400000
772.079956	488.400000
772.116760	479.900000
772.153503	487.800000
772.190308	496.600000
772.227112	487.900000
772.263855	485.800000
772.300659	492.100000
772.337463	497.500000
772.374207	489.100000
772.411011	486.500000
772.447754	492.300000
772.484497	512.000000
772.521301	503.500000
772.558105	504.600000
772.594849	508.000000
772.631592	511.700000
772.668396	511.500000
772.705139	520.900000
772.741882	520.600000
772.778625	531.400000
772.815430	535.500000
772.852173	527.500000
772.888916	535.500000
772.925720	538.900000
772.962463	546.600000
772.999207	541.900000
773.035950	548.900000
773.072754	546.000000
773.109436	543.500000
773.146240	546.300000
773.182922	545.900000
773.219727	558.400000
773.256470	554.600000
773.293152	537.200000
773.329956	548.600000
773.366699	553.900000
773.403381	547.300000
773.440186	559.600000
773.476929	563.500000
773.513611	555.100000
773.550354	555.200000
773.587158	561.700000
773.623840	553.800000
773.660583	564.900000
773.697327	583.800000
773.734009	569.000000
773.770813	568.000000
773.807495	565.200000
773.844238	571.000000
773.880981	591.700000
773.917664	590.500000
773.954407	591.900000
773.991150	580.700000
774.027832	588.200000
774.064575	582.500000
774.101318	594.800000
774.138000	603.500000
774.174744	594.200000
774.211487	599.200000
774.248108	586.700000
774.284851	589.500000
774.321594	602.900000
774.358276	606.300000
774.395020	616.700000
774.431702	610.300000
774.468384	601.700000
774.505127	600.100000
774.541809	616.900000
774.578491	630.600000
774.615234	634.000000
774.651917	622.500000
774.688599	626.300000
774.725342	636.500000
774.762024	636.900000
774.798706	641.900000
774.835449	642.600000
774.872070	650.000000
774.908813	642.700000
774.945496	640.400000
774.982178	641.300000
775.018860	650.600000
775.055542	654.300000
775.092224	652.100000
775.128967	661.000000
775.165588	657.400000
775.202271	649.800000
775.239014	663.400000
775.275635	666.200000
775.312317	666.800000
775.349060	669.700000
775.385681	663.300000
775.422363	655.100000
775.459045	670.400000
775.495667	676.300000
775.532410	678.000000
775.569092	679.200000
775.605713	679.800000
775.642395	676.600000
775.679016	681.700000
775.715698	686.700000
775.752380	689.100000
775.789001	682.100000
775.825684	683.700000
775.862366	679.700000
775.898987	694.900000
775.935669	684.600000
775.972351	709.700000
776.008972	703.800000
776.045654	701.100000
776.082336	694.900000
776.118958	698.700000
776.155640	700.400000
776.192322	711.700000
776.228882	712.500000
776.265564	714.700000
776.302185	707.100000
776.338867	715.200000
776.375488	702.600000
776.412109	715.500000
776.448792	722.800000
776.485413	730.100000
776.522034	716.700000
776.558716	708.600000
776.595337	707.200000
776.631958	715.300000
776.668579	717.100000
776.705261	722.100000
776.741882	717.600000
776.778503	716.300000
776.815186	709.400000
776.851746	723.300000
776.888367	718.700000
776.924988	728.800000
776.961609	722.200000
776.998291	718.800000
777.034851	711.400000
777.071472	727.400000
777.108154	726.600000
777.144714	737.900000
777.181335	735.100000
777.218018	724.800000
777.254578	734.500000
777.291199	732.800000
777.327759	741.600000
777.364380	751.800000
777.401062	754.800000
777.437622	769.200000
777.474243	751.100000
777.510864	757.300000
777.547424	755.700000
777.584045	763.100000
777.620667	763.700000
777.657227	773.200000
777.693848	769.800000
777.730469	787.500000
777.767029	779.200000
777.803650	786.000000
777.840271	774.900000
777.876831	774.900000
777.913452	783.400000
777.950012	762.300000
777.986633	766.200000
778.023193	768.700000
778.059753	770.500000
778.096375	770.800000
778.132996	781.200000
778.169556	768.600000
778.206116	773.600000
778.242737	773.300000
778.279297	784.700000
778.315857	775.100000
778.352478	780.800000
778.389038	796.600000
778.425598	799.300000
778.462219	807.900000
778.498718	803.600000
778.535339	809.800000
778.571838	810.500000
778.608459	822.500000
778.645020	817.000000
778.681580	831.100000
778.718140	832.100000
778.754761	829.900000
778.791260	834.900000
778.827881	846.900000
778.864441	840.400000
778.900940	845.500000
778.937561	846.300000
778.974121	842.700000
779.010620	827.600000
779.047241	836.500000
779.083801	855.700000
779.120300	850.600000
779.156860	853.200000
779.193359	855.100000
779.229980	856.000000
779.266541	864.500000
779.303040	870.000000
779.339600	859.600000
779.376160	856.300000
779.412659	864.800000
779.449219	859.200000
779.485779	869.200000
779.522278	869.000000
779.558838	876.600000
779.595398	879.100000
779.631897	876.000000
779.668457	870.700000
779.705017	882.000000
779.741516	874.400000
779.778076	867.500000
779.814575	877.100000
779.851074	887.600000
779.887634	879.800000
779.924133	888.900000
779.960693	878.900000
779.997253	889.400000
780.033691	894.700000
780.070251	897.700000
780.106812	911.000000
780.143250	906.100000
780.179810	903.200000
780.216370	904.500000
780.252808	921.900000
780.289368	935.000000
780.325867	935.400000
780.362366	939.400000
780.398865	946.100000
780.435364	940.000000
780.471863	951.500000
780.508423	951.500000
780.544861	958.000000
780.581421	967.200000
780.617920	950.200000
780.654419	950.100000
780.690918	960.700000
780.727417	964.500000
780.763916	966.600000
780.800415	972.400000
780.836914	956.300000
780.873352	958.500000
780.909912	950.900000
780.946411	961.600000
780.982849	969.900000
781.019348	989.600000
781.055786	983.100000
781.092346	972.300000
781.128845	985.100000
781.165283	995.300000
781.201782	1000.900000
781.238281	1006.800000
781.274719	1011.900000
781.311218	999.900000
781.347717	1011.500000
781.384155	1001.800000
781.420654	1002.900000
781.457092	1022.500000
781.493591	1016.000000
781.530090	1004.500000
781.566528	1005.500000
781.602966	1010.100000
781.639465	1010.100000
781.675903	1006.400000
781.712402	1018.000000
781.748901	1023.900000
781.785278	1014.200000
781.821777	1022.200000
781.858276	1013.200000
781.894714	1031.100000
781.931152	1022.600000
781.967651	1032.500000
782.004089	1019.100000
782.040527	1031.800000
782.076965	1030.700000
782.113403	1030.800000
782.149902	1036.600000
782.186340	1031.800000
782.222778	1043.000000
782.259277	1030.600000
782.295654	1029.400000
782.332092	1035.300000
782.368591	1032.300000
782.404968	1025.300000
782.441467	1030.100000
782.477905	1035.100000
782.514282	1027.800000
782.550781	1044.100000
782.587219	1044.100000
782.623596	1049.100000
782.660095	1049.300000
782.696472	1056.600000
782.732910	1057.400000
782.769348	1065.100000
782.805786	1083.300000
782.842224	1075.800000
782.878662	1071.000000
782.915039	1074.600000
782.951477	1073.000000
782.987915	1068.900000
783.024292	1077.800000
783.060730	1071.600000
783.097168	1063.000000
783.133545	1057.300000
783.169983	1045.200000
783.206421	1044.000000
783.242798	1039.300000
783.279236	1026.600000
783.315613	1020.100000
783.352051	1018.800000
783.388489	1004.700000
783.424866	993.200000
783.461304	999.300000
783.497681	1003.700000
783.534058	998.200000
783.570496	994.000000
783.606934	988.900000
783.643250	998.800000
783.679687	1013.800000
783.716125	999.100000
783.752441	1016.000000
783.788879	1041.100000
783.825317	1041.100000
783.861633	1038.200000
783.898071	1041.400000
783.934448	1041.900000
783.970825	1025.400000
784.007263	936.800000
784.043579	787.600000
784.080017	615.000000
784.116394	442.400000
784.152710	342.000000
784.189148	306.800000
784.225525	300.400000
784.261902	312.400000
784.298279	362.800000
784.334656	464.300000
784.371033	599.800000
784.407410	760.900000
784.443787	883.900000
784.480164	962.900000
784.516541	997.300000
784.552856	1027.300000
784.589233	1029.100000
784.625610	1034.200000
784.661987	1066.900000
784.698364	1057.100000
784.734741	1043.000000
784.771057	1047.300000
784.807434	1050.600000
784.843811	1072.700000
784.880127	1075.400000
784.916504	1105.200000
784.952881	1111.300000
784.989197	1105.900000
785.025574	1101.400000
785.061951	1118.000000
785.098267	1148.000000
785.134644	1143.200000
785.170959	1147.500000
785.207275	1154.500000
785.243652	1150.100000
785.279968	1136.200000
785.316345	1147.800000
785.352722	1157.200000
785.388977	1156.100000
785.425354	1131.900000
785.461731	1109.500000
785.498047	1103.400000
785.534363	1101.400000
785.570679	1097.100000
785.606995	1096.700000
785.643372	1102.300000
785.679687	1089.400000
785.716003	1075.700000
785.752380	1071.600000
785.788635	1079.900000
785.825012	1100.100000
785.861328	1114.700000
785.897644	1105.800000
785.933960	1117.200000
785.970337	1127.100000
786.006592	1146.900000
786.042908	1161.800000
786.079285	1182.200000
786.115540	1188.600000
786.151855	1185.700000
786.188171	1176.500000
786.224487	1179.000000
786.260803	1179.700000
786.297119	1197.200000
786.333435	1200.000000
786.369751	1194.000000
786.406006	1189.500000
786.442322	1170.900000
786.478638	1160.700000
786.514954	1183.000000
786.551270	1185.500000
786.587585	1193.400000
786.623840	1180.500000
786.660156	1168.900000
786.696472	1153.600000
786.732727	1151.600000
786.769043	1157.100000
786.805298	1140.900000
786.841614	1151.600000
786.877930	1153.600000
786.914124	1133.400000
786.950439	1156.000000
786.986755	1162.300000
787.023010	1181.200000
787.059326	1184.800000
787.095642	1189.700000
787.131836	1207.600000
787.168152	1187.800000
787.204468	1200.600000
787.240723	1223.100000
787.276978	1236.600000
787.313293	1242.800000
787.349548	1245.500000
787.385803	1239.300000
787.422058	1234.500000
787.458313	1236.800000
787.494629	1245.300000
787.530823	1239.500000
787.567139	1219.200000
787.603455	1206.900000
787.639648	1189.500000
787.675903	1194.000000
787.712219	1197.500000
787.748413	1196.600000
787.784729	1206.500000
787.820984	1186.500000
787.857178	1175.300000
787.893494	1168.300000
787.929749	1159.800000
787.965942	1172.100000
788.002258	1187.000000
788.038452	1195.500000
788.074707	1179.700000
788.110962	1184.500000
788.147217	1177.000000
788.183472	1191.300000
788.219727	1202.400000
788.255920	1226.800000
788.292175	1228.800000
788.328430	1225.400000
788.364624	1202.300000
788.400879	1194.800000
788.437134	1202.000000
788.473328	1208.700000
788.509583	1200.800000
788.545837	1195.200000
788.582031	1185.700000
788.618286	1174.400000
788.654480	1169.600000
788.690735	1182.900000
788.726990	1210.100000
788.763184	1209.800000
788.799377	1221.900000
788.835632	1201.400000
788.871826	1226.900000
788.908081	1224.600000
788.944336	1219.200000
788.980469	1240.700000
789.016724	1232.100000
789.052979	1226.100000
789.089111	1203.800000
789.125366	1203.800000
789.161621	1190.400000
789.197754	1208.700000
789.234009	1200.800000
789.270142	1180.300000
789.306396	1173.500000
789.342590	1160.500000
789.378784	1134.500000
789.414978	1140.400000
789.451233	1155.800000
789.487366	1157.100000
789.523621	1161.300000
789.559814	1150.600000
789.595947	1140.700000
789.632202	1151.500000
789.668335	1166.600000
789.704529	1188.600000
789.740784	1207.300000
789.776917	1203.900000
789.813110	1189.400000
789.849304	1208.300000
789.885498	1213.900000
789.921692	1231.100000
789.957886	1238.800000
789.994019	1235.500000
790.030212	1231.700000
790.066406	1229.700000
790.102539	1229.400000
790.138733	1235.600000
790.174927	1228.900000
790.211060	1243.000000
790.247253	1233.900000
790.283386	1217.500000
790.319580	1194.300000
790.355774	1177.600000
790.391907	1193.000000
790.428101	1219.100000
790.464294	1215.400000
790.500427	1215.000000
790.536621	1195.400000
790.572754	1180.300000
790.608887	1180.100000
790.645081	1197.700000
790.681274	1203.900000
790.717346	1198.200000
790.753540	1156.200000
790.789734	1078.300000
790.825867	1013.200000
790.862000	1022.200000
790.898132	1072.400000
790.934265	1139.300000
790.970459	1199.600000
791.006592	1219.000000
791.042725	1220.300000
791.078918	1216.400000
791.114990	1217.100000
791.151184	1236.100000
791.187317	1252.900000
791.223389	1249.100000
791.259583	1234.900000
791.295715	1239.900000
791.331848	1242.100000
791.367981	1257.100000
791.404114	1266.600000
791.440247	1260.800000
791.476379	1254.900000
791.512451	1237.500000
791.548584	1236.600000
791.584778	1236.800000
791.620850	1253.200000
791.656982	1266.900000
791.693115	1256.800000
791.729187	1252.400000
791.765381	1241.400000
791.801514	1243.900000
791.837585	1241.700000
791.873718	1252.300000
791.909851	1271.900000
791.945923	1282.900000
791.982056	1242.900000
792.018188	1236.200000
792.054260	1238.000000
792.090393	1242.200000
792.126465	1240.400000
792.162598	1250.800000
792.198669	1232.000000
792.234741	1224.100000
792.270874	1217.400000
792.307007	1203.100000
792.343079	1214.400000
792.379150	1227.000000
792.415283	1203.400000
792.451355	1212.200000
792.487488	1187.700000
792.523560	1187.900000
792.559631	1192.000000
792.595764	1186.800000
792.631836	1194.000000
792.667908	1199.300000
792.703979	1179.700000
792.740051	1175.700000
792.776184	1188.300000
792.812256	1185.600000
792.848328	1190.600000
792.884399	1198.000000
792.920471	1198.600000
792.956543	1189.600000
792.992615	1190.600000
793.028748	1186.900000
793.064758	1193.700000
793.100830	1220.200000
793.136963	1227.900000
793.172974	1219.600000
793.209045	1212.200000
793.245178	1223.600000
793.281189	1206.300000
793.317261	1213.900000
793.353271	1215.200000
793.389404	1227.000000
793.425476	1215.500000
793.461487	1199.700000
793.497559	1192.300000
793.533630	1200.000000
793.569641	1204.100000
793.605713	1208.600000
793.641785	1216.100000
793.677795	1223.100000
793.713867	1207.700000
793.749878	1214.000000
793.785950	1227.800000
793.822021	1232.400000
793.858032	1216.400000
793.894104	1229.400000
793.930176	1211.900000
793.966187	1213.200000
794.002258	1198.100000
794.038269	1207.400000
794.074280	1205.400000
794.110352	1222.800000
794.146423	1194.300000
794.182373	1192.200000
794.218445	1181.100000
794.254517	1174.900000
794.290466	1157.200000
794.326538	1167.700000
794.362549	1169.300000
794.398560	1176.400000
794.434631	1174.000000
794.470581	1142.400000
794.506653	1138.700000
794.542664	1143.100000
794.578674	1143.400000
794.614685	1140.800000
794.650757	1132.100000
794.686707	1131.300000
794.722778	1121.000000
794.758789	1127.100000
794.794739	1137.600000
794.830811	1159.200000
794.866821	1179.000000
794.902771	1167.400000
794.938843	1159.500000
794.974792	1151.400000
795.010803	1158.700000
795.046814	1160.400000
795.082825	1146.600000
795.118835	1156.500000
795.154846	1135.700000
795.190796	1140.100000
795.226807	1114.400000
795.262817	1123.700000
795.298767	1123.900000
795.334778	1130.900000
795.370850	1113.900000
795.406799	1114.100000
795.442810	1094.000000
795.478821	1089.000000
795.514709	1090.500000
795.550720	1111.500000
795.586670	1094.500000
795.622681	1098.300000
795.658691	1096.100000
795.694641	1088.200000
795.730652	1073.000000
795.766663	1084.700000
795.802551	1089.100000
795.838562	1101.100000
795.874573	1092.400000
795.910522	1085.700000
795.946472	1073.700000
795.982483	1083.300000
796.018433	1083.300000
796.054382	1094.500000
796.090393	1080.400000
796.126282	1070.300000
796.162292	1053.800000
796.198242	1047.000000
796.234192	1054.100000
796.270203	1052.600000
796.306091	1061.400000
796.342041	1077.300000
796.378052	1061.200000
796.413940	1053.400000
796.449951	1057.400000
796.485901	1056.400000
796.521790	1056.400000
796.557800	1070.400000
796.593689	1070.300000
796.629639	1052.000000
796.665649	1047.700000
796.701599	1046.900000
796.737488	1050.400000
796.773437	1050.000000
796.809387	1053.700000
796.845337	1053.800000
796.881287	1035.900000
796.917175	1016.600000
796.953125	1020.600000
796.989075	1037.500000
797.024963	1042.900000
797.060913	1037.800000
797.096863	1034.900000
797.132751	1030.200000
797.168701	1005.900000
797.204590	1015.200000
797.240540	1018.100000
797.276489	1022.300000
797.312439	1028.400000
797.348328	1025.100000
797.384277	1014.700000
797.420166	1004.700000
797.456055	1006.700000
797.492004	999.500000
797.527893	1011.600000
797.563843	1019.000000
797.599731	1002.200000
797.635620	985.000000
797.671570	994.500000
797.707520	995.200000
797.743347	993.200000
797.779297	1006.100000
797.815125	1003.300000
797.851074	989.100000
797.887024	978.400000
797.922913	970.300000
797.958801	982.400000
797.994690	985.000000
798.030579	989.200000
798.066467	990.400000
798.102356	973.700000
798.138245	968.900000
798.174133	963.000000
798.210083	974.200000
798.245911	984.600000
798.281799	988.400000
798.317749	975.600000
798.353577	965.800000
798.389465	965.800000
798.425293	965.200000
798.461243	953.900000
798.497131	965.300000
798.532959	963.700000
798.568848	968.700000
798.604736	955.000000
798.640564	939.400000
798.676453	940.100000
798.712402	945.000000
798.748230	955.400000
798.784119	952.100000
798.820007	948.200000
798.855835	946.300000
798.891724	941.300000
798.927551	936.000000
798.963379	945.100000
798.999268	945.100000
799.035095	941.200000
799.070984	933.400000
799.106873	917.800000
799.142700	928.200000
799.178528	918.700000
799.214417	914.000000
799.250244	933.200000
799.286133	925.700000
799.321960	918.100000
799.357788	913.100000
799.393677	918.400000
799.429504	913.600000
799.465332	915.600000
799.501221	925.800000
799.537048	922.000000
799.572876	907.400000
799.608704	911.400000
799.644531	916.500000
799.680359	916.800000
799.716248	924.800000
799.752014	929.600000
799.787903	915.600000
799.823730	907.900000
799.859558	898.000000
799.895386	907.900000
799.931213	910.900000
799.967041	900.100000
800.002869	895.000000
800.038696	907.700000
800.074463	883.400000
800.110352	888.100000
800.146179	878.700000
800.181946	888.400000
800.217773	887.100000
800.253540	884.500000
800.289429	878.700000
800.325256	871.600000
800.361023	862.000000
800.396851	862.900000
800.432678	866.300000
800.468445	867.100000
800.504272	860.000000
800.540100	839.600000
800.575867	841.500000
800.611694	848.800000
800.647461	836.900000
800.683289	841.200000
800.719116	843.100000
800.754883	837.900000
800.790649	818.800000
800.826477	814.200000
800.862244	833.300000
800.898071	817.500000
800.933838	816.300000
800.969604	811.300000
801.005432	808.200000
801.041199	811.800000
801.076965	803.800000
801.112793	795.800000
801.148560	783.900000
801.184326	786.100000
801.220154	790.300000
801.255859	776.500000
801.291687	775.500000
801.327454	771.600000
801.363281	769.200000
801.398987	768.100000
801.434814	771.400000
801.470520	780.300000
801.506287	764.700000
801.542114	755.300000
801.577820	760.800000
801.613647	759.700000
801.649414	755.300000
801.685120	751.200000
801.720886	759.300000
801.756714	745.700000
801.792419	737.400000
801.828186	729.900000
801.863892	739.900000
801.899719	731.500000
801.935486	731.100000
801.971252	738.000000
802.006958	730.700000
802.042725	722.400000
802.078430	724.000000
802.114197	714.300000
802.149963	732.000000
802.185669	724.500000
802.221436	717.400000
802.257202	718.700000
802.292908	712.000000
802.328674	720.600000
802.364441	721.300000
802.400146	713.200000
802.435913	709.200000
802.471558	705.900000
802.507324	698.600000
802.543091	690.300000
802.578796	705.600000
802.614502	707.200000
802.650269	709.700000
802.685974	692.500000
802.721741	697.600000
802.757446	700.500000
802.793152	694.400000
802.828918	705.100000
802.864624	697.800000
802.900330	694.700000
802.936035	687.000000
802.971802	686.100000
803.007446	685.500000
803.043213	675.600000
803.078857	682.200000
803.114624	667.000000
803.150330	676.900000
803.185974	667.800000
803.221741	664.400000
803.257446	670.600000
803.293152	671.300000
803.328857	666.500000
803.364563	657.300000
803.400208	653.100000
803.435974	665.100000
803.471680	653.500000
803.507324	650.500000
803.543030	659.700000
803.578735	657.200000
803.614441	644.800000
803.650146	651.200000
803.685791	639.600000
803.721497	642.400000
803.757202	631.100000
803.792847	640.400000
803.828552	631.200000
803.864258	632.300000
803.899902	631.300000
803.935608	615.200000
803.971313	619.200000
804.006958	621.800000
804.042664	617.000000
804.078308	622.300000
804.113953	615.900000
804.149658	621.000000
804.185364	611.300000
804.221008	621.600000
804.256714	613.000000
804.292297	609.200000
804.328003	604.600000
804.363708	595.900000
804.399292	597.100000
804.434998	596.000000
804.470703	590.500000
804.506287	603.900000
804.541992	596.900000
804.577637	599.100000
804.613281	586.800000
804.648926	584.500000
804.684570	592.000000
804.720215	583.000000
804.755920	584.900000
804.791565	576.400000
804.827209	582.200000
804.862854	577.800000
804.898437	573.300000
804.934143	572.800000
804.969788	571.400000
805.005371	571.600000
805.041077	575.500000
805.076721	574.500000
805.112305	565.100000
805.147949	565.400000
805.183655	563.100000
805.219238	562.200000
805.254883	561.800000
805.290466	567.800000
805.326111	556.300000
805.361755	547.900000
805.397400	555.600000
805.432983	558.800000
805.468628	557.500000
805.504211	564.600000
805.539856	560.700000
805.575500	567.300000
805.611084	556.100000
805.646729	538.400000
805.682373	545.500000
805.717957	554.600000
805.753601	559.200000
805.789246	539.700000
805.824768	551.000000
805.860413	552.100000
805.895996	538.800000
805.931641	542.100000
805.967224	547.700000
806.002869	538.800000
806.038452	551.300000
806.074036	545.200000
806.109619	534.000000
806.145264	527.700000
806.180847	528.700000
806.216431	526.400000
806.252014	535.500000
806.287659	531.800000
806.323181	539.200000
806.358826	531.200000
806.394409	513.400000
806.429993	517.200000
806.465576	531.900000
806.501160	516.500000
806.536743	507.600000
806.572327	520.900000
806.607910	512.300000
806.643494	512.700000
806.679077	506.400000
806.714661	511.400000
806.750244	510.600000
806.785828	502.700000
806.821350	502.200000
806.856934	506.100000
806.892517	501.000000
806.928101	492.900000
806.963684	495.200000
806.999268	505.700000
807.034790	484.600000
807.070374	495.100000
807.105896	488.400000
807.141479	484.500000
807.177063	492.400000
807.212585	483.200000
807.248169	483.200000
807.283752	489.200000
807.319275	480.900000
807.354858	483.800000
807.390381	476.800000
807.425903	478.400000
807.461487	476.100000
807.497070	467.600000
807.532593	469.700000
807.568115	463.900000
807.603699	462.200000
807.639221	457.800000
807.674744	461.900000
807.710266	466.500000
807.745850	466.100000
807.781372	457.600000
807.816895	456.800000
807.852417	459.100000
807.888000	455.600000
807.923523	452.800000
807.959045	454.900000
807.994629	446.200000
808.030090	445.100000
808.065613	449.500000
808.101135	452.200000
808.136658	449.900000
808.172241	443.600000
808.207764	443.200000
808.243225	437.100000
808.278809	433.400000
808.314270	443.200000
808.349792	430.500000
808.385315	429.500000
808.420837	434.700000
808.456360	438.600000
808.491882	437.300000
808.527344	429.600000
808.562866	440.200000
808.598389	431.000000
808.633850	424.200000
808.669434	420.900000
808.704895	428.400000
808.740417	435.600000
808.775940	425.100000
808.811462	419.500000
808.846924	411.700000
808.882385	410.300000
808.917847	409.200000
808.953369	411.700000
808.988892	407.800000
809.024353	416.600000
809.059875	411.900000
809.095398	407.600000
809.130798	404.300000
809.166321	403.300000
809.201843	403.400000
809.237305	404.000000
809.272766	408.300000
809.308228	395.200000
809.343750	396.900000
809.379211	396.900000
809.414734	396.800000
809.450134	404.800000
809.485657	386.100000
809.521118	392.900000
809.556580	391.300000
809.592102	389.700000
809.627502	387.500000
809.663025	383.400000
809.698486	381.400000
809.733887	378.400000
809.769409	380.200000
809.804871	371.100000
809.840271	373.800000
809.875793	375.500000
809.911194	378.300000
809.946655	369.900000
809.982178	366.500000
810.017639	371.600000
810.053040	368.700000
810.088501	364.300000
810.123901	367.100000
810.159424	362.300000
810.194885	356.300000
810.230286	364.700000
810.265747	357.900000
810.301208	353.900000
810.336609	356.000000
810.372070	348.500000
810.407532	353.300000
810.442932	355.400000
810.478394	358.800000
810.513794	353.400000
810.549255	351.400000
810.584717	349.600000
810.620117	344.800000
810.655518	350.800000
810.690979	348.200000
810.726379	346.000000
810.761841	335.700000
810.797302	337.300000
810.832642	337.300000
810.868103	350.000000
810.903564	336.100000
810.938904	343.800000
810.974365	331.700000
811.009827	336.900000
811.045166	329.600000
811.080627	326.200000
811.115967	332.600000
811.151428	340.600000
811.186829	330.000000
811.222229	331.800000
811.257629	323.600000
811.293091	331.400000
811.328430	337.400000
811.363892	331.900000
811.399292	332.500000
811.434631	326.200000
811.470093	330.900000
811.505493	321.700000
811.540833	321.700000
811.576294	330.000000
811.611694	323.000000
811.647034	318.000000
811.682434	320.700000
811.717773	324.700000
811.753235	327.400000
811.788635	318.100000
811.823975	321.200000
811.859375	329.300000
811.894775	313.400000
811.930115	317.000000
811.965515	316.000000
812.000916	320.200000
812.036255	313.100000
812.071655	319.400000
812.106995	312.800000
812.142395	313.200000
812.177795	319.800000
812.213196	314.700000
812.248474	316.500000
812.283875	308.100000
812.319214	308.600000
812.354614	310.400000
812.390015	308.200000
812.425293	309.600000
812.460693	307.300000
812.496094	306.300000
812.531433	299.200000
812.566772	300.800000
812.602173	303.800000
812.637451	305.700000
812.672852	299.400000
812.708191	304.600000
812.743530	296.600000
812.778931	291.300000
812.814270	293.800000
812.849609	301.900000
812.884949	295.900000
812.920227	288.800000
812.955627	304.300000
812.990967	295.500000
813.026306	290.700000
813.061646	279.300000
813.096985	278.900000
813.132324	276.900000
813.167664	282.600000
813.203003	288.000000
813.238281	273.500000
813.273682	274.500000
813.308960	272.500000
813.344299	274.400000
813.379639	283.600000
813.414978	275.500000
813.450256	276.000000
813.485596	281.000000
813.520874	270.600000
813.556213	276.200000
813.591614	278.800000
813.626831	270.400000
813.662170	275.800000
813.697510	284.400000
813.732788	266.300000
813.768127	274.700000
813.803467	274.900000
813.838745	269.300000
813.874084	271.800000
813.909363	273.300000
813.944641	273.300000
813.979980	264.100000
814.015320	267.500000
814.050598	265.600000
814.085876	271.600000
814.121155	266.900000
814.156494	264.100000
814.191772	266.300000
814.227051	262.200000
814.262390	264.500000
814.297668	263.700000
814.332947	267.500000
814.368225	257.400000
814.403564	261.700000
814.438782	257.800000
814.474121	258.600000
814.509338	257.800000
814.544617	265.500000
814.579956	255.400000
814.615173	266.600000
814.650513	260.800000
814.685791	253.000000
814.721008	256.600000
814.756348	257.400000
814.791626	253.000000
814.826843	253.600000
814.862122	252.500000
814.897400	248.800000
814.932678	252.800000
814.967957	252.300000
815.003235	250.700000
815.038452	245.600000
815.073730	242.900000
815.108948	253.700000
815.144226	250.600000
815.179504	254.200000
815.214722	239.200000
815.250000	240.200000
815.285278	246.700000
815.320496	241.900000
815.355774	245.000000
815.391052	247.300000
815.426270	242.200000
815.461487	242.200000
815.496765	238.000000
815.531982	233.700000
815.567261	241.500000
815.602539	249.600000
815.637695	242.800000
815.672974	246.700000
815.708191	245.300000
815.743408	245.200000
815.778687	238.900000
815.813904	247.800000
815.849121	229.900000
815.884399	234.200000
815.919556	231.800000
815.954834	234.000000
815.990051	237.800000
816.025269	240.600000
816.060486	232.100000
816.095703	231.700000
816.130920	236.200000
816.166199	230.000000
816.201416	235.800000
816.236572	240.500000
816.271851	229.900000
816.307007	237.100000
816.342224	227.900000
816.377441	230.900000
816.412659	222.700000
816.447876	233.900000
816.483093	228.700000
816.518250	230.900000
816.553467	226.700000
816.588745	231.300000
816.623901	223.400000
816.659119	218.500000
816.694275	226.000000
816.729492	220.900000
816.764709	258.300000
816.799927	217.400000
816.835083	222.700000
816.870300	217.200000
816.905457	223.900000
816.940674	225.600000
816.975830	219.000000
817.010986	214.700000
817.046204	218.100000
817.081421	216.100000
817.116577	215.300000
817.151733	225.400000
817.186951	225.300000
817.222107	220.500000
817.257324	223.400000
817.292419	221.400000
817.327637	213.000000
817.362854	218.800000
817.398010	213.900000
817.433167	214.400000
817.468323	213.700000
817.503479	215.300000
817.538635	223.700000
817.573853	218.700000
817.608948	216.600000
817.644165	211.800000
817.679321	210.000000
817.714478	211.800000
817.749634	216.200000
817.784790	227.700000
817.819946	222.600000
817.855103	203.200000
817.890198	212.500000
817.925415	205.000000
817.960571	215.100000
817.995667	212.900000
818.030823	214.500000
818.066040	208.000000
818.101135	212.200000
818.136292	209.800000
818.171448	205.700000
818.206543	210.200000
818.241699	212.700000
818.276855	210.900000
818.311951	208.900000
818.347107	204.800000
818.382263	210.900000
818.417358	216.000000
818.452515	216.300000
818.487610	219.000000
818.522766	205.100000
818.557922	216.200000
818.593018	211.000000
818.628113	209.900000
818.663269	204.400000
818.698364	210.300000
818.733521	204.900000
818.768677	211.200000
818.803711	201.000000
818.838867	204.700000
818.874023	207.500000
818.909058	203.400000
818.944214	202.500000
818.979370	211.100000
819.014404	207.000000
819.049561	204.600000
819.084595	209.100000
819.119751	201.200000
819.154846	209.000000
819.189941	204.700000
819.225037	200.300000
819.260193	196.700000
819.295227	200.100000
819.330322	195.100000
819.365479	194.400000
819.400513	228.900000
819.435608	193.300000
819.470764	191.200000
819.505798	195.100000
819.540894	198.900000
819.575989	196.900000
819.611084	206.400000
819.646179	205.600000
819.681213	201.900000
819.716309	197.500000
819.751404	198.400000
819.786438	204.100000
819.821533	195.200000
819.856628	199.800000
819.891663	203.400000
819.926758	209.000000
819.961853	205.400000
819.996887	194.600000
820.031982	202.700000
820.067017	197.700000
820.102112	226.000000
820.137207	196.200000
820.172302	213.000000
820.207275	195.200000
820.242371	194.800000
820.277405	195.300000
820.312500	198.600000
820.347534	201.400000
820.382568	203.000000
820.417664	196.000000
820.452759	196.100000
820.487732	192.400000
820.522827	195.400000
820.557861	193.400000
820.592896	195.700000
820.627930	196.800000
820.662964	193.900000
820.698059	198.900000
820.733093	195.700000
820.768127	200.800000
820.803162	195.900000
820.838196	195.000000
820.873230	197.400000
820.908264	197.900000
820.943298	193.300000
820.978333	203.100000
821.013367	197.200000
821.048401	202.500000
821.083435	204.300000
821.118469	188.700000
821.153503	201.400000
821.188477	198.700000
821.223511	188.300000
821.258484	196.500000
821.293579	196.900000
821.328613	189.200000
821.363647	194.400000
821.398621	189.100000
821.433655	191.900000
821.468628	208.200000
821.503662	193.700000
821.538696	198.300000
821.573669	191.000000
821.608704	197.600000
821.643677	192.200000
821.678650	198.200000
821.713684	203.500000
821.748718	193.200000
821.783691	194.300000
821.818726	196.000000
821.853638	195.700000
821.888672	192.600000
821.923706	195.200000
821.958618	191.300000
821.993652	192.100000
822.028687	198.300000
822.063599	200.100000
822.098633	195.500000
822.133667	191.000000
822.168579	192.300000
822.203613	195.000000
822.238586	190.900000
822.273560	196.400000
822.308533	192.300000
822.343567	192.300000
822.378479	194.300000
822.413452	194.200000
822.448425	190.200000
822.483398	199.200000
822.518372	199.600000
822.553345	191.500000
822.588318	201.700000
822.623291	194.600000
822.658203	192.300000
822.693237	195.400000
822.728210	190.600000
822.763123	196.600000
822.798096	189.800000
822.833069	193.800000
822.867981	193.800000
822.902954	197.700000
822.937927	197.600000
822.972900	206.500000
823.007874	186.000000
823.042725	197.900000
823.077698	207.500000
823.112671	189.300000
823.147583	193.100000
823.182556	196.800000
823.217529	199.100000
823.252441	191.900000
823.287415	207.900000
823.322388	197.900000
823.357239	194.400000
823.392212	201.900000
823.427185	197.200000
823.462097	191.200000
823.497009	197.700000
823.531982	191.700000
823.566895	195.800000
823.601807	189.500000
823.636719	191.600000
823.671631	197.100000
823.706604	192.200000
823.741455	196.300000
823.776428	187.600000
823.811340	198.700000
823.846252	201.600000
823.881165	201.800000
823.916138	196.500000
823.950989	202.500000
823.985901	191.900000
824.020813	195.300000
824.055725	193.100000
824.090637	191.300000
824.125610	197.200000
824.160461	195.100000
824.195374	197.000000
824.230225	199.400000
824.265198	188.400000
824.300110	191.800000
824.334961	205.000000
824.369873	184.900000
824.404785	197.900000
824.439636	202.100000
824.474548	186.100000
824.509460	184.200000
824.544312	199.600000
824.579224	197.200000
824.614075	197.200000
824.648987	193.500000
824.683899	192.600000
824.718811	190.400000
824.753662	201.200000
824.788574	199.700000
824.823364	194.900000
824.858276	191.700000
824.893188	199.700000
824.928040	200.500000
824.962952	196.700000
824.997803	198.300000
825.032654	195.200000
825.067566	198.200000
825.102417	191.800000
825.137268	191.700000
825.172119	195.100000
825.206970	191.200000
825.241882	192.500000
825.276733	192.200000
825.311646	191.000000
825.346436	187.900000
825.381348	188.600000
825.416138	194.500000
825.450989	188.800000
825.485901	185.700000
825.520691	185.000000
825.555542	188.200000
825.590454	194.700000
825.625244	185.800000
825.660095	202.500000
825.695007	199.700000
825.729797	192.800000
825.764648	190.700000
825.799438	193.400000
825.834290	195.500000
825.869202	187.500000
825.903992	195.700000
825.938843	190.700000
825.973694	188.800000
826.008484	207.000000
826.043335	190.000000
826.078186	184.000000
826.112976	201.200000
826.147827	198.900000
826.182678	204.100000
826.217468	187.700000
826.252319	198.700000
826.287109	190.200000
826.321899	203.100000
826.356750	191.200000
826.391541	189.100000
826.426392	199.100000
826.461182	192.900000
826.495972	187.700000
826.530823	184.100000
826.565613	193.900000
826.600403	187.500000
826.635254	195.400000
826.670044	184.400000
826.704834	185.200000
826.739685	189.100000
826.774475	195.300000
826.809265	192.100000
826.844055	190.200000
826.878906	198.100000
826.913635	195.200000
826.948425	196.700000
826.983215	194.400000
827.018005	199.000000
827.052856	190.900000
827.087585	195.700000
827.122375	184.500000
827.157227	194.100000
827.191956	204.400000
827.226746	189.700000
827.261536	198.100000
827.296265	186.500000
827.331116	191.700000
827.365906	197.500000
827.400635	189.900000
827.435425	185.700000
827.470215	200.200000
827.504944	191.400000
827.539734	199.000000
827.574463	192.500000
827.609253	201.100000
827.644043	193.900000
827.678772	199.400000
827.713562	190.400000
827.748352	191.800000
827.783081	190.000000
827.817871	194.400000
827.852600	188.400000
827.887329	195.800000
827.922119	183.900000
827.956848	195.300000
827.991638	206.300000
828.026367	195.400000
828.061157	193.600000
828.095886	193.300000
828.130615	207.400000
828.165344	183.400000
828.200073	194.500000
828.234863	189.800000
828.269592	192.600000
828.304321	197.300000
828.339111	194.000000
828.373779	188.600000
828.408569	199.500000
828.443298	197.100000
828.477966	189.700000
828.512756	194.400000
828.547424	187.000000
828.582214	189.400000
828.616943	190.600000
828.651672	190.800000
828.686340	196.500000
828.721130	188.700000
828.755798	188.800000
828.790527	193.100000
828.825256	193.000000
828.859924	193.100000
828.894714	201.100000
828.929443	200.800000
828.964111	189.800000
828.998840	195.300000
829.033569	190.500000
829.068237	191.400000
829.102966	189.100000
829.137634	194.300000
829.172363	195.400000
829.207092	193.100000
829.241821	189.900000
829.276489	185.000000
829.311157	196.200000
829.345825	190.800000
829.380554	198.300000
829.415283	189.300000
829.449951	186.400000
829.484619	202.100000
829.519348	199.000000
829.554016	193.300000
829.588745	192.400000
829.623413	187.200000
829.658081	202.900000
829.692749	188.000000
829.727417	198.200000
829.762146	194.900000
829.796814	188.300000
829.831482	192.100000
829.866150	193.400000
829.900879	190.000000
829.935486	196.700000
829.970154	190.500000
830.004883	202.800000
830.039490	192.500000
830.074219	188.500000
830.108887	193.800000
830.143494	191.000000
830.178223	186.400000
830.212891	189.800000
830.247498	193.100000
830.282166	200.900000
830.316772	197.300000
830.351501	189.400000
830.386169	192.000000
830.420776	190.900000
830.455444	192.300000
830.490112	191.000000
830.524719	184.100000
830.559387	196.000000
830.594055	196.200000
830.628662	192.700000
830.663330	192.700000
830.697998	202.100000
830.732605	192.300000
830.767273	195.100000
830.801941	191.800000
830.836487	202.400000
830.871155	194.700000
830.905762	193.300000
830.940430	185.600000
830.975098	190.200000
831.009644	193.100000
831.044312	201.000000
831.078979	194.600000
831.113525	184.800000
831.148193	193.200000
831.182861	190.700000
831.217407	195.600000
831.252075	209.300000
831.286621	190.300000
831.321289	187.900000
831.355896	190.700000
831.390564	199.800000
831.425110	191.500000
831.459778	200.100000
831.494324	205.800000
831.528931	194.600000
831.563599	197.300000
831.598145	186.200000
831.632751	191.300000
831.667419	191.900000
831.701965	196.200000
831.736572	195.300000
831.771179	184.300000
831.805786	188.700000
831.840393	199.300000
831.874939	184.700000
831.909546	197.500000
831.944153	185.200000
831.978760	190.800000
832.013306	187.900000
832.047913	200.700000
832.082458	201.400000
832.117065	189.400000
832.151672	203.200000
832.186218	194.200000
832.220825	196.700000
832.255432	185.300000
832.289978	188.300000
832.324585	195.100000
832.359192	196.200000
832.393677	190.800000
832.428284	193.800000
832.462830	191.800000
832.497437	192.100000
832.531982	196.400000
832.566589	191.100000
832.601135	193.100000
832.635681	185.300000
832.670227	193.400000
832.704773	201.400000
832.739380	195.200000
832.773926	193.200000
832.808472	188.300000
832.843079	193.900000
832.877563	196.700000
832.912170	190.700000
832.946716	184.900000
832.981201	198.700000
833.015808	196.300000
833.050293	192.200000
833.084839	189.100000
833.119446	190.700000
833.153992	195.600000
833.188477	191.100000
833.223022	189.100000
833.257568	192.500000
833.292114	198.800000
833.326660	203.400000
833.361145	189.700000
833.395691	186.200000
833.430237	191.300000
833.464783	195.100000
833.499329	189.200000
833.533875	186.300000
833.568359	195.100000
833.602905	199.300000
833.637390	198.500000
833.671875	190.200000
833.706421	191.900000
833.740906	188.900000
833.775452	182.800000
833.809998	189.900000
833.844482	201.000000
833.879028	192.100000
833.913513	191.600000
833.947998	194.100000
833.982544	189.400000
834.017090	189.700000
834.051514	181.200000
834.086060	195.600000
834.120544	192.800000
834.155029	194.300000
834.189575	191.400000
834.223999	196.100000
834.258545	194.400000
834.293030	193.800000
834.327515	192.700000
834.362000	190.800000
834.396545	197.800000
834.430969	192.100000
834.465454	198.200000
834.500000	185.400000
834.534424	194.200000
834.568970	183.100000
834.603455	184.200000
834.637878	189.800000
834.672363	194.000000
834.706909	193.000000
834.741333	191.700000
834.775818	183.200000
834.810242	187.500000
834.844727	192.600000
834.879211	191.000000
834.913635	192.600000
834.948181	193.300000
834.982666	192.200000
835.017090	191.100000
835.051575	196.400000
835.086060	189.000000
835.120483	195.800000
835.154907	196.000000
835.189331	191.600000
835.223816	195.300000
835.258301	187.700000
835.292786	186.600000
835.327209	197.000000
835.361694	188.100000
835.396057	189.200000
835.430542	194.800000
835.465027	193.600000
835.499390	186.800000
835.533875	211.900000
835.568359	189.900000
835.602722	186.100000
835.637207	193.700000
835.671692	187.300000
835.706055	209.300000
835.740540	194.900000
835.774902	196.700000
835.809387	194.000000
835.843811	187.800000
835.878235	201.800000
835.912659	186.200000
835.947083	190.200000
835.981506	193.300000
836.015930	185.200000
836.050354	195.700000
836.084778	200.700000
836.119202	196.500000
836.153625	205.100000
836.187988	189.800000
836.222473	188.900000
836.256897	194.000000
836.291260	191.400000
836.325684	194.400000
836.360046	188.300000
836.394470	191.000000
836.428894	198.300000
836.463318	187.900000
836.497681	196.100000
836.532104	199.500000
836.566467	193.600000
836.600891	190.500000
836.635315	198.200000
836.669678	196.400000
836.704102	197.100000
836.738525	192.500000
836.772888	184.400000
836.807251	190.500000
836.841675	194.900000
836.876038	186.800000
836.910461	190.400000
836.944763	196.000000
836.979187	189.700000
837.013611	199.700000
837.047974	186.100000
837.082336	204.600000
837.116699	197.100000
837.151062	192.800000
837.185486	187.100000
837.219849	192.600000
837.254211	197.300000
837.288574	192.500000
837.322937	188.000000
837.357300	180.900000
837.391663	204.500000
837.426086	199.100000
837.460388	194.200000
837.494751	196.900000
837.529114	191.300000
837.563477	197.700000
837.597839	194.000000
837.632141	192.800000
837.666565	190.200000
837.700928	195.300000
837.735229	196.600000
837.769592	195.400000
837.803955	198.500000
837.838257	190.700000
837.872620	189.200000
837.906982	199.300000
837.941284	193.600000
837.975647	192.100000
838.010010	198.700000
838.044312	189.100000
838.078674	190.400000
838.112976	193.300000
838.147339	195.600000
838.181702	192.100000
838.216003	201.800000
838.250366	193.700000
838.284668	194.500000
838.318970	185.100000
838.353333	192.100000
838.387634	190.600000
838.421936	192.300000
838.456299	194.500000
838.490601	199.900000
838.524902	196.700000
838.559265	198.000000
838.593567	195.200000
838.627869	186.900000
838.662170	196.000000
838.696472	186.500000
838.730774	188.600000
838.765137	198.500000
838.799377	178.200000
838.833740	194.100000
838.868042	198.600000
838.902283	184.800000
838.936646	199.600000
838.970947	196.200000
839.005188	196.900000
839.039551	185.300000
839.073792	200.700000
839.108093	190.500000
839.142395	203.400000
839.176697	186.600000
839.210937	193.500000
839.245300	204.600000
839.279541	186.300000
839.313843	191.400000
839.348145	196.900000
839.382385	196.600000
839.416687	197.500000
839.450989	195.000000
839.485229	192.200000
839.519531	187.100000
839.553833	198.000000
839.588013	192.500000
839.622314	194.700000
839.656555	194.800000
839.690857	190.700000
839.725159	185.700000
839.759460	191.400000
839.793640	190.200000
839.827942	190.800000
839.862183	187.600000
839.896423	194.200000
839.930725	201.700000
839.964966	199.600000
839.999207	201.000000
840.033508	199.000000
840.067688	188.400000
840.101990	201.300000
840.136230	192.300000
840.170471	201.000000
840.204712	188.500000
840.238953	188.200000
840.273193	195.000000
840.307434	197.200000
840.341736	189.500000
840.375916	187.600000
840.410217	191.000000
840.444397	196.900000
840.478638	196.000000
840.512878	199.100000
840.547119	194.900000
840.581360	197.000000
840.615601	203.300000
840.649780	202.300000
840.684021	193.700000
840.718262	201.800000
840.752441	199.200000
840.786682	195.100000
840.820862	195.700000
840.855103	201.400000
840.889343	193.500000
840.923584	198.800000
840.957764	195.900000
840.992004	196.500000
841.026184	207.300000
841.060425	190.900000
841.094666	189.000000
841.128845	195.400000
841.163025	194.600000
841.197266	196.400000
841.231445	195.600000
841.265686	193.300000
841.299866	188.200000
841.334045	200.900000
841.368286	191.300000
841.402405	200.800000
841.436646	197.900000
841.470825	190.400000
841.505005	191.700000
841.539185	188.300000
841.573425	189.300000
841.607544	193.100000
841.641785	193.900000
841.675964	187.800000
841.710144	194.500000
841.744324	189.300000
841.778503	192.500000
841.812683	188.600000
841.846863	202.100000
841.881042	199.700000
841.915222	191.400000
841.949402	209.700000
841.983521	184.200000
842.017700	192.800000
842.051880	195.500000
842.086060	195.100000
842.120239	194.500000
842.154419	190.800000
842.188538	193.800000
842.222717	191.100000
842.256897	203.900000
842.291016	191.700000
842.325195	197.200000
842.359375	204.600000
842.393494	200.500000
842.427673	195.000000
842.461853	197.100000
842.495911	202.400000
842.530090	195.600000
842.564209	193.400000
842.598389	195.100000
842.632568	195.500000
842.666626	198.100000
842.700806	189.000000
842.734985	189.600000
842.769043	196.500000
842.803223	191.300000
842.837402	192.700000
842.871460	190.200000
842.905640	201.500000
842.939697	188.600000
842.973877	194.600000
843.007996	197.800000
843.042175	200.900000
843.076233	190.400000
843.110413	195.400000
843.144470	203.200000
843.178589	198.000000
843.212769	190.700000
843.246826	197.700000
843.280945	192.900000
843.315125	191.100000
843.349182	190.000000
843.383301	201.600000
843.417419	205.800000
843.451538	194.200000
843.485657	191.500000
843.519714	193.600000
843.553833	194.700000
843.587952	192.000000
843.622070	190.000000
843.656128	197.900000
843.690247	192.200000
843.724304	192.100000
843.758423	194.800000
843.792542	191.500000
843.826599	193.000000
843.860718	192.700000
843.894836	188.700000
843.928894	194.700000
843.963013	196.000000
843.997070	189.900000
844.031128	187.300000
844.065247	199.800000
844.099304	199.200000
844.133362	194.900000
844.167480	196.100000
844.201599	200.900000
844.235596	196.300000
844.269714	196.100000
844.303711	196.300000
844.337830	185.100000
844.371948	197.700000
844.405945	192.300000
844.440063	188.600000
844.474121	207.900000
844.508118	193.000000
844.542236	192.600000
844.576294	192.600000
844.610352	188.800000
844.644409	192.800000
844.678406	183.000000
844.712524	197.600000
844.746582	200.400000
844.780640	193.400000
844.814636	194.800000
844.848755	205.100000
844.882751	192.000000
844.916809	198.200000
844.950867	195.000000
844.984863	202.600000
845.018921	194.000000
845.052979	191.500000
845.086975	194.600000
845.121033	188.700000
845.155090	189.000000
845.189087	200.400000
845.223145	191.600000
845.257141	194.100000
845.291199	197.200000
845.325256	202.000000
845.359253	195.200000
845.393250	204.700000
845.427307	192.900000
845.461304	196.100000
845.495361	194.600000
845.529358	204.600000
845.563354	191.500000
845.597412	191.000000
845.631409	201.100000
845.665405	201.700000
845.699463	200.800000
845.733459	191.700000
845.767456	201.000000
845.801453	192.900000
845.835449	201.800000
845.869446	197.900000
845.903503	199.100000
845.937439	189.600000
845.971497	201.000000
846.005493	187.700000
846.039429	198.200000
846.073486	204.300000
846.107483	192.100000
846.141418	193.400000
846.175476	193.400000
846.209473	201.300000
846.243408	189.300000
846.277405	194.900000
846.311401	189.000000
846.345337	194.100000
846.379395	197.800000
846.413330	190.300000
846.447327	202.200000
846.481323	189.300000
846.515259	192.300000
846.549255	194.100000
846.583252	195.100000
846.617187	188.400000
846.651184	196.000000
846.685120	192.700000
846.719055	203.000000
846.753052	201.000000
846.786987	199.200000
846.820984	188.800000
846.854980	202.400000
846.888916	190.500000
846.922852	197.400000
846.956848	202.500000
846.990723	189.700000
847.024719	196.000000
847.058716	192.900000
847.092590	203.300000
847.126587	195.600000
847.160522	193.200000
847.194458	199.500000
847.228455	190.100000
847.262390	188.600000
847.296265	193.800000
847.330261	202.000000
847.364136	191.200000
847.398132	190.300000
847.432068	195.300000
847.466003	192.000000
847.499939	193.000000
847.533875	196.300000
847.567749	192.200000
847.601746	192.400000
847.635681	197.600000
847.669556	185.800000
847.703491	200.100000
847.737427	209.000000
847.771301	189.500000
847.805237	195.300000
847.839233	194.800000
847.873108	193.100000
847.907043	193.200000
847.940918	200.800000
847.974854	196.500000
848.008789	197.300000
848.042664	194.200000
848.076538	198.000000
848.110474	193.300000
848.144348	194.900000
848.178284	189.000000
848.212219	194.800000
848.246094	192.800000
848.279968	196.600000
848.313904	198.000000
848.347778	194.800000
848.381653	194.400000
848.415588	191.400000
848.449463	192.800000
848.483337	196.500000
848.517212	200.100000
848.551086	194.900000
848.585022	191.500000
848.618835	202.000000
848.652771	192.600000
848.686646	190.900000
848.720520	204.800000
848.754395	194.100000
848.788330	199.700000
848.822144	199.300000
848.856018	193.200000
848.889954	204.900000
848.923767	190.800000
848.957642	192.100000
848.991577	198.900000
849.025391	193.200000
849.059265	194.400000
849.093079	190.900000
849.126953	188.800000
849.160828	200.300000
849.194641	193.700000
849.228577	192.100000
849.262451	192.100000
849.296265	193.000000
849.330139	189.000000
849.364014	195.100000
849.397827	197.300000
849.431702	194.200000
849.465515	197.800000
849.499329	184.900000
849.533203	188.700000
849.567078	184.500000
849.600891	197.000000
849.634766	193.200000
849.668518	199.700000
849.702393	195.500000
849.736267	187.800000
849.770020	206.200000
849.803894	197.800000
849.837769	194.300000
849.871521	194.500000
849.905396	201.500000
849.939270	189.800000
849.973022	194.800000
850.006897	197.800000
850.040710	198.800000
850.074524	199.500000
850.108337	193.300000
850.142151	198.800000
850.175964	202.300000
850.209778	194.200000
850.243530	180.500000
850.277405	199.400000
850.311218	195.100000
850.344971	191.900000
850.378845	203.400000
850.412659	191.300000
850.446411	195.300000
850.480225	193.600000
850.514038	199.800000
850.547791	197.600000
850.581665	193.000000
850.615417	192.500000
850.649231	195.000000
850.683044	193.400000
850.716858	192.900000
850.750610	194.800000
850.784424	196.400000
850.818176	191.700000
850.851929	193.100000
850.885742	190.600000
850.919495	193.700000
850.953308	199.600000
850.987122	202.700000
851.020874	187.400000
851.054626	186.200000
851.088440	196.800000
851.122192	197.400000
851.156006	194.400000
851.189697	193.500000
851.223511	188.400000
851.257263	198.100000
851.291077	197.300000
851.324829	193.800000
851.358582	190.000000
851.392334	190.100000
851.426086	192.400000
851.459900	202.000000
851.493591	194.800000
851.527344	196.500000
851.561157	193.200000
851.594849	197.600000
851.628662	197.400000
851.662415	203.000000
851.696106	197.700000
851.729858	199.300000
851.763611	188.000000
851.797363	196.100000
851.831116	191.300000
851.864868	197.700000
851.898560	199.200000
851.932312	193.000000
851.966064	197.300000
851.999817	195.200000
852.033569	194.300000
852.067261	198.400000
852.101013	191.200000
852.134766	194.200000
852.168457	183.800000
852.202209	198.900000
852.235901	189.500000
852.269592	198.100000
852.303345	202.700000
852.337036	197.200000
852.370789	194.400000
852.404541	196.600000
852.438171	189.000000
852.471924	192.700000
852.505676	186.800000
852.539307	195.600000
852.573059	190.800000
852.606812	191.200000
852.640442	192.300000
852.674194	199.800000
852.707886	204.200000
852.741577	201.300000
852.775269	188.700000
852.809021	195.100000
852.842651	197.000000
852.876404	198.000000
852.910034	194.100000
852.943787	200.500000
852.977478	196.700000
853.011108	191.900000
853.044861	191.000000
853.078552	201.200000
853.112183	196.200000
853.145874	196.600000
853.179626	185.000000
853.213257	197.200000
853.246948	193.200000
853.280640	203.000000
853.314270	194.400000
853.347961	202.900000
853.381653	196.500000
853.415283	198.800000
853.448975	191.600000
853.482605	195.400000
853.516296	194.000000
853.549988	188.600000
853.583618	195.600000
853.617310	195.200000
853.651001	195.800000
853.684631	189.900000
853.718323	192.800000
853.751953	202.300000
853.785583	185.600000
853.819275	198.000000
853.852966	194.700000
853.886536	185.200000
853.920227	190.100000
853.953918	198.400000
853.987488	192.400000
854.021179	198.000000
854.054749	201.600000
854.088440	196.400000
854.122131	189.600000
854.155701	196.600000
854.189331	190.500000
854.223022	197.100000
854.256592	197.200000
854.290283	191.700000
854.323914	196.700000
854.357483	195.000000
854.391174	196.600000
854.424744	203.300000
854.458374	195.700000
854.492065	205.100000
854.525696	198.700000
854.559265	202.100000
854.592896	206.300000
854.626465	197.200000
854.660095	195.400000
854.693787	196.000000
854.727356	193.400000
854.760986	198.200000
854.794617	195.800000
854.828186	194.300000
854.861816	199.000000
854.895447	195.300000
854.929016	195.800000
854.962585	198.500000
854.996155	203.600000
855.029785	196.900000
855.063416	196.700000
855.097046	199.900000
855.130615	190.100000
855.164185	200.900000
855.197754	194.600000
855.231384	197.900000
855.264954	192.500000
855.298523	198.600000
855.332153	194.800000
855.365723	203.300000
855.399292	190.200000
855.432922	193.800000
855.466492	197.100000
855.500061	189.800000
855.533630	190.200000
855.567200	197.700000
855.600769	199.600000
855.634338	199.600000
855.667969	197.200000
855.701477	191.500000
855.735046	190.100000
855.768616	185.000000
855.802185	195.500000
855.835754	210.700000
855.869324	187.100000
855.902893	192.200000
855.936401	199.200000
855.969971	196.600000
856.003540	187.500000
856.037109	199.200000
856.070618	195.000000
856.104187	188.400000
856.137695	191.100000
856.171265	185.900000
856.204834	194.700000
856.238403	200.900000
856.271912	192.800000
856.305481	196.100000
856.338989	189.200000
856.372559	198.300000
856.406128	195.600000
856.439636	199.500000
856.473145	192.700000
856.506653	202.700000
856.540222	195.500000
856.573792	203.200000
856.607300	199.500000
856.640808	190.400000
856.674377	196.000000
856.707825	224.300000
856.741394	199.300000
856.774902	191.200000
856.808472	186.000000
856.841980	198.100000
856.875488	204.400000
856.908936	187.500000
856.942505	193.900000
856.976013	193.000000
857.009521	190.300000
857.043030	195.600000
857.076477	193.900000
857.110046	201.100000
857.143555	196.900000
857.177063	201.000000
857.210571	192.100000
857.244080	187.300000
857.277527	197.000000
857.311035	193.400000
857.344543	197.300000
857.378052	194.200000
857.411499	199.500000
857.445068	205.000000
857.478516	195.100000
857.512024	189.100000
857.545532	193.500000
857.578979	195.800000
857.612427	194.200000
857.645874	191.900000
857.679382	196.700000
857.712891	198.100000
857.746399	195.700000
857.779846	199.800000
857.813354	200.000000
857.846741	194.000000
857.880249	191.700000
857.913757	195.900000
857.947266	196.900000
857.980652	199.000000
858.014160	192.000000
858.047546	193.700000
858.081055	194.200000
858.114563	203.800000
858.147949	189.800000
858.181458	199.200000
858.214844	193.900000
858.248352	185.700000
858.281799	200.700000
858.315308	208.300000
858.348694	199.700000
858.382141	204.300000
858.415588	198.300000
858.449036	200.800000
858.482483	197.900000
858.515930	191.300000
858.549377	194.200000
858.582825	202.200000
858.616211	197.500000
858.649658	197.000000
858.683105	188.700000
858.716553	191.100000
858.750000	187.900000
858.783386	191.700000
858.816833	184.800000
858.850281	195.300000
858.883728	195.400000
858.917114	193.200000
858.950562	202.600000
858.983948	203.700000
859.017395	197.000000
859.050781	192.000000
859.084167	190.800000
859.117615	187.100000
859.151062	196.700000
859.184448	191.900000
859.217834	191.600000
859.251282	192.000000
859.284668	190.100000
859.318054	184.600000
859.351440	192.100000
859.384888	204.300000
859.418274	186.300000
859.451721	185.500000
859.485046	198.000000
859.518494	196.800000
859.551819	190.700000
859.585266	197.100000
859.618652	197.300000
859.652039	188.900000
859.685425	190.300000
859.718811	188.400000
859.752197	183.200000
859.785583	202.400000
859.819031	203.400000
859.852356	198.900000
859.885742	190.400000
859.919067	194.300000
859.952454	193.000000
859.985901	199.600000
860.019287	192.900000
860.052612	0.000000
860.085999	0.000000
860.119324	0.000000
860.152710	0.000000
860.186096	0.000000
860.219421	0.000000
860.252808	0.000000
860.286133	0.000000
860.319519	0.000000
860.352905	0.000000
860.386292	0.000000
860.419617	0.000000
860.452942	0.000000
860.486267	0.000000
860.519653	0.000000
860.553040	0.000000
860.586365	0.000000
860.619690	0.000000
860.653076	0.000000
860.686340	0.000000
860.719727	0.000000
860.753113	0.000000
860.786377	0.000000
860.819763	0.000000
860.853027	0.000000
860.886414	0.000000
860.919739	0.000000
860.953125	0.000000
860.986389	0.000000
861.019714	0.000000
861.053040	0.000000
861.086365	0.000000
861.119690	0.000000
861.153076	0.000000
861.186340	0.000000
861.219666	0.000000
861.252930	0.000000
861.286316	0.000000
861.319641	0.000000
861.352905	0.000000
861.386230	0.000000
861.419495	0.000000
861.452820	0.000000
861.486145	0.000000
861.519470	0.000000
861.552734	0.000000
861.586060	0.000000
861.619324	0.000000
861.652649	0.000000
861.685974	0.000000
861.719238	0.000000
861.752563	0.000000
861.785828	0.000000
861.819092	0.000000
861.852417	0.000000
861.885742	0.000000
861.918945	0.000000
861.952271	0.000000
861.985535	0.000000
862.018799	0.000000
862.052124	0.000000
862.085449	0.000000
862.118652	0.000000
862.151978	0.000000
862.185181	0.000000
862.218506	0.000000
862.251770	0.000000
862.285034	0.000000
862.318298	0.000000
862.351562	0.000000
862.384827	0.000000
862.418091	0.000000
862.451355	0.000000
862.484619	0.000000
862.517883	0.000000
862.551086	0.000000
862.584351	0.000000
862.617676	0.000000
862.650940	0.000000
862.684143	0.000000
862.717407	0.000000
862.750610	0.000000
862.783875	0.000000
862.817139	0.000000
862.850342	0.000000
862.883606	0.000000
862.916870	0.000000
862.950073	0.000000
862.983337	0.000000
863.016602	0.000000
863.049805	0.000000
863.083069	0.000000
863.116211	0.000000
863.149475	0.000000
863.182739	0.000000
863.216003	0.000000
863.249146	0.000000
863.282410	0.000000
863.315613	0.000000
863.348816	0.000000
863.382080	0.000000
863.415222	0.000000
863.448486	0.000000
863.481689	0.000000
863.514893	0.000000
863.548157	0.000000
863.581360	0.000000
863.614502	0.000000
863.647766	0.000000
863.680908	0.000000
863.714172	0.000000
863.747375	0.000000
863.780579	0.000000
863.813721	0.000000
863.846985	0.000000
863.880127	0.000000
863.913330	0.000000
863.946533	0.000000
863.979675	0.000000
864.012939	0.000000
