Model Number: SPM-001-M   
Serial Number: 10090201
Firmware Version: 004.17.6
Exposure Time: 500000.000000us
Data Taken on: 10-03-2021 11:31:25.978
Wavelength	Amplitude
733.770752	0.000000
733.808716	0.000000
733.846619	0.000000
733.884583	0.000000
733.922546	0.000000
733.960449	0.000000
733.998413	0.000000
734.036377	0.000000
734.074219	0.000000
734.112183	0.000000
734.150085	0.000000
734.188049	0.000000
734.226013	0.000000
734.263916	0.000000
734.301819	0.000000
734.339783	0.000000
734.377686	0.000000
734.415588	0.000000
734.453552	0.000000
734.491455	0.000000
734.529419	0.000000
734.567322	0.000000
734.605225	0.000000
734.643127	0.000000
734.681091	0.000000
734.718994	0.000000
734.756897	0.000000
734.794800	0.000000
734.832703	0.000000
734.870667	0.000000
734.908508	0.000000
734.946472	0.000000
734.984375	0.000000
735.022278	0.000000
735.060181	0.000000
735.098083	0.000000
735.135986	0.000000
735.173889	0.000000
735.211792	0.000000
735.249695	0.000000
735.287598	0.000000
735.325439	0.000000
735.363403	0.000000
735.401306	0.000000
735.439148	0.000000
735.477051	0.000000
735.515015	0.000000
735.552856	0.000000
735.590759	0.000000
735.628662	0.000000
735.666504	0.000000
735.704407	0.000000
735.742310	0.000000
735.780212	0.000000
735.818115	0.000000
735.856018	0.000000
735.893860	0.000000
735.931763	0.000000
735.969604	0.000000
736.007507	0.000000
736.045410	0.000000
736.083252	0.000000
736.121094	0.000000
736.158997	0.000000
736.196838	0.000000
736.234741	0.000000
736.272644	0.000000
736.310486	0.000000
736.348389	0.000000
736.386230	0.000000
736.424072	0.000000
736.461975	0.000000
736.499878	0.000000
736.537720	0.000000
736.575562	0.000000
736.613403	0.000000
736.651306	0.000000
736.689148	0.000000
736.726990	0.000000
736.764893	0.000000
736.802734	0.000000
736.840576	0.000000
736.878418	0.000000
736.916321	0.000000
736.954102	0.000000
736.992004	0.000000
737.029846	0.000000
737.067688	0.000000
737.105530	0.000000
737.143372	0.000000
737.181213	0.000000
737.219116	0.000000
737.256897	0.000000
737.294739	0.000000
737.332642	0.000000
737.370422	0.000000
737.408325	0.000000
737.446167	0.000000
737.483948	0.000000
737.521790	0.000000
737.559692	0.000000
737.597473	0.000000
737.635315	0.000000
737.673157	0.000000
737.710999	0.000000
737.748840	0.000000
737.786621	0.000000
737.824463	0.000000
737.862305	0.000000
737.900085	0.000000
737.937927	0.000000
737.975769	0.000000
738.013550	0.000000
738.051392	0.000000
738.089233	0.000000
738.127014	0.000000
738.164856	0.000000
738.202698	0.000000
738.240479	0.000000
738.278320	0.000000
738.316162	0.000000
738.353943	0.000000
738.391785	0.000000
738.429565	0.000000
738.467407	0.000000
738.505188	0.000000
738.542969	0.000000
738.580811	0.000000
738.618652	0.000000
738.656372	0.000000
738.694214	0.000000
738.732056	0.000000
738.769836	0.000000
738.807617	0.000000
738.845459	0.000000
738.883240	0.000000
738.921021	0.000000
738.958862	0.000000
738.996582	0.000000
739.034424	0.000000
739.072205	0.000000
739.109985	0.000000
739.147827	0.000000
739.185547	0.000000
739.223389	0.000000
739.261169	0.000000
739.298889	0.000000
739.336731	0.000000
739.374512	0.000000
739.412292	0.000000
739.450073	0.000000
739.487854	0.000000
739.525635	0.000000
739.563416	0.000000
739.601135	0.000000
739.638977	0.000000
739.676758	0.000000
739.714478	0.000000
739.752258	0.000000
739.790100	0.000000
739.827820	0.000000
739.865601	0.000000
739.903381	0.000000
739.941101	0.000000
739.978882	195.700000
740.016724	190.800000
740.054443	197.500000
740.092224	189.800000
740.130005	189.600000
740.167725	190.000000
740.205505	189.100000
740.243225	199.800000
740.281006	194.100000
740.318787	184.800000
740.356506	198.700000
740.394287	197.700000
740.432068	189.000000
740.469727	186.600000
740.507507	197.900000
740.545288	193.500000
740.583008	195.700000
740.620789	193.200000
740.658569	184.300000
740.696228	193.300000
740.734009	198.300000
740.771790	181.200000
740.809509	197.000000
740.847229	188.200000
740.884949	190.100000
740.922729	185.300000
740.960449	189.800000
740.998169	188.400000
741.035950	188.000000
741.073669	193.900000
741.111389	193.400000
741.149170	202.600000
741.186890	203.700000
741.224609	195.600000
741.262329	195.100000
741.300110	203.200000
741.337769	188.700000
741.375549	186.800000
741.413208	195.400000
741.450989	186.600000
741.488708	190.200000
741.526367	190.900000
741.564148	196.700000
741.601868	198.400000
741.639526	193.000000
741.677307	194.600000
741.715027	195.800000
741.752686	188.800000
741.790466	198.800000
741.828186	195.600000
741.865845	188.900000
741.903564	184.200000
741.941345	193.100000
741.979004	188.700000
742.016724	195.700000
742.054382	194.000000
742.092102	198.400000
742.129822	184.700000
742.167480	190.800000
742.205200	192.000000
742.242920	194.500000
742.280640	198.200000
742.318359	188.900000
742.356079	189.400000
742.393738	196.900000
742.431396	192.500000
742.469116	196.400000
742.506775	182.600000
742.544495	196.300000
742.582214	195.900000
742.619873	192.000000
742.657593	199.800000
742.695251	196.200000
742.732971	191.700000
742.770630	193.700000
742.808289	191.600000
742.846008	192.000000
742.883728	196.100000
742.921326	193.900000
742.959045	189.900000
742.996765	193.400000
743.034424	193.600000
743.072083	189.900000
743.109802	192.700000
743.147400	186.700000
743.185120	194.500000
743.222839	191.200000
743.260437	198.400000
743.298157	195.000000
743.335754	185.100000
743.373474	189.900000
743.411133	184.000000
743.448792	192.600000
743.486450	192.500000
743.524170	184.000000
743.561768	193.500000
743.599487	199.500000
743.637146	204.400000
743.674744	191.400000
743.712463	190.800000
743.750122	193.400000
743.787720	195.400000
743.825439	189.100000
743.863037	190.500000
743.900696	192.500000
743.938416	217.600000
743.976013	191.500000
744.013672	201.600000
744.051331	197.200000
744.088928	201.600000
744.126587	200.400000
744.164307	194.500000
744.201904	190.300000
744.239563	196.500000
744.277222	195.600000
744.314819	192.900000
744.352478	199.600000
744.390137	195.100000
744.427734	196.600000
744.465393	190.400000
744.502991	188.900000
744.540649	196.300000
744.578308	194.900000
744.615906	186.900000
744.653564	183.200000
744.691223	197.800000
744.728821	184.800000
744.766418	192.000000
744.804077	196.400000
744.841675	190.300000
744.879333	186.000000
744.916992	191.300000
744.954529	190.400000
744.992187	198.400000
745.029785	191.100000
745.067444	188.300000
745.105042	192.700000
745.142639	195.000000
745.180298	202.800000
745.217896	190.400000
745.255493	192.800000
745.293152	197.800000
745.330750	198.500000
745.368347	201.000000
745.405945	196.500000
745.443604	193.400000
745.481140	197.600000
745.518799	191.300000
745.556396	198.600000
745.593994	198.000000
745.631592	193.000000
745.669189	187.100000
745.706787	196.100000
745.744385	189.500000
745.781982	196.600000
745.819580	190.400000
745.857178	191.500000
745.894775	193.600000
745.932373	194.800000
745.969971	193.800000
746.007568	184.600000
746.045166	202.700000
746.082764	197.600000
746.120300	195.900000
746.157898	197.300000
746.195557	192.800000
746.233093	186.400000
746.270691	197.100000
746.308228	195.500000
746.345825	198.900000
746.383423	196.900000
746.420959	189.600000
746.458557	191.000000
746.496155	190.800000
746.533691	192.600000
746.571289	187.600000
746.608887	192.500000
746.646423	194.600000
746.684021	194.400000
746.721619	191.100000
746.759155	194.200000
746.796753	185.800000
746.834351	186.800000
746.871826	190.200000
746.909424	199.800000
746.946960	195.100000
746.984558	191.500000
747.022156	191.300000
747.059631	199.900000
747.097229	195.100000
747.134827	191.000000
747.172363	201.300000
747.209900	194.900000
747.247498	188.700000
747.285034	200.200000
747.322571	201.000000
747.360168	191.700000
747.397644	186.700000
747.435242	196.900000
747.472778	201.100000
747.510315	189.400000
747.547913	190.000000
747.585388	201.000000
747.622925	191.800000
747.660522	184.800000
747.697998	190.100000
747.735596	193.200000
747.773132	190.500000
747.810669	192.100000
747.848206	197.000000
747.885742	187.200000
747.923279	186.500000
747.960815	195.000000
747.998352	193.400000
748.035889	197.700000
748.073425	197.100000
748.110901	189.600000
748.148437	188.700000
748.185974	194.000000
748.223511	202.500000
748.261047	193.500000
748.298584	195.400000
748.336060	192.500000
748.373596	195.800000
748.411133	211.800000
748.448608	188.200000
748.486145	196.700000
748.523682	201.800000
748.561218	200.000000
748.598755	194.600000
748.636292	196.200000
748.673706	191.100000
748.711243	199.700000
748.748718	196.200000
748.786255	193.100000
748.823792	193.100000
748.861267	188.500000
748.898804	195.000000
748.936340	194.900000
748.973816	191.000000
749.011292	199.800000
749.048828	194.800000
749.086304	197.200000
749.123840	206.300000
749.161316	188.800000
749.198792	203.800000
749.236328	200.200000
749.273743	191.900000
749.311279	192.100000
749.348816	195.100000
749.386230	194.000000
749.423767	182.200000
749.461304	196.300000
749.498718	194.500000
749.536255	199.200000
749.573730	206.700000
749.611206	199.800000
749.648682	192.800000
749.686218	192.600000
749.723633	196.600000
749.761169	190.600000
749.798645	189.300000
749.836060	192.500000
749.873596	190.300000
749.911011	193.000000
749.948547	201.000000
749.986023	192.200000
750.023437	192.500000
750.060913	187.000000
750.098450	187.200000
750.135864	192.000000
750.173340	194.100000
750.210815	196.700000
750.248291	186.600000
750.285767	193.700000
750.323242	200.200000
750.360657	194.800000
750.398132	190.000000
750.435608	197.000000
750.473022	189.500000
750.510498	189.000000
750.547974	188.600000
750.585449	190.500000
750.622925	181.700000
750.660339	202.800000
750.697815	192.800000
750.735291	191.900000
750.772644	194.800000
750.810120	190.800000
750.847595	194.700000
750.885010	189.700000
750.922485	202.300000
750.959961	191.800000
750.997375	200.800000
751.034851	198.100000
751.072266	199.700000
751.109680	186.000000
751.147156	199.600000
751.184570	197.200000
751.221985	195.300000
751.259460	184.000000
751.296875	193.500000
751.334290	195.200000
751.371765	199.600000
751.409180	198.100000
751.446594	199.100000
751.484070	196.600000
751.521423	195.900000
751.558899	194.900000
751.596375	201.800000
751.633728	200.000000
751.671204	207.200000
751.708618	189.000000
751.746033	194.300000
751.783447	187.500000
751.820801	189.300000
751.858276	195.200000
751.895691	193.700000
751.933105	191.100000
751.970520	188.100000
752.007935	191.000000
752.045349	198.400000
752.082764	193.700000
752.120178	193.000000
752.157532	190.300000
752.195007	190.600000
752.232422	198.800000
752.269775	198.200000
752.307190	196.600000
752.344543	188.600000
752.382019	192.300000
752.419434	192.000000
752.456787	195.000000
752.494202	198.400000
752.531616	196.500000
752.568970	197.600000
752.606384	195.700000
752.643799	195.700000
752.681152	202.000000
752.718567	196.100000
752.755981	185.800000
752.793335	197.100000
752.830750	186.600000
752.868164	199.700000
752.905518	189.100000
752.942932	197.500000
752.980225	188.800000
753.017639	198.600000
753.055054	192.400000
753.092407	196.200000
753.129822	198.800000
753.167175	204.100000
753.204529	193.300000
753.241943	191.000000
753.279358	188.000000
753.316650	198.400000
753.354065	196.200000
753.391479	197.700000
753.428772	202.800000
753.466187	198.300000
753.503479	186.400000
753.540894	191.500000
753.578308	188.400000
753.615601	187.400000
753.653015	193.800000
753.690369	190.500000
753.727722	189.000000
753.765076	185.400000
753.802490	188.000000
753.839783	184.500000
753.877136	190.900000
753.914551	209.400000
753.951843	188.500000
753.989258	197.500000
754.026611	194.600000
754.063904	195.800000
754.101257	188.200000
754.138611	185.000000
754.175964	196.300000
754.213318	205.400000
754.250610	186.500000
754.288025	189.900000
754.325378	188.500000
754.362671	199.900000
754.400024	192.600000
754.437378	203.500000
754.474670	203.800000
754.512085	190.600000
754.549438	194.300000
754.586731	191.100000
754.624084	192.500000
754.661438	190.100000
754.698730	202.700000
754.736084	191.600000
754.773376	192.200000
754.810730	196.400000
754.848083	190.400000
754.885315	198.600000
754.922668	185.300000
754.960022	187.600000
754.997314	198.600000
755.034668	194.900000
755.072021	195.700000
755.109253	192.300000
755.146606	202.700000
755.183960	193.000000
755.221252	205.300000
755.258545	201.600000
755.295898	200.700000
755.333191	202.700000
755.370544	198.400000
755.407776	193.700000
755.445129	196.000000
755.482422	199.800000
755.519714	192.200000
755.557068	188.300000
755.594360	187.500000
755.631653	200.400000
755.668945	206.200000
755.706299	198.500000
755.743530	210.200000
755.780884	205.400000
755.818176	202.700000
755.855408	203.500000
755.892761	199.400000
755.930054	199.800000
755.967346	201.500000
756.004639	202.300000
756.041870	198.500000
756.079224	203.700000
756.116516	195.100000
756.153748	204.200000
756.191040	205.700000
756.228394	202.800000
756.265625	195.500000
756.302917	198.700000
756.340210	195.900000
756.377441	206.600000
756.414795	207.200000
756.452087	199.300000
756.489319	193.600000
756.526611	203.100000
756.563843	200.700000
756.601135	212.100000
756.638428	208.900000
756.675659	201.400000
756.712952	205.900000
756.750244	205.600000
756.787476	202.500000
756.824768	210.000000
756.862061	200.400000
756.899292	247.700000
756.936584	206.300000
756.973816	215.000000
757.011047	214.800000
757.048340	205.300000
757.085632	203.500000
757.122864	219.100000
757.160156	200.900000
757.197327	207.200000
757.234619	207.400000
757.271912	203.100000
757.309082	209.400000
757.346375	201.200000
757.383667	211.800000
757.420837	206.600000
757.458130	206.200000
757.495422	204.400000
757.532593	207.600000
757.569885	197.400000
757.607117	201.500000
757.644348	207.300000
757.681580	218.200000
757.718811	194.600000
757.756042	205.300000
757.793335	203.500000
757.830505	208.900000
757.867798	202.800000
757.905029	202.600000
757.942200	209.700000
757.979492	203.900000
758.016724	204.800000
758.053894	205.100000
758.091187	226.100000
758.128418	207.400000
758.165588	205.800000
758.202820	219.300000
758.240112	210.500000
758.277283	219.000000
758.314514	210.400000
758.351685	206.000000
758.388916	219.400000
758.426147	216.900000
758.463379	220.400000
758.500610	213.800000
758.537842	211.000000
758.575012	218.300000
758.612244	206.600000
758.649475	223.000000
758.686646	204.500000
758.723877	218.700000
758.761108	219.000000
758.798279	211.500000
758.835510	214.500000
758.872742	219.600000
758.909851	214.700000
758.947083	217.100000
758.984253	215.000000
759.021484	219.300000
759.058716	216.900000
759.095886	219.700000
759.133057	213.000000
759.170288	217.200000
759.207458	209.300000
759.244690	227.000000
759.281860	225.800000
759.319031	214.200000
759.356262	213.200000
759.393433	214.100000
759.430603	215.000000
759.467773	214.000000
759.505005	223.000000
759.542175	222.000000
759.579346	215.000000
759.616516	216.400000
759.653687	218.600000
759.690918	214.600000
759.728027	218.200000
759.765259	218.400000
759.802429	220.900000
759.839539	219.700000
759.876770	223.400000
759.913940	227.700000
759.951111	219.600000
759.988281	218.000000
760.025452	215.300000
760.062561	214.600000
760.099792	227.900000
760.136963	222.100000
760.174072	218.200000
760.211243	212.900000
760.248413	214.300000
760.285583	216.100000
760.322754	230.900000
760.359863	225.600000
760.397034	225.700000
760.434204	218.700000
760.471375	222.200000
760.508545	218.700000
760.545715	220.700000
760.582825	215.900000
760.619995	226.000000
760.657166	215.100000
760.694275	228.000000
760.731445	223.700000
760.768555	225.200000
760.805664	226.100000
760.842834	226.600000
760.879944	226.800000
760.917114	224.100000
760.954285	222.900000
760.991394	218.100000
761.028564	231.900000
761.065674	229.400000
761.102783	222.100000
761.139954	232.300000
761.177124	232.100000
761.214172	233.200000
761.251343	226.100000
761.288452	228.900000
761.325562	231.600000
761.362732	226.200000
761.399841	228.200000
761.436951	230.900000
761.474121	226.800000
761.511169	231.000000
761.548340	234.400000
761.585449	235.100000
761.622559	235.200000
761.659668	234.500000
761.696838	239.700000
761.733887	237.200000
761.771057	231.800000
761.808167	236.500000
761.845276	241.300000
761.882385	249.500000
761.919434	238.300000
761.956604	257.900000
761.993713	234.500000
762.030762	247.100000
762.067871	238.700000
762.105042	237.300000
762.142090	248.400000
762.179199	241.800000
762.216309	246.100000
762.253418	257.900000
762.290527	251.000000
762.327637	247.800000
762.364685	237.600000
762.401794	249.500000
762.438904	247.000000
762.475952	241.900000
762.513062	239.600000
762.550110	241.600000
762.587219	256.900000
762.624329	256.300000
762.661377	251.900000
762.698486	247.600000
762.735596	249.300000
762.772644	242.500000
762.809753	241.300000
762.846863	248.800000
762.883911	252.600000
762.921021	253.000000
762.958069	251.000000
762.995117	259.600000
763.032227	259.000000
763.069336	252.300000
763.106323	247.400000
763.143433	245.200000
763.180481	254.600000
763.217590	255.600000
763.254639	251.900000
763.291687	254.000000
763.328735	263.100000
763.365845	255.600000
763.402893	254.300000
763.439941	259.300000
763.477051	261.800000
763.514038	262.000000
763.551147	256.500000
763.588196	256.400000
763.625244	257.100000
763.662292	263.700000
763.699402	268.600000
763.736389	267.100000
763.773499	273.800000
763.810486	267.500000
763.847534	266.500000
763.884644	264.100000
763.921631	261.100000
763.958679	276.200000
763.995728	265.600000
764.032776	275.900000
764.069824	261.200000
764.106873	269.000000
764.143860	277.900000
764.180969	268.400000
764.218018	277.100000
764.255005	268.100000
764.292053	272.500000
764.329102	283.700000
764.366089	282.100000
764.403137	281.000000
764.440125	269.800000
764.477173	273.600000
764.514221	277.500000
764.551208	274.200000
764.588257	269.200000
764.625305	280.200000
764.662292	286.700000
764.699341	290.500000
764.736389	282.100000
764.773376	298.400000
764.810425	284.300000
764.847473	294.100000
764.884399	287.000000
764.921448	295.600000
764.958435	293.600000
764.995483	281.900000
765.032532	301.400000
765.069458	285.500000
765.106506	286.700000
765.143555	286.100000
765.180481	291.000000
765.217529	298.700000
765.254578	282.100000
765.291504	292.000000
765.328552	290.900000
765.365540	286.700000
765.402527	303.000000
765.439575	286.600000
765.476501	283.400000
765.513550	285.200000
765.550537	290.100000
765.587463	297.600000
765.624512	291.700000
765.661499	283.400000
765.698486	299.400000
765.735474	291.000000
765.772461	292.900000
765.809448	300.800000
765.846436	298.700000
765.883423	303.200000
765.920410	297.900000
765.957397	294.400000
765.994385	299.700000
766.031311	307.700000
766.068359	302.600000
766.105286	303.400000
766.142273	309.800000
766.179260	305.300000
766.216187	297.700000
766.253174	294.900000
766.290161	304.100000
766.327148	306.900000
766.364136	307.000000
766.401123	323.600000
766.438049	302.100000
766.475037	316.400000
766.512024	314.400000
766.548950	327.000000
766.585937	321.900000
766.622864	318.900000
766.659790	315.800000
766.696777	305.600000
766.733704	325.600000
766.770691	315.100000
766.807678	329.600000
766.844604	325.500000
766.881531	324.500000
766.918518	333.000000
766.955444	331.700000
766.992432	326.500000
767.029358	330.000000
767.066284	334.000000
767.103271	331.600000
767.140198	359.400000
767.177124	348.400000
767.214050	338.300000
767.251038	341.000000
767.287964	337.200000
767.324890	335.500000
767.361816	341.500000
767.398743	348.100000
767.435730	344.400000
767.472595	348.300000
767.509583	355.500000
767.546509	339.900000
767.583374	346.700000
767.620361	343.100000
767.657288	349.600000
767.694214	350.800000
767.731140	349.100000
767.768066	350.400000
767.804993	357.900000
767.841919	347.900000
767.878845	356.600000
767.915710	365.000000
767.952698	357.600000
767.989563	359.700000
768.026489	362.400000
768.063416	354.900000
768.100281	356.900000
768.137207	369.400000
768.174133	369.400000
768.211060	368.800000
768.247986	368.800000
768.284912	368.700000
768.321777	371.500000
768.358704	366.300000
768.395630	373.600000
768.432495	365.900000
768.469421	373.400000
768.506348	380.300000
768.543152	387.500000
768.580078	382.100000
768.616943	386.200000
768.653870	387.800000
768.690796	385.300000
768.727661	382.100000
768.764587	384.500000
768.801453	383.000000
768.838318	393.100000
768.875244	393.000000
768.912109	397.900000
768.948975	393.100000
768.985901	394.700000
769.022766	391.500000
769.059631	401.900000
769.096558	394.600000
769.133362	397.900000
769.170288	397.700000
769.207214	400.300000
769.244019	406.400000
769.280945	406.300000
769.317810	412.100000
769.354675	405.900000
769.391541	418.000000
769.428406	413.900000
769.465271	425.900000
769.502136	410.700000
769.539062	417.500000
769.575867	416.400000
769.612732	417.400000
769.649597	425.600000
769.686462	430.300000
769.723328	425.900000
769.760193	422.900000
769.797058	422.500000
769.833923	433.900000
769.870728	429.600000
769.907593	435.100000
769.944519	431.900000
769.981323	436.600000
770.018188	437.900000
770.055054	436.200000
770.091858	438.500000
770.128723	447.200000
770.165588	453.200000
770.202393	438.000000
770.239258	450.200000
770.276062	444.800000
770.312927	445.900000
770.349792	453.700000
770.386597	451.700000
770.423462	458.500000
770.460327	469.300000
770.497131	451.500000
770.533997	447.000000
770.570862	462.900000
770.607605	464.300000
770.644470	456.600000
770.681335	460.900000
770.718140	458.400000
770.754944	449.600000
770.791809	450.500000
770.828613	455.900000
770.865479	457.400000
770.902222	467.200000
770.939087	461.300000
770.975952	451.500000
771.012695	455.800000
771.049561	475.400000
771.086365	460.200000
771.123169	458.300000
771.159973	462.200000
771.196838	461.300000
771.233582	467.500000
771.270447	467.700000
771.307251	467.200000
771.344055	465.600000
771.380859	470.100000
771.417664	463.100000
771.454468	473.700000
771.491272	472.900000
771.528076	472.400000
771.564880	475.900000
771.601685	486.000000
771.638428	474.200000
771.675293	482.200000
771.712097	472.400000
771.748840	490.000000
771.785645	480.300000
771.822449	488.100000
771.859253	488.800000
771.896057	483.000000
771.932861	499.800000
771.969604	487.800000
772.006409	482.800000
772.043213	497.800000
772.079956	493.700000
772.116760	488.600000
772.153503	489.500000
772.190308	502.700000
772.227112	494.200000
772.263855	490.500000
772.300659	497.700000
772.337463	508.300000
772.374207	495.800000
772.411011	493.100000
772.447754	500.800000
772.484497	519.700000
772.521301	510.600000
772.558105	509.900000
772.594849	514.700000
772.631592	520.500000
772.668396	518.900000
772.705139	526.900000
772.741882	524.600000
772.778625	536.600000
772.815430	540.500000
772.852173	537.300000
772.888916	541.500000
772.925720	547.900000
772.962463	557.400000
772.999207	549.300000
773.035950	555.400000
773.072754	552.400000
773.109436	550.000000
773.146240	554.400000
773.182922	556.600000
773.219727	570.000000
773.256470	565.200000
773.293152	549.500000
773.329956	555.500000
773.366699	564.900000
773.403381	554.100000
773.440186	566.800000
773.476929	572.500000
773.513611	561.200000
773.550354	563.100000
773.587158	565.600000
773.623840	562.300000
773.660583	575.300000
773.697327	591.500000
773.734009	577.100000
773.770813	574.000000
773.807495	574.500000
773.844238	579.900000
773.880981	597.500000
773.917664	594.100000
773.954407	598.500000
773.991150	589.900000
774.027832	594.700000
774.064575	586.300000
774.101318	604.200000
774.138000	608.400000
774.174744	603.100000
774.211487	607.200000
774.248108	595.400000
774.284851	592.500000
774.321594	608.100000
774.358276	614.000000
774.395020	622.000000
774.431702	618.700000
774.468384	612.500000
774.505127	609.800000
774.541809	624.900000
774.578491	639.800000
774.615234	641.800000
774.651917	630.500000
774.688599	637.900000
774.725342	642.900000
774.762024	640.300000
774.798706	650.100000
774.835449	650.300000
774.872070	658.000000
774.908813	652.300000
774.945496	649.600000
774.982178	649.700000
775.018860	657.800000
775.055542	659.100000
775.092224	665.700000
775.128967	668.900000
775.165588	667.900000
775.202271	661.700000
775.239014	675.000000
775.275635	677.100000
775.312317	674.100000
775.349060	675.900000
775.385681	675.500000
775.422363	662.500000
775.459045	677.700000
775.495667	685.700000
775.532410	689.700000
775.569092	688.700000
775.605713	687.800000
775.642395	683.000000
775.679016	688.800000
775.715698	693.600000
775.752380	698.100000
775.789001	692.000000
775.825684	686.500000
775.862366	692.000000
775.898987	704.800000
775.935669	692.000000
775.972351	720.900000
776.008972	717.400000
776.045654	715.900000
776.082336	706.100000
776.118958	705.200000
776.155640	711.100000
776.192322	726.700000
776.228882	730.900000
776.265564	723.200000
776.302185	719.700000
776.338867	726.400000
776.375488	711.200000
776.412109	729.700000
776.448792	735.700000
776.485413	738.500000
776.522034	728.600000
776.558716	720.500000
776.595337	719.700000
776.631958	726.800000
776.668579	725.000000
776.705261	734.900000
776.741882	729.000000
776.778503	724.100000
776.815186	719.600000
776.851746	730.200000
776.888367	733.200000
776.924988	740.000000
776.961609	731.100000
776.998291	730.100000
777.034851	720.300000
777.071472	738.700000
777.108154	731.800000
777.144714	746.400000
777.181335	747.500000
777.218018	739.700000
777.254578	741.400000
777.291199	741.500000
777.327759	752.400000
777.364380	759.400000
777.401062	765.700000
777.437622	779.500000
777.474243	764.500000
777.510864	771.900000
777.547424	767.600000
777.584045	775.100000
777.620667	778.900000
777.657227	783.500000
777.693848	782.700000
777.730469	795.400000
777.767029	788.900000
777.803650	793.100000
777.840271	787.600000
777.876831	790.100000
777.913452	797.500000
777.950012	773.800000
777.986633	776.500000
778.023193	773.300000
778.059753	774.000000
778.096375	779.300000
778.132996	788.200000
778.169556	776.900000
778.206116	776.800000
778.242737	773.400000
778.279297	788.200000
778.315857	782.700000
778.352478	792.400000
778.389038	806.900000
778.425598	808.200000
778.462219	819.000000
778.498718	817.700000
778.535339	825.300000
778.571838	828.000000
778.608459	831.300000
778.645020	829.400000
778.681580	841.200000
778.718140	846.200000
778.754761	843.500000
778.791260	848.000000
778.827881	853.300000
778.864441	850.500000
778.900940	858.600000
778.937561	852.900000
778.974121	857.800000
779.010620	838.500000
779.047241	852.600000
779.083801	860.000000
779.120300	859.500000
779.156860	869.000000
779.193359	863.500000
779.229980	865.000000
779.266541	873.000000
779.303040	880.900000
779.339600	870.000000
779.376160	863.800000
779.412659	870.100000
779.449219	863.600000
779.485779	872.000000
779.522278	875.600000
779.558838	884.000000
779.595398	888.800000
779.631897	891.700000
779.668457	883.400000
779.705017	889.100000
779.741516	883.300000
779.778076	877.100000
779.814575	885.500000
779.851074	901.000000
779.887634	893.300000
779.924133	898.400000
779.960693	889.100000
779.997253	902.200000
780.033691	904.000000
780.070251	902.900000
780.106812	917.700000
780.143250	916.200000
780.179810	914.100000
780.216370	916.400000
780.252808	927.400000
780.289368	945.700000
780.325867	944.600000
780.362366	940.200000
780.398865	954.700000
780.435364	943.100000
780.471863	961.100000
780.508423	963.200000
780.544861	972.700000
780.581421	980.200000
780.617920	961.800000
780.654419	959.300000
780.690918	969.000000
780.727417	977.700000
780.763916	976.300000
780.800415	981.100000
780.836914	965.900000
780.873352	970.800000
780.909912	960.900000
780.946411	968.800000
780.982849	984.000000
781.019348	993.100000
781.055786	990.400000
781.092346	985.500000
781.128845	994.200000
781.165283	1010.400000
781.201782	1008.900000
781.238281	1017.500000
781.274719	1017.500000
781.311218	1005.200000
781.347717	1017.700000
781.384155	1006.800000
781.420654	1013.500000
781.457092	1028.800000
781.493591	1023.300000
781.530090	1015.200000
781.566528	1015.100000
781.602966	1019.800000
781.639465	1022.600000
781.675903	1018.500000
781.712402	1026.600000
781.748901	1035.400000
781.785278	1020.200000
781.821777	1030.700000
781.858276	1029.700000
781.894714	1042.100000
781.931152	1034.600000
781.967651	1041.400000
782.004089	1029.500000
782.040527	1036.600000
782.076965	1037.700000
782.113403	1035.600000
782.149902	1046.000000
782.186340	1047.400000
782.222778	1055.800000
782.259277	1032.900000
782.295654	1031.600000
782.332092	1043.200000
782.368591	1048.300000
782.404968	1035.400000
782.441467	1039.000000
782.477905	1036.500000
782.514282	1031.200000
782.550781	1055.300000
782.587219	1055.200000
782.623596	1057.100000
782.660095	1052.800000
782.696472	1063.100000
782.732910	1061.000000
782.769348	1068.000000
782.805786	1087.700000
782.842224	1086.600000
782.878662	1076.700000
782.915039	1079.700000
782.951477	1080.500000
782.987915	1070.900000
783.024292	1076.900000
783.060730	1082.000000
783.097168	1069.300000
783.133545	1064.700000
783.169983	1055.600000
783.206421	1052.600000
783.242798	1050.500000
783.279236	1042.400000
783.315613	1034.700000
783.352051	1026.500000
783.388489	1017.200000
783.424866	1009.400000
783.461304	1011.500000
783.497681	1013.900000
783.534058	1009.500000
783.570496	1000.000000
783.606934	995.600000
783.643250	1002.300000
783.679687	1016.600000
783.716125	1016.100000
783.752441	1024.300000
783.788879	1045.200000
783.825317	1051.000000
783.861633	1055.000000
783.898071	1046.400000
783.934448	1056.700000
783.970825	1062.100000
784.007263	1034.600000
784.043579	1000.300000
784.080017	962.500000
784.116394	906.300000
784.152710	852.800000
784.189148	807.000000
784.225525	763.000000
784.261902	704.100000
784.298279	666.100000
784.334656	634.100000
784.371033	596.500000
784.407410	590.700000
784.443787	581.500000
784.480164	587.000000
784.516541	600.400000
784.552856	642.800000
784.589233	674.900000
784.625610	708.700000
784.661987	784.100000
784.698364	813.100000
784.734741	847.900000
784.771057	884.600000
784.807434	925.100000
784.843811	971.100000
784.880127	995.100000
784.916504	1051.100000
784.952881	1069.600000
784.989197	1076.000000
785.025574	1090.400000
785.061951	1105.200000
785.098267	1142.400000
785.134644	1146.100000
785.170959	1146.400000
785.207275	1159.000000
785.243652	1155.100000
785.279968	1136.900000
785.316345	1149.000000
785.352722	1154.700000
785.388977	1158.100000
785.425354	1141.900000
785.461731	1118.000000
785.498047	1111.400000
785.534363	1104.200000
785.570679	1105.300000
785.606995	1103.600000
785.643372	1108.000000
785.679687	1098.600000
785.716003	1082.700000
785.752380	1079.600000
785.788635	1085.800000
785.825012	1105.800000
785.861328	1114.700000
785.897644	1101.800000
785.933960	1119.800000
785.970337	1127.200000
786.006592	1153.700000
786.042908	1169.700000
786.079285	1187.800000
786.115540	1197.500000
786.151855	1192.500000
786.188171	1177.000000
786.224487	1179.800000
786.260803	1183.300000
786.297119	1203.600000
786.333435	1208.200000
786.369751	1198.000000
786.406006	1190.900000
786.442322	1174.300000
786.478638	1165.900000
786.514954	1184.900000
786.551270	1186.700000
786.587585	1199.700000
786.623840	1174.700000
786.660156	1169.100000
786.696472	1153.500000
786.732727	1149.900000
786.769043	1158.700000
786.805298	1144.600000
786.841614	1149.300000
786.877930	1154.500000
786.914124	1132.300000
786.950439	1148.900000
786.986755	1162.200000
787.023010	1175.300000
787.059326	1182.600000
787.095642	1176.000000
787.131836	1198.000000
787.168152	1185.200000
787.204468	1195.600000
787.240723	1221.900000
787.276978	1240.700000
787.313293	1250.100000
787.349548	1240.100000
787.385803	1238.000000
787.422058	1232.500000
787.458313	1243.700000
787.494629	1246.000000
787.530823	1235.300000
787.567139	1231.200000
787.603455	1216.000000
787.639648	1199.300000
787.675903	1196.300000
787.712219	1198.600000
787.748413	1190.500000
787.784729	1197.000000
787.820984	1190.600000
787.857178	1178.100000
787.893494	1166.500000
787.929749	1162.200000
787.965942	1175.600000
788.002258	1192.300000
788.038452	1197.800000
788.074707	1181.700000
788.110962	1183.800000
788.147217	1182.600000
788.183472	1194.900000
788.219727	1204.400000
788.255920	1228.100000
788.292175	1230.700000
788.328430	1226.800000
788.364624	1207.600000
788.400879	1200.200000
788.437134	1205.600000
788.473328	1209.500000
788.509583	1200.600000
788.545837	1194.300000
788.582031	1186.600000
788.618286	1182.200000
788.654480	1176.900000
788.690735	1181.800000
788.726990	1207.500000
788.763184	1200.200000
788.799377	1211.100000
788.835632	1197.800000
788.871826	1217.100000
788.908081	1216.500000
788.944336	1217.200000
788.980469	1233.500000
789.016724	1225.600000
789.052979	1227.100000
789.089111	1211.600000
789.125366	1207.700000
789.161621	1189.200000
789.197754	1204.000000
789.234009	1192.200000
789.270142	1178.000000
789.306396	1167.100000
789.342590	1155.100000
789.378784	1129.200000
789.414978	1127.900000
789.451233	1146.000000
789.487366	1150.300000
789.523621	1155.900000
789.559814	1150.000000
789.595947	1136.600000
789.632202	1148.600000
789.668335	1163.300000
789.704529	1175.600000
789.740784	1202.400000
789.776917	1199.700000
789.813110	1186.100000
789.849304	1201.100000
789.885498	1201.200000
789.921692	1222.000000
789.957886	1236.400000
789.994019	1239.300000
790.030212	1227.900000
790.066406	1219.100000
790.102539	1215.500000
790.138733	1226.200000
790.174927	1217.800000
790.211060	1238.100000
790.247253	1227.800000
790.283386	1208.100000
790.319580	1193.600000
790.355774	1171.500000
790.391907	1179.800000
790.428101	1209.200000
790.464294	1206.700000
790.500427	1208.300000
790.536621	1192.300000
790.572754	1177.300000
790.608887	1175.500000
790.645081	1187.300000
790.681274	1205.500000
790.717346	1202.900000
790.753540	1161.200000
790.789734	1081.900000
790.825867	1023.200000
790.862000	1032.300000
790.898132	1088.000000
790.934265	1159.300000
790.970459	1223.600000
791.006592	1246.600000
791.042725	1245.000000
791.078918	1236.400000
791.114990	1240.100000
791.151184	1262.900000
791.187317	1290.600000
791.223389	1276.200000
791.259583	1257.800000
791.295715	1266.200000
791.331848	1276.500000
791.367981	1295.000000
791.404114	1301.200000
791.440247	1294.300000
791.476379	1299.800000
791.512451	1276.200000
791.548584	1277.900000
791.584778	1269.300000
791.620850	1289.000000
791.656982	1293.400000
791.693115	1292.700000
791.729187	1282.200000
791.765381	1267.600000
791.801514	1270.500000
791.837585	1269.200000
791.873718	1272.800000
791.909851	1296.700000
791.945923	1307.600000
791.982056	1269.300000
792.018188	1264.500000
792.054260	1270.800000
792.090393	1273.000000
792.126465	1267.800000
792.162598	1279.600000
792.198669	1271.300000
792.234741	1259.900000
792.270874	1247.100000
792.307007	1231.500000
792.343079	1233.600000
792.379150	1250.700000
792.415283	1235.200000
792.451355	1232.000000
792.487488	1213.600000
792.523560	1209.600000
792.559631	1214.000000
792.595764	1212.000000
792.631836	1218.400000
792.667908	1228.700000
792.703979	1203.600000
792.740051	1198.900000
792.776184	1215.700000
792.812256	1221.100000
792.848328	1222.900000
792.884399	1231.100000
792.920471	1222.200000
792.956543	1218.600000
792.992615	1214.300000
793.028748	1215.900000
793.064758	1216.400000
793.100830	1236.500000
793.136963	1249.000000
793.172974	1242.400000
793.209045	1236.200000
793.245178	1242.500000
793.281189	1222.300000
793.317261	1234.400000
793.353271	1241.100000
793.389404	1247.400000
793.425476	1247.200000
793.461487	1226.600000
793.497559	1218.700000
793.533630	1237.600000
793.569641	1234.900000
793.605713	1236.700000
793.641785	1241.900000
793.677795	1248.500000
793.713867	1231.000000
793.749878	1233.700000
793.785950	1244.500000
793.822021	1255.000000
793.858032	1232.500000
793.894104	1244.900000
793.930176	1234.800000
793.966187	1236.500000
794.002258	1221.100000
794.038269	1230.000000
794.074280	1224.800000
794.110352	1248.400000
794.146423	1215.900000
794.182373	1215.400000
794.218445	1208.700000
794.254517	1202.000000
794.290466	1181.100000
794.326538	1183.100000
794.362549	1192.100000
794.398560	1193.000000
794.434631	1192.400000
794.470581	1163.400000
794.506653	1161.000000
794.542664	1160.200000
794.578674	1162.400000
794.614685	1159.000000
794.650757	1154.500000
794.686707	1152.500000
794.722778	1137.400000
794.758789	1147.900000
794.794739	1149.700000
794.830811	1173.300000
794.866821	1195.700000
794.902771	1185.300000
794.938843	1178.100000
794.974792	1170.100000
795.010803	1170.100000
795.046814	1163.400000
795.082825	1157.300000
795.118835	1174.500000
795.154846	1152.200000
795.190796	1157.700000
795.226807	1129.700000
795.262817	1138.300000
795.298767	1136.600000
795.334778	1141.100000
795.370850	1125.900000
795.406799	1130.800000
795.442810	1106.000000
795.478821	1107.100000
795.514709	1108.900000
795.550720	1126.400000
795.586670	1102.500000
795.622681	1109.500000
795.658691	1107.500000
795.694641	1102.600000
795.730652	1090.700000
795.766663	1103.600000
795.802551	1101.800000
795.838562	1112.000000
795.874573	1099.200000
795.910522	1094.600000
795.946472	1084.600000
795.982483	1090.400000
796.018433	1099.100000
796.054382	1106.900000
796.090393	1091.600000
796.126282	1081.800000
796.162292	1067.600000
796.198242	1063.200000
796.234192	1065.200000
796.270203	1061.100000
796.306091	1068.500000
796.342041	1084.500000
796.378052	1071.400000
796.413940	1063.600000
796.449951	1071.500000
796.485901	1063.400000
796.521790	1068.500000
796.557800	1084.400000
796.593689	1084.100000
796.629639	1065.400000
796.665649	1059.300000
796.701599	1055.100000
796.737488	1058.400000
796.773437	1065.100000
796.809387	1065.800000
796.845337	1059.600000
796.881287	1042.000000
796.917175	1028.300000
796.953125	1036.400000
796.989075	1041.800000
797.024963	1053.000000
797.060913	1048.700000
797.096863	1043.800000
797.132751	1034.800000
797.168701	1019.300000
797.204590	1028.000000
797.240540	1031.400000
797.276489	1036.000000
797.312439	1038.900000
797.348328	1030.000000
797.384277	1018.500000
797.420166	1011.700000
797.456055	1013.700000
797.492004	1006.200000
797.527893	1015.400000
797.563843	1023.300000
797.599731	1010.100000
797.635620	993.500000
797.671570	998.700000
797.707520	997.500000
797.743347	1004.900000
797.779297	1008.300000
797.815125	1000.500000
797.851074	986.600000
797.887024	986.100000
797.922913	975.300000
797.958801	991.700000
797.994690	991.600000
798.030579	1000.800000
798.066467	1000.400000
798.102356	983.900000
798.138245	973.400000
798.174133	973.300000
798.210083	984.800000
798.245911	988.000000
798.281799	992.100000
798.317749	986.200000
798.353577	970.300000
798.389465	970.600000
798.425293	967.600000
798.461243	958.100000
798.497131	966.100000
798.532959	974.300000
798.568848	967.300000
798.604736	953.900000
798.640564	940.800000
798.676453	941.300000
798.712402	950.900000
798.748230	960.500000
798.784119	951.400000
798.820007	951.300000
798.855835	950.400000
798.891724	946.000000
798.927551	944.600000
798.963379	951.400000
798.999268	944.600000
799.035095	939.900000
799.070984	925.100000
799.106873	916.900000
799.142700	927.000000
799.178528	920.700000
799.214417	918.800000
799.250244	937.200000
799.286133	927.900000
799.321960	925.500000
799.357788	916.100000
799.393677	911.600000
799.429504	911.400000
799.465332	918.800000
799.501221	924.300000
799.537048	916.400000
799.572876	913.700000
799.608704	912.200000
799.644531	918.000000
799.680359	915.800000
799.716248	924.300000
799.752014	927.100000
799.787903	919.700000
799.823730	916.900000
799.859558	907.400000
799.895386	909.400000
799.931213	909.300000
799.967041	897.600000
800.002869	895.700000
800.038696	910.200000
800.074463	883.200000
800.110352	886.400000
800.146179	877.000000
800.181946	886.400000
800.217773	883.500000
800.253540	880.300000
800.289429	876.800000
800.325256	871.200000
800.361023	859.900000
800.396851	863.800000
800.432678	872.100000
800.468445	867.300000
800.504272	860.600000
800.540100	843.300000
800.575867	841.000000
800.611694	841.700000
800.647461	836.000000
800.683289	836.100000
800.719116	843.100000
800.754883	836.900000
800.790649	823.100000
800.826477	812.500000
800.862244	835.400000
800.898071	818.500000
800.933838	814.800000
800.969604	810.600000
801.005432	808.900000
801.041199	811.300000
801.076965	807.100000
801.112793	792.900000
801.148560	782.700000
801.184326	786.200000
801.220154	792.300000
801.255859	775.600000
801.291687	777.400000
801.327454	771.900000
801.363281	771.300000
801.398987	769.300000
801.434814	772.400000
801.470520	778.600000
801.506287	761.900000
801.542114	757.600000
801.577820	758.800000
801.613647	758.000000
801.649414	750.200000
801.685120	749.200000
801.720886	757.500000
801.756714	745.500000
801.792419	734.900000
801.828186	731.100000
801.863892	737.900000
801.899719	729.100000
801.935486	732.500000
801.971252	735.600000
802.006958	729.000000
802.042725	723.300000
802.078430	722.700000
802.114197	718.200000
802.149963	734.200000
802.185669	719.300000
802.221436	716.500000
802.257202	713.800000
802.292908	713.200000
802.328674	722.900000
802.364441	717.900000
802.400146	709.500000
802.435913	707.400000
802.471558	704.800000
802.507324	698.900000
802.543091	689.200000
802.578796	700.000000
802.614502	699.100000
802.650269	706.500000
802.685974	691.600000
802.721741	695.100000
802.757446	698.800000
802.793152	691.800000
802.828918	700.700000
802.864624	699.400000
802.900330	697.300000
802.936035	690.800000
802.971802	685.300000
803.007446	685.000000
803.043213	672.000000
803.078857	680.900000
803.114624	666.900000
803.150330	672.900000
803.185974	663.500000
803.221741	663.400000
803.257446	670.300000
803.293152	668.200000
803.328857	661.000000
803.364563	658.000000
803.400208	645.900000
803.435974	659.800000
803.471680	651.600000
803.507324	648.000000
803.543030	654.700000
803.578735	656.000000
803.614441	644.900000
803.650146	652.700000
803.685791	636.900000
803.721497	637.000000
803.757202	625.600000
803.792847	638.800000
803.828552	630.500000
803.864258	628.900000
803.899902	621.100000
803.935608	612.100000
803.971313	620.500000
804.006958	621.200000
804.042664	615.100000
804.078308	616.300000
804.113953	610.800000
804.149658	617.600000
804.185364	605.000000
804.221008	618.900000
804.256714	603.000000
804.292297	602.100000
804.328003	600.500000
804.363708	592.500000
804.399292	593.300000
804.434998	591.200000
804.470703	585.500000
804.506287	597.200000
804.541992	591.700000
804.577637	594.400000
804.613281	584.000000
804.648926	576.200000
804.684570	585.100000
804.720215	577.800000
804.755920	579.700000
804.791565	574.000000
804.827209	581.000000
804.862854	572.200000
804.898437	563.600000
804.934143	566.000000
804.969788	566.100000
805.005371	569.400000
805.041077	569.000000
805.076721	567.200000
805.112305	555.800000
805.147949	556.000000
805.183655	553.100000
805.219238	557.600000
805.254883	555.300000
805.290466	560.700000
805.326111	551.900000
805.361755	540.100000
805.397400	550.200000
805.432983	553.500000
805.468628	554.500000
805.504211	557.400000
805.539856	553.700000
805.575500	559.600000
805.611084	547.200000
805.646729	533.800000
805.682373	543.100000
805.717957	551.600000
805.753601	553.500000
805.789246	531.500000
805.824768	543.000000
805.860413	547.000000
805.895996	532.800000
805.931641	534.900000
805.967224	539.600000
806.002869	535.300000
806.038452	541.200000
806.074036	538.000000
806.109619	524.600000
806.145264	523.800000
806.180847	525.400000
806.216431	521.800000
806.252014	524.500000
806.287659	527.300000
806.323181	533.600000
806.358826	527.500000
806.394409	509.600000
806.429993	511.300000
806.465576	525.800000
806.501160	505.900000
806.536743	498.800000
806.572327	512.700000
806.607910	507.800000
806.643494	508.500000
806.679077	502.700000
806.714661	502.400000
806.750244	503.200000
806.785828	496.800000
806.821350	495.200000
806.856934	498.300000
806.892517	494.000000
806.928101	488.400000
806.963684	488.400000
806.999268	500.600000
807.034790	479.000000
807.070374	489.700000
807.105896	480.600000
807.141479	476.800000
807.177063	482.200000
807.212585	474.900000
807.248169	477.500000
807.283752	483.200000
807.319275	474.600000
807.354858	475.600000
807.390381	470.300000
807.425903	471.100000
807.461487	466.100000
807.497070	461.100000
807.532593	462.000000
807.568115	458.400000
807.603699	457.500000
807.639221	451.200000
807.674744	455.400000
807.710266	462.700000
807.745850	461.300000
807.781372	453.700000
807.816895	449.300000
807.852417	451.400000
807.888000	452.500000
807.923523	443.900000
807.959045	452.100000
807.994629	438.200000
808.030090	437.100000
808.065613	442.400000
808.101135	445.400000
808.136658	446.000000
808.172241	436.900000
808.207764	434.400000
808.243225	430.900000
808.278809	426.200000
808.314270	436.700000
808.349792	423.500000
808.385315	425.700000
808.420837	426.600000
808.456360	431.900000
808.491882	429.400000
808.527344	426.400000
808.562866	435.200000
808.598389	423.100000
808.633850	418.600000
808.669434	416.500000
808.704895	425.400000
808.740417	429.100000
808.775940	418.300000
808.811462	416.700000
808.846924	409.700000
808.882385	406.600000
808.917847	404.800000
808.953369	407.200000
808.988892	400.700000
809.024353	410.100000
809.059875	408.500000
809.095398	404.600000
809.130798	397.200000
809.166321	397.200000
809.201843	396.400000
809.237305	396.000000
809.272766	404.200000
809.308228	388.600000
809.343750	389.000000
809.379211	391.600000
809.414734	390.400000
809.450134	398.900000
809.485657	381.600000
809.521118	387.900000
809.556580	385.100000
809.592102	384.900000
809.627502	383.100000
809.663025	378.800000
809.698486	374.500000
809.733887	371.000000
809.769409	375.900000
809.804871	363.600000
809.840271	369.300000
809.875793	371.900000
809.911194	374.500000
809.946655	364.100000
809.982178	362.500000
810.017639	368.300000
810.053040	361.900000
810.088501	360.600000
810.123901	360.500000
810.159424	355.000000
810.194885	352.300000
810.230286	356.800000
810.265747	352.700000
810.301208	348.700000
810.336609	352.300000
810.372070	346.200000
810.407532	348.900000
810.442932	349.000000
810.478394	352.500000
810.513794	348.100000
810.549255	347.800000
810.584717	346.000000
810.620117	336.700000
810.655518	346.400000
810.690979	344.200000
810.726379	344.500000
810.761841	332.200000
810.797302	335.000000
810.832642	334.600000
810.868103	344.900000
810.903564	330.900000
810.938904	340.100000
810.974365	327.600000
811.009827	333.600000
811.045166	328.200000
811.080627	319.200000
811.115967	328.400000
811.151428	336.400000
811.186829	326.200000
811.222229	325.600000
811.257629	320.400000
811.293091	326.200000
811.328430	332.300000
811.363892	327.500000
811.399292	328.100000
811.434631	320.200000
811.470093	325.700000
811.505493	318.100000
811.540833	319.800000
811.576294	325.200000
811.611694	318.600000
811.647034	312.400000
811.682434	315.800000
811.717773	316.800000
811.753235	321.500000
811.788635	314.200000
811.823975	316.900000
811.859375	325.900000
811.894775	307.800000
811.930115	312.200000
811.965515	311.400000
812.000916	316.000000
812.036255	310.500000
812.071655	316.100000
812.106995	307.100000
812.142395	308.300000
812.177795	314.000000
812.213196	312.600000
812.248474	312.700000
812.283875	303.700000
812.319214	306.200000
812.354614	306.900000
812.390015	303.800000
812.425293	304.100000
812.460693	304.100000
812.496094	300.700000
812.531433	293.900000
812.566772	295.000000
812.602173	299.800000
812.637451	299.600000
812.672852	295.900000
812.708191	299.300000
812.743530	293.200000
812.778931	287.500000
812.814270	291.400000
812.849609	297.800000
812.884949	291.800000
812.920227	285.300000
812.955627	304.600000
812.990967	293.000000
813.026306	286.900000
813.061646	276.800000
813.096985	275.800000
813.132324	272.900000
813.167664	277.900000
813.203003	282.400000
813.238281	270.100000
813.273682	271.500000
813.308960	268.100000
813.344299	270.800000
813.379639	282.100000
813.414978	274.100000
813.450256	271.500000
813.485596	275.400000
813.520874	267.500000
813.556213	272.800000
813.591614	277.100000
813.626831	267.600000
813.662170	270.800000
813.697510	282.000000
813.732788	265.300000
813.768127	269.200000
813.803467	269.400000
813.838745	265.100000
813.874084	271.500000
813.909363	268.200000
813.944641	270.200000
813.979980	256.700000
814.015320	265.700000
814.050598	258.900000
814.085876	266.000000
814.121155	263.000000
814.156494	261.300000
814.191772	263.400000
814.227051	256.800000
814.262390	260.000000
814.297668	259.800000
814.332947	261.000000
814.368225	253.000000
814.403564	258.400000
814.438782	253.600000
814.474121	257.600000
814.509338	253.300000
814.544617	263.000000
814.579956	251.500000
814.615173	261.500000
814.650513	258.300000
814.685791	251.400000
814.721008	254.200000
814.756348	256.400000
814.791626	249.900000
814.826843	251.100000
814.862122	250.700000
814.897400	246.400000
814.932678	250.000000
814.967957	249.900000
815.003235	248.200000
815.038452	243.200000
815.073730	240.900000
815.108948	253.500000
815.144226	248.200000
815.179504	252.200000
815.214722	235.800000
815.250000	237.800000
815.285278	243.100000
815.320496	237.400000
815.355774	240.800000
815.391052	244.500000
815.426270	242.000000
815.461487	240.200000
815.496765	235.000000
815.531982	231.100000
815.567261	237.500000
815.602539	246.200000
815.637695	239.800000
815.672974	242.500000
815.708191	240.200000
815.743408	243.400000
815.778687	236.500000
815.813904	247.000000
815.849121	226.300000
815.884399	230.700000
815.919556	229.500000
815.954834	231.000000
815.990051	235.900000
816.025269	238.000000
816.060486	230.200000
816.095703	229.500000
816.130920	232.200000
816.166199	229.000000
816.201416	231.800000
816.236572	237.800000
816.271851	228.700000
816.307007	235.000000
816.342224	224.200000
816.377441	228.500000
816.412659	219.200000
816.447876	231.600000
816.483093	226.100000
816.518250	227.600000
816.553467	224.600000
816.588745	229.300000
816.623901	222.400000
816.659119	217.200000
816.694275	222.400000
816.729492	219.200000
816.764709	256.600000
816.799927	216.100000
816.835083	221.400000
816.870300	215.500000
816.905457	220.800000
816.940674	221.200000
816.975830	216.200000
817.010986	214.100000
817.046204	216.300000
817.081421	214.900000
817.116577	214.400000
817.151733	223.200000
817.186951	222.100000
817.222107	218.500000
817.257324	221.100000
817.292419	218.600000
817.327637	210.700000
817.362854	216.600000
817.398010	210.900000
817.433167	214.400000
817.468323	212.500000
817.503479	214.100000
817.538635	222.000000
817.573853	217.000000
817.608948	215.900000
817.644165	209.700000
817.679321	208.600000
817.714478	209.700000
817.749634	213.900000
817.784790	225.200000
817.819946	220.600000
817.855103	201.300000
817.890198	211.100000
817.925415	203.300000
817.960571	212.200000
817.995667	212.200000
818.030823	213.300000
818.066040	206.800000
818.101135	211.800000
818.136292	209.400000
818.171448	203.700000
818.206543	209.500000
818.241699	212.300000
818.276855	209.100000
818.311951	207.900000
818.347107	203.000000
818.382263	211.100000
818.417358	215.300000
818.452515	215.500000
818.487610	215.600000
818.522766	203.800000
818.557922	215.300000
818.593018	212.300000
818.628113	209.400000
818.663269	203.000000
818.698364	207.600000
818.733521	203.700000
818.768677	210.600000
818.803711	200.600000
818.838867	202.500000
818.874023	205.200000
818.909058	203.100000
818.944214	200.900000
818.979370	208.900000
819.014404	205.800000
819.049561	202.500000
819.084595	208.600000
819.119751	198.900000
819.154846	207.700000
819.189941	203.700000
819.225037	198.700000
819.260193	193.500000
819.295227	198.200000
819.330322	194.100000
819.365479	193.000000
819.400513	226.800000
819.435608	192.100000
819.470764	190.400000
819.505798	194.500000
819.540894	196.600000
819.575989	195.700000
819.611084	203.900000
819.646179	205.100000
819.681213	200.500000
819.716309	196.600000
819.751404	196.500000
819.786438	202.300000
819.821533	193.300000
819.856628	199.200000
819.891663	203.400000
819.926758	208.200000
819.961853	203.100000
819.996887	195.900000
820.031982	202.300000
820.067017	197.600000
820.102112	225.300000
820.137207	195.800000
820.172302	213.100000
820.207275	193.900000
820.242371	193.600000
820.277405	194.100000
820.312500	196.600000
820.347534	199.500000
820.382568	201.500000
820.417664	195.200000
820.452759	196.400000
820.487732	192.400000
820.522827	195.300000
820.557861	192.200000
820.592896	194.000000
820.627930	195.300000
820.662964	193.200000
820.698059	198.000000
820.733093	195.100000
820.768127	198.600000
820.803162	195.200000
820.838196	193.500000
820.873230	197.900000
820.908264	195.300000
820.943298	193.100000
820.978333	200.300000
821.013367	195.300000
821.048401	200.100000
821.083435	201.700000
821.118469	185.600000
821.153503	201.100000
821.188477	196.600000
821.223511	188.400000
821.258484	196.500000
821.293579	195.500000
821.328613	187.600000
821.363647	194.700000
821.398621	189.600000
821.433655	191.800000
821.468628	204.800000
821.503662	192.900000
821.538696	196.300000
821.573669	190.500000
821.608704	198.200000
821.643677	192.000000
821.678650	197.900000
821.713684	204.400000
821.748718	192.300000
821.783691	194.800000
821.818726	195.600000
821.853638	195.700000
821.888672	192.400000
821.923706	194.600000
821.958618	191.000000
821.993652	192.900000
822.028687	199.300000
822.063599	200.800000
822.098633	196.000000
822.133667	189.800000
822.168579	192.700000
822.203613	196.800000
822.238586	190.000000
822.273560	196.700000
822.308533	190.800000
822.343567	190.500000
822.378479	193.100000
822.413452	191.400000
822.448425	188.400000
822.483398	198.500000
822.518372	198.700000
822.553345	190.600000
822.588318	202.000000
822.623291	190.900000
822.658203	191.800000
822.693237	192.700000
822.728210	189.900000
822.763123	194.400000
822.798096	188.500000
822.833069	193.100000
822.867981	193.300000
822.902954	194.400000
822.937927	197.500000
822.972900	205.200000
823.007874	186.900000
823.042725	196.100000
823.077698	204.600000
823.112671	188.500000
823.147583	191.900000
823.182556	195.000000
823.217529	198.000000
823.252441	192.200000
823.287415	206.400000
823.322388	195.800000
823.357239	194.200000
823.392212	200.500000
823.427185	197.500000
823.462097	190.200000
823.497009	197.900000
823.531982	190.300000
823.566895	193.300000
823.601807	188.700000
823.636719	192.600000
823.671631	197.700000
823.706604	192.200000
823.741455	195.600000
823.776428	187.600000
823.811340	197.800000
823.846252	198.400000
823.881165	200.800000
823.916138	196.300000
823.950989	202.600000
823.985901	191.900000
824.020813	195.100000
824.055725	191.300000
824.090637	189.600000
824.125610	196.100000
824.160461	193.900000
824.195374	195.600000
824.230225	198.300000
824.265198	187.000000
824.300110	190.700000
824.334961	204.900000
824.369873	182.700000
824.404785	196.300000
824.439636	200.000000
824.474548	183.600000
824.509460	184.400000
824.544312	197.600000
824.579224	196.000000
824.614075	195.700000
824.648987	192.800000
824.683899	192.400000
824.718811	188.900000
824.753662	200.100000
824.788574	198.500000
824.823364	194.100000
824.858276	189.800000
824.893188	198.500000
824.928040	199.400000
824.962952	196.200000
824.997803	196.800000
825.032654	193.900000
825.067566	198.500000
825.102417	191.300000
825.137268	193.100000
825.172119	193.600000
825.206970	190.900000
825.241882	191.000000
825.276733	190.900000
825.311646	190.400000
825.346436	187.700000
825.381348	188.200000
825.416138	194.300000
825.450989	187.000000
825.485901	185.900000
825.520691	185.000000
825.555542	187.300000
825.590454	193.200000
825.625244	185.100000
825.660095	199.900000
825.695007	196.800000
825.729797	191.500000
825.764648	188.500000
825.799438	191.400000
825.834290	193.400000
825.869202	185.400000
825.903992	195.000000
825.938843	189.700000
825.973694	189.100000
826.008484	205.100000
826.043335	187.300000
826.078186	184.500000
826.112976	199.400000
826.147827	198.200000
826.182678	202.400000
826.217468	185.700000
826.252319	197.200000
826.287109	187.500000
826.321899	201.500000
826.356750	191.200000
826.391541	186.800000
826.426392	198.900000
826.461182	192.900000
826.495972	187.100000
826.530823	183.200000
826.565613	193.000000
826.600403	187.500000
826.635254	195.700000
826.670044	185.200000
826.704834	184.400000
826.739685	187.600000
826.774475	193.300000
826.809265	192.200000
826.844055	190.400000
826.878906	199.800000
826.913635	195.400000
826.948425	195.100000
826.983215	194.700000
827.018005	197.700000
827.052856	191.200000
827.087585	195.200000
827.122375	184.300000
827.157227	192.200000
827.191956	204.800000
827.226746	187.100000
827.261536	197.000000
827.296265	186.000000
827.331116	190.600000
827.365906	195.900000
827.400635	188.800000
827.435425	182.700000
827.470215	200.000000
827.504944	190.800000
827.539734	197.800000
827.574463	191.700000
827.609253	199.900000
827.644043	192.700000
827.678772	199.100000
827.713562	190.300000
827.748352	190.100000
827.783081	188.500000
827.817871	193.500000
827.852600	188.800000
827.887329	193.500000
827.922119	182.300000
827.956848	196.100000
827.991638	206.900000
828.026367	194.300000
828.061157	193.700000
828.095886	191.400000
828.130615	206.900000
828.165344	181.900000
828.200073	193.800000
828.234863	189.800000
828.269592	191.600000
828.304321	197.800000
828.339111	193.700000
828.373779	189.100000
828.408569	199.100000
828.443298	197.800000
828.477966	190.200000
828.512756	192.700000
828.547424	187.700000
828.582214	189.900000
828.616943	191.200000
828.651672	190.100000
828.686340	196.300000
828.721130	187.800000
828.755798	191.400000
828.790527	190.900000
828.825256	193.600000
828.859924	192.900000
828.894714	198.900000
828.929443	199.900000
828.964111	188.700000
828.998840	196.700000
829.033569	189.600000
829.068237	190.400000
829.102966	189.700000
829.137634	194.100000
829.172363	193.700000
829.207092	193.700000
829.241821	189.200000
829.276489	184.200000
829.311157	193.500000
829.345825	190.400000
829.380554	197.200000
829.415283	188.500000
829.449951	186.000000
829.484619	200.900000
829.519348	199.500000
829.554016	192.300000
829.588745	191.600000
829.623413	186.600000
829.658081	203.900000
829.692749	186.400000
829.727417	196.100000
829.762146	193.400000
829.796814	188.700000
829.831482	190.400000
829.866150	194.100000
829.900879	189.400000
829.935486	195.100000
829.970154	190.200000
830.004883	202.300000
830.039490	192.600000
830.074219	188.400000
830.108887	192.500000
830.143494	191.300000
830.178223	186.300000
830.212891	189.900000
830.247498	192.700000
830.282166	199.800000
830.316772	198.100000
830.351501	188.900000
830.386169	191.000000
830.420776	191.100000
830.455444	191.700000
830.490112	189.700000
830.524719	182.100000
830.559387	194.600000
830.594055	194.300000
830.628662	192.200000
830.663330	191.400000
830.697998	200.700000
830.732605	190.700000
830.767273	195.200000
830.801941	192.100000
830.836487	203.200000
830.871155	193.900000
830.905762	194.700000
830.940430	184.500000
830.975098	189.700000
831.009644	193.100000
831.044312	201.000000
831.078979	194.700000
831.113525	185.000000
831.148193	191.900000
831.182861	190.700000
831.217407	193.900000
831.252075	210.100000
831.286621	189.700000
831.321289	188.600000
831.355896	191.100000
831.390564	199.600000
831.425110	193.200000
831.459778	198.900000
831.494324	206.200000
831.528931	195.800000
831.563599	195.900000
831.598145	186.500000
831.632751	191.100000
831.667419	191.700000
831.701965	194.100000
831.736572	196.800000
831.771179	184.900000
831.805786	188.600000
831.840393	197.700000
831.874939	185.600000
831.909546	197.400000
831.944153	183.900000
831.978760	191.300000
832.013306	187.300000
832.047913	200.300000
832.082458	200.000000
832.117065	188.900000
832.151672	202.300000
832.186218	193.200000
832.220825	194.900000
832.255432	184.500000
832.289978	188.400000
832.324585	193.600000
832.359192	192.500000
832.393677	190.000000
832.428284	193.200000
832.462830	191.700000
832.497437	190.200000
832.531982	195.100000
832.566589	189.800000
832.601135	193.800000
832.635681	184.500000
832.670227	192.500000
832.704773	199.800000
832.739380	194.600000
832.773926	193.100000
832.808472	187.700000
832.843079	193.200000
832.877563	196.000000
832.912170	189.600000
832.946716	184.900000
832.981201	199.500000
833.015808	195.800000
833.050293	191.500000
833.084839	188.900000
833.119446	191.700000
833.153992	197.000000
833.188477	191.200000
833.223022	188.600000
833.257568	192.800000
833.292114	199.500000
833.326660	203.900000
833.361145	189.900000
833.395691	184.500000
833.430237	191.900000
833.464783	195.800000
833.499329	189.100000
833.533875	187.200000
833.568359	196.600000
833.602905	198.400000
833.637390	197.500000
833.671875	190.500000
833.706421	190.700000
833.740906	188.300000
833.775452	180.800000
833.809998	190.400000
833.844482	200.700000
833.879028	191.900000
833.913513	187.900000
833.947998	194.300000
833.982544	187.300000
834.017090	189.500000
834.051514	180.300000
834.086060	194.600000
834.120544	190.700000
834.155029	194.600000
834.189575	190.000000
834.223999	195.300000
834.258545	192.800000
834.293030	194.100000
834.327515	192.000000
834.362000	189.400000
834.396545	195.500000
834.430969	190.500000
834.465454	194.800000
834.500000	183.600000
834.534424	194.100000
834.568970	183.300000
834.603455	181.800000
834.637878	188.600000
834.672363	192.400000
834.706909	193.000000
834.741333	191.600000
834.775818	183.800000
834.810242	187.800000
834.844727	194.400000
834.879211	189.400000
834.913635	192.700000
834.948181	194.100000
834.982666	193.200000
835.017090	190.600000
835.051575	194.600000
835.086060	188.800000
835.120483	196.200000
835.154907	196.700000
835.189331	191.600000
835.223816	195.600000
835.258301	186.200000
835.292786	188.100000
835.327209	197.200000
835.361694	189.300000
835.396057	189.300000
835.430542	194.500000
835.465027	193.400000
835.499390	186.600000
835.533875	211.000000
835.568359	190.000000
835.602722	183.300000
835.637207	194.100000
835.671692	186.000000
835.706055	208.400000
835.740540	192.600000
835.774902	195.800000
835.809387	192.800000
835.843811	186.400000
835.878235	198.500000
835.912659	186.100000
835.947083	188.700000
835.981506	191.400000
836.015930	185.100000
836.050354	197.200000
836.084778	201.500000
836.119202	196.500000
836.153625	204.600000
836.187988	188.900000
836.222473	188.600000
836.256897	192.600000
836.291260	191.300000
836.325684	194.900000
836.360046	189.200000
836.394470	191.500000
836.428894	199.000000
836.463318	188.400000
836.497681	197.500000
836.532104	199.700000
836.566467	194.300000
836.600891	190.700000
836.635315	196.800000
836.669678	195.400000
836.704102	195.700000
836.738525	192.400000
836.772888	183.700000
836.807251	189.200000
836.841675	194.600000
836.876038	187.200000
836.910461	189.300000
836.944763	194.600000
836.979187	188.500000
837.013611	198.200000
837.047974	186.500000
837.082336	204.100000
837.116699	195.800000
837.151062	191.400000
837.185486	185.600000
837.219849	191.000000
837.254211	196.000000
837.288574	191.100000
837.322937	188.900000
837.357300	180.000000
837.391663	205.000000
837.426086	197.300000
837.460388	193.500000
837.494751	198.700000
837.529114	190.400000
837.563477	196.200000
837.597839	194.800000
837.632141	192.500000
837.666565	189.700000
837.700928	195.300000
837.735229	196.700000
837.769592	192.900000
837.803955	198.500000
837.838257	191.000000
837.872620	188.900000
837.906982	199.800000
837.941284	193.100000
837.975647	194.700000
838.010010	199.400000
838.044312	190.400000
838.078674	190.000000
838.112976	192.400000
838.147339	196.900000
838.181702	191.700000
838.216003	202.300000
838.250366	193.100000
838.284668	195.300000
838.318970	184.400000
838.353333	193.000000
838.387634	192.500000
838.421936	191.700000
838.456299	193.500000
838.490601	200.400000
838.524902	195.800000
838.559265	197.300000
838.593567	195.600000
838.627869	186.600000
838.662170	196.300000
838.696472	185.700000
838.730774	188.800000
838.765137	198.000000
838.799377	177.100000
838.833740	193.300000
838.868042	198.800000
838.902283	183.400000
838.936646	199.300000
838.970947	192.800000
839.005188	197.300000
839.039551	184.200000
839.073792	200.600000
839.108093	188.500000
839.142395	202.200000
839.176697	184.900000
839.210937	194.400000
839.245300	203.700000
839.279541	186.500000
839.313843	190.500000
839.348145	195.000000
839.382385	196.500000
839.416687	196.900000
839.450989	195.400000
839.485229	192.100000
839.519531	187.800000
839.553833	199.500000
839.588013	193.100000
839.622314	193.200000
839.656555	195.500000
839.690857	192.100000
839.725159	185.200000
839.759460	190.900000
839.793640	190.100000
839.827942	191.500000
839.862183	188.900000
839.896423	194.200000
839.930725	201.600000
839.964966	199.600000
839.999207	201.600000
840.033508	199.300000
840.067688	190.400000
840.101990	201.800000
840.136230	192.700000
840.170471	200.200000
840.204712	189.600000
840.238953	186.900000
840.273193	193.400000
840.307434	196.100000
840.341736	188.800000
840.375916	185.400000
840.410217	189.500000
840.444397	197.100000
840.478638	195.200000
840.512878	199.500000
840.547119	194.300000
840.581360	194.800000
840.615601	203.600000
840.649780	201.900000
840.684021	192.900000
840.718262	201.500000
840.752441	198.600000
840.786682	194.300000
840.820862	195.500000
840.855103	200.500000
840.889343	193.400000
840.923584	196.800000
840.957764	196.000000
840.992004	195.000000
841.026184	207.400000
841.060425	190.800000
841.094666	189.900000
841.128845	196.800000
841.163025	194.800000
841.197266	194.500000
841.231445	195.500000
841.265686	192.000000
841.299866	189.600000
841.334045	200.100000
841.368286	191.800000
841.402405	200.800000
841.436646	196.800000
841.470825	190.200000
841.505005	192.100000
841.539185	188.200000
841.573425	189.600000
841.607544	193.400000
841.641785	193.500000
841.675964	187.600000
841.710144	193.700000
841.744324	191.800000
841.778503	191.800000
841.812683	188.400000
841.846863	201.000000
841.881042	200.000000
841.915222	191.100000
841.949402	209.100000
841.983521	183.900000
842.017700	191.600000
842.051880	195.100000
842.086060	194.100000
842.120239	193.400000
842.154419	191.500000
842.188538	193.700000
842.222717	189.900000
842.256897	202.900000
842.291016	192.200000
842.325195	195.100000
842.359375	204.700000
842.393494	201.200000
842.427673	193.600000
842.461853	197.000000
842.495911	202.600000
842.530090	195.500000
842.564209	193.800000
842.598389	194.200000
842.632568	195.300000
842.666626	196.600000
842.700806	191.200000
842.734985	191.000000
842.769043	197.000000
842.803223	191.400000
842.837402	192.100000
842.871460	190.300000
842.905640	201.500000
842.939697	188.400000
842.973877	195.500000
843.007996	198.400000
843.042175	202.700000
843.076233	189.900000
843.110413	196.300000
843.144470	202.200000
843.178589	196.400000
843.212769	190.900000
843.246826	198.200000
843.280945	190.600000
843.315125	190.800000
843.349182	188.800000
843.383301	200.800000
843.417419	206.400000
843.451538	194.100000
843.485657	191.200000
843.519714	192.800000
843.553833	195.500000
843.587952	190.600000
843.622070	189.300000
843.656128	196.300000
843.690247	192.100000
843.724304	190.200000
843.758423	194.900000
843.792542	191.500000
843.826599	194.100000
843.860718	191.100000
843.894836	186.800000
843.928894	193.100000
843.963013	194.900000
843.997070	188.800000
844.031128	189.600000
844.065247	198.800000
844.099304	200.100000
844.133362	193.500000
844.167480	197.500000
844.201599	200.400000
844.235596	196.000000
844.269714	194.000000
844.303711	195.500000
844.337830	185.500000
844.371948	197.200000
844.405945	192.600000
844.440063	188.500000
844.474121	207.400000
844.508118	194.300000
844.542236	191.800000
844.576294	192.200000
844.610352	189.000000
844.644409	193.300000
844.678406	184.800000
844.712524	199.100000
844.746582	200.800000
844.780640	193.400000
844.814636	193.800000
844.848755	204.700000
844.882751	192.400000
844.916809	199.900000
844.950867	196.200000
844.984863	202.100000
845.018921	192.800000
845.052979	190.300000
845.086975	194.900000
845.121033	186.900000
845.155090	188.800000
845.189087	200.500000
845.223145	191.600000
845.257141	193.800000
845.291199	196.000000
845.325256	203.600000
845.359253	195.200000
845.393250	203.400000
845.427307	193.400000
845.461304	195.700000
845.495361	194.400000
845.529358	203.000000
845.563354	192.100000
845.597412	190.500000
845.631409	201.100000
845.665405	200.100000
845.699463	198.500000
845.733459	191.800000
845.767456	202.200000
845.801453	192.200000
845.835449	200.900000
845.869446	198.100000
845.903503	199.500000
845.937439	190.000000
845.971497	201.900000
846.005493	187.400000
846.039429	198.500000
846.073486	202.100000
846.107483	193.400000
846.141418	194.400000
846.175476	194.200000
846.209473	200.300000
846.243408	189.700000
846.277405	194.700000
846.311401	190.000000
846.345337	194.000000
846.379395	200.800000
846.413330	191.100000
846.447327	202.000000
846.481323	189.300000
846.515259	190.400000
846.549255	194.200000
846.583252	197.300000
846.617187	189.100000
846.651184	196.200000
846.685120	191.700000
846.719055	201.600000
846.753052	199.000000
846.786987	199.300000
846.820984	188.200000
846.854980	201.200000
846.888916	189.600000
846.922852	196.300000
846.956848	204.000000
846.990723	189.500000
847.024719	195.000000
847.058716	191.800000
847.092590	202.800000
847.126587	194.700000
847.160522	191.300000
847.194458	197.200000
847.228455	190.200000
847.262390	188.500000
847.296265	192.400000
847.330261	200.600000
847.364136	192.500000
847.398132	188.500000
847.432068	193.400000
847.466003	191.200000
847.499939	192.000000
847.533875	195.400000
847.567749	191.500000
847.601746	191.000000
847.635681	197.000000
847.669556	183.900000
847.703491	199.500000
847.737427	210.200000
847.771301	189.400000
847.805237	194.800000
847.839233	194.600000
847.873108	193.200000
847.907043	193.000000
847.940918	201.400000
847.974854	196.000000
848.008789	198.900000
848.042664	194.900000
848.076538	198.200000
848.110474	194.600000
848.144348	195.000000
848.178284	188.800000
848.212219	193.600000
848.246094	191.000000
848.279968	195.000000
848.313904	195.600000
848.347778	194.900000
848.381653	192.000000
848.415588	190.600000
848.449463	190.900000
848.483337	196.900000
848.517212	198.400000
848.551086	194.000000
848.585022	190.800000
848.618835	202.900000
848.652771	190.500000
848.686646	189.000000
848.720520	200.700000
848.754395	192.000000
848.788330	198.000000
848.822144	199.500000
848.856018	190.900000
848.889954	203.000000
848.923767	189.400000
848.957642	190.900000
848.991577	197.800000
849.025391	190.500000
849.059265	191.900000
849.093079	191.000000
849.126953	188.000000
849.160828	199.900000
849.194641	195.100000
849.228577	191.400000
849.262451	192.000000
849.296265	191.800000
849.330139	188.600000
849.364014	195.200000
849.397827	197.300000
849.431702	194.600000
849.465515	198.300000
849.499329	184.800000
849.533203	188.100000
849.567078	182.500000
849.600891	197.300000
849.634766	192.700000
849.668518	199.700000
849.702393	193.300000
849.736267	185.700000
849.770020	206.800000
849.803894	197.600000
849.837769	193.200000
849.871521	195.800000
849.905396	198.600000
849.939270	189.200000
849.973022	191.700000
850.006897	197.800000
850.040710	195.600000
850.074524	197.600000
850.108337	191.500000
850.142151	197.500000
850.175964	200.500000
850.209778	193.800000
850.243530	181.600000
850.277405	200.000000
850.311218	192.100000
850.344971	190.900000
850.378845	202.300000
850.412659	191.400000
850.446411	193.800000
850.480225	193.400000
850.514038	198.500000
850.547791	197.700000
850.581665	192.400000
850.615417	191.500000
850.649231	196.100000
850.683044	193.200000
850.716858	193.200000
850.750610	193.700000
850.784424	197.900000
850.818176	190.800000
850.851929	190.900000
850.885742	190.100000
850.919495	193.200000
850.953308	200.700000
850.987122	201.500000
851.020874	188.300000
851.054626	186.300000
851.088440	197.700000
851.122192	197.600000
851.156006	194.400000
851.189697	193.300000
851.223511	189.900000
851.257263	199.200000
851.291077	197.500000
851.324829	193.400000
851.358582	189.800000
851.392334	192.900000
851.426086	192.000000
851.459900	202.700000
851.493591	195.000000
851.527344	194.900000
851.561157	192.900000
851.594849	197.600000
851.628662	195.700000
851.662415	202.200000
851.696106	196.600000
851.729858	199.500000
851.763611	188.900000
851.797363	195.800000
851.831116	191.100000
851.864868	197.300000
851.898560	196.300000
851.932312	192.500000
851.966064	195.700000
851.999817	194.300000
852.033569	193.900000
852.067261	199.500000
852.101013	189.100000
852.134766	193.700000
852.168457	183.100000
852.202209	198.700000
852.235901	190.200000
852.269592	197.500000
852.303345	202.800000
852.337036	198.200000
852.370789	194.200000
852.404541	197.100000
852.438171	190.600000
852.471924	192.700000
852.505676	187.500000
852.539307	196.400000
852.573059	191.300000
852.606812	191.200000
852.640442	191.600000
852.674194	201.300000
852.707886	205.300000
852.741577	202.700000
852.775269	188.200000
852.809021	195.300000
852.842651	196.900000
852.876404	198.900000
852.910034	196.000000
852.943787	200.100000
852.977478	197.700000
853.011108	192.400000
853.044861	192.500000
853.078552	201.900000
853.112183	195.700000
853.145874	195.900000
853.179626	185.100000
853.213257	196.500000
853.246948	191.700000
853.280640	202.200000
853.314270	193.800000
853.347961	201.200000
853.381653	197.600000
853.415283	196.900000
853.448975	190.900000
853.482605	194.500000
853.516296	193.900000
853.549988	188.500000
853.583618	195.500000
853.617310	195.400000
853.651001	196.900000
853.684631	188.100000
853.718323	192.900000
853.751953	202.500000
853.785583	184.300000
853.819275	198.300000
853.852966	195.500000
853.886536	184.300000
853.920227	188.500000
853.953918	198.600000
853.987488	191.900000
854.021179	197.000000
854.054749	202.900000
854.088440	195.400000
854.122131	189.500000
854.155701	197.900000
854.189331	190.900000
854.223022	198.200000
854.256592	197.400000
854.290283	190.400000
854.323914	198.200000
854.357483	195.400000
854.391174	196.600000
854.424744	205.500000
854.458374	195.600000
854.492065	205.700000
854.525696	192.300000
854.559265	201.800000
854.592896	205.400000
854.626465	195.500000
854.660095	195.600000
854.693787	196.400000
854.727356	192.300000
854.760986	198.500000
854.794617	195.900000
854.828186	194.500000
854.861816	197.700000
854.895447	195.000000
854.929016	195.000000
854.962585	197.500000
854.996155	200.800000
855.029785	196.500000
855.063416	195.300000
855.097046	198.900000
855.130615	189.200000
855.164185	200.800000
855.197754	193.500000
855.231384	198.800000
855.264954	192.500000
855.298523	197.900000
855.332153	195.200000
855.365723	205.500000
855.399292	190.700000
855.432922	193.100000
855.466492	195.800000
855.500061	190.000000
855.533630	191.400000
855.567200	198.600000
855.600769	199.200000
855.634338	199.200000
855.667969	197.200000
855.701477	191.100000
855.735046	191.200000
855.768616	186.600000
855.802185	197.400000
855.835754	210.200000
855.869324	187.100000
855.902893	194.300000
855.936401	201.000000
855.969971	194.200000
856.003540	188.700000
856.037109	199.900000
856.070618	194.600000
856.104187	188.100000
856.137695	192.200000
856.171265	184.500000
856.204834	195.100000
856.238403	200.200000
856.271912	192.300000
856.305481	195.000000
856.338989	188.500000
856.372559	196.200000
856.406128	196.500000
856.439636	199.400000
856.473145	193.300000
856.506653	201.300000
856.540222	195.500000
856.573792	202.400000
856.607300	199.000000
856.640808	189.500000
856.674377	196.500000
856.707825	221.600000
856.741394	199.400000
856.774902	189.100000
856.808472	186.800000
856.841980	196.900000
856.875488	203.200000
856.908936	186.700000
856.942505	193.000000
856.976013	193.500000
857.009521	190.500000
857.043030	195.800000
857.076477	194.600000
857.110046	198.700000
857.143555	195.700000
857.177063	200.700000
857.210571	191.400000
857.244080	188.700000
857.277527	197.600000
857.311035	194.300000
857.344543	199.300000
857.378052	193.100000
857.411499	198.300000
857.445068	203.600000
857.478516	193.700000
857.512024	189.000000
857.545532	192.800000
857.578979	196.500000
857.612427	194.800000
857.645874	190.500000
857.679382	196.400000
857.712891	197.700000
857.746399	193.400000
857.779846	201.200000
857.813354	199.000000
857.846741	193.400000
857.880249	189.900000
857.913757	196.700000
857.947266	195.200000
857.980652	197.100000
858.014160	191.100000
858.047546	193.400000
858.081055	193.200000
858.114563	201.400000
858.147949	188.200000
858.181458	199.200000
858.214844	193.000000
858.248352	186.000000
858.281799	199.500000
858.315308	207.900000
858.348694	197.300000
858.382141	201.900000
858.415588	197.500000
858.449036	200.100000
858.482483	196.900000
858.515930	190.000000
858.549377	193.500000
858.582825	202.500000
858.616211	197.900000
858.649658	197.400000
858.683105	188.800000
858.716553	190.800000
858.750000	189.400000
858.783386	193.400000
858.816833	185.600000
858.850281	197.200000
858.883728	195.700000
858.917114	194.000000
858.950562	202.900000
858.983948	204.200000
859.017395	199.300000
859.050781	192.300000
859.084167	191.700000
859.117615	188.600000
859.151062	196.900000
859.184448	191.300000
859.217834	191.800000
859.251282	193.100000
859.284668	190.500000
859.318054	185.200000
859.351440	192.400000
859.384888	203.600000
859.418274	186.300000
859.451721	185.200000
859.485046	197.100000
859.518494	195.800000
859.551819	190.900000
859.585266	196.600000
859.618652	197.100000
859.652039	188.500000
859.685425	190.100000
859.718811	187.800000
859.752197	183.800000
859.785583	199.600000
859.819031	202.500000
859.852356	196.200000
859.885742	192.600000
859.919067	193.100000
859.952454	192.500000
859.985901	200.000000
860.019287	192.700000
860.052612	0.000000
860.085999	0.000000
860.119324	0.000000
860.152710	0.000000
860.186096	0.000000
860.219421	0.000000
860.252808	0.000000
860.286133	0.000000
860.319519	0.000000
860.352905	0.000000
860.386292	0.000000
860.419617	0.000000
860.452942	0.000000
860.486267	0.000000
860.519653	0.000000
860.553040	0.000000
860.586365	0.000000
860.619690	0.000000
860.653076	0.000000
860.686340	0.000000
860.719727	0.000000
860.753113	0.000000
860.786377	0.000000
860.819763	0.000000
860.853027	0.000000
860.886414	0.000000
860.919739	0.000000
860.953125	0.000000
860.986389	0.000000
861.019714	0.000000
861.053040	0.000000
861.086365	0.000000
861.119690	0.000000
861.153076	0.000000
861.186340	0.000000
861.219666	0.000000
861.252930	0.000000
861.286316	0.000000
861.319641	0.000000
861.352905	0.000000
861.386230	0.000000
861.419495	0.000000
861.452820	0.000000
861.486145	0.000000
861.519470	0.000000
861.552734	0.000000
861.586060	0.000000
861.619324	0.000000
861.652649	0.000000
861.685974	0.000000
861.719238	0.000000
861.752563	0.000000
861.785828	0.000000
861.819092	0.000000
861.852417	0.000000
861.885742	0.000000
861.918945	0.000000
861.952271	0.000000
861.985535	0.000000
862.018799	0.000000
862.052124	0.000000
862.085449	0.000000
862.118652	0.000000
862.151978	0.000000
862.185181	0.000000
862.218506	0.000000
862.251770	0.000000
862.285034	0.000000
862.318298	0.000000
862.351562	0.000000
862.384827	0.000000
862.418091	0.000000
862.451355	0.000000
862.484619	0.000000
862.517883	0.000000
862.551086	0.000000
862.584351	0.000000
862.617676	0.000000
862.650940	0.000000
862.684143	0.000000
862.717407	0.000000
862.750610	0.000000
862.783875	0.000000
862.817139	0.000000
862.850342	0.000000
862.883606	0.000000
862.916870	0.000000
862.950073	0.000000
862.983337	0.000000
863.016602	0.000000
863.049805	0.000000
863.083069	0.000000
863.116211	0.000000
863.149475	0.000000
863.182739	0.000000
863.216003	0.000000
863.249146	0.000000
863.282410	0.000000
863.315613	0.000000
863.348816	0.000000
863.382080	0.000000
863.415222	0.000000
863.448486	0.000000
863.481689	0.000000
863.514893	0.000000
863.548157	0.000000
863.581360	0.000000
863.614502	0.000000
863.647766	0.000000
863.680908	0.000000
863.714172	0.000000
863.747375	0.000000
863.780579	0.000000
863.813721	0.000000
863.846985	0.000000
863.880127	0.000000
863.913330	0.000000
863.946533	0.000000
863.979675	0.000000
864.012939	0.000000
