Model Number: SPM-001-M   
Serial Number: 10090201
Firmware Version: 004.17.6
Exposure Time: 500000.000000us
Data Taken on: 10-03-2021 10:58:47.489
Wavelength	Amplitude
733.770752	0.000000
733.808716	0.000000
733.846619	0.000000
733.884583	0.000000
733.922546	0.000000
733.960449	0.000000
733.998413	0.000000
734.036377	0.000000
734.074219	0.000000
734.112183	0.000000
734.150085	0.000000
734.188049	0.000000
734.226013	0.000000
734.263916	0.000000
734.301819	0.000000
734.339783	0.000000
734.377686	0.000000
734.415588	0.000000
734.453552	0.000000
734.491455	0.000000
734.529419	0.000000
734.567322	0.000000
734.605225	0.000000
734.643127	0.000000
734.681091	0.000000
734.718994	0.000000
734.756897	0.000000
734.794800	0.000000
734.832703	0.000000
734.870667	0.000000
734.908508	0.000000
734.946472	0.000000
734.984375	0.000000
735.022278	0.000000
735.060181	0.000000
735.098083	0.000000
735.135986	0.000000
735.173889	0.000000
735.211792	0.000000
735.249695	0.000000
735.287598	0.000000
735.325439	0.000000
735.363403	0.000000
735.401306	0.000000
735.439148	0.000000
735.477051	0.000000
735.515015	0.000000
735.552856	0.000000
735.590759	0.000000
735.628662	0.000000
735.666504	0.000000
735.704407	0.000000
735.742310	0.000000
735.780212	0.000000
735.818115	0.000000
735.856018	0.000000
735.893860	0.000000
735.931763	0.000000
735.969604	0.000000
736.007507	0.000000
736.045410	0.000000
736.083252	0.000000
736.121094	0.000000
736.158997	0.000000
736.196838	0.000000
736.234741	0.000000
736.272644	0.000000
736.310486	0.000000
736.348389	0.000000
736.386230	0.000000
736.424072	0.000000
736.461975	0.000000
736.499878	0.000000
736.537720	0.000000
736.575562	0.000000
736.613403	0.000000
736.651306	0.000000
736.689148	0.000000
736.726990	0.000000
736.764893	0.000000
736.802734	0.000000
736.840576	0.000000
736.878418	0.000000
736.916321	0.000000
736.954102	0.000000
736.992004	0.000000
737.029846	0.000000
737.067688	0.000000
737.105530	0.000000
737.143372	0.000000
737.181213	0.000000
737.219116	0.000000
737.256897	0.000000
737.294739	0.000000
737.332642	0.000000
737.370422	0.000000
737.408325	0.000000
737.446167	0.000000
737.483948	0.000000
737.521790	0.000000
737.559692	0.000000
737.597473	0.000000
737.635315	0.000000
737.673157	0.000000
737.710999	0.000000
737.748840	0.000000
737.786621	0.000000
737.824463	0.000000
737.862305	0.000000
737.900085	0.000000
737.937927	0.000000
737.975769	0.000000
738.013550	0.000000
738.051392	0.000000
738.089233	0.000000
738.127014	0.000000
738.164856	0.000000
738.202698	0.000000
738.240479	0.000000
738.278320	0.000000
738.316162	0.000000
738.353943	0.000000
738.391785	0.000000
738.429565	0.000000
738.467407	0.000000
738.505188	0.000000
738.542969	0.000000
738.580811	0.000000
738.618652	0.000000
738.656372	0.000000
738.694214	0.000000
738.732056	0.000000
738.769836	0.000000
738.807617	0.000000
738.845459	0.000000
738.883240	0.000000
738.921021	0.000000
738.958862	0.000000
738.996582	0.000000
739.034424	0.000000
739.072205	0.000000
739.109985	0.000000
739.147827	0.000000
739.185547	0.000000
739.223389	0.000000
739.261169	0.000000
739.298889	0.000000
739.336731	0.000000
739.374512	0.000000
739.412292	0.000000
739.450073	0.000000
739.487854	0.000000
739.525635	0.000000
739.563416	0.000000
739.601135	0.000000
739.638977	0.000000
739.676758	0.000000
739.714478	0.000000
739.752258	0.000000
739.790100	0.000000
739.827820	0.000000
739.865601	0.000000
739.903381	0.000000
739.941101	0.000000
739.978882	195.800000
740.016724	192.300000
740.054443	196.500000
740.092224	189.400000
740.130005	188.100000
740.167725	189.100000
740.205505	188.500000
740.243225	199.100000
740.281006	194.400000
740.318787	184.400000
740.356506	198.500000
740.394287	198.200000
740.432068	185.900000
740.469727	186.200000
740.507507	197.300000
740.545288	190.800000
740.583008	195.000000
740.620789	194.800000
740.658569	184.900000
740.696228	193.400000
740.734009	199.100000
740.771790	180.000000
740.809509	197.200000
740.847229	188.800000
740.884949	191.300000
740.922729	186.300000
740.960449	191.500000
740.998169	186.900000
741.035950	188.700000
741.073669	193.700000
741.111389	193.700000
741.149170	201.600000
741.186890	203.700000
741.224609	196.600000
741.262329	194.400000
741.300110	202.700000
741.337769	187.100000
741.375549	187.100000
741.413208	194.600000
741.450989	189.100000
741.488708	191.200000
741.526367	190.600000
741.564148	195.800000
741.601868	197.200000
741.639526	192.100000
741.677307	194.100000
741.715027	194.500000
741.752686	188.300000
741.790466	199.200000
741.828186	196.300000
741.865845	187.900000
741.903564	184.300000
741.941345	192.200000
741.979004	188.200000
742.016724	195.100000
742.054382	195.000000
742.092102	199.100000
742.129822	184.100000
742.167480	189.700000
742.205200	192.000000
742.242920	193.100000
742.280640	197.700000
742.318359	189.400000
742.356079	189.400000
742.393738	196.400000
742.431396	192.600000
742.469116	196.400000
742.506775	182.700000
742.544495	195.100000
742.582214	196.700000
742.619873	192.400000
742.657593	201.800000
742.695251	197.200000
742.732971	192.800000
742.770630	195.000000
742.808289	193.700000
742.846008	194.200000
742.883728	195.700000
742.921326	193.200000
742.959045	189.200000
742.996765	194.000000
743.034424	191.900000
743.072083	188.900000
743.109802	193.200000
743.147400	186.400000
743.185120	194.400000
743.222839	192.900000
743.260437	198.600000
743.298157	195.200000
743.335754	184.000000
743.373474	190.100000
743.411133	184.200000
743.448792	193.000000
743.486450	193.000000
743.524170	184.400000
743.561768	192.800000
743.599487	199.500000
743.637146	204.400000
743.674744	191.000000
743.712463	189.500000
743.750122	193.600000
743.787720	195.500000
743.825439	189.000000
743.863037	190.200000
743.900696	192.300000
743.938416	217.300000
743.976013	192.100000
744.013672	200.700000
744.051331	197.400000
744.088928	201.800000
744.126587	198.600000
744.164307	193.500000
744.201904	190.500000
744.239563	196.200000
744.277222	194.100000
744.314819	192.900000
744.352478	200.200000
744.390137	194.600000
744.427734	195.100000
744.465393	190.800000
744.502991	188.300000
744.540649	197.000000
744.578308	194.300000
744.615906	187.600000
744.653564	184.100000
744.691223	197.500000
744.728821	185.500000
744.766418	192.500000
744.804077	195.000000
744.841675	190.200000
744.879333	184.900000
744.916992	191.900000
744.954529	191.000000
744.992187	199.200000
745.029785	190.700000
745.067444	190.000000
745.105042	194.000000
745.142639	194.100000
745.180298	203.600000
745.217896	190.700000
745.255493	191.900000
745.293152	197.900000
745.330750	195.100000
745.368347	200.600000
745.405945	196.400000
745.443604	194.500000
745.481140	197.700000
745.518799	192.100000
745.556396	195.900000
745.593994	196.700000
745.631592	191.200000
745.669189	186.600000
745.706787	194.300000
745.744385	187.900000
745.781982	194.500000
745.819580	190.000000
745.857178	191.700000
745.894775	192.300000
745.932373	194.000000
745.969971	194.000000
746.007568	184.100000
746.045166	202.200000
746.082764	198.800000
746.120300	195.700000
746.157898	195.800000
746.195557	192.700000
746.233093	187.000000
746.270691	197.900000
746.308228	194.900000
746.345825	198.200000
746.383423	196.700000
746.420959	189.300000
746.458557	191.000000
746.496155	191.000000
746.533691	192.600000
746.571289	187.500000
746.608887	193.500000
746.646423	194.600000
746.684021	194.700000
746.721619	190.200000
746.759155	194.300000
746.796753	187.500000
746.834351	185.500000
746.871826	189.700000
746.909424	199.400000
746.946960	194.800000
746.984558	193.100000
747.022156	191.200000
747.059631	199.600000
747.097229	195.000000
747.134827	191.200000
747.172363	200.800000
747.209900	195.600000
747.247498	187.800000
747.285034	200.200000
747.322571	199.800000
747.360168	191.900000
747.397644	185.500000
747.435242	196.600000
747.472778	200.600000
747.510315	190.000000
747.547913	190.900000
747.585388	199.000000
747.622925	193.700000
747.660522	183.400000
747.697998	189.100000
747.735596	193.200000
747.773132	189.500000
747.810669	192.700000
747.848206	196.700000
747.885742	187.600000
747.923279	187.900000
747.960815	195.600000
747.998352	193.700000
748.035889	198.000000
748.073425	197.600000
748.110901	189.400000
748.148437	189.600000
748.185974	194.600000
748.223511	203.500000
748.261047	194.700000
748.298584	194.500000
748.336060	192.900000
748.373596	194.900000
748.411133	211.400000
748.448608	187.800000
748.486145	197.700000
748.523682	200.900000
748.561218	200.300000
748.598755	194.300000
748.636292	196.700000
748.673706	190.900000
748.711243	200.400000
748.748718	196.100000
748.786255	193.500000
748.823792	193.000000
748.861267	187.200000
748.898804	194.800000
748.936340	194.800000
748.973816	190.200000
749.011292	199.600000
749.048828	194.800000
749.086304	198.000000
749.123840	206.200000
749.161316	187.200000
749.198792	202.900000
749.236328	200.100000
749.273743	193.600000
749.311279	190.700000
749.348816	195.300000
749.386230	194.600000
749.423767	181.300000
749.461304	195.400000
749.498718	193.900000
749.536255	199.400000
749.573730	205.700000
749.611206	199.500000
749.648682	193.300000
749.686218	191.900000
749.723633	197.800000
749.761169	190.700000
749.798645	187.700000
749.836060	193.500000
749.873596	189.200000
749.911011	192.500000
749.948547	200.000000
749.986023	192.800000
750.023437	194.000000
750.060913	189.200000
750.098450	187.500000
750.135864	193.100000
750.173340	194.900000
750.210815	198.600000
750.248291	187.900000
750.285767	193.400000
750.323242	200.200000
750.360657	195.000000
750.398132	187.800000
750.435608	198.500000
750.473022	190.100000
750.510498	188.600000
750.547974	189.200000
750.585449	192.000000
750.622925	182.000000
750.660339	201.500000
750.697815	193.500000
750.735291	192.400000
750.772644	192.900000
750.810120	193.800000
750.847595	195.600000
750.885010	188.600000
750.922485	203.500000
750.959961	192.100000
750.997375	200.400000
751.034851	196.500000
751.072266	199.100000
751.109680	186.600000
751.147156	197.600000
751.184570	195.800000
751.221985	194.700000
751.259460	184.100000
751.296875	192.800000
751.334290	193.400000
751.371765	198.700000
751.409180	196.100000
751.446594	199.900000
751.484070	195.900000
751.521423	194.700000
751.558899	194.800000
751.596375	201.900000
751.633728	201.100000
751.671204	207.100000
751.708618	188.700000
751.746033	194.600000
751.783447	188.200000
751.820801	189.700000
751.858276	195.300000
751.895691	194.800000
751.933105	191.800000
751.970520	189.000000
752.007935	191.400000
752.045349	197.200000
752.082764	194.500000
752.120178	190.800000
752.157532	190.700000
752.195007	191.900000
752.232422	197.300000
752.269775	198.200000
752.307190	196.400000
752.344543	190.400000
752.382019	193.400000
752.419434	192.000000
752.456787	194.400000
752.494202	196.900000
752.531616	194.600000
752.568970	197.200000
752.606384	195.400000
752.643799	195.900000
752.681152	203.300000
752.718567	198.500000
752.755981	185.300000
752.793335	197.100000
752.830750	186.000000
752.868164	200.300000
752.905518	188.400000
752.942932	196.500000
752.980225	187.600000
753.017639	198.900000
753.055054	191.500000
753.092407	197.900000
753.129822	200.900000
753.167175	204.100000
753.204529	192.500000
753.241943	191.200000
753.279358	188.200000
753.316650	198.000000
753.354065	197.600000
753.391479	199.100000
753.428772	203.200000
753.466187	198.500000
753.503479	189.400000
753.540894	193.000000
753.578308	187.400000
753.615601	188.600000
753.653015	195.700000
753.690369	192.200000
753.727722	189.000000
753.765076	188.500000
753.802490	187.600000
753.839783	185.500000
753.877136	190.900000
753.914551	207.800000
753.951843	188.400000
753.989258	197.100000
754.026611	196.300000
754.063904	195.100000
754.101257	189.700000
754.138611	185.600000
754.175964	195.700000
754.213318	205.800000
754.250610	186.600000
754.288025	190.900000
754.325378	187.100000
754.362671	198.800000
754.400024	190.700000
754.437378	202.700000
754.474670	203.700000
754.512085	190.600000
754.549438	194.700000
754.586731	191.400000
754.624084	191.900000
754.661438	188.700000
754.698730	202.200000
754.736084	191.700000
754.773376	192.800000
754.810730	196.500000
754.848083	191.100000
754.885315	198.500000
754.922668	185.300000
754.960022	188.700000
754.997314	199.800000
755.034668	196.100000
755.072021	194.800000
755.109253	193.100000
755.146606	203.200000
755.183960	193.400000
755.221252	205.200000
755.258545	200.200000
755.295898	201.300000
755.333191	202.400000
755.370544	198.500000
755.407776	195.100000
755.445129	194.900000
755.482422	200.700000
755.519714	193.700000
755.557068	189.400000
755.594360	187.000000
755.631653	200.400000
755.668945	205.700000
755.706299	199.000000
755.743530	208.200000
755.780884	204.800000
755.818176	201.200000
755.855408	203.400000
755.892761	198.500000
755.930054	197.700000
755.967346	199.300000
756.004639	201.300000
756.041870	199.300000
756.079224	202.000000
756.116516	194.600000
756.153748	202.800000
756.191040	205.800000
756.228394	200.600000
756.265625	195.500000
756.302917	199.700000
756.340210	196.000000
756.377441	204.000000
756.414795	206.500000
756.452087	199.600000
756.489319	193.600000
756.526611	202.400000
756.563843	201.100000
756.601135	213.300000
756.638428	209.600000
756.675659	200.000000
756.712952	205.400000
756.750244	203.700000
756.787476	202.900000
756.824768	208.200000
756.862061	199.500000
756.899292	248.000000
756.936584	206.400000
756.973816	213.100000
757.011047	215.400000
757.048340	203.600000
757.085632	202.000000
757.122864	219.500000
757.160156	200.700000
757.197327	205.400000
757.234619	208.100000
757.271912	202.600000
757.309082	209.800000
757.346375	199.900000
757.383667	211.000000
757.420837	206.400000
757.458130	205.000000
757.495422	202.600000
757.532593	206.400000
757.569885	197.500000
757.607117	201.300000
757.644348	208.200000
757.681580	219.800000
757.718811	193.000000
757.756042	205.400000
757.793335	201.200000
757.830505	209.200000
757.867798	201.200000
757.905029	202.800000
757.942200	209.300000
757.979492	202.500000
758.016724	205.400000
758.053894	205.100000
758.091187	224.300000
758.128418	207.900000
758.165588	206.200000
758.202820	218.200000
758.240112	209.600000
758.277283	218.400000
758.314514	209.800000
758.351685	205.600000
758.388916	218.200000
758.426147	216.400000
758.463379	218.600000
758.500610	213.600000
758.537842	211.500000
758.575012	216.300000
758.612244	205.300000
758.649475	222.600000
758.686646	205.800000
758.723877	219.000000
758.761108	218.900000
758.798279	211.200000
758.835510	213.900000
758.872742	218.100000
758.909851	214.000000
758.947083	214.800000
758.984253	213.900000
759.021484	217.900000
759.058716	215.600000
759.095886	218.600000
759.133057	212.800000
759.170288	216.500000
759.207458	209.300000
759.244690	225.600000
759.281860	224.300000
759.319031	213.000000
759.356262	212.100000
759.393433	214.200000
759.430603	213.700000
759.467773	213.200000
759.505005	221.800000
759.542175	220.400000
759.579346	213.200000
759.616516	215.400000
759.653687	217.700000
759.690918	212.300000
759.728027	217.000000
759.765259	216.600000
759.802429	218.900000
759.839539	218.600000
759.876770	223.600000
759.913940	227.200000
759.951111	218.300000
759.988281	217.200000
760.025452	214.600000
760.062561	213.400000
760.099792	227.500000
760.136963	220.400000
760.174072	218.500000
760.211243	212.500000
760.248413	214.300000
760.285583	213.800000
760.322754	229.700000
760.359863	225.800000
760.397034	226.500000
760.434204	219.300000
760.471375	219.800000
760.508545	218.300000
760.545715	219.800000
760.582825	216.000000
760.619995	226.700000
760.657166	214.400000
760.694275	227.200000
760.731445	222.900000
760.768555	224.900000
760.805664	225.900000
760.842834	224.600000
760.879944	226.300000
760.917114	223.800000
760.954285	221.900000
760.991394	216.200000
761.028564	229.000000
761.065674	226.600000
761.102783	219.000000
761.139954	229.400000
761.177124	229.000000
761.214172	231.900000
761.251343	223.800000
761.288452	225.200000
761.325562	230.200000
761.362732	224.000000
761.399841	226.200000
761.436951	229.200000
761.474121	224.100000
761.511169	229.500000
761.548340	232.700000
761.585449	233.000000
761.622559	233.600000
761.659668	232.200000
761.696838	237.600000
761.733887	235.200000
761.771057	230.600000
761.808167	234.400000
761.845276	240.100000
761.882385	247.500000
761.919434	236.200000
761.956604	255.700000
761.993713	232.400000
762.030762	243.300000
762.067871	238.200000
762.105042	236.700000
762.142090	246.400000
762.179199	240.000000
762.216309	244.900000
762.253418	255.900000
762.290527	249.900000
762.327637	247.500000
762.364685	235.200000
762.401794	246.700000
762.438904	244.700000
762.475952	239.500000
762.513062	238.200000
762.550110	238.500000
762.587219	254.900000
762.624329	254.500000
762.661377	247.300000
762.698486	246.800000
762.735596	246.500000
762.772644	239.900000
762.809753	236.600000
762.846863	244.500000
762.883911	249.700000
762.921021	250.000000
762.958069	249.300000
762.995117	256.700000
763.032227	257.200000
763.069336	250.300000
763.106323	245.300000
763.143433	242.900000
763.180481	253.700000
763.217590	254.000000
763.254639	248.300000
763.291687	251.000000
763.328735	258.700000
763.365845	251.100000
763.402893	251.700000
763.439941	256.300000
763.477051	258.500000
763.514038	261.400000
763.551147	251.900000
763.588196	257.600000
763.625244	255.700000
763.662292	264.100000
763.699402	266.300000
763.736389	262.500000
763.773499	272.000000
763.810486	266.300000
763.847534	263.000000
763.884644	263.600000
763.921631	260.200000
763.958679	273.300000
763.995728	262.400000
764.032776	272.700000
764.069824	255.100000
764.106873	268.200000
764.143860	273.000000
764.180969	265.700000
764.218018	275.100000
764.255005	265.100000
764.292053	268.400000
764.329102	280.700000
764.366089	279.700000
764.403137	277.200000
764.440125	267.000000
764.477173	269.200000
764.514221	270.700000
764.551208	269.900000
764.588257	266.700000
764.625305	278.400000
764.662292	283.200000
764.699341	287.300000
764.736389	279.100000
764.773376	294.600000
764.810425	282.000000
764.847473	290.400000
764.884399	285.000000
764.921448	292.600000
764.958435	290.000000
764.995483	278.700000
765.032532	295.900000
765.069458	281.900000
765.106506	281.800000
765.143555	281.800000
765.180481	285.500000
765.217529	295.900000
765.254578	279.900000
765.291504	289.500000
765.328552	286.800000
765.365540	286.100000
765.402527	299.200000
765.439575	283.500000
765.476501	281.200000
765.513550	281.200000
765.550537	286.100000
765.587463	295.600000
765.624512	286.800000
765.661499	277.200000
765.698486	294.800000
765.735474	284.300000
765.772461	288.400000
765.809448	297.000000
765.846436	295.800000
765.883423	298.900000
765.920410	294.000000
765.957397	289.600000
765.994385	294.100000
766.031311	304.100000
766.068359	296.300000
766.105286	299.300000
766.142273	305.900000
766.179260	300.700000
766.216187	293.800000
766.253174	290.200000
766.290161	301.300000
766.327148	303.200000
766.364136	307.300000
766.401123	320.600000
766.438049	298.000000
766.475037	312.900000
766.512024	308.600000
766.548950	322.900000
766.585937	317.800000
766.622864	314.700000
766.659790	312.500000
766.696777	303.900000
766.733704	321.300000
766.770691	309.700000
766.807678	326.200000
766.844604	323.000000
766.881531	319.700000
766.918518	329.900000
766.955444	330.200000
766.992432	322.000000
767.029358	327.200000
767.066284	330.500000
767.103271	323.800000
767.140198	355.200000
767.177124	344.300000
767.214050	337.100000
767.251038	337.400000
767.287964	334.000000
767.324890	331.000000
767.361816	337.700000
767.398743	346.500000
767.435730	338.500000
767.472595	342.500000
767.509583	347.700000
767.546509	337.600000
767.583374	344.400000
767.620361	338.900000
767.657288	344.100000
767.694214	345.100000
767.731140	343.600000
767.768066	345.500000
767.804993	351.900000
767.841919	342.700000
767.878845	349.800000
767.915710	359.000000
767.952698	351.300000
767.989563	354.600000
768.026489	356.900000
768.063416	350.300000
768.100281	352.800000
768.137207	366.300000
768.174133	363.400000
768.211060	363.900000
768.247986	360.500000
768.284912	361.700000
768.321777	364.200000
768.358704	363.300000
768.395630	370.500000
768.432495	363.200000
768.469421	373.400000
768.506348	375.800000
768.543152	380.100000
768.580078	377.900000
768.616943	381.700000
768.653870	379.900000
768.690796	380.800000
768.727661	376.700000
768.764587	381.700000
768.801453	377.000000
768.838318	390.500000
768.875244	386.800000
768.912109	392.100000
768.948975	383.800000
768.985901	389.400000
769.022766	388.800000
769.059631	395.900000
769.096558	390.400000
769.133362	391.500000
769.170288	391.400000
769.207214	393.000000
769.244019	398.400000
769.280945	398.800000
769.317810	407.200000
769.354675	400.400000
769.391541	410.200000
769.428406	405.600000
769.465271	418.300000
769.502136	406.500000
769.539062	409.500000
769.575867	410.100000
769.612732	408.000000
769.649597	417.400000
769.686462	423.400000
769.723328	418.000000
769.760193	414.200000
769.797058	417.500000
769.833923	427.400000
769.870728	421.300000
769.907593	427.700000
769.944519	425.300000
769.981323	426.900000
770.018188	430.900000
770.055054	425.500000
770.091858	427.300000
770.128723	440.800000
770.165588	445.500000
770.202393	425.800000
770.239258	443.500000
770.276062	439.700000
770.312927	439.800000
770.349792	447.600000
770.386597	442.500000
770.423462	451.800000
770.460327	460.700000
770.497131	444.700000
770.533997	436.100000
770.570862	453.800000
770.607605	454.300000
770.644470	446.400000
770.681335	451.200000
770.718140	450.100000
770.754944	441.400000
770.791809	444.000000
770.828613	446.700000
770.865479	447.600000
770.902222	459.100000
770.939087	453.300000
770.975952	444.200000
771.012695	448.300000
771.049561	467.700000
771.086365	452.800000
771.123169	448.400000
771.159973	452.700000
771.196838	455.400000
771.233582	456.600000
771.270447	458.700000
771.307251	460.100000
771.344055	457.400000
771.380859	461.600000
771.417664	455.500000
771.454468	465.000000
771.491272	465.300000
771.528076	466.600000
771.564880	466.100000
771.601685	477.300000
771.638428	465.700000
771.675293	472.200000
771.712097	463.200000
771.748840	483.400000
771.785645	475.000000
771.822449	476.200000
771.859253	478.300000
771.896057	477.500000
771.932861	491.600000
771.969604	479.100000
772.006409	475.600000
772.043213	491.900000
772.079956	488.200000
772.116760	477.900000
772.153503	481.100000
772.190308	494.600000
772.227112	488.000000
772.263855	485.300000
772.300659	491.300000
772.337463	499.500000
772.374207	486.800000
772.411011	485.500000
772.447754	496.000000
772.484497	512.300000
772.521301	505.400000
772.558105	501.800000
772.594849	505.300000
772.631592	511.500000
772.668396	509.700000
772.705139	519.400000
772.741882	518.300000
772.778625	528.400000
772.815430	532.700000
772.852173	527.600000
772.888916	537.200000
772.925720	538.400000
772.962463	546.200000
772.999207	542.800000
773.035950	549.600000
773.072754	546.200000
773.109436	545.000000
773.146240	544.100000
773.182922	544.600000
773.219727	556.300000
773.256470	551.900000
773.293152	540.100000
773.329956	546.000000
773.366699	553.600000
773.403381	544.200000
773.440186	557.000000
773.476929	561.900000
773.513611	553.300000
773.550354	557.400000
773.587158	557.300000
773.623840	554.500000
773.660583	567.100000
773.697327	581.000000
773.734009	567.600000
773.770813	567.900000
773.807495	566.800000
773.844238	568.100000
773.880981	588.700000
773.917664	584.600000
773.954407	591.200000
773.991150	580.200000
774.027832	586.600000
774.064575	579.900000
774.101318	590.800000
774.138000	598.800000
774.174744	594.700000
774.211487	596.800000
774.248108	588.700000
774.284851	585.800000
774.321594	601.300000
774.358276	604.100000
774.395020	613.400000
774.431702	612.400000
774.468384	604.100000
774.505127	599.400000
774.541809	615.500000
774.578491	627.700000
774.615234	631.900000
774.651917	621.300000
774.688599	628.200000
774.725342	637.400000
774.762024	631.600000
774.798706	640.800000
774.835449	639.100000
774.872070	645.500000
774.908813	643.300000
774.945496	641.200000
774.982178	640.800000
775.018860	649.600000
775.055542	649.000000
775.092224	652.100000
775.128967	659.100000
775.165588	655.800000
775.202271	644.700000
775.239014	664.100000
775.275635	662.600000
775.312317	658.000000
775.349060	665.900000
775.385681	664.700000
775.422363	657.000000
775.459045	667.300000
775.495667	672.700000
775.532410	676.600000
775.569092	677.200000
775.605713	676.300000
775.642395	672.200000
775.679016	677.000000
775.715698	683.300000
775.752380	688.100000
775.789001	681.100000
775.825684	678.300000
775.862366	682.200000
775.898987	694.000000
775.935669	683.000000
775.972351	709.300000
776.008972	701.000000
776.045654	701.900000
776.082336	694.200000
776.118958	694.400000
776.155640	704.700000
776.192322	712.600000
776.228882	713.400000
776.265564	712.400000
776.302185	703.500000
776.338867	710.100000
776.375488	695.900000
776.412109	716.900000
776.448792	720.800000
776.485413	727.200000
776.522034	715.700000
776.558716	706.500000
776.595337	708.800000
776.631958	716.100000
776.668579	717.800000
776.705261	723.600000
776.741882	717.200000
776.778503	714.900000
776.815186	709.700000
776.851746	721.500000
776.888367	718.900000
776.924988	730.400000
776.961609	717.800000
776.998291	716.300000
777.034851	710.400000
777.071472	725.400000
777.108154	726.100000
777.144714	735.500000
777.181335	733.800000
777.218018	728.300000
777.254578	732.600000
777.291199	731.600000
777.327759	740.400000
777.364380	748.200000
777.401062	752.900000
777.437622	765.500000
777.474243	748.400000
777.510864	762.700000
777.547424	755.100000
777.584045	763.400000
777.620667	766.200000
777.657227	776.500000
777.693848	772.900000
777.730469	784.400000
777.767029	775.800000
777.803650	787.300000
777.840271	777.700000
777.876831	778.300000
777.913452	784.300000
777.950012	764.100000
777.986633	764.600000
778.023193	767.300000
778.059753	767.500000
778.096375	773.300000
778.132996	784.700000
778.169556	769.700000
778.206116	770.200000
778.242737	768.300000
778.279297	785.100000
778.315857	774.500000
778.352478	781.200000
778.389038	793.400000
778.425598	794.400000
778.462219	806.400000
778.498718	806.600000
778.535339	814.600000
778.571838	812.800000
778.608459	821.400000
778.645020	815.100000
778.681580	829.400000
778.718140	831.600000
778.754761	826.600000
778.791260	833.200000
778.827881	844.200000
778.864441	841.100000
778.900940	843.700000
778.937561	841.900000
778.974121	840.900000
779.010620	828.700000
779.047241	838.200000
779.083801	848.800000
779.120300	849.400000
779.156860	854.600000
779.193359	852.000000
779.229980	853.000000
779.266541	862.500000
779.303040	866.400000
779.339600	859.800000
779.376160	852.400000
779.412659	863.800000
779.449219	858.200000
779.485779	866.500000
779.522278	866.400000
779.558838	873.800000
779.595398	875.300000
779.631897	881.300000
779.668457	868.500000
779.705017	880.800000
779.741516	875.700000
779.778076	869.000000
779.814575	881.700000
779.851074	892.500000
779.887634	880.200000
779.924133	892.300000
779.960693	878.600000
779.997253	886.200000
780.033691	896.700000
780.070251	900.500000
780.106812	911.200000
780.143250	908.300000
780.179810	900.400000
780.216370	907.700000
780.252808	917.600000
780.289368	932.900000
780.325867	933.800000
780.362366	932.900000
780.398865	945.800000
780.435364	933.800000
780.471863	949.700000
780.508423	950.200000
780.544861	959.800000
780.581421	961.600000
780.617920	955.300000
780.654419	948.000000
780.690918	957.500000
780.727417	968.600000
780.763916	963.500000
780.800415	971.500000
780.836914	950.000000
780.873352	960.000000
780.909912	952.000000
780.946411	959.800000
780.982849	970.200000
781.019348	988.500000
781.055786	984.000000
781.092346	978.100000
781.128845	989.600000
781.165283	997.000000
781.201782	1003.200000
781.238281	1008.400000
781.274719	1013.800000
781.311218	1000.800000
781.347717	1013.300000
781.384155	1003.900000
781.420654	1003.000000
781.457092	1016.600000
781.493591	1009.600000
781.530090	1002.100000
781.566528	1005.100000
781.602966	1014.800000
781.639465	1009.700000
781.675903	1007.200000
781.712402	1019.000000
781.748901	1025.200000
781.785278	1010.400000
781.821777	1019.700000
781.858276	1015.900000
781.894714	1032.400000
781.931152	1024.500000
781.967651	1033.700000
782.004089	1020.800000
782.040527	1030.200000
782.076965	1030.300000
782.113403	1033.600000
782.149902	1036.000000
782.186340	1030.400000
782.222778	1046.500000
782.259277	1030.300000
782.295654	1026.600000
782.332092	1032.100000
782.368591	1031.900000
782.404968	1025.200000
782.441467	1031.500000
782.477905	1031.000000
782.514282	1023.800000
782.550781	1043.900000
782.587219	1045.700000
782.623596	1049.100000
782.660095	1047.400000
782.696472	1054.800000
782.732910	1055.500000
782.769348	1061.400000
782.805786	1079.900000
782.842224	1075.200000
782.878662	1068.500000
782.915039	1068.700000
782.951477	1073.100000
782.987915	1065.500000
783.024292	1082.900000
783.060730	1078.100000
783.097168	1060.700000
783.133545	1056.700000
783.169983	1047.200000
783.206421	1045.900000
783.242798	1040.900000
783.279236	1029.200000
783.315613	1027.700000
783.352051	1018.000000
783.388489	1004.800000
783.424866	990.500000
783.461304	1001.100000
783.497681	1002.500000
783.534058	997.400000
783.570496	998.600000
783.606934	989.500000
783.643250	998.400000
783.679687	1011.700000
783.716125	1006.200000
783.752441	1021.900000
783.788879	1035.200000
783.825317	1041.000000
783.861633	1046.400000
783.898071	1052.000000
783.934448	1070.300000
783.970825	1072.500000
784.007263	1057.800000
784.043579	1017.900000
784.080017	921.400000
784.116394	746.400000
784.152710	566.900000
784.189148	419.200000
784.225525	332.500000
784.261902	297.400000
784.298279	300.300000
784.334656	310.400000
784.371033	335.900000
784.407410	411.400000
784.443787	512.400000
784.480164	647.500000
784.516541	777.600000
784.552856	903.600000
784.589233	972.200000
784.625610	1008.200000
784.661987	1063.300000
784.698364	1047.500000
784.734741	1041.600000
784.771057	1041.300000
784.807434	1047.100000
784.843811	1067.600000
784.880127	1072.000000
784.916504	1104.500000
784.952881	1108.900000
784.989197	1103.800000
785.025574	1106.600000
785.061951	1118.200000
785.098267	1149.500000
785.134644	1148.100000
785.170959	1146.500000
785.207275	1155.000000
785.243652	1148.500000
785.279968	1136.500000
785.316345	1153.200000
785.352722	1150.800000
785.388977	1151.400000
785.425354	1130.400000
785.461731	1108.200000
785.498047	1101.100000
785.534363	1097.700000
785.570679	1095.900000
785.606995	1104.600000
785.643372	1100.300000
785.679687	1086.700000
785.716003	1074.600000
785.752380	1071.700000
785.788635	1076.900000
785.825012	1109.100000
785.861328	1117.000000
785.897644	1102.200000
785.933960	1111.500000
785.970337	1123.200000
786.006592	1143.800000
786.042908	1160.100000
786.079285	1174.600000
786.115540	1184.600000
786.151855	1180.600000
786.188171	1175.300000
786.224487	1178.100000
786.260803	1178.800000
786.297119	1198.300000
786.333435	1200.100000
786.369751	1188.700000
786.406006	1190.100000
786.442322	1171.900000
786.478638	1162.500000
786.514954	1185.200000
786.551270	1175.900000
786.587585	1188.800000
786.623840	1176.800000
786.660156	1168.200000
786.696472	1147.700000
786.732727	1141.200000
786.769043	1149.900000
786.805298	1135.900000
786.841614	1141.400000
786.877930	1145.700000
786.914124	1134.300000
786.950439	1149.900000
786.986755	1153.100000
787.023010	1178.300000
787.059326	1190.200000
787.095642	1186.800000
787.131836	1201.700000
787.168152	1190.500000
787.204468	1197.400000
787.240723	1216.700000
787.276978	1237.900000
787.313293	1244.000000
787.349548	1241.200000
787.385803	1242.300000
787.422058	1231.800000
787.458313	1227.900000
787.494629	1236.400000
787.530823	1234.600000
787.567139	1224.900000
787.603455	1210.300000
787.639648	1190.300000
787.675903	1191.500000
787.712219	1194.200000
787.748413	1194.200000
787.784729	1199.600000
787.820984	1182.100000
787.857178	1176.100000
787.893494	1168.600000
787.929749	1158.200000
787.965942	1169.400000
788.002258	1185.800000
788.038452	1195.800000
788.074707	1185.200000
788.110962	1188.400000
788.147217	1182.200000
788.183472	1191.200000
788.219727	1205.300000
788.255920	1224.100000
788.292175	1229.000000
788.328430	1225.600000
788.364624	1205.700000
788.400879	1196.900000
788.437134	1204.300000
788.473328	1204.100000
788.509583	1206.100000
788.545837	1199.100000
788.582031	1189.200000
788.618286	1173.300000
788.654480	1173.100000
788.690735	1189.400000
788.726990	1208.000000
788.763184	1199.600000
788.799377	1215.200000
788.835632	1203.100000
788.871826	1221.300000
788.908081	1220.600000
788.944336	1215.400000
788.980469	1236.500000
789.016724	1232.300000
789.052979	1228.300000
789.089111	1202.600000
789.125366	1209.500000
789.161621	1187.800000
789.197754	1202.000000
789.234009	1194.600000
789.270142	1177.800000
789.306396	1164.500000
789.342590	1153.600000
789.378784	1135.800000
789.414978	1139.900000
789.451233	1157.200000
789.487366	1159.300000
789.523621	1161.600000
789.559814	1152.800000
789.595947	1141.000000
789.632202	1147.100000
789.668335	1159.200000
789.704529	1184.000000
789.740784	1205.600000
789.776917	1203.200000
789.813110	1190.100000
789.849304	1208.700000
789.885498	1210.700000
789.921692	1235.200000
789.957886	1242.300000
789.994019	1241.900000
790.030212	1226.300000
790.066406	1232.800000
790.102539	1222.300000
790.138733	1231.300000
790.174927	1231.300000
790.211060	1246.800000
790.247253	1229.700000
790.283386	1212.100000
790.319580	1199.000000
790.355774	1178.500000
790.391907	1184.300000
790.428101	1208.900000
790.464294	1214.900000
790.500427	1215.000000
790.536621	1197.900000
790.572754	1176.400000
790.608887	1178.800000
790.645081	1190.200000
790.681274	1205.000000
790.717346	1200.300000
790.753540	1158.200000
790.789734	1079.800000
790.825867	1017.200000
790.862000	1008.900000
790.898132	1050.800000
790.934265	1118.000000
790.970459	1179.700000
791.006592	1199.200000
791.042725	1201.900000
791.078918	1195.600000
791.114990	1198.500000
791.151184	1208.400000
791.187317	1237.700000
791.223389	1230.200000
791.259583	1209.100000
791.295715	1216.500000
791.331848	1224.200000
791.367981	1240.500000
791.404114	1246.000000
791.440247	1239.500000
791.476379	1238.100000
791.512451	1219.400000
791.548584	1219.400000
791.584778	1216.900000
791.620850	1240.200000
791.656982	1241.600000
791.693115	1241.900000
791.729187	1233.400000
791.765381	1220.900000
791.801514	1218.000000
791.837585	1224.400000
791.873718	1232.700000
791.909851	1249.500000
791.945923	1256.900000
791.982056	1215.000000
792.018188	1211.400000
792.054260	1214.500000
792.090393	1226.100000
792.126465	1217.200000
792.162598	1224.000000
792.198669	1211.800000
792.234741	1201.100000
792.270874	1195.100000
792.307007	1177.400000
792.343079	1189.900000
792.379150	1204.800000
792.415283	1188.500000
792.451355	1191.400000
792.487488	1166.700000
792.523560	1163.300000
792.559631	1168.400000
792.595764	1162.300000
792.631836	1176.200000
792.667908	1187.200000
792.703979	1160.800000
792.740051	1156.000000
792.776184	1165.000000
792.812256	1168.000000
792.848328	1178.200000
792.884399	1185.800000
792.920471	1178.500000
792.956543	1169.800000
792.992615	1164.000000
793.028748	1169.500000
793.064758	1174.600000
793.100830	1197.300000
793.136963	1209.100000
793.172974	1199.500000
793.209045	1189.700000
793.245178	1200.900000
793.281189	1188.300000
793.317261	1194.300000
793.353271	1197.000000
793.389404	1208.000000
793.425476	1195.700000
793.461487	1178.100000
793.497559	1173.300000
793.533630	1187.700000
793.569641	1188.900000
793.605713	1191.200000
793.641785	1196.900000
793.677795	1202.900000
793.713867	1188.700000
793.749878	1190.600000
793.785950	1201.400000
793.822021	1212.500000
793.858032	1188.900000
793.894104	1204.800000
793.930176	1187.300000
793.966187	1193.300000
794.002258	1183.100000
794.038269	1187.200000
794.074280	1179.900000
794.110352	1208.400000
794.146423	1181.800000
794.182373	1176.400000
794.218445	1164.100000
794.254517	1157.700000
794.290466	1145.700000
794.326538	1150.800000
794.362549	1150.000000
794.398560	1157.500000
794.434631	1157.700000
794.470581	1125.400000
794.506653	1121.600000
794.542664	1123.700000
794.578674	1124.100000
794.614685	1123.200000
794.650757	1120.900000
794.686707	1113.600000
794.722778	1100.900000
794.758789	1108.600000
794.794739	1114.400000
794.830811	1138.400000
794.866821	1160.500000
794.902771	1152.600000
794.938843	1139.600000
794.974792	1137.800000
795.010803	1135.600000
795.046814	1139.700000
795.082825	1124.600000
795.118835	1137.600000
795.154846	1123.100000
795.190796	1126.300000
795.226807	1100.600000
795.262817	1108.200000
795.298767	1100.800000
795.334778	1106.900000
795.370850	1094.600000
795.406799	1101.300000
795.442810	1073.100000
795.478821	1070.800000
795.514709	1072.800000
795.550720	1094.100000
795.586670	1075.300000
795.622681	1080.000000
795.658691	1080.500000
795.694641	1071.200000
795.730652	1052.300000
795.766663	1069.600000
795.802551	1070.600000
795.838562	1088.200000
795.874573	1074.700000
795.910522	1069.500000
795.946472	1064.100000
795.982483	1061.200000
796.018433	1068.200000
796.054382	1081.900000
796.090393	1067.800000
796.126282	1058.700000
796.162292	1042.200000
796.198242	1034.000000
796.234192	1038.500000
796.270203	1033.200000
796.306091	1047.300000
796.342041	1058.600000
796.378052	1045.300000
796.413940	1039.000000
796.449951	1040.400000
796.485901	1042.100000
796.521790	1039.100000
796.557800	1059.000000
796.593689	1050.000000
796.629639	1040.300000
796.665649	1030.300000
796.701599	1032.100000
796.737488	1030.800000
796.773437	1037.200000
796.809387	1039.200000
796.845337	1034.700000
796.881287	1021.300000
796.917175	1001.000000
796.953125	1005.600000
796.989075	1019.400000
797.024963	1026.000000
797.060913	1021.500000
797.096863	1018.800000
797.132751	1014.700000
797.168701	993.100000
797.204590	1001.400000
797.240540	1001.200000
797.276489	1013.100000
797.312439	1014.400000
797.348328	1007.700000
797.384277	992.600000
797.420166	986.800000
797.456055	991.900000
797.492004	988.500000
797.527893	997.000000
797.563843	997.500000
797.599731	984.800000
797.635620	972.100000
797.671570	984.300000
797.707520	978.600000
797.743347	978.900000
797.779297	989.200000
797.815125	983.000000
797.851074	971.200000
797.887024	969.100000
797.922913	959.900000
797.958801	972.600000
797.994690	970.600000
798.030579	977.800000
798.066467	974.200000
798.102356	958.200000
798.138245	950.000000
798.174133	949.800000
798.210083	961.500000
798.245911	969.000000
798.281799	971.200000
798.317749	959.500000
798.353577	953.200000
798.389465	946.500000
798.425293	946.400000
798.461243	939.100000
798.497131	949.000000
798.532959	949.900000
798.568848	953.200000
798.604736	939.500000
798.640564	923.300000
798.676453	924.100000
798.712402	933.300000
798.748230	941.300000
798.784119	937.000000
798.820007	937.800000
798.855835	930.600000
798.891724	920.800000
798.927551	918.800000
798.963379	929.900000
798.999268	924.400000
799.035095	921.000000
799.070984	912.200000
799.106873	900.000000
799.142700	913.200000
799.178528	901.900000
799.214417	903.300000
799.250244	920.800000
799.286133	909.700000
799.321960	908.600000
799.357788	902.700000
799.393677	899.300000
799.429504	900.000000
799.465332	898.700000
799.501221	910.100000
799.537048	902.700000
799.572876	897.400000
799.608704	899.100000
799.644531	903.100000
799.680359	902.200000
799.716248	909.300000
799.752014	915.000000
799.787903	903.000000
799.823730	896.900000
799.859558	884.800000
799.895386	890.900000
799.931213	889.500000
799.967041	883.000000
800.002869	881.600000
800.038696	893.900000
800.074463	870.800000
800.110352	873.300000
800.146179	863.900000
800.181946	872.000000
800.217773	871.800000
800.253540	867.400000
800.289429	861.800000
800.325256	854.100000
800.361023	851.100000
800.396851	852.400000
800.432678	851.200000
800.468445	849.500000
800.504272	847.300000
800.540100	832.400000
800.575867	828.400000
800.611694	833.400000
800.647461	826.900000
800.683289	828.800000
800.719116	830.800000
800.754883	821.800000
800.790649	803.200000
800.826477	798.200000
800.862244	823.700000
800.898071	805.800000
800.933838	801.200000
800.969604	800.500000
801.005432	799.200000
801.041199	798.700000
801.076965	790.300000
801.112793	781.400000
801.148560	772.300000
801.184326	777.400000
801.220154	778.300000
801.255859	763.400000
801.291687	764.600000
801.327454	757.700000
801.363281	761.300000
801.398987	755.500000
801.434814	760.700000
801.470520	767.500000
801.506287	755.600000
801.542114	742.700000
801.577820	750.900000
801.613647	746.600000
801.649414	737.300000
801.685120	739.300000
801.720886	747.800000
801.756714	736.400000
801.792419	724.900000
801.828186	719.000000
801.863892	731.600000
801.899719	721.100000
801.935486	719.000000
801.971252	726.700000
802.006958	720.700000
802.042725	711.100000
802.078430	710.700000
802.114197	704.700000
802.149963	727.600000
802.185669	712.000000
802.221436	707.700000
802.257202	707.300000
802.292908	700.800000
802.328674	714.600000
802.364441	711.100000
802.400146	704.900000
802.435913	699.100000
802.471558	695.200000
802.507324	690.900000
802.543091	682.900000
802.578796	693.300000
802.614502	698.100000
802.650269	699.000000
802.685974	683.900000
802.721741	685.700000
802.757446	688.000000
802.793152	686.700000
802.828918	693.300000
802.864624	689.000000
802.900330	684.200000
802.936035	683.800000
802.971802	678.700000
803.007446	676.900000
803.043213	667.100000
803.078857	674.300000
803.114624	658.300000
803.150330	663.100000
803.185974	655.000000
803.221741	656.200000
803.257446	660.600000
803.293152	664.400000
803.328857	653.800000
803.364563	653.900000
803.400208	643.100000
803.435974	652.200000
803.471680	643.500000
803.507324	640.400000
803.543030	649.600000
803.578735	653.000000
803.614441	636.000000
803.650146	644.300000
803.685791	629.400000
803.721497	631.700000
803.757202	623.900000
803.792847	633.000000
803.828552	625.200000
803.864258	626.800000
803.899902	621.200000
803.935608	606.600000
803.971313	615.700000
804.006958	618.500000
804.042664	611.800000
804.078308	616.000000
804.113953	605.900000
804.149658	612.300000
804.185364	603.200000
804.221008	612.200000
804.256714	601.300000
804.292297	603.300000
804.328003	598.200000
804.363708	590.100000
804.399292	587.200000
804.434998	594.400000
804.470703	582.900000
804.506287	596.000000
804.541992	589.300000
804.577637	589.400000
804.613281	577.600000
804.648926	574.200000
804.684570	580.900000
804.720215	579.100000
804.755920	575.100000
804.791565	572.500000
804.827209	577.600000
804.862854	569.800000
804.898437	563.400000
804.934143	567.400000
804.969788	567.100000
805.005371	568.400000
805.041077	568.900000
805.076721	567.500000
805.112305	554.800000
805.147949	559.200000
805.183655	555.400000
805.219238	557.100000
805.254883	556.500000
805.290466	563.100000
805.326111	554.700000
805.361755	543.400000
805.397400	548.900000
805.432983	551.600000
805.468628	552.900000
805.504211	556.200000
805.539856	550.600000
805.575500	556.000000
805.611084	548.300000
805.646729	533.200000
805.682373	538.900000
805.717957	553.000000
805.753601	550.200000
805.789246	534.300000
805.824768	544.400000
805.860413	546.200000
805.895996	535.800000
805.931641	530.900000
805.967224	539.200000
806.002869	531.900000
806.038452	545.900000
806.074036	538.800000
806.109619	524.400000
806.145264	524.900000
806.180847	526.600000
806.216431	520.600000
806.252014	525.600000
806.287659	523.700000
806.323181	533.600000
806.358826	525.500000
806.394409	507.300000
806.429993	511.500000
806.465576	525.900000
806.501160	509.100000
806.536743	501.600000
806.572327	512.800000
806.607910	507.900000
806.643494	506.700000
806.679077	505.100000
806.714661	505.100000
806.750244	506.300000
806.785828	495.300000
806.821350	499.700000
806.856934	500.600000
806.892517	494.700000
806.928101	489.500000
806.963684	491.200000
806.999268	498.600000
807.034790	479.800000
807.070374	488.300000
807.105896	482.600000
807.141479	477.400000
807.177063	489.300000
807.212585	475.600000
807.248169	474.600000
807.283752	485.400000
807.319275	472.600000
807.354858	476.800000
807.390381	469.800000
807.425903	471.800000
807.461487	467.200000
807.497070	461.600000
807.532593	462.900000
807.568115	460.400000
807.603699	455.800000
807.639221	452.300000
807.674744	455.500000
807.710266	462.100000
807.745850	463.400000
807.781372	454.400000
807.816895	452.300000
807.852417	452.800000
807.888000	453.200000
807.923523	449.500000
807.959045	452.500000
807.994629	441.600000
808.030090	439.000000
808.065613	444.300000
808.101135	447.100000
808.136658	444.100000
808.172241	441.000000
808.207764	439.000000
808.243225	432.200000
808.278809	428.400000
808.314270	439.100000
808.349792	425.200000
808.385315	423.400000
808.420837	429.600000
808.456360	436.300000
808.491882	430.700000
808.527344	428.500000
808.562866	434.700000
808.598389	427.000000
808.633850	421.600000
808.669434	416.600000
808.704895	426.500000
808.740417	432.500000
808.775940	420.700000
808.811462	417.400000
808.846924	410.800000
808.882385	405.800000
808.917847	406.700000
808.953369	406.400000
808.988892	400.800000
809.024353	410.900000
809.059875	408.300000
809.095398	405.800000
809.130798	400.100000
809.166321	400.100000
809.201843	396.700000
809.237305	400.800000
809.272766	404.300000
809.308228	387.000000
809.343750	390.600000
809.379211	390.500000
809.414734	392.600000
809.450134	398.500000
809.485657	383.300000
809.521118	387.400000
809.556580	386.300000
809.592102	384.100000
809.627502	383.500000
809.663025	378.700000
809.698486	376.500000
809.733887	372.100000
809.769409	377.600000
809.804871	366.700000
809.840271	370.000000
809.875793	374.000000
809.911194	376.600000
809.946655	368.000000
809.982178	363.100000
810.017639	369.600000
810.053040	366.200000
810.088501	362.600000
810.123901	361.200000
810.159424	358.100000
810.194885	354.800000
810.230286	358.500000
810.265747	354.500000
810.301208	350.800000
810.336609	354.100000
810.372070	348.000000
810.407532	349.800000
810.442932	349.800000
810.478394	353.700000
810.513794	350.300000
810.549255	348.100000
810.584717	344.200000
810.620117	339.800000
810.655518	347.800000
810.690979	345.500000
810.726379	345.600000
810.761841	333.500000
810.797302	335.200000
810.832642	335.600000
810.868103	346.100000
810.903564	334.200000
810.938904	340.600000
810.974365	329.300000
811.009827	334.500000
811.045166	329.200000
811.080627	320.500000
811.115967	327.800000
811.151428	337.600000
811.186829	325.900000
811.222229	328.300000
811.257629	320.600000
811.293091	326.700000
811.328430	333.700000
811.363892	328.700000
811.399292	330.600000
811.434631	322.500000
811.470093	329.500000
811.505493	319.800000
811.540833	323.000000
811.576294	327.200000
811.611694	321.300000
811.647034	317.000000
811.682434	318.300000
811.717773	321.500000
811.753235	326.300000
811.788635	319.200000
811.823975	317.400000
811.859375	324.200000
811.894775	311.900000
811.930115	312.200000
811.965515	315.100000
812.000916	318.900000
812.036255	311.700000
812.071655	314.700000
812.106995	307.900000
812.142395	307.900000
812.177795	315.300000
812.213196	313.500000
812.248474	313.300000
812.283875	303.700000
812.319214	308.800000
812.354614	308.300000
812.390015	305.200000
812.425293	305.400000
812.460693	305.100000
812.496094	303.400000
812.531433	296.700000
812.566772	299.100000
812.602173	302.000000
812.637451	303.600000
812.672852	298.200000
812.708191	302.100000
812.743530	294.700000
812.778931	289.500000
812.814270	294.100000
812.849609	300.600000
812.884949	292.500000
812.920227	287.300000
812.955627	302.400000
812.990967	293.500000
813.026306	290.400000
813.061646	278.200000
813.096985	278.700000
813.132324	273.500000
813.167664	280.400000
813.203003	284.300000
813.238281	271.800000
813.273682	273.300000
813.308960	271.100000
813.344299	271.200000
813.379639	282.300000
813.414978	273.100000
813.450256	272.800000
813.485596	277.400000
813.520874	269.600000
813.556213	274.900000
813.591614	277.300000
813.626831	269.400000
813.662170	273.000000
813.697510	282.300000
813.732788	265.900000
813.768127	271.700000
813.803467	272.900000
813.838745	266.700000
813.874084	271.300000
813.909363	268.800000
813.944641	271.200000
813.979980	259.700000
814.015320	264.600000
814.050598	261.900000
814.085876	267.500000
814.121155	264.200000
814.156494	261.800000
814.191772	263.400000
814.227051	259.400000
814.262390	262.100000
814.297668	261.100000
814.332947	263.500000
814.368225	256.200000
814.403564	259.000000
814.438782	255.300000
814.474121	258.300000
814.509338	255.800000
814.544617	263.200000
814.579956	252.500000
814.615173	265.200000
814.650513	260.100000
814.685791	251.400000
814.721008	255.400000
814.756348	255.900000
814.791626	252.000000
814.826843	251.300000
814.862122	252.200000
814.897400	249.000000
814.932678	249.600000
814.967957	251.300000
815.003235	248.900000
815.038452	245.200000
815.073730	242.200000
815.108948	252.400000
815.144226	250.600000
815.179504	254.400000
815.214722	239.100000
815.250000	238.700000
815.285278	246.500000
815.320496	240.600000
815.355774	243.600000
815.391052	246.900000
815.426270	241.900000
815.461487	240.800000
815.496765	236.100000
815.531982	233.100000
815.567261	238.800000
815.602539	247.200000
815.637695	240.700000
815.672974	242.800000
815.708191	242.100000
815.743408	243.400000
815.778687	235.600000
815.813904	247.500000
815.849121	228.500000
815.884399	230.800000
815.919556	231.100000
815.954834	231.500000
815.990051	236.200000
816.025269	240.900000
816.060486	230.800000
816.095703	229.300000
816.130920	234.600000
816.166199	229.300000
816.201416	233.900000
816.236572	239.900000
816.271851	228.900000
816.307007	238.100000
816.342224	225.400000
816.377441	228.700000
816.412659	221.400000
816.447876	233.700000
816.483093	228.200000
816.518250	230.000000
816.553467	226.400000
816.588745	231.600000
816.623901	222.900000
816.659119	218.100000
816.694275	223.800000
816.729492	219.900000
816.764709	256.500000
816.799927	217.500000
816.835083	222.700000
816.870300	217.600000
816.905457	219.800000
816.940674	221.200000
816.975830	219.200000
817.010986	214.700000
817.046204	218.000000
817.081421	213.800000
817.116577	213.500000
817.151733	222.600000
817.186951	223.600000
817.222107	218.800000
817.257324	220.400000
817.292419	219.200000
817.327637	211.500000
817.362854	217.100000
817.398010	210.700000
817.433167	213.300000
817.468323	212.600000
817.503479	215.600000
817.538635	222.500000
817.573853	217.300000
817.608948	216.600000
817.644165	210.000000
817.679321	209.100000
817.714478	210.900000
817.749634	215.700000
817.784790	225.700000
817.819946	220.700000
817.855103	203.000000
817.890198	212.400000
817.925415	205.500000
817.960571	213.200000
817.995667	212.700000
818.030823	214.100000
818.066040	208.100000
818.101135	211.100000
818.136292	210.800000
818.171448	204.400000
818.206543	209.500000
818.241699	211.600000
818.276855	208.200000
818.311951	208.200000
818.347107	204.100000
818.382263	211.500000
818.417358	216.700000
818.452515	216.500000
818.487610	216.900000
818.522766	205.500000
818.557922	217.500000
818.593018	211.600000
818.628113	208.600000
818.663269	204.600000
818.698364	208.400000
818.733521	205.500000
818.768677	211.400000
818.803711	200.300000
818.838867	204.500000
818.874023	205.100000
818.909058	202.400000
818.944214	200.400000
818.979370	208.800000
819.014404	206.400000
819.049561	202.500000
819.084595	207.900000
819.119751	198.100000
819.154846	207.500000
819.189941	203.800000
819.225037	199.100000
819.260193	195.400000
819.295227	198.300000
819.330322	193.400000
819.365479	193.200000
819.400513	226.200000
819.435608	192.500000
819.470764	191.600000
819.505798	193.600000
819.540894	196.500000
819.575989	194.500000
819.611084	205.600000
819.646179	204.100000
819.681213	202.200000
819.716309	198.100000
819.751404	197.200000
819.786438	202.900000
819.821533	193.800000
819.856628	199.900000
819.891663	202.500000
819.926758	210.100000
819.961853	205.300000
819.996887	196.200000
820.031982	202.300000
820.067017	197.300000
820.102112	224.900000
820.137207	195.600000
820.172302	213.600000
820.207275	196.100000
820.242371	193.500000
820.277405	194.300000
820.312500	198.100000
820.347534	200.200000
820.382568	202.300000
820.417664	195.400000
820.452759	194.700000
820.487732	192.700000
820.522827	195.400000
820.557861	192.200000
820.592896	195.100000
820.627930	195.200000
820.662964	193.700000
820.698059	198.900000
820.733093	195.400000
820.768127	198.600000
820.803162	195.000000
820.838196	192.900000
820.873230	197.200000
820.908264	197.300000
820.943298	192.900000
820.978333	201.200000
821.013367	196.100000
821.048401	200.100000
821.083435	203.000000
821.118469	188.100000
821.153503	200.100000
821.188477	198.000000
821.223511	187.700000
821.258484	196.300000
821.293579	195.700000
821.328613	188.400000
821.363647	193.800000
821.398621	190.500000
821.433655	191.400000
821.468628	207.900000
821.503662	193.400000
821.538696	198.200000
821.573669	189.300000
821.608704	197.600000
821.643677	191.200000
821.678650	197.300000
821.713684	202.700000
821.748718	193.500000
821.783691	193.600000
821.818726	195.300000
821.853638	197.200000
821.888672	193.000000
821.923706	194.500000
821.958618	190.900000
821.993652	191.500000
822.028687	198.900000
822.063599	200.600000
822.098633	196.500000
822.133667	190.100000
822.168579	192.200000
822.203613	195.100000
822.238586	190.400000
822.273560	197.200000
822.308533	191.800000
822.343567	190.500000
822.378479	192.900000
822.413452	192.400000
822.448425	190.500000
822.483398	198.600000
822.518372	198.500000
822.553345	191.100000
822.588318	200.900000
822.623291	193.600000
822.658203	192.100000
822.693237	193.800000
822.728210	189.100000
822.763123	196.700000
822.798096	188.600000
822.833069	194.000000
822.867981	192.600000
822.902954	196.400000
822.937927	197.100000
822.972900	204.900000
823.007874	185.100000
823.042725	198.100000
823.077698	206.400000
823.112671	189.000000
823.147583	192.800000
823.182556	195.300000
823.217529	198.100000
823.252441	191.000000
823.287415	206.900000
823.322388	196.000000
823.357239	194.100000
823.392212	201.100000
823.427185	198.200000
823.462097	189.800000
823.497009	195.900000
823.531982	191.200000
823.566895	193.700000
823.601807	188.700000
823.636719	191.000000
823.671631	197.400000
823.706604	190.500000
823.741455	195.700000
823.776428	187.000000
823.811340	197.200000
823.846252	198.800000
823.881165	200.800000
823.916138	196.000000
823.950989	203.100000
823.985901	188.900000
824.020813	193.200000
824.055725	191.400000
824.090637	188.400000
824.125610	195.200000
824.160461	194.700000
824.195374	196.700000
824.230225	199.300000
824.265198	185.900000
824.300110	190.100000
824.334961	204.000000
824.369873	184.200000
824.404785	195.600000
824.439636	199.800000
824.474548	185.300000
824.509460	183.200000
824.544312	197.600000
824.579224	195.800000
824.614075	196.800000
824.648987	193.100000
824.683899	192.300000
824.718811	189.300000
824.753662	200.800000
824.788574	197.700000
824.823364	194.900000
824.858276	189.200000
824.893188	200.200000
824.928040	199.900000
824.962952	196.500000
824.997803	197.800000
825.032654	194.600000
825.067566	197.400000
825.102417	191.700000
825.137268	192.000000
825.172119	194.700000
825.206970	189.900000
825.241882	191.200000
825.276733	189.700000
825.311646	190.800000
825.346436	187.800000
825.381348	187.900000
825.416138	193.900000
825.450989	189.000000
825.485901	185.100000
825.520691	185.200000
825.555542	185.700000
825.590454	192.400000
825.625244	185.600000
825.660095	199.600000
825.695007	198.000000
825.729797	191.400000
825.764648	189.800000
825.799438	192.300000
825.834290	194.500000
825.869202	185.500000
825.903992	194.700000
825.938843	188.300000
825.973694	189.400000
826.008484	205.100000
826.043335	188.300000
826.078186	183.100000
826.112976	198.800000
826.147827	197.900000
826.182678	203.200000
826.217468	185.600000
826.252319	197.400000
826.287109	188.300000
826.321899	199.800000
826.356750	191.600000
826.391541	188.300000
826.426392	197.600000
826.461182	193.200000
826.495972	186.600000
826.530823	183.300000
826.565613	193.200000
826.600403	188.100000
826.635254	195.600000
826.670044	184.400000
826.704834	185.300000
826.739685	187.700000
826.774475	195.500000
826.809265	190.800000
826.844055	189.300000
826.878906	198.600000
826.913635	193.600000
826.948425	195.000000
826.983215	192.900000
827.018005	197.100000
827.052856	190.600000
827.087585	194.400000
827.122375	184.200000
827.157227	192.200000
827.191956	204.200000
827.226746	187.700000
827.261536	197.000000
827.296265	185.400000
827.331116	189.500000
827.365906	195.200000
827.400635	188.000000
827.435425	183.600000
827.470215	198.500000
827.504944	190.300000
827.539734	197.200000
827.574463	191.300000
827.609253	200.300000
827.644043	192.400000
827.678772	198.700000
827.713562	189.500000
827.748352	191.100000
827.783081	188.600000
827.817871	195.100000
827.852600	189.300000
827.887329	193.700000
827.922119	182.400000
827.956848	196.400000
827.991638	206.300000
828.026367	194.500000
828.061157	192.800000
828.095886	192.900000
828.130615	206.500000
828.165344	181.400000
828.200073	192.600000
828.234863	189.600000
828.269592	192.000000
828.304321	198.400000
828.339111	192.700000
828.373779	188.700000
828.408569	197.800000
828.443298	196.800000
828.477966	190.700000
828.512756	193.300000
828.547424	187.200000
828.582214	189.500000
828.616943	190.100000
828.651672	190.600000
828.686340	196.100000
828.721130	189.000000
828.755798	191.100000
828.790527	192.400000
828.825256	193.500000
828.859924	191.800000
828.894714	197.800000
828.929443	200.000000
828.964111	189.500000
828.998840	194.800000
829.033569	189.700000
829.068237	189.800000
829.102966	190.000000
829.137634	194.200000
829.172363	194.300000
829.207092	193.000000
829.241821	188.300000
829.276489	184.400000
829.311157	193.300000
829.345825	191.400000
829.380554	196.300000
829.415283	187.500000
829.449951	186.300000
829.484619	201.000000
829.519348	199.500000
829.554016	190.900000
829.588745	191.000000
829.623413	186.200000
829.658081	204.400000
829.692749	186.200000
829.727417	197.400000
829.762146	194.200000
829.796814	187.900000
829.831482	190.600000
829.866150	193.600000
829.900879	190.400000
829.935486	194.500000
829.970154	190.300000
830.004883	202.700000
830.039490	193.400000
830.074219	188.600000
830.108887	191.700000
830.143494	191.000000
830.178223	186.500000
830.212891	190.300000
830.247498	191.500000
830.282166	200.600000
830.316772	198.000000
830.351501	189.100000
830.386169	192.100000
830.420776	189.600000
830.455444	192.300000
830.490112	190.300000
830.524719	182.900000
830.559387	194.000000
830.594055	194.400000
830.628662	193.400000
830.663330	192.900000
830.697998	200.800000
830.732605	192.300000
830.767273	194.900000
830.801941	192.200000
830.836487	202.100000
830.871155	194.600000
830.905762	193.600000
830.940430	185.000000
830.975098	188.400000
831.009644	192.900000
831.044312	200.700000
831.078979	194.400000
831.113525	183.800000
831.148193	191.500000
831.182861	191.100000
831.217407	196.000000
831.252075	209.800000
831.286621	189.200000
831.321289	187.800000
831.355896	191.900000
831.390564	199.000000
831.425110	191.200000
831.459778	198.100000
831.494324	206.600000
831.528931	195.900000
831.563599	196.000000
831.598145	185.700000
831.632751	191.400000
831.667419	190.900000
831.701965	195.100000
831.736572	196.000000
831.771179	184.800000
831.805786	189.700000
831.840393	198.200000
831.874939	185.600000
831.909546	197.500000
831.944153	184.200000
831.978760	191.000000
832.013306	188.000000
832.047913	198.700000
832.082458	200.600000
832.117065	189.000000
832.151672	200.900000
832.186218	193.500000
832.220825	195.600000
832.255432	185.200000
832.289978	187.800000
832.324585	194.400000
832.359192	195.300000
832.393677	190.400000
832.428284	194.300000
832.462830	191.500000
832.497437	190.500000
832.531982	196.400000
832.566589	191.500000
832.601135	194.100000
832.635681	184.300000
832.670227	192.700000
832.704773	200.700000
832.739380	194.200000
832.773926	190.500000
832.808472	187.800000
832.843079	192.800000
832.877563	195.400000
832.912170	190.200000
832.946716	185.200000
832.981201	198.500000
833.015808	195.300000
833.050293	191.000000
833.084839	186.900000
833.119446	190.700000
833.153992	194.700000
833.188477	191.100000
833.223022	188.100000
833.257568	193.500000
833.292114	198.500000
833.326660	203.800000
833.361145	188.500000
833.395691	184.000000
833.430237	192.000000
833.464783	195.400000
833.499329	188.500000
833.533875	185.100000
833.568359	197.200000
833.602905	196.700000
833.637390	197.100000
833.671875	189.500000
833.706421	190.500000
833.740906	187.500000
833.775452	182.700000
833.809998	189.200000
833.844482	199.000000
833.879028	191.500000
833.913513	190.500000
833.947998	194.800000
833.982544	186.800000
834.017090	188.600000
834.051514	180.900000
834.086060	194.400000
834.120544	192.600000
834.155029	192.800000
834.189575	191.400000
834.223999	194.200000
834.258545	193.100000
834.293030	193.600000
834.327515	192.100000
834.362000	189.100000
834.396545	197.900000
834.430969	190.000000
834.465454	196.800000
834.500000	185.100000
834.534424	193.700000
834.568970	181.900000
834.603455	185.000000
834.637878	188.900000
834.672363	192.800000
834.706909	192.500000
834.741333	193.100000
834.775818	184.500000
834.810242	187.200000
834.844727	192.900000
834.879211	189.900000
834.913635	192.900000
834.948181	193.200000
834.982666	192.800000
835.017090	190.600000
835.051575	195.300000
835.086060	189.300000
835.120483	195.300000
835.154907	196.700000
835.189331	191.200000
835.223816	195.700000
835.258301	187.100000
835.292786	186.100000
835.327209	198.000000
835.361694	187.400000
835.396057	188.700000
835.430542	194.300000
835.465027	192.900000
835.499390	186.400000
835.533875	211.000000
835.568359	190.100000
835.602722	184.700000
835.637207	194.500000
835.671692	186.000000
835.706055	206.400000
835.740540	193.300000
835.774902	194.100000
835.809387	192.100000
835.843811	185.800000
835.878235	199.500000
835.912659	184.500000
835.947083	189.100000
835.981506	190.900000
836.015930	185.300000
836.050354	196.200000
836.084778	200.500000
836.119202	196.500000
836.153625	204.400000
836.187988	189.300000
836.222473	188.400000
836.256897	193.900000
836.291260	190.600000
836.325684	193.700000
836.360046	189.800000
836.394470	191.000000
836.428894	199.200000
836.463318	188.600000
836.497681	196.100000
836.532104	199.600000
836.566467	193.600000
836.600891	191.700000
836.635315	198.100000
836.669678	196.000000
836.704102	196.600000
836.738525	194.500000
836.772888	184.600000
836.807251	190.200000
836.841675	195.000000
836.876038	186.500000
836.910461	189.300000
836.944763	195.400000
836.979187	187.200000
837.013611	199.500000
837.047974	185.500000
837.082336	203.500000
837.116699	195.500000
837.151062	190.600000
837.185486	185.800000
837.219849	190.400000
837.254211	195.400000
837.288574	192.000000
837.322937	186.400000
837.357300	179.800000
837.391663	204.500000
837.426086	196.000000
837.460388	193.900000
837.494751	196.900000
837.529114	190.200000
837.563477	197.200000
837.597839	194.100000
837.632141	190.700000
837.666565	188.300000
837.700928	195.000000
837.735229	196.400000
837.769592	194.000000
837.803955	197.200000
837.838257	189.200000
837.872620	189.100000
837.906982	200.600000
837.941284	192.800000
837.975647	193.000000
838.010010	198.000000
838.044312	190.500000
838.078674	189.500000
838.112976	193.700000
838.147339	197.300000
838.181702	193.500000
838.216003	202.900000
838.250366	193.300000
838.284668	194.500000
838.318970	183.900000
838.353333	191.900000
838.387634	191.100000
838.421936	193.400000
838.456299	193.400000
838.490601	200.800000
838.524902	195.800000
838.559265	197.400000
838.593567	195.200000
838.627869	185.500000
838.662170	195.100000
838.696472	184.900000
838.730774	187.100000
838.765137	197.600000
838.799377	177.700000
838.833740	194.300000
838.868042	200.000000
838.902283	183.800000
838.936646	198.300000
838.970947	195.800000
839.005188	196.800000
839.039551	185.300000
839.073792	199.100000
839.108093	190.700000
839.142395	201.000000
839.176697	185.300000
839.210937	192.700000
839.245300	204.800000
839.279541	187.200000
839.313843	190.200000
839.348145	196.100000
839.382385	197.000000
839.416687	197.000000
839.450989	196.600000
839.485229	192.100000
839.519531	188.900000
839.553833	198.400000
839.588013	192.100000
839.622314	194.200000
839.656555	195.100000
839.690857	191.900000
839.725159	186.800000
839.759460	191.200000
839.793640	190.400000
839.827942	190.700000
839.862183	187.600000
839.896423	193.600000
839.930725	200.500000
839.964966	199.100000
839.999207	200.600000
840.033508	200.800000
840.067688	190.600000
840.101990	201.200000
840.136230	191.300000
840.170471	200.000000
840.204712	189.200000
840.238953	188.900000
840.273193	194.700000
840.307434	197.200000
840.341736	187.500000
840.375916	185.800000
840.410217	190.000000
840.444397	197.000000
840.478638	196.900000
840.512878	199.100000
840.547119	194.500000
840.581360	195.300000
840.615601	202.300000
840.649780	203.600000
840.684021	193.100000
840.718262	202.400000
840.752441	197.500000
840.786682	194.600000
840.820862	196.100000
840.855103	200.800000
840.889343	194.100000
840.923584	198.200000
840.957764	194.500000
840.992004	195.600000
841.026184	206.400000
841.060425	191.300000
841.094666	190.200000
841.128845	197.100000
841.163025	194.900000
841.197266	195.700000
841.231445	194.300000
841.265686	193.700000
841.299866	188.600000
841.334045	200.600000
841.368286	191.900000
841.402405	200.400000
841.436646	197.000000
841.470825	190.100000
841.505005	191.500000
841.539185	188.900000
841.573425	189.900000
841.607544	192.700000
841.641785	194.300000
841.675964	187.300000
841.710144	193.800000
841.744324	190.000000
841.778503	191.900000
841.812683	189.000000
841.846863	203.300000
841.881042	200.600000
841.915222	190.400000
841.949402	208.500000
841.983521	184.700000
842.017700	191.000000
842.051880	194.800000
842.086060	195.000000
842.120239	193.200000
842.154419	191.600000
842.188538	192.600000
842.222717	190.700000
842.256897	203.500000
842.291016	193.800000
842.325195	195.500000
842.359375	204.500000
842.393494	200.600000
842.427673	194.700000
842.461853	196.400000
842.495911	200.600000
842.530090	196.100000
842.564209	192.100000
842.598389	195.400000
842.632568	194.800000
842.666626	197.500000
842.700806	190.100000
842.734985	190.700000
842.769043	196.200000
842.803223	191.000000
842.837402	191.500000
842.871460	190.300000
842.905640	201.700000
842.939697	188.400000
842.973877	194.100000
843.007996	198.100000
843.042175	202.100000
843.076233	189.500000
843.110413	194.500000
843.144470	202.800000
843.178589	196.600000
843.212769	190.000000
843.246826	197.200000
843.280945	191.600000
843.315125	190.000000
843.349182	188.400000
843.383301	200.700000
843.417419	205.700000
843.451538	193.400000
843.485657	191.600000
843.519714	191.600000
843.553833	195.600000
843.587952	191.000000
843.622070	189.500000
843.656128	198.100000
843.690247	192.100000
843.724304	190.600000
843.758423	194.600000
843.792542	191.700000
843.826599	193.300000
843.860718	192.600000
843.894836	186.700000
843.928894	194.800000
843.963013	196.200000
843.997070	189.300000
844.031128	186.800000
844.065247	198.500000
844.099304	197.500000
844.133362	194.800000
844.167480	195.800000
844.201599	200.900000
844.235596	195.300000
844.269714	194.100000
844.303711	196.100000
844.337830	185.300000
844.371948	196.800000
844.405945	192.700000
844.440063	189.000000
844.474121	208.500000
844.508118	191.400000
844.542236	191.300000
844.576294	193.000000
844.610352	188.300000
844.644409	192.200000
844.678406	185.300000
844.712524	197.400000
844.746582	200.000000
844.780640	193.000000
844.814636	193.300000
844.848755	204.200000
844.882751	191.200000
844.916809	199.500000
844.950867	195.600000
844.984863	202.400000
845.018921	192.800000
845.052979	192.000000
845.086975	194.200000
845.121033	186.500000
845.155090	188.900000
845.189087	201.600000
845.223145	190.900000
845.257141	193.800000
845.291199	196.600000
845.325256	201.700000
845.359253	194.000000
845.393250	204.200000
845.427307	193.700000
845.461304	196.300000
845.495361	194.000000
845.529358	205.300000
845.563354	191.300000
845.597412	189.700000
845.631409	200.200000
845.665405	201.100000
845.699463	197.800000
845.733459	190.700000
845.767456	200.800000
845.801453	191.600000
845.835449	199.700000
845.869446	197.800000
845.903503	198.500000
845.937439	189.600000
845.971497	201.300000
846.005493	188.100000
846.039429	198.400000
846.073486	203.800000
846.107483	192.400000
846.141418	192.000000
846.175476	192.500000
846.209473	201.500000
846.243408	190.600000
846.277405	193.400000
846.311401	189.200000
846.345337	194.400000
846.379395	199.400000
846.413330	190.600000
846.447327	200.800000
846.481323	188.600000
846.515259	190.900000
846.549255	193.700000
846.583252	196.200000
846.617187	189.200000
846.651184	196.900000
846.685120	191.600000
846.719055	202.700000
846.753052	198.300000
846.786987	198.800000
846.820984	187.000000
846.854980	201.500000
846.888916	188.100000
846.922852	196.200000
846.956848	201.700000
846.990723	188.900000
847.024719	194.900000
847.058716	194.300000
847.092590	201.500000
847.126587	196.600000
847.160522	191.500000
847.194458	198.200000
847.228455	190.100000
847.262390	188.300000
847.296265	190.700000
847.330261	200.800000
847.364136	192.800000
847.398132	190.900000
847.432068	194.200000
847.466003	192.100000
847.499939	192.300000
847.533875	195.200000
847.567749	192.300000
847.601746	191.400000
847.635681	198.300000
847.669556	184.800000
847.703491	199.800000
847.737427	209.600000
847.771301	188.700000
847.805237	195.600000
847.839233	194.300000
847.873108	194.400000
847.907043	191.800000
847.940918	200.400000
847.974854	195.900000
848.008789	197.900000
848.042664	196.000000
848.076538	196.300000
848.110474	193.500000
848.144348	195.300000
848.178284	188.200000
848.212219	194.100000
848.246094	191.700000
848.279968	196.200000
848.313904	197.300000
848.347778	194.500000
848.381653	193.400000
848.415588	189.800000
848.449463	191.800000
848.483337	195.600000
848.517212	199.700000
848.551086	194.100000
848.585022	189.300000
848.618835	202.400000
848.652771	191.800000
848.686646	189.100000
848.720520	203.000000
848.754395	192.500000
848.788330	199.700000
848.822144	197.700000
848.856018	193.500000
848.889954	204.400000
848.923767	189.200000
848.957642	190.400000
848.991577	198.300000
849.025391	192.600000
849.059265	193.500000
849.093079	191.600000
849.126953	187.200000
849.160828	200.200000
849.194641	196.000000
849.228577	190.900000
849.262451	192.100000
849.296265	190.500000
849.330139	188.500000
849.364014	194.800000
849.397827	197.000000
849.431702	193.600000
849.465515	197.900000
849.499329	185.100000
849.533203	187.900000
849.567078	183.700000
849.600891	198.300000
849.634766	192.300000
849.668518	199.600000
849.702393	195.600000
849.736267	187.600000
849.770020	206.100000
849.803894	199.000000
849.837769	194.300000
849.871521	194.100000
849.905396	200.000000
849.939270	189.800000
849.973022	192.000000
850.006897	196.800000
850.040710	197.300000
850.074524	198.300000
850.108337	191.900000
850.142151	196.600000
850.175964	200.700000
850.209778	194.000000
850.243530	181.200000
850.277405	199.300000
850.311218	194.200000
850.344971	190.500000
850.378845	203.400000
850.412659	191.700000
850.446411	194.300000
850.480225	193.800000
850.514038	199.900000
850.547791	196.200000
850.581665	193.600000
850.615417	191.400000
850.649231	195.800000
850.683044	193.000000
850.716858	193.200000
850.750610	193.900000
850.784424	196.500000
850.818176	190.700000
850.851929	192.100000
850.885742	191.800000
850.919495	192.200000
850.953308	201.100000
850.987122	201.500000
851.020874	188.500000
851.054626	186.500000
851.088440	197.600000
851.122192	198.000000
851.156006	194.300000
851.189697	193.500000
851.223511	190.600000
851.257263	197.400000
851.291077	197.600000
851.324829	191.400000
851.358582	191.800000
851.392334	191.700000
851.426086	192.400000
851.459900	201.100000
851.493591	194.100000
851.527344	194.800000
851.561157	193.400000
851.594849	196.300000
851.628662	196.300000
851.662415	202.100000
851.696106	197.200000
851.729858	198.400000
851.763611	189.600000
851.797363	195.300000
851.831116	190.500000
851.864868	197.900000
851.898560	198.500000
851.932312	191.300000
851.966064	197.100000
851.999817	193.500000
852.033569	194.300000
852.067261	197.800000
852.101013	190.900000
852.134766	193.800000
852.168457	184.900000
852.202209	197.500000
852.235901	190.200000
852.269592	197.800000
852.303345	204.600000
852.337036	198.600000
852.370789	192.600000
852.404541	198.600000
852.438171	190.100000
852.471924	192.800000
852.505676	187.400000
852.539307	196.200000
852.573059	190.800000
852.606812	191.600000
852.640442	193.200000
852.674194	200.000000
852.707886	204.600000
852.741577	201.900000
852.775269	188.600000
852.809021	196.500000
852.842651	196.700000
852.876404	199.700000
852.910034	195.500000
852.943787	200.400000
852.977478	196.600000
853.011108	190.900000
853.044861	191.400000
853.078552	202.000000
853.112183	195.700000
853.145874	197.200000
853.179626	185.200000
853.213257	196.700000
853.246948	192.200000
853.280640	202.800000
853.314270	194.600000
853.347961	202.800000
853.381653	195.000000
853.415283	198.000000
853.448975	191.000000
853.482605	194.600000
853.516296	193.600000
853.549988	188.700000
853.583618	195.000000
853.617310	195.700000
853.651001	194.500000
853.684631	190.600000
853.718323	192.500000
853.751953	202.900000
853.785583	184.600000
853.819275	198.400000
853.852966	195.300000
853.886536	185.800000
853.920227	188.000000
853.953918	200.200000
853.987488	190.800000
854.021179	198.100000
854.054749	201.500000
854.088440	196.700000
854.122131	189.600000
854.155701	198.100000
854.189331	190.900000
854.223022	196.400000
854.256592	195.900000
854.290283	190.700000
854.323914	197.500000
854.357483	196.000000
854.391174	195.700000
854.424744	203.000000
854.458374	197.100000
854.492065	205.300000
854.525696	192.300000
854.559265	200.800000
854.592896	205.700000
854.626465	195.300000
854.660095	194.200000
854.693787	195.700000
854.727356	194.100000
854.760986	199.200000
854.794617	196.000000
854.828186	193.100000
854.861816	198.600000
854.895447	195.700000
854.929016	197.100000
854.962585	197.500000
854.996155	202.900000
855.029785	196.300000
855.063416	197.600000
855.097046	199.800000
855.130615	189.000000
855.164185	201.100000
855.197754	195.100000
855.231384	199.000000
855.264954	193.700000
855.298523	198.400000
855.332153	195.400000
855.365723	203.900000
855.399292	190.500000
855.432922	195.300000
855.466492	197.400000
855.500061	188.600000
855.533630	191.200000
855.567200	198.500000
855.600769	199.100000
855.634338	198.900000
855.667969	197.000000
855.701477	190.200000
855.735046	191.800000
855.768616	185.900000
855.802185	196.300000
855.835754	208.900000
855.869324	185.400000
855.902893	192.200000
855.936401	201.200000
855.969971	195.800000
856.003540	187.000000
856.037109	197.400000
856.070618	194.200000
856.104187	188.100000
856.137695	190.500000
856.171265	185.100000
856.204834	193.500000
856.238403	200.300000
856.271912	191.600000
856.305481	197.900000
856.338989	188.100000
856.372559	197.500000
856.406128	195.300000
856.439636	199.600000
856.473145	192.400000
856.506653	201.600000
856.540222	196.000000
856.573792	203.200000
856.607300	197.500000
856.640808	189.400000
856.674377	196.400000
856.707825	224.000000
856.741394	197.900000
856.774902	190.900000
856.808472	185.200000
856.841980	198.100000
856.875488	204.000000
856.908936	187.600000
856.942505	192.800000
856.976013	193.200000
857.009521	189.400000
857.043030	195.300000
857.076477	192.700000
857.110046	200.300000
857.143555	194.600000
857.177063	198.800000
857.210571	192.200000
857.244080	188.700000
857.277527	195.900000
857.311035	194.300000
857.344543	198.200000
857.378052	193.500000
857.411499	199.000000
857.445068	205.700000
857.478516	195.600000
857.512024	187.700000
857.545532	193.300000
857.578979	196.200000
857.612427	194.600000
857.645874	192.400000
857.679382	196.500000
857.712891	198.300000
857.746399	195.100000
857.779846	200.100000
857.813354	198.400000
857.846741	194.600000
857.880249	191.500000
857.913757	196.400000
857.947266	197.500000
857.980652	197.800000
858.014160	191.100000
858.047546	194.000000
858.081055	194.100000
858.114563	202.600000
858.147949	189.600000
858.181458	199.000000
858.214844	194.000000
858.248352	187.100000
858.281799	201.200000
858.315308	206.600000
858.348694	198.100000
858.382141	202.300000
858.415588	197.500000
858.449036	201.000000
858.482483	197.700000
858.515930	189.900000
858.549377	194.200000
858.582825	201.800000
858.616211	197.800000
858.649658	195.600000
858.683105	189.600000
858.716553	191.100000
858.750000	189.700000
858.783386	192.200000
858.816833	186.000000
858.850281	196.300000
858.883728	196.500000
858.917114	192.900000
858.950562	203.300000
858.983948	203.300000
859.017395	198.400000
859.050781	192.900000
859.084167	191.200000
859.117615	186.700000
859.151062	197.000000
859.184448	190.600000
859.217834	192.000000
859.251282	193.800000
859.284668	190.300000
859.318054	185.700000
859.351440	192.600000
859.384888	202.500000
859.418274	187.100000
859.451721	186.400000
859.485046	196.900000
859.518494	196.100000
859.551819	191.400000
859.585266	196.700000
859.618652	197.100000
859.652039	188.300000
859.685425	189.300000
859.718811	187.300000
859.752197	182.800000
859.785583	202.200000
859.819031	202.700000
859.852356	197.700000
859.885742	191.400000
859.919067	194.000000
859.952454	192.000000
859.985901	199.100000
860.019287	192.300000
860.052612	0.000000
860.085999	0.000000
860.119324	0.000000
860.152710	0.000000
860.186096	0.000000
860.219421	0.000000
860.252808	0.000000
860.286133	0.000000
860.319519	0.000000
860.352905	0.000000
860.386292	0.000000
860.419617	0.000000
860.452942	0.000000
860.486267	0.000000
860.519653	0.000000
860.553040	0.000000
860.586365	0.000000
860.619690	0.000000
860.653076	0.000000
860.686340	0.000000
860.719727	0.000000
860.753113	0.000000
860.786377	0.000000
860.819763	0.000000
860.853027	0.000000
860.886414	0.000000
860.919739	0.000000
860.953125	0.000000
860.986389	0.000000
861.019714	0.000000
861.053040	0.000000
861.086365	0.000000
861.119690	0.000000
861.153076	0.000000
861.186340	0.000000
861.219666	0.000000
861.252930	0.000000
861.286316	0.000000
861.319641	0.000000
861.352905	0.000000
861.386230	0.000000
861.419495	0.000000
861.452820	0.000000
861.486145	0.000000
861.519470	0.000000
861.552734	0.000000
861.586060	0.000000
861.619324	0.000000
861.652649	0.000000
861.685974	0.000000
861.719238	0.000000
861.752563	0.000000
861.785828	0.000000
861.819092	0.000000
861.852417	0.000000
861.885742	0.000000
861.918945	0.000000
861.952271	0.000000
861.985535	0.000000
862.018799	0.000000
862.052124	0.000000
862.085449	0.000000
862.118652	0.000000
862.151978	0.000000
862.185181	0.000000
862.218506	0.000000
862.251770	0.000000
862.285034	0.000000
862.318298	0.000000
862.351562	0.000000
862.384827	0.000000
862.418091	0.000000
862.451355	0.000000
862.484619	0.000000
862.517883	0.000000
862.551086	0.000000
862.584351	0.000000
862.617676	0.000000
862.650940	0.000000
862.684143	0.000000
862.717407	0.000000
862.750610	0.000000
862.783875	0.000000
862.817139	0.000000
862.850342	0.000000
862.883606	0.000000
862.916870	0.000000
862.950073	0.000000
862.983337	0.000000
863.016602	0.000000
863.049805	0.000000
863.083069	0.000000
863.116211	0.000000
863.149475	0.000000
863.182739	0.000000
863.216003	0.000000
863.249146	0.000000
863.282410	0.000000
863.315613	0.000000
863.348816	0.000000
863.382080	0.000000
863.415222	0.000000
863.448486	0.000000
863.481689	0.000000
863.514893	0.000000
863.548157	0.000000
863.581360	0.000000
863.614502	0.000000
863.647766	0.000000
863.680908	0.000000
863.714172	0.000000
863.747375	0.000000
863.780579	0.000000
863.813721	0.000000
863.846985	0.000000
863.880127	0.000000
863.913330	0.000000
863.946533	0.000000
863.979675	0.000000
864.012939	0.000000
