Model Number: SPM-001-M   
Serial Number: 10090201
Firmware Version: 004.17.6
Exposure Time: 500000.000000us
Data Taken on: 10-03-2021 11:00:51.488
Wavelength	Amplitude
733.770752	0.000000
733.808716	0.000000
733.846619	0.000000
733.884583	0.000000
733.922546	0.000000
733.960449	0.000000
733.998413	0.000000
734.036377	0.000000
734.074219	0.000000
734.112183	0.000000
734.150085	0.000000
734.188049	0.000000
734.226013	0.000000
734.263916	0.000000
734.301819	0.000000
734.339783	0.000000
734.377686	0.000000
734.415588	0.000000
734.453552	0.000000
734.491455	0.000000
734.529419	0.000000
734.567322	0.000000
734.605225	0.000000
734.643127	0.000000
734.681091	0.000000
734.718994	0.000000
734.756897	0.000000
734.794800	0.000000
734.832703	0.000000
734.870667	0.000000
734.908508	0.000000
734.946472	0.000000
734.984375	0.000000
735.022278	0.000000
735.060181	0.000000
735.098083	0.000000
735.135986	0.000000
735.173889	0.000000
735.211792	0.000000
735.249695	0.000000
735.287598	0.000000
735.325439	0.000000
735.363403	0.000000
735.401306	0.000000
735.439148	0.000000
735.477051	0.000000
735.515015	0.000000
735.552856	0.000000
735.590759	0.000000
735.628662	0.000000
735.666504	0.000000
735.704407	0.000000
735.742310	0.000000
735.780212	0.000000
735.818115	0.000000
735.856018	0.000000
735.893860	0.000000
735.931763	0.000000
735.969604	0.000000
736.007507	0.000000
736.045410	0.000000
736.083252	0.000000
736.121094	0.000000
736.158997	0.000000
736.196838	0.000000
736.234741	0.000000
736.272644	0.000000
736.310486	0.000000
736.348389	0.000000
736.386230	0.000000
736.424072	0.000000
736.461975	0.000000
736.499878	0.000000
736.537720	0.000000
736.575562	0.000000
736.613403	0.000000
736.651306	0.000000
736.689148	0.000000
736.726990	0.000000
736.764893	0.000000
736.802734	0.000000
736.840576	0.000000
736.878418	0.000000
736.916321	0.000000
736.954102	0.000000
736.992004	0.000000
737.029846	0.000000
737.067688	0.000000
737.105530	0.000000
737.143372	0.000000
737.181213	0.000000
737.219116	0.000000
737.256897	0.000000
737.294739	0.000000
737.332642	0.000000
737.370422	0.000000
737.408325	0.000000
737.446167	0.000000
737.483948	0.000000
737.521790	0.000000
737.559692	0.000000
737.597473	0.000000
737.635315	0.000000
737.673157	0.000000
737.710999	0.000000
737.748840	0.000000
737.786621	0.000000
737.824463	0.000000
737.862305	0.000000
737.900085	0.000000
737.937927	0.000000
737.975769	0.000000
738.013550	0.000000
738.051392	0.000000
738.089233	0.000000
738.127014	0.000000
738.164856	0.000000
738.202698	0.000000
738.240479	0.000000
738.278320	0.000000
738.316162	0.000000
738.353943	0.000000
738.391785	0.000000
738.429565	0.000000
738.467407	0.000000
738.505188	0.000000
738.542969	0.000000
738.580811	0.000000
738.618652	0.000000
738.656372	0.000000
738.694214	0.000000
738.732056	0.000000
738.769836	0.000000
738.807617	0.000000
738.845459	0.000000
738.883240	0.000000
738.921021	0.000000
738.958862	0.000000
738.996582	0.000000
739.034424	0.000000
739.072205	0.000000
739.109985	0.000000
739.147827	0.000000
739.185547	0.000000
739.223389	0.000000
739.261169	0.000000
739.298889	0.000000
739.336731	0.000000
739.374512	0.000000
739.412292	0.000000
739.450073	0.000000
739.487854	0.000000
739.525635	0.000000
739.563416	0.000000
739.601135	0.000000
739.638977	0.000000
739.676758	0.000000
739.714478	0.000000
739.752258	0.000000
739.790100	0.000000
739.827820	0.000000
739.865601	0.000000
739.903381	0.000000
739.941101	0.000000
739.978882	196.700000
740.016724	192.600000
740.054443	198.000000
740.092224	189.900000
740.130005	188.100000
740.167725	191.500000
740.205505	189.500000
740.243225	200.200000
740.281006	193.500000
740.318787	185.800000
740.356506	198.600000
740.394287	197.500000
740.432068	188.300000
740.469727	188.200000
740.507507	197.000000
740.545288	192.900000
740.583008	195.100000
740.620789	194.500000
740.658569	183.900000
740.696228	193.300000
740.734009	198.500000
740.771790	182.600000
740.809509	196.000000
740.847229	190.600000
740.884949	187.800000
740.922729	186.200000
740.960449	189.700000
740.998169	188.900000
741.035950	187.800000
741.073669	195.400000
741.111389	192.300000
741.149170	204.300000
741.186890	202.800000
741.224609	196.600000
741.262329	194.400000
741.300110	203.800000
741.337769	187.900000
741.375549	186.000000
741.413208	194.300000
741.450989	188.800000
741.488708	191.000000
741.526367	190.900000
741.564148	196.100000
741.601868	197.300000
741.639526	193.500000
741.677307	195.600000
741.715027	195.000000
741.752686	189.900000
741.790466	200.500000
741.828186	196.900000
741.865845	188.200000
741.903564	183.900000
741.941345	192.000000
741.979004	189.400000
742.016724	195.900000
742.054382	193.400000
742.092102	199.800000
742.129822	185.000000
742.167480	191.700000
742.205200	191.400000
742.242920	195.400000
742.280640	197.900000
742.318359	189.800000
742.356079	188.900000
742.393738	198.700000
742.431396	192.300000
742.469116	197.100000
742.506775	182.400000
742.544495	197.100000
742.582214	196.200000
742.619873	192.600000
742.657593	199.500000
742.695251	197.800000
742.732971	191.800000
742.770630	194.400000
742.808289	193.700000
742.846008	193.700000
742.883728	194.700000
742.921326	193.400000
742.959045	188.000000
742.996765	193.300000
743.034424	191.100000
743.072083	190.700000
743.109802	193.400000
743.147400	186.800000
743.185120	193.200000
743.222839	193.800000
743.260437	198.500000
743.298157	194.900000
743.335754	185.800000
743.373474	191.200000
743.411133	185.800000
743.448792	193.500000
743.486450	192.300000
743.524170	186.600000
743.561768	194.200000
743.599487	199.500000
743.637146	204.800000
743.674744	191.300000
743.712463	191.000000
743.750122	193.200000
743.787720	196.700000
743.825439	188.900000
743.863037	190.800000
743.900696	191.500000
743.938416	217.200000
743.976013	192.000000
744.013672	202.500000
744.051331	197.600000
744.088928	202.200000
744.126587	199.200000
744.164307	193.400000
744.201904	189.200000
744.239563	198.600000
744.277222	194.300000
744.314819	192.100000
744.352478	199.400000
744.390137	195.700000
744.427734	194.600000
744.465393	191.200000
744.502991	187.500000
744.540649	196.800000
744.578308	193.000000
744.615906	188.400000
744.653564	181.200000
744.691223	197.000000
744.728821	185.700000
744.766418	193.000000
744.804077	196.300000
744.841675	190.500000
744.879333	186.300000
744.916992	192.200000
744.954529	190.000000
744.992187	199.400000
745.029785	190.600000
745.067444	190.700000
745.105042	194.700000
745.142639	196.500000
745.180298	203.200000
745.217896	189.600000
745.255493	192.600000
745.293152	197.900000
745.330750	197.400000
745.368347	201.100000
745.405945	196.800000
745.443604	193.100000
745.481140	198.800000
745.518799	191.300000
745.556396	197.900000
745.593994	197.800000
745.631592	193.400000
745.669189	188.500000
745.706787	195.900000
745.744385	188.500000
745.781982	194.800000
745.819580	189.000000
745.857178	193.800000
745.894775	190.900000
745.932373	194.100000
745.969971	193.400000
746.007568	184.800000
746.045166	202.300000
746.082764	199.400000
746.120300	195.300000
746.157898	197.700000
746.195557	192.100000
746.233093	188.700000
746.270691	196.400000
746.308228	196.600000
746.345825	196.900000
746.383423	198.300000
746.420959	189.700000
746.458557	191.100000
746.496155	189.700000
746.533691	192.600000
746.571289	188.300000
746.608887	194.600000
746.646423	193.500000
746.684021	194.800000
746.721619	190.300000
746.759155	196.200000
746.796753	185.900000
746.834351	186.600000
746.871826	188.800000
746.909424	201.200000
746.946960	195.800000
746.984558	192.200000
747.022156	191.800000
747.059631	199.300000
747.097229	196.000000
747.134827	192.600000
747.172363	201.500000
747.209900	195.200000
747.247498	188.700000
747.285034	200.500000
747.322571	202.200000
747.360168	192.100000
747.397644	186.700000
747.435242	196.600000
747.472778	201.400000
747.510315	190.800000
747.547913	191.500000
747.585388	200.700000
747.622925	194.100000
747.660522	184.700000
747.697998	190.900000
747.735596	192.200000
747.773132	190.900000
747.810669	193.100000
747.848206	198.200000
747.885742	186.500000
747.923279	189.700000
747.960815	195.300000
747.998352	195.300000
748.035889	198.400000
748.073425	200.000000
748.110901	189.700000
748.148437	190.900000
748.185974	195.100000
748.223511	206.000000
748.261047	195.500000
748.298584	195.200000
748.336060	192.900000
748.373596	198.000000
748.411133	212.100000
748.448608	189.600000
748.486145	196.900000
748.523682	202.600000
748.561218	199.200000
748.598755	194.700000
748.636292	196.400000
748.673706	190.900000
748.711243	200.300000
748.748718	195.200000
748.786255	193.600000
748.823792	192.900000
748.861267	189.200000
748.898804	195.700000
748.936340	195.700000
748.973816	191.700000
749.011292	200.200000
749.048828	194.700000
749.086304	197.100000
749.123840	204.500000
749.161316	188.800000
749.198792	203.900000
749.236328	201.500000
749.273743	192.700000
749.311279	193.000000
749.348816	196.300000
749.386230	195.500000
749.423767	181.600000
749.461304	197.600000
749.498718	193.200000
749.536255	202.300000
749.573730	205.300000
749.611206	199.900000
749.648682	191.600000
749.686218	194.400000
749.723633	197.900000
749.761169	191.700000
749.798645	189.300000
749.836060	193.800000
749.873596	189.600000
749.911011	193.800000
749.948547	199.500000
749.986023	193.600000
750.023437	192.800000
750.060913	187.800000
750.098450	186.800000
750.135864	193.100000
750.173340	193.700000
750.210815	199.800000
750.248291	188.000000
750.285767	193.700000
750.323242	201.300000
750.360657	195.000000
750.398132	187.500000
750.435608	197.200000
750.473022	188.800000
750.510498	188.700000
750.547974	189.000000
750.585449	191.200000
750.622925	183.400000
750.660339	203.700000
750.697815	194.100000
750.735291	192.300000
750.772644	195.600000
750.810120	194.900000
750.847595	196.200000
750.885010	189.400000
750.922485	203.000000
750.959961	191.800000
750.997375	201.600000
751.034851	196.400000
751.072266	199.700000
751.109680	185.400000
751.147156	201.400000
751.184570	196.400000
751.221985	196.400000
751.259460	184.500000
751.296875	194.700000
751.334290	193.900000
751.371765	200.100000
751.409180	196.400000
751.446594	201.200000
751.484070	196.700000
751.521423	197.400000
751.558899	195.100000
751.596375	202.700000
751.633728	199.100000
751.671204	208.800000
751.708618	188.900000
751.746033	195.400000
751.783447	186.900000
751.820801	190.600000
751.858276	195.400000
751.895691	194.300000
751.933105	191.200000
751.970520	190.300000
752.007935	191.800000
752.045349	196.800000
752.082764	192.900000
752.120178	192.900000
752.157532	189.500000
752.195007	191.000000
752.232422	196.700000
752.269775	199.900000
752.307190	196.200000
752.344543	190.200000
752.382019	192.800000
752.419434	192.200000
752.456787	195.100000
752.494202	197.600000
752.531616	196.100000
752.568970	197.300000
752.606384	195.000000
752.643799	195.500000
752.681152	203.100000
752.718567	197.500000
752.755981	186.500000
752.793335	196.500000
752.830750	187.000000
752.868164	200.600000
752.905518	189.600000
752.942932	196.800000
752.980225	189.000000
753.017639	197.500000
753.055054	192.900000
753.092407	195.600000
753.129822	201.100000
753.167175	203.400000
753.204529	193.700000
753.241943	189.200000
753.279358	188.600000
753.316650	197.500000
753.354065	198.000000
753.391479	197.600000
753.428772	204.200000
753.466187	196.700000
753.503479	188.700000
753.540894	191.100000
753.578308	188.700000
753.615601	186.600000
753.653015	194.400000
753.690369	192.100000
753.727722	189.800000
753.765076	184.600000
753.802490	189.600000
753.839783	184.100000
753.877136	190.600000
753.914551	209.000000
753.951843	188.500000
753.989258	196.700000
754.026611	194.400000
754.063904	196.700000
754.101257	189.100000
754.138611	187.700000
754.175964	195.100000
754.213318	205.600000
754.250610	186.800000
754.288025	191.000000
754.325378	188.300000
754.362671	199.200000
754.400024	191.000000
754.437378	203.400000
754.474670	202.900000
754.512085	190.600000
754.549438	193.200000
754.586731	192.600000
754.624084	191.700000
754.661438	190.400000
754.698730	200.300000
754.736084	193.400000
754.773376	191.500000
754.810730	197.900000
754.848083	192.200000
754.885315	198.900000
754.922668	184.600000
754.960022	190.300000
754.997314	198.300000
755.034668	196.500000
755.072021	193.900000
755.109253	192.300000
755.146606	202.100000
755.183960	193.200000
755.221252	203.500000
755.258545	202.300000
755.295898	201.500000
755.333191	204.400000
755.370544	199.300000
755.407776	195.800000
755.445129	196.300000
755.482422	201.600000
755.519714	192.100000
755.557068	188.800000
755.594360	187.200000
755.631653	202.000000
755.668945	205.100000
755.706299	200.400000
755.743530	209.200000
755.780884	205.200000
755.818176	202.300000
755.855408	203.800000
755.892761	200.600000
755.930054	198.900000
755.967346	199.300000
756.004639	202.000000
756.041870	198.500000
756.079224	204.000000
756.116516	195.400000
756.153748	202.200000
756.191040	206.800000
756.228394	200.800000
756.265625	194.800000
756.302917	199.200000
756.340210	196.800000
756.377441	204.300000
756.414795	208.100000
756.452087	199.100000
756.489319	194.500000
756.526611	202.300000
756.563843	202.100000
756.601135	211.200000
756.638428	210.400000
756.675659	199.500000
756.712952	205.900000
756.750244	204.200000
756.787476	203.700000
756.824768	208.300000
756.862061	200.400000
756.899292	246.800000
756.936584	207.400000
756.973816	213.100000
757.011047	216.100000
757.048340	203.300000
757.085632	202.800000
757.122864	218.200000
757.160156	202.200000
757.197327	204.500000
757.234619	208.800000
757.271912	203.200000
757.309082	209.200000
757.346375	200.300000
757.383667	212.000000
757.420837	205.600000
757.458130	206.900000
757.495422	203.600000
757.532593	208.300000
757.569885	197.500000
757.607117	201.200000
757.644348	206.300000
757.681580	218.200000
757.718811	193.600000
757.756042	204.900000
757.793335	202.800000
757.830505	209.100000
757.867798	203.600000
757.905029	203.300000
757.942200	209.500000
757.979492	202.400000
758.016724	205.800000
758.053894	204.200000
758.091187	226.100000
758.128418	207.500000
758.165588	207.300000
758.202820	218.700000
758.240112	210.400000
758.277283	216.900000
758.314514	210.700000
758.351685	205.100000
758.388916	219.600000
758.426147	215.600000
758.463379	220.300000
758.500610	213.400000
758.537842	213.400000
758.575012	215.000000
758.612244	206.100000
758.649475	222.400000
758.686646	204.100000
758.723877	217.300000
758.761108	220.300000
758.798279	210.100000
758.835510	215.500000
758.872742	218.200000
758.909851	215.800000
758.947083	213.000000
758.984253	214.200000
759.021484	216.600000
759.058716	218.100000
759.095886	215.700000
759.133057	212.700000
759.170288	218.700000
759.207458	210.500000
759.244690	224.700000
759.281860	223.800000
759.319031	214.500000
759.356262	212.300000
759.393433	212.400000
759.430603	214.300000
759.467773	214.700000
759.505005	220.900000
759.542175	221.300000
759.579346	213.200000
759.616516	214.800000
759.653687	217.000000
759.690918	213.800000
759.728027	216.300000
759.765259	216.800000
759.802429	219.000000
759.839539	219.200000
759.876770	222.700000
759.913940	226.800000
759.951111	218.000000
759.988281	218.600000
760.025452	214.000000
760.062561	213.800000
760.099792	225.900000
760.136963	221.500000
760.174072	216.100000
760.211243	213.100000
760.248413	214.400000
760.285583	214.100000
760.322754	227.600000
760.359863	226.000000
760.397034	224.900000
760.434204	219.600000
760.471375	219.800000
760.508545	217.300000
760.545715	219.500000
760.582825	215.600000
760.619995	225.200000
760.657166	215.300000
760.694275	227.300000
760.731445	223.900000
760.768555	222.700000
760.805664	225.400000
760.842834	225.600000
760.879944	226.400000
760.917114	222.200000
760.954285	222.100000
760.991394	216.700000
761.028564	230.000000
761.065674	228.300000
761.102783	220.100000
761.139954	230.200000
761.177124	228.600000
761.214172	232.200000
761.251343	224.100000
761.288452	227.800000
761.325562	230.200000
761.362732	224.600000
761.399841	225.700000
761.436951	230.900000
761.474121	224.900000
761.511169	230.000000
761.548340	234.800000
761.585449	234.900000
761.622559	233.100000
761.659668	233.200000
761.696838	239.700000
761.733887	237.300000
761.771057	232.300000
761.808167	234.200000
761.845276	237.900000
761.882385	248.600000
761.919434	236.200000
761.956604	255.800000
761.993713	231.400000
762.030762	243.900000
762.067871	235.100000
762.105042	237.900000
762.142090	245.500000
762.179199	241.000000
762.216309	242.800000
762.253418	255.700000
762.290527	250.700000
762.327637	249.000000
762.364685	235.200000
762.401794	247.800000
762.438904	244.600000
762.475952	239.400000
762.513062	238.700000
762.550110	239.800000
762.587219	255.200000
762.624329	253.500000
762.661377	247.000000
762.698486	248.400000
762.735596	246.500000
762.772644	241.500000
762.809753	239.400000
762.846863	246.900000
762.883911	250.600000
762.921021	250.900000
762.958069	250.700000
762.995117	257.400000
763.032227	257.900000
763.069336	248.500000
763.106323	245.300000
763.143433	243.000000
763.180481	254.100000
763.217590	253.100000
763.254639	251.400000
763.291687	251.700000
763.328735	261.000000
763.365845	252.200000
763.402893	251.600000
763.439941	255.300000
763.477051	260.200000
763.514038	258.500000
763.551147	255.400000
763.588196	255.800000
763.625244	255.600000
763.662292	264.800000
763.699402	269.100000
763.736389	262.300000
763.773499	273.900000
763.810486	264.600000
763.847534	263.700000
763.884644	266.000000
763.921631	259.500000
763.958679	273.300000
763.995728	264.100000
764.032776	273.100000
764.069824	257.300000
764.106873	266.500000
764.143860	275.400000
764.180969	265.600000
764.218018	275.400000
764.255005	266.400000
764.292053	268.700000
764.329102	278.500000
764.366089	277.900000
764.403137	277.000000
764.440125	267.800000
764.477173	270.800000
764.514221	273.200000
764.551208	268.900000
764.588257	267.500000
764.625305	280.100000
764.662292	283.800000
764.699341	288.000000
764.736389	278.700000
764.773376	294.900000
764.810425	283.700000
764.847473	291.100000
764.884399	285.100000
764.921448	293.200000
764.958435	291.000000
764.995483	281.500000
765.032532	296.800000
765.069458	282.600000
765.106506	283.100000
765.143555	282.800000
765.180481	285.300000
765.217529	295.300000
765.254578	279.900000
765.291504	292.400000
765.328552	286.000000
765.365540	285.300000
765.402527	298.600000
765.439575	286.600000
765.476501	280.900000
765.513550	284.000000
765.550537	287.400000
765.587463	295.800000
765.624512	287.400000
765.661499	279.400000
765.698486	295.700000
765.735474	286.300000
765.772461	288.000000
765.809448	298.500000
765.846436	295.800000
765.883423	299.200000
765.920410	294.000000
765.957397	290.300000
765.994385	294.700000
766.031311	306.000000
766.068359	298.700000
766.105286	298.500000
766.142273	305.100000
766.179260	301.400000
766.216187	293.700000
766.253174	293.500000
766.290161	301.400000
766.327148	304.700000
766.364136	304.300000
766.401123	320.600000
766.438049	296.900000
766.475037	312.700000
766.512024	310.400000
766.548950	324.000000
766.585937	319.800000
766.622864	313.100000
766.659790	313.900000
766.696777	304.200000
766.733704	322.700000
766.770691	312.600000
766.807678	328.900000
766.844604	322.400000
766.881531	322.300000
766.918518	327.200000
766.955444	330.300000
766.992432	321.300000
767.029358	329.100000
767.066284	328.800000
767.103271	327.400000
767.140198	354.400000
767.177124	346.000000
767.214050	335.000000
767.251038	338.800000
767.287964	332.800000
767.324890	330.800000
767.361816	337.500000
767.398743	344.300000
767.435730	340.000000
767.472595	344.700000
767.509583	350.900000
767.546509	338.900000
767.583374	344.600000
767.620361	338.200000
767.657288	343.900000
767.694214	345.700000
767.731140	343.700000
767.768066	348.100000
767.804993	352.600000
767.841919	342.300000
767.878845	350.300000
767.915710	358.900000
767.952698	351.500000
767.989563	354.100000
768.026489	357.000000
768.063416	352.600000
768.100281	353.000000
768.137207	367.400000
768.174133	366.800000
768.211060	366.200000
768.247986	363.700000
768.284912	361.800000
768.321777	367.800000
768.358704	364.100000
768.395630	368.600000
768.432495	361.300000
768.469421	372.800000
768.506348	373.100000
768.543152	382.300000
768.580078	378.400000
768.616943	382.400000
768.653870	382.500000
768.690796	382.400000
768.727661	378.700000
768.764587	383.400000
768.801453	375.400000
768.838318	391.900000
768.875244	386.800000
768.912109	394.900000
768.948975	384.600000
768.985901	389.700000
769.022766	388.800000
769.059631	393.800000
769.096558	389.200000
769.133362	391.700000
769.170288	392.800000
769.207214	395.900000
769.244019	398.700000
769.280945	401.100000
769.317810	406.700000
769.354675	402.500000
769.391541	413.100000
769.428406	407.800000
769.465271	418.100000
769.502136	407.500000
769.539062	410.300000
769.575867	410.100000
769.612732	410.400000
769.649597	417.100000
769.686462	425.300000
769.723328	416.400000
769.760193	414.100000
769.797058	416.100000
769.833923	427.900000
769.870728	423.700000
769.907593	427.800000
769.944519	425.700000
769.981323	430.200000
770.018188	430.700000
770.055054	428.400000
770.091858	427.200000
770.128723	440.800000
770.165588	447.100000
770.202393	431.500000
770.239258	445.300000
770.276062	438.600000
770.312927	440.600000
770.349792	448.300000
770.386597	444.400000
770.423462	452.100000
770.460327	459.000000
770.497131	447.500000
770.533997	437.200000
770.570862	453.500000
770.607605	454.700000
770.644470	451.200000
770.681335	449.800000
770.718140	449.300000
770.754944	440.700000
770.791809	444.500000
770.828613	447.700000
770.865479	447.200000
770.902222	460.200000
770.939087	453.400000
770.975952	442.500000
771.012695	450.900000
771.049561	466.900000
771.086365	454.700000
771.123169	450.300000
771.159973	456.000000
771.196838	454.900000
771.233582	455.700000
771.270447	460.200000
771.307251	464.400000
771.344055	459.200000
771.380859	464.200000
771.417664	457.600000
771.454468	466.200000
771.491272	468.100000
771.528076	468.200000
771.564880	466.500000
771.601685	478.400000
771.638428	468.600000
771.675293	474.600000
771.712097	464.800000
771.748840	482.100000
771.785645	475.900000
771.822449	479.000000
771.859253	481.300000
771.896057	477.500000
771.932861	492.800000
771.969604	480.500000
772.006409	475.100000
772.043213	491.300000
772.079956	487.900000
772.116760	476.300000
772.153503	486.200000
772.190308	496.500000
772.227112	486.600000
772.263855	483.700000
772.300659	493.100000
772.337463	497.700000
772.374207	494.500000
772.411011	485.400000
772.447754	492.300000
772.484497	511.200000
772.521301	509.400000
772.558105	502.700000
772.594849	505.100000
772.631592	512.000000
772.668396	508.800000
772.705139	520.400000
772.741882	519.300000
772.778625	530.600000
772.815430	531.600000
772.852173	526.300000
772.888916	535.800000
772.925720	542.700000
772.962463	546.700000
772.999207	544.100000
773.035950	546.700000
773.072754	546.900000
773.109436	545.900000
773.146240	546.000000
773.182922	543.800000
773.219727	559.700000
773.256470	551.400000
773.293152	539.100000
773.329956	547.500000
773.366699	552.700000
773.403381	546.300000
773.440186	558.100000
773.476929	560.100000
773.513611	557.100000
773.550354	554.800000
773.587158	555.600000
773.623840	552.800000
773.660583	565.500000
773.697327	580.400000
773.734009	568.900000
773.770813	567.000000
773.807495	567.000000
773.844238	572.900000
773.880981	591.800000
773.917664	584.500000
773.954407	591.800000
773.991150	583.400000
774.027832	590.600000
774.064575	580.600000
774.101318	595.900000
774.138000	599.300000
774.174744	593.200000
774.211487	596.200000
774.248108	586.200000
774.284851	589.500000
774.321594	600.400000
774.358276	606.400000
774.395020	614.700000
774.431702	608.700000
774.468384	604.500000
774.505127	600.300000
774.541809	616.000000
774.578491	628.200000
774.615234	632.800000
774.651917	620.800000
774.688599	625.800000
774.725342	635.700000
774.762024	635.200000
774.798706	640.800000
774.835449	641.400000
774.872070	646.800000
774.908813	645.400000
774.945496	638.900000
774.982178	639.700000
775.018860	649.500000
775.055542	652.500000
775.092224	653.900000
775.128967	658.800000
775.165588	654.800000
775.202271	647.300000
775.239014	663.100000
775.275635	667.800000
775.312317	661.000000
775.349060	664.100000
775.385681	666.000000
775.422363	658.000000
775.459045	666.900000
775.495667	672.200000
775.532410	676.800000
775.569092	678.400000
775.605713	679.300000
775.642395	675.900000
775.679016	679.800000
775.715698	684.000000
775.752380	691.900000
775.789001	679.000000
775.825684	681.000000
775.862366	682.400000
775.898987	698.000000
775.935669	685.400000
775.972351	711.800000
776.008972	704.700000
776.045654	703.500000
776.082336	697.400000
776.118958	696.300000
776.155640	702.500000
776.192322	715.700000
776.228882	718.700000
776.265564	714.500000
776.302185	709.100000
776.338867	715.200000
776.375488	697.500000
776.412109	715.600000
776.448792	724.600000
776.485413	727.200000
776.522034	716.600000
776.558716	709.600000
776.595337	708.400000
776.631958	716.700000
776.668579	715.300000
776.705261	722.800000
776.741882	720.200000
776.778503	715.200000
776.815186	712.600000
776.851746	720.200000
776.888367	720.800000
776.924988	732.400000
776.961609	723.200000
776.998291	722.300000
777.034851	709.500000
777.071472	724.300000
777.108154	730.600000
777.144714	740.600000
777.181335	738.900000
777.218018	725.700000
777.254578	732.100000
777.291199	733.900000
777.327759	745.000000
777.364380	748.100000
777.401062	757.300000
777.437622	767.600000
777.474243	753.800000
777.510864	760.700000
777.547424	760.700000
777.584045	762.400000
777.620667	763.100000
777.657227	769.200000
777.693848	774.000000
777.730469	790.500000
777.767029	778.300000
777.803650	783.200000
777.840271	773.800000
777.876831	776.100000
777.913452	783.900000
777.950012	763.200000
777.986633	764.700000
778.023193	763.100000
778.059753	766.100000
778.096375	772.800000
778.132996	781.800000
778.169556	770.800000
778.206116	775.200000
778.242737	769.900000
778.279297	785.200000
778.315857	772.600000
778.352478	783.700000
778.389038	794.100000
778.425598	797.000000
778.462219	808.900000
778.498718	808.700000
778.535339	816.900000
778.571838	816.900000
778.608459	822.500000
778.645020	815.400000
778.681580	828.900000
778.718140	831.700000
778.754761	829.700000
778.791260	834.200000
778.827881	847.200000
778.864441	843.400000
778.900940	850.600000
778.937561	846.100000
778.974121	848.500000
779.010620	826.300000
779.047241	838.600000
779.083801	850.400000
779.120300	850.700000
779.156860	857.700000
779.193359	852.200000
779.229980	852.500000
779.266541	860.700000
779.303040	865.600000
779.339600	859.000000
779.376160	853.300000
779.412659	865.400000
779.449219	859.900000
779.485779	869.900000
779.522278	872.200000
779.558838	876.700000
779.595398	873.500000
779.631897	880.100000
779.668457	869.300000
779.705017	878.100000
779.741516	875.500000
779.778076	871.400000
779.814575	878.800000
779.851074	888.100000
779.887634	885.100000
779.924133	893.600000
779.960693	879.000000
779.997253	889.400000
780.033691	898.400000
780.070251	901.500000
780.106812	910.400000
780.143250	909.200000
780.179810	908.200000
780.216370	910.400000
780.252808	921.800000
780.289368	933.400000
780.325867	938.000000
780.362366	933.700000
780.398865	946.000000
780.435364	934.000000
780.471863	953.000000
780.508423	948.400000
780.544861	964.500000
780.581421	967.300000
780.617920	958.400000
780.654419	951.600000
780.690918	962.900000
780.727417	965.200000
780.763916	965.200000
780.800415	970.500000
780.836914	952.800000
780.873352	961.400000
780.909912	954.300000
780.946411	961.800000
780.982849	976.200000
781.019348	991.200000
781.055786	982.800000
781.092346	979.900000
781.128845	989.100000
781.165283	996.900000
781.201782	1003.100000
781.238281	1009.300000
781.274719	1018.900000
781.311218	1001.600000
781.347717	1015.800000
781.384155	1000.500000
781.420654	1000.300000
781.457092	1014.700000
781.493591	1009.800000
781.530090	1003.200000
781.566528	1008.500000
781.602966	1012.100000
781.639465	1008.000000
781.675903	1002.400000
781.712402	1018.600000
781.748901	1025.700000
781.785278	1010.100000
781.821777	1024.000000
781.858276	1022.900000
781.894714	1035.300000
781.931152	1021.200000
781.967651	1033.000000
782.004089	1025.500000
782.040527	1033.900000
782.076965	1033.200000
782.113403	1035.700000
782.149902	1039.700000
782.186340	1036.700000
782.222778	1053.300000
782.259277	1037.600000
782.295654	1028.800000
782.332092	1041.000000
782.368591	1032.300000
782.404968	1027.500000
782.441467	1035.900000
782.477905	1034.100000
782.514282	1030.000000
782.550781	1050.400000
782.587219	1046.800000
782.623596	1051.100000
782.660095	1049.800000
782.696472	1061.500000
782.732910	1060.200000
782.769348	1072.000000
782.805786	1082.900000
782.842224	1080.700000
782.878662	1072.600000
782.915039	1072.100000
782.951477	1071.300000
782.987915	1072.500000
783.024292	1078.100000
783.060730	1074.200000
783.097168	1059.700000
783.133545	1057.300000
783.169983	1048.600000
783.206421	1046.200000
783.242798	1042.900000
783.279236	1032.700000
783.315613	1024.000000
783.352051	1022.300000
783.388489	1010.800000
783.424866	997.500000
783.461304	1001.500000
783.497681	1007.700000
783.534058	1003.200000
783.570496	996.600000
783.606934	993.000000
783.643250	994.600000
783.679687	1013.200000
783.716125	1006.800000
783.752441	1023.300000
783.788879	1034.900000
783.825317	1041.300000
783.861633	1048.000000
783.898071	1055.500000
783.934448	1067.000000
783.970825	1080.900000
784.007263	1065.800000
784.043579	1022.400000
784.080017	929.500000
784.116394	777.000000
784.152710	605.300000
784.189148	461.200000
784.225525	362.600000
784.261902	320.900000
784.298279	323.300000
784.334656	353.600000
784.371033	428.500000
784.407410	574.100000
784.443787	727.400000
784.480164	874.000000
784.516541	966.600000
784.552856	1020.800000
784.589233	1025.700000
784.625610	1034.600000
784.661987	1068.300000
784.698364	1056.100000
784.734741	1049.100000
784.771057	1045.100000
784.807434	1052.900000
784.843811	1073.400000
784.880127	1074.800000
784.916504	1113.700000
784.952881	1112.200000
784.989197	1104.400000
785.025574	1109.300000
785.061951	1112.600000
785.098267	1144.900000
785.134644	1147.500000
785.170959	1144.800000
785.207275	1153.600000
785.243652	1150.900000
785.279968	1138.800000
785.316345	1149.100000
785.352722	1151.600000
785.388977	1155.100000
785.425354	1133.600000
785.461731	1109.900000
785.498047	1105.000000
785.534363	1097.400000
785.570679	1094.200000
785.606995	1101.100000
785.643372	1104.400000
785.679687	1093.400000
785.716003	1072.600000
785.752380	1073.200000
785.788635	1081.900000
785.825012	1106.500000
785.861328	1116.300000
785.897644	1108.000000
785.933960	1117.800000
785.970337	1127.500000
786.006592	1146.200000
786.042908	1159.300000
786.079285	1175.300000
786.115540	1184.400000
786.151855	1184.200000
786.188171	1181.700000
786.224487	1183.200000
786.260803	1183.900000
786.297119	1194.100000
786.333435	1194.800000
786.369751	1189.600000
786.406006	1194.300000
786.442322	1175.900000
786.478638	1166.100000
786.514954	1178.200000
786.551270	1176.900000
786.587585	1194.000000
786.623840	1178.600000
786.660156	1171.500000
786.696472	1147.700000
786.732727	1146.300000
786.769043	1151.900000
786.805298	1142.700000
786.841614	1146.400000
786.877930	1152.900000
786.914124	1133.400000
786.950439	1143.800000
786.986755	1154.100000
787.023010	1177.000000
787.059326	1184.800000
787.095642	1187.600000
787.131836	1206.900000
787.168152	1195.200000
787.204468	1197.600000
787.240723	1225.400000
787.276978	1233.300000
787.313293	1241.300000
787.349548	1241.300000
787.385803	1240.400000
787.422058	1232.600000
787.458313	1233.300000
787.494629	1229.700000
787.530823	1236.800000
787.567139	1218.700000
787.603455	1210.600000
787.639648	1188.700000
787.675903	1191.100000
787.712219	1192.100000
787.748413	1193.500000
787.784729	1196.200000
787.820984	1190.000000
787.857178	1177.800000
787.893494	1167.500000
787.929749	1159.100000
787.965942	1168.200000
788.002258	1191.500000
788.038452	1192.100000
788.074707	1179.400000
788.110962	1186.000000
788.147217	1185.800000
788.183472	1196.500000
788.219727	1205.900000
788.255920	1227.400000
788.292175	1233.900000
788.328430	1223.000000
788.364624	1205.800000
788.400879	1196.400000
788.437134	1209.300000
788.473328	1209.000000
788.509583	1206.000000
788.545837	1203.000000
788.582031	1193.600000
788.618286	1172.900000
788.654480	1170.500000
788.690735	1187.800000
788.726990	1211.400000
788.763184	1202.100000
788.799377	1218.500000
788.835632	1202.000000
788.871826	1223.600000
788.908081	1221.600000
788.944336	1217.400000
788.980469	1237.200000
789.016724	1229.200000
789.052979	1225.200000
789.089111	1205.000000
789.125366	1212.200000
789.161621	1190.200000
789.197754	1203.700000
789.234009	1196.100000
789.270142	1179.000000
789.306396	1172.300000
789.342590	1162.200000
789.378784	1134.900000
789.414978	1136.700000
789.451233	1153.800000
789.487366	1153.400000
789.523621	1162.000000
789.559814	1152.200000
789.595947	1146.000000
789.632202	1154.600000
789.668335	1169.300000
789.704529	1186.800000
789.740784	1205.400000
789.776917	1207.300000
789.813110	1193.100000
789.849304	1211.600000
789.885498	1206.300000
789.921692	1226.400000
789.957886	1234.500000
789.994019	1236.400000
790.030212	1230.200000
790.066406	1227.800000
790.102539	1223.000000
790.138733	1234.600000
790.174927	1232.000000
790.211060	1243.700000
790.247253	1233.400000
790.283386	1212.700000
790.319580	1196.700000
790.355774	1183.600000
790.391907	1187.600000
790.428101	1214.600000
790.464294	1217.200000
790.500427	1216.600000
790.536621	1194.900000
790.572754	1178.600000
790.608887	1179.300000
790.645081	1196.000000
790.681274	1207.600000
790.717346	1198.100000
790.753540	1155.000000
790.789734	1075.500000
790.825867	1010.600000
790.862000	1010.500000
790.898132	1052.400000
790.934265	1121.300000
790.970459	1175.800000
791.006592	1198.900000
791.042725	1202.100000
791.078918	1195.600000
791.114990	1193.700000
791.151184	1210.400000
791.187317	1232.600000
791.223389	1230.000000
791.259583	1211.200000
791.295715	1216.700000
791.331848	1229.200000
791.367981	1243.700000
791.404114	1247.600000
791.440247	1244.800000
791.476379	1244.600000
791.512451	1223.300000
791.548584	1219.900000
791.584778	1213.300000
791.620850	1235.500000
791.656982	1244.000000
791.693115	1236.700000
791.729187	1229.500000
791.765381	1221.600000
791.801514	1221.600000
791.837585	1222.100000
791.873718	1229.900000
791.909851	1245.100000
791.945923	1253.100000
791.982056	1217.500000
792.018188	1214.300000
792.054260	1222.700000
792.090393	1226.600000
792.126465	1223.600000
792.162598	1231.200000
792.198669	1214.100000
792.234741	1206.200000
792.270874	1198.600000
792.307007	1181.700000
792.343079	1190.300000
792.379150	1208.700000
792.415283	1188.300000
792.451355	1185.100000
792.487488	1161.700000
792.523560	1160.000000
792.559631	1170.400000
792.595764	1167.600000
792.631836	1175.300000
792.667908	1184.000000
792.703979	1161.800000
792.740051	1155.900000
792.776184	1170.900000
792.812256	1168.800000
792.848328	1180.000000
792.884399	1184.500000
792.920471	1178.000000
792.956543	1172.700000
792.992615	1173.300000
793.028748	1166.900000
793.064758	1172.900000
793.100830	1192.200000
793.136963	1210.600000
793.172974	1197.700000
793.209045	1192.800000
793.245178	1205.800000
793.281189	1188.100000
793.317261	1197.800000
793.353271	1196.400000
793.389404	1203.300000
793.425476	1198.400000
793.461487	1182.700000
793.497559	1177.200000
793.533630	1185.200000
793.569641	1188.100000
793.605713	1186.500000
793.641785	1195.100000
793.677795	1197.100000
793.713867	1184.100000
793.749878	1192.200000
793.785950	1204.100000
793.822021	1211.500000
793.858032	1193.200000
793.894104	1203.200000
793.930176	1189.800000
793.966187	1187.000000
794.002258	1179.800000
794.038269	1185.000000
794.074280	1182.100000
794.110352	1207.200000
794.146423	1176.300000
794.182373	1170.700000
794.218445	1162.000000
794.254517	1158.800000
794.290466	1140.700000
794.326538	1146.400000
794.362549	1147.100000
794.398560	1158.100000
794.434631	1154.300000
794.470581	1128.100000
794.506653	1121.500000
794.542664	1131.800000
794.578674	1123.400000
794.614685	1123.700000
794.650757	1116.000000
794.686707	1113.500000
794.722778	1098.100000
794.758789	1108.600000
794.794739	1117.200000
794.830811	1146.800000
794.866821	1159.600000
794.902771	1152.000000
794.938843	1141.300000
794.974792	1134.300000
795.010803	1134.200000
795.046814	1137.100000
795.082825	1127.100000
795.118835	1140.500000
795.154846	1117.400000
795.190796	1120.800000
795.226807	1090.100000
795.262817	1105.900000
795.298767	1105.100000
795.334778	1108.200000
795.370850	1100.600000
795.406799	1095.000000
795.442810	1076.500000
795.478821	1076.800000
795.514709	1079.600000
795.550720	1096.300000
795.586670	1077.200000
795.622681	1079.200000
795.658691	1077.500000
795.694641	1069.100000
795.730652	1057.700000
795.766663	1062.100000
795.802551	1070.700000
795.838562	1092.300000
795.874573	1074.100000
795.910522	1064.800000
795.946472	1055.500000
795.982483	1061.500000
796.018433	1061.100000
796.054382	1073.600000
796.090393	1064.600000
796.126282	1051.100000
796.162292	1042.300000
796.198242	1033.800000
796.234192	1034.100000
796.270203	1034.000000
796.306091	1039.100000
796.342041	1049.500000
796.378052	1044.400000
796.413940	1032.500000
796.449951	1037.500000
796.485901	1041.500000
796.521790	1042.600000
796.557800	1054.200000
796.593689	1054.900000
796.629639	1036.900000
796.665649	1036.300000
796.701599	1031.300000
796.737488	1030.200000
796.773437	1038.800000
796.809387	1039.600000
796.845337	1032.600000
796.881287	1023.500000
796.917175	1003.900000
796.953125	1003.800000
796.989075	1016.000000
797.024963	1026.400000
797.060913	1020.600000
797.096863	1019.000000
797.132751	1011.900000
797.168701	988.200000
797.204590	999.500000
797.240540	1000.000000
797.276489	1009.200000
797.312439	1014.400000
797.348328	1007.500000
797.384277	996.200000
797.420166	988.900000
797.456055	993.800000
797.492004	986.100000
797.527893	993.800000
797.563843	1000.200000
797.599731	983.400000
797.635620	969.100000
797.671570	978.700000
797.707520	972.300000
797.743347	979.700000
797.779297	990.600000
797.815125	986.400000
797.851074	975.900000
797.887024	962.800000
797.922913	958.400000
797.958801	969.300000
797.994690	968.300000
798.030579	972.600000
798.066467	973.500000
798.102356	958.400000
798.138245	954.100000
798.174133	948.300000
798.210083	959.300000
798.245911	963.200000
798.281799	969.200000
798.317749	958.900000
798.353577	950.700000
798.389465	949.300000
798.425293	949.600000
798.461243	938.400000
798.497131	946.200000
798.532959	949.800000
798.568848	952.200000
798.604736	936.700000
798.640564	924.300000
798.676453	921.100000
798.712402	927.300000
798.748230	934.500000
798.784119	929.400000
798.820007	936.000000
798.855835	929.800000
798.891724	921.700000
798.927551	920.100000
798.963379	930.700000
798.999268	923.400000
799.035095	920.200000
799.070984	909.000000
799.106873	902.400000
799.142700	906.700000
799.178528	901.300000
799.214417	900.400000
799.250244	922.800000
799.286133	910.000000
799.321960	904.000000
799.357788	902.800000
799.393677	904.000000
799.429504	902.900000
799.465332	905.200000
799.501221	907.800000
799.537048	903.600000
799.572876	889.000000
799.608704	897.500000
799.644531	902.700000
799.680359	902.800000
799.716248	912.300000
799.752014	914.300000
799.787903	901.600000
799.823730	898.200000
799.859558	885.700000
799.895386	889.700000
799.931213	891.600000
799.967041	883.300000
800.002869	876.100000
800.038696	888.500000
800.074463	865.200000
800.110352	870.400000
800.146179	858.500000
800.181946	874.500000
800.217773	868.900000
800.253540	867.600000
800.289429	864.000000
800.325256	862.400000
800.361023	848.700000
800.396851	849.300000
800.432678	853.600000
800.468445	850.300000
800.504272	839.800000
800.540100	824.300000
800.575867	828.000000
800.611694	831.900000
800.647461	824.600000
800.683289	826.800000
800.719116	832.900000
800.754883	821.900000
800.790649	806.500000
800.826477	796.400000
800.862244	821.600000
800.898071	798.900000
800.933838	797.200000
800.969604	799.100000
801.005432	796.900000
801.041199	797.500000
801.076965	791.400000
801.112793	780.500000
801.148560	777.000000
801.184326	775.900000
801.220154	780.200000
801.255859	767.100000
801.291687	768.300000
801.327454	757.200000
801.363281	756.300000
801.398987	753.500000
801.434814	754.700000
801.470520	766.500000
801.506287	750.300000
801.542114	742.600000
801.577820	749.400000
801.613647	741.500000
801.649414	737.700000
801.685120	734.300000
801.720886	747.900000
801.756714	738.300000
801.792419	727.800000
801.828186	720.600000
801.863892	735.200000
801.899719	720.400000
801.935486	720.300000
801.971252	726.300000
802.006958	717.800000
802.042725	712.800000
802.078430	709.700000
802.114197	705.800000
802.149963	724.400000
802.185669	712.800000
802.221436	706.400000
802.257202	707.400000
802.292908	705.800000
802.328674	712.900000
802.364441	707.400000
802.400146	702.300000
802.435913	697.600000
802.471558	690.900000
802.507324	686.000000
802.543091	679.900000
802.578796	696.500000
802.614502	696.500000
802.650269	696.100000
802.685974	683.200000
802.721741	686.300000
802.757446	688.500000
802.793152	684.000000
802.828918	694.200000
802.864624	689.900000
802.900330	686.400000
802.936035	677.800000
802.971802	676.500000
803.007446	671.600000
803.043213	665.900000
803.078857	671.300000
803.114624	661.800000
803.150330	666.600000
803.185974	655.600000
803.221741	651.700000
803.257446	659.200000
803.293152	660.900000
803.328857	657.000000
803.364563	648.700000
803.400208	645.800000
803.435974	652.200000
803.471680	647.700000
803.507324	641.100000
803.543030	651.700000
803.578735	650.000000
803.614441	640.300000
803.650146	644.200000
803.685791	629.900000
803.721497	630.400000
803.757202	618.900000
803.792847	634.300000
803.828552	624.800000
803.864258	627.300000
803.899902	620.800000
803.935608	606.300000
803.971313	610.800000
804.006958	612.900000
804.042664	609.100000
804.078308	613.800000
804.113953	606.000000
804.149658	612.500000
804.185364	604.200000
804.221008	613.800000
804.256714	599.200000
804.292297	599.300000
804.328003	595.600000
804.363708	587.400000
804.399292	588.300000
804.434998	589.600000
804.470703	582.400000
804.506287	597.200000
804.541992	587.300000
804.577637	591.200000
804.613281	578.100000
804.648926	578.100000
804.684570	582.500000
804.720215	575.600000
804.755920	575.900000
804.791565	572.400000
804.827209	577.600000
804.862854	570.600000
804.898437	564.500000
804.934143	565.600000
804.969788	563.400000
805.005371	567.600000
805.041077	567.200000
805.076721	567.000000
805.112305	559.600000
805.147949	557.800000
805.183655	552.900000
805.219238	555.300000
805.254883	554.200000
805.290466	561.200000
805.326111	553.600000
805.361755	544.200000
805.397400	547.800000
805.432983	552.100000
805.468628	552.600000
805.504211	557.900000
805.539856	555.600000
805.575500	558.600000
805.611084	546.300000
805.646729	534.100000
805.682373	541.100000
805.717957	550.200000
805.753601	551.800000
805.789246	533.900000
805.824768	546.500000
805.860413	546.900000
805.895996	538.100000
805.931641	531.700000
805.967224	539.400000
806.002869	532.700000
806.038452	543.300000
806.074036	537.300000
806.109619	526.300000
806.145264	522.100000
806.180847	525.000000
806.216431	520.200000
806.252014	525.700000
806.287659	524.000000
806.323181	531.200000
806.358826	527.100000
806.394409	506.100000
806.429993	509.200000
806.465576	524.900000
806.501160	506.900000
806.536743	500.800000
806.572327	509.000000
806.607910	505.900000
806.643494	505.900000
806.679077	503.400000
806.714661	507.000000
806.750244	505.800000
806.785828	494.600000
806.821350	496.300000
806.856934	499.000000
806.892517	494.600000
806.928101	488.200000
806.963684	492.300000
806.999268	497.900000
807.034790	476.700000
807.070374	487.100000
807.105896	481.500000
807.141479	478.200000
807.177063	485.800000
807.212585	477.300000
807.248169	477.300000
807.283752	483.100000
807.319275	475.000000
807.354858	477.300000
807.390381	469.700000
807.425903	474.500000
807.461487	468.900000
807.497070	460.800000
807.532593	458.800000
807.568115	459.600000
807.603699	456.400000
807.639221	451.700000
807.674744	453.200000
807.710266	461.100000
807.745850	463.300000
807.781372	454.600000
807.816895	449.800000
807.852417	456.600000
807.888000	449.600000
807.923523	448.400000
807.959045	450.700000
807.994629	442.200000
808.030090	437.900000
808.065613	444.000000
808.101135	444.200000
808.136658	441.800000
808.172241	439.500000
808.207764	437.100000
808.243225	431.300000
808.278809	428.900000
808.314270	438.100000
808.349792	426.100000
808.385315	426.500000
808.420837	428.700000
808.456360	430.700000
808.491882	432.500000
808.527344	425.300000
808.562866	438.100000
808.598389	427.300000
808.633850	420.500000
808.669434	417.600000
808.704895	424.400000
808.740417	433.000000
808.775940	421.700000
808.811462	418.000000
808.846924	410.300000
808.882385	405.100000
808.917847	403.300000
808.953369	409.000000
808.988892	402.300000
809.024353	411.900000
809.059875	408.800000
809.095398	404.400000
809.130798	396.900000
809.166321	399.300000
809.201843	395.500000
809.237305	397.400000
809.272766	405.100000
809.308228	391.800000
809.343750	387.400000
809.379211	392.100000
809.414734	390.700000
809.450134	400.800000
809.485657	381.200000
809.521118	389.300000
809.556580	385.300000
809.592102	383.900000
809.627502	382.400000
809.663025	380.900000
809.698486	375.000000
809.733887	373.900000
809.769409	375.100000
809.804871	365.400000
809.840271	367.400000
809.875793	373.700000
809.911194	376.000000
809.946655	366.300000
809.982178	362.900000
810.017639	369.100000
810.053040	366.700000
810.088501	363.200000
810.123901	362.200000
810.159424	359.000000
810.194885	353.600000
810.230286	358.400000
810.265747	353.800000
810.301208	351.900000
810.336609	353.900000
810.372070	349.400000
810.407532	350.300000
810.442932	350.900000
810.478394	354.300000
810.513794	348.800000
810.549255	348.500000
810.584717	344.600000
810.620117	338.300000
810.655518	345.600000
810.690979	346.800000
810.726379	343.900000
810.761841	333.700000
810.797302	333.100000
810.832642	334.700000
810.868103	347.200000
810.903564	334.200000
810.938904	340.300000
810.974365	329.800000
811.009827	335.800000
811.045166	328.400000
811.080627	320.200000
811.115967	329.900000
811.151428	336.900000
811.186829	329.100000
811.222229	328.500000
811.257629	320.600000
811.293091	326.900000
811.328430	337.500000
811.363892	327.600000
811.399292	331.800000
811.434631	321.900000
811.470093	328.400000
811.505493	320.100000
811.540833	322.000000
811.576294	324.800000
811.611694	319.700000
811.647034	314.100000
811.682434	318.100000
811.717773	318.700000
811.753235	325.200000
811.788635	316.400000
811.823975	320.100000
811.859375	326.500000
811.894775	313.300000
811.930115	312.900000
811.965515	312.600000
812.000916	317.300000
812.036255	311.600000
812.071655	317.200000
812.106995	309.200000
812.142395	310.000000
812.177795	316.400000
812.213196	315.100000
812.248474	313.500000
812.283875	306.200000
812.319214	310.100000
812.354614	310.800000
812.390015	305.200000
812.425293	308.000000
812.460693	305.800000
812.496094	302.300000
812.531433	294.600000
812.566772	294.900000
812.602173	301.200000
812.637451	303.200000
812.672852	297.200000
812.708191	302.700000
812.743530	295.500000
812.778931	290.200000
812.814270	292.200000
812.849609	299.800000
812.884949	293.300000
812.920227	288.700000
812.955627	302.100000
812.990967	294.200000
813.026306	288.300000
813.061646	279.600000
813.096985	276.600000
813.132324	276.100000
813.167664	278.900000
813.203003	286.200000
813.238281	269.300000
813.273682	273.900000
813.308960	269.200000
813.344299	273.100000
813.379639	283.000000
813.414978	274.000000
813.450256	272.100000
813.485596	278.900000
813.520874	269.200000
813.556213	272.000000
813.591614	277.100000
813.626831	268.400000
813.662170	273.800000
813.697510	284.100000
813.732788	266.600000
813.768127	272.900000
813.803467	274.300000
813.838745	267.600000
813.874084	269.800000
813.909363	269.800000
813.944641	272.300000
813.979980	261.500000
814.015320	265.500000
814.050598	262.700000
814.085876	268.600000
814.121155	264.600000
814.156494	263.700000
814.191772	262.800000
814.227051	259.800000
814.262390	261.600000
814.297668	263.900000
814.332947	263.000000
814.368225	255.700000
814.403564	258.000000
814.438782	256.900000
814.474121	258.100000
814.509338	254.700000
814.544617	263.200000
814.579956	255.000000
814.615173	263.900000
814.650513	261.700000
814.685791	250.500000
814.721008	256.800000
814.756348	254.900000
814.791626	252.100000
814.826843	252.300000
814.862122	252.200000
814.897400	248.700000
814.932678	252.500000
814.967957	252.100000
815.003235	250.300000
815.038452	243.400000
815.073730	242.800000
815.108948	251.700000
815.144226	250.000000
815.179504	253.700000
815.214722	239.500000
815.250000	239.300000
815.285278	245.300000
815.320496	239.600000
815.355774	243.300000
815.391052	246.100000
815.426270	240.900000
815.461487	241.100000
815.496765	237.200000
815.531982	232.100000
815.567261	238.500000
815.602539	248.200000
815.637695	241.600000
815.672974	244.300000
815.708191	243.400000
815.743408	244.100000
815.778687	234.900000
815.813904	248.100000
815.849121	227.800000
815.884399	232.600000
815.919556	231.300000
815.954834	232.700000
815.990051	236.200000
816.025269	240.500000
816.060486	228.900000
816.095703	230.300000
816.130920	234.000000
816.166199	229.300000
816.201416	233.300000
816.236572	240.000000
816.271851	227.500000
816.307007	238.300000
816.342224	225.000000
816.377441	229.900000
816.412659	220.400000
816.447876	233.800000
816.483093	227.000000
816.518250	229.900000
816.553467	224.000000
816.588745	231.200000
816.623901	222.200000
816.659119	218.100000
816.694275	221.900000
816.729492	220.000000
816.764709	257.600000
816.799927	217.500000
816.835083	222.200000
816.870300	216.500000
816.905457	220.800000
816.940674	224.400000
816.975830	218.700000
817.010986	215.500000
817.046204	219.100000
817.081421	214.100000
817.116577	215.200000
817.151733	223.800000
817.186951	224.200000
817.222107	220.000000
817.257324	223.800000
817.292419	219.500000
817.327637	213.000000
817.362854	215.600000
817.398010	212.000000
817.433167	213.000000
817.468323	213.600000
817.503479	213.300000
817.538635	224.400000
817.573853	218.000000
817.608948	216.100000
817.644165	211.000000
817.679321	211.500000
817.714478	209.500000
817.749634	216.500000
817.784790	226.200000
817.819946	222.300000
817.855103	201.000000
817.890198	214.000000
817.925415	205.700000
817.960571	214.700000
817.995667	210.900000
818.030823	213.900000
818.066040	207.200000
818.101135	212.500000
818.136292	208.600000
818.171448	203.800000
818.206543	209.000000
818.241699	213.800000
818.276855	207.900000
818.311951	208.800000
818.347107	203.500000
818.382263	212.400000
818.417358	215.500000
818.452515	216.400000
818.487610	216.200000
818.522766	205.500000
818.557922	216.800000
818.593018	211.400000
818.628113	210.800000
818.663269	204.300000
818.698364	208.100000
818.733521	205.500000
818.768677	211.300000
818.803711	202.500000
818.838867	205.200000
818.874023	206.700000
818.909058	203.800000
818.944214	200.900000
818.979370	208.100000
819.014404	206.500000
819.049561	202.500000
819.084595	207.900000
819.119751	199.200000
819.154846	206.700000
819.189941	206.200000
819.225037	197.000000
819.260193	197.400000
819.295227	197.900000
819.330322	194.500000
819.365479	193.100000
819.400513	228.200000
819.435608	192.100000
819.470764	192.200000
819.505798	194.100000
819.540894	198.700000
819.575989	195.400000
819.611084	205.000000
819.646179	204.700000
819.681213	201.500000
819.716309	197.500000
819.751404	197.700000
819.786438	201.500000
819.821533	195.900000
819.856628	198.000000
819.891663	203.200000
819.926758	208.800000
819.961853	205.900000
819.996887	195.000000
820.031982	203.300000
820.067017	196.500000
820.102112	225.600000
820.137207	196.100000
820.172302	213.500000
820.207275	194.500000
820.242371	194.100000
820.277405	193.800000
820.312500	197.900000
820.347534	200.600000
820.382568	203.700000
820.417664	195.800000
820.452759	196.000000
820.487732	192.800000
820.522827	195.600000
820.557861	193.100000
820.592896	195.100000
820.627930	196.200000
820.662964	192.300000
820.698059	199.200000
820.733093	194.200000
820.768127	200.000000
820.803162	196.100000
820.838196	194.000000
820.873230	195.200000
820.908264	198.100000
820.943298	192.500000
820.978333	201.600000
821.013367	194.800000
821.048401	201.900000
821.083435	201.800000
821.118469	189.100000
821.153503	199.400000
821.188477	198.700000
821.223511	189.200000
821.258484	197.700000
821.293579	195.400000
821.328613	188.600000
821.363647	193.300000
821.398621	189.200000
821.433655	190.800000
821.468628	209.100000
821.503662	192.700000
821.538696	197.900000
821.573669	189.700000
821.608704	198.800000
821.643677	191.900000
821.678650	200.200000
821.713684	204.700000
821.748718	193.100000
821.783691	193.700000
821.818726	196.200000
821.853638	195.800000
821.888672	192.800000
821.923706	194.600000
821.958618	192.800000
821.993652	191.200000
822.028687	199.900000
822.063599	202.400000
822.098633	196.400000
822.133667	191.700000
822.168579	194.000000
822.203613	196.700000
822.238586	190.700000
822.273560	197.400000
822.308533	191.300000
822.343567	191.800000
822.378479	191.900000
822.413452	193.500000
822.448425	190.700000
822.483398	199.300000
822.518372	198.000000
822.553345	192.100000
822.588318	202.500000
822.623291	193.300000
822.658203	191.300000
822.693237	193.900000
822.728210	188.800000
822.763123	196.000000
822.798096	187.900000
822.833069	195.700000
822.867981	193.000000
822.902954	196.300000
822.937927	195.800000
822.972900	204.200000
823.007874	185.500000
823.042725	198.600000
823.077698	205.200000
823.112671	189.700000
823.147583	191.000000
823.182556	196.500000
823.217529	198.900000
823.252441	191.200000
823.287415	207.400000
823.322388	196.800000
823.357239	194.200000
823.392212	202.000000
823.427185	197.500000
823.462097	191.200000
823.497009	197.500000
823.531982	193.000000
823.566895	193.400000
823.601807	189.600000
823.636719	192.000000
823.671631	197.500000
823.706604	193.100000
823.741455	196.300000
823.776428	187.000000
823.811340	196.700000
823.846252	200.200000
823.881165	202.100000
823.916138	195.200000
823.950989	203.100000
823.985901	191.600000
824.020813	194.300000
824.055725	191.900000
824.090637	189.100000
824.125610	196.800000
824.160461	193.000000
824.195374	196.800000
824.230225	198.300000
824.265198	187.300000
824.300110	190.500000
824.334961	206.100000
824.369873	184.000000
824.404785	197.000000
824.439636	200.000000
824.474548	185.400000
824.509460	183.100000
824.544312	200.500000
824.579224	196.300000
824.614075	197.800000
824.648987	192.800000
824.683899	193.400000
824.718811	189.800000
824.753662	202.000000
824.788574	197.800000
824.823364	195.500000
824.858276	190.500000
824.893188	200.700000
824.928040	199.200000
824.962952	197.000000
824.997803	197.000000
825.032654	195.600000
825.067566	197.700000
825.102417	192.600000
825.137268	192.600000
825.172119	194.300000
825.206970	192.100000
825.241882	193.100000
825.276733	191.400000
825.311646	190.700000
825.346436	188.400000
825.381348	188.700000
825.416138	192.900000
825.450989	188.400000
825.485901	185.500000
825.520691	185.800000
825.555542	188.700000
825.590454	193.100000
825.625244	186.900000
825.660095	200.000000
825.695007	198.600000
825.729797	192.800000
825.764648	190.500000
825.799438	191.900000
825.834290	196.100000
825.869202	186.500000
825.903992	196.300000
825.938843	189.600000
825.973694	189.000000
826.008484	204.400000
826.043335	188.700000
826.078186	182.900000
826.112976	199.600000
826.147827	197.600000
826.182678	204.200000
826.217468	185.300000
826.252319	198.600000
826.287109	188.200000
826.321899	200.500000
826.356750	190.300000
826.391541	188.500000
826.426392	197.700000
826.461182	193.300000
826.495972	186.300000
826.530823	183.300000
826.565613	193.200000
826.600403	188.100000
826.635254	195.300000
826.670044	185.300000
826.704834	185.200000
826.739685	188.000000
826.774475	194.100000
826.809265	191.800000
826.844055	191.200000
826.878906	199.600000
826.913635	194.900000
826.948425	196.800000
826.983215	194.400000
827.018005	198.700000
827.052856	192.100000
827.087585	196.500000
827.122375	185.800000
827.157227	192.900000
827.191956	206.000000
827.226746	187.500000
827.261536	198.000000
827.296265	186.700000
827.331116	191.200000
827.365906	196.400000
827.400635	188.800000
827.435425	183.700000
827.470215	200.300000
827.504944	191.300000
827.539734	198.200000
827.574463	192.200000
827.609253	200.200000
827.644043	191.500000
827.678772	199.400000
827.713562	188.500000
827.748352	191.600000
827.783081	189.600000
827.817871	196.100000
827.852600	187.700000
827.887329	194.500000
827.922119	182.600000
827.956848	196.700000
827.991638	204.500000
828.026367	194.600000
828.061157	192.400000
828.095886	192.800000
828.130615	206.100000
828.165344	183.600000
828.200073	193.100000
828.234863	191.000000
828.269592	191.900000
828.304321	198.200000
828.339111	192.300000
828.373779	189.300000
828.408569	198.400000
828.443298	197.100000
828.477966	191.100000
828.512756	192.400000
828.547424	187.100000
828.582214	190.300000
828.616943	191.300000
828.651672	191.600000
828.686340	198.400000
828.721130	189.700000
828.755798	192.300000
828.790527	192.700000
828.825256	196.000000
828.859924	192.000000
828.894714	199.200000
828.929443	201.200000
828.964111	188.500000
828.998840	189.900000
829.033569	190.500000
829.068237	189.900000
829.102966	191.200000
829.137634	193.500000
829.172363	194.500000
829.207092	192.300000
829.241821	190.100000
829.276489	184.000000
829.311157	194.100000
829.345825	189.700000
829.380554	197.800000
829.415283	186.300000
829.449951	186.200000
829.484619	200.400000
829.519348	200.500000
829.554016	190.600000
829.588745	191.900000
829.623413	185.100000
829.658081	205.100000
829.692749	185.200000
829.727417	198.100000
829.762146	195.700000
829.796814	189.500000
829.831482	190.000000
829.866150	193.500000
829.900879	189.600000
829.935486	197.000000
829.970154	191.500000
830.004883	203.400000
830.039490	192.700000
830.074219	189.900000
830.108887	192.500000
830.143494	192.200000
830.178223	187.800000
830.212891	188.700000
830.247498	194.000000
830.282166	201.400000
830.316772	198.200000
830.351501	189.400000
830.386169	191.600000
830.420776	190.500000
830.455444	192.500000
830.490112	189.800000
830.524719	184.800000
830.559387	194.200000
830.594055	195.700000
830.628662	191.800000
830.663330	193.400000
830.697998	200.600000
830.732605	192.600000
830.767273	193.700000
830.801941	192.800000
830.836487	200.100000
830.871155	194.900000
830.905762	192.500000
830.940430	186.000000
830.975098	189.200000
831.009644	193.700000
831.044312	198.900000
831.078979	194.400000
831.113525	182.800000
831.148193	193.000000
831.182861	189.300000
831.217407	196.000000
831.252075	208.600000
831.286621	190.100000
831.321289	188.200000
831.355896	193.300000
831.390564	199.900000
831.425110	192.700000
831.459778	197.500000
831.494324	206.100000
831.528931	195.200000
831.563599	196.500000
831.598145	186.700000
831.632751	192.000000
831.667419	189.900000
831.701965	196.000000
831.736572	196.300000
831.771179	186.200000
831.805786	190.100000
831.840393	198.900000
831.874939	184.500000
831.909546	198.000000
831.944153	184.300000
831.978760	192.400000
832.013306	188.500000
832.047913	198.700000
832.082458	202.800000
832.117065	188.800000
832.151672	201.800000
832.186218	193.600000
832.220825	197.000000
832.255432	182.600000
832.289978	188.300000
832.324585	194.500000
832.359192	196.400000
832.393677	190.600000
832.428284	194.600000
832.462830	191.900000
832.497437	191.600000
832.531982	196.200000
832.566589	190.600000
832.601135	192.800000
832.635681	184.900000
832.670227	192.400000
832.704773	201.500000
832.739380	193.600000
832.773926	193.200000
832.808472	187.400000
832.843079	192.500000
832.877563	195.600000
832.912170	189.800000
832.946716	183.500000
832.981201	198.400000
833.015808	195.000000
833.050293	191.600000
833.084839	189.200000
833.119446	191.500000
833.153992	195.600000
833.188477	192.500000
833.223022	187.900000
833.257568	193.600000
833.292114	199.900000
833.326660	203.400000
833.361145	190.200000
833.395691	185.200000
833.430237	191.200000
833.464783	196.300000
833.499329	190.300000
833.533875	186.500000
833.568359	197.100000
833.602905	198.100000
833.637390	197.600000
833.671875	189.200000
833.706421	191.300000
833.740906	188.200000
833.775452	183.100000
833.809998	191.100000
833.844482	200.900000
833.879028	191.200000
833.913513	190.900000
833.947998	195.200000
833.982544	189.000000
834.017090	189.000000
834.051514	181.900000
834.086060	194.600000
834.120544	192.300000
834.155029	193.900000
834.189575	191.500000
834.223999	194.500000
834.258545	193.700000
834.293030	191.500000
834.327515	192.900000
834.362000	188.100000
834.396545	197.100000
834.430969	190.000000
834.465454	197.100000
834.500000	184.400000
834.534424	195.000000
834.568970	181.100000
834.603455	185.200000
834.637878	188.500000
834.672363	193.900000
834.706909	192.300000
834.741333	193.700000
834.775818	183.600000
834.810242	188.600000
834.844727	194.000000
834.879211	189.900000
834.913635	193.700000
834.948181	194.700000
834.982666	192.100000
835.017090	190.800000
835.051575	196.500000
835.086060	189.100000
835.120483	195.800000
835.154907	196.700000
835.189331	192.300000
835.223816	194.000000
835.258301	187.600000
835.292786	187.700000
835.327209	198.200000
835.361694	186.700000
835.396057	189.800000
835.430542	193.800000
835.465027	194.400000
835.499390	185.100000
835.533875	212.300000
835.568359	190.600000
835.602722	186.200000
835.637207	193.500000
835.671692	187.000000
835.706055	207.800000
835.740540	194.800000
835.774902	195.100000
835.809387	192.900000
835.843811	185.300000
835.878235	201.600000
835.912659	184.600000
835.947083	189.400000
835.981506	191.200000
836.015930	184.800000
836.050354	195.300000
836.084778	202.600000
836.119202	196.000000
836.153625	205.400000
836.187988	188.400000
836.222473	190.100000
836.256897	192.800000
836.291260	192.100000
836.325684	193.600000
836.360046	189.400000
836.394470	190.900000
836.428894	199.800000
836.463318	187.800000
836.497681	197.100000
836.532104	199.500000
836.566467	193.700000
836.600891	190.800000
836.635315	197.400000
836.669678	196.800000
836.704102	196.500000
836.738525	192.800000
836.772888	182.800000
836.807251	190.200000
836.841675	194.600000
836.876038	187.800000
836.910461	187.300000
836.944763	195.500000
836.979187	187.900000
837.013611	198.700000
837.047974	186.300000
837.082336	205.100000
837.116699	193.500000
837.151062	192.500000
837.185486	185.800000
837.219849	190.700000
837.254211	196.000000
837.288574	191.700000
837.322937	186.500000
837.357300	181.600000
837.391663	204.200000
837.426086	198.100000
837.460388	191.700000
837.494751	198.100000
837.529114	189.000000
837.563477	199.400000
837.597839	192.200000
837.632141	193.200000
837.666565	188.200000
837.700928	194.100000
837.735229	194.000000
837.769592	194.300000
837.803955	196.900000
837.838257	190.900000
837.872620	188.500000
837.906982	200.300000
837.941284	193.300000
837.975647	193.600000
838.010010	198.600000
838.044312	191.400000
838.078674	189.800000
838.112976	192.800000
838.147339	196.300000
838.181702	191.800000
838.216003	203.300000
838.250366	195.300000
838.284668	194.400000
838.318970	184.800000
838.353333	192.900000
838.387634	190.500000
838.421936	192.300000
838.456299	193.500000
838.490601	201.100000
838.524902	195.700000
838.559265	198.400000
838.593567	195.700000
838.627869	187.800000
838.662170	194.600000
838.696472	185.800000
838.730774	188.700000
838.765137	197.100000
838.799377	178.900000
838.833740	194.100000
838.868042	197.200000
838.902283	185.400000
838.936646	197.600000
838.970947	194.600000
839.005188	196.700000
839.039551	187.000000
839.073792	199.200000
839.108093	190.000000
839.142395	201.100000
839.176697	185.700000
839.210937	193.400000
839.245300	205.100000
839.279541	184.600000
839.313843	192.400000
839.348145	195.000000
839.382385	197.700000
839.416687	195.400000
839.450989	196.300000
839.485229	190.800000
839.519531	188.900000
839.553833	198.000000
839.588013	193.800000
839.622314	193.200000
839.656555	194.800000
839.690857	193.100000
839.725159	186.000000
839.759460	191.900000
839.793640	190.600000
839.827942	190.800000
839.862183	188.400000
839.896423	195.000000
839.930725	201.800000
839.964966	200.200000
839.999207	199.300000
840.033508	200.400000
840.067688	190.000000
840.101990	203.600000
840.136230	193.400000
840.170471	201.800000
840.204712	189.400000
840.238953	189.300000
840.273193	194.800000
840.307434	196.700000
840.341736	188.100000
840.375916	186.000000
840.410217	189.600000
840.444397	199.000000
840.478638	194.300000
840.512878	201.000000
840.547119	192.100000
840.581360	195.100000
840.615601	202.600000
840.649780	202.100000
840.684021	192.500000
840.718262	201.800000
840.752441	197.200000
840.786682	193.900000
840.820862	193.900000
840.855103	200.600000
840.889343	192.500000
840.923584	198.000000
840.957764	194.200000
840.992004	195.200000
841.026184	206.700000
841.060425	191.600000
841.094666	188.100000
841.128845	197.700000
841.163025	193.400000
841.197266	197.200000
841.231445	194.600000
841.265686	194.500000
841.299866	189.600000
841.334045	201.000000
841.368286	192.500000
841.402405	201.100000
841.436646	197.700000
841.470825	190.900000
841.505005	193.500000
841.539185	188.800000
841.573425	190.900000
841.607544	194.100000
841.641785	194.200000
841.675964	188.300000
841.710144	195.100000
841.744324	190.500000
841.778503	192.400000
841.812683	187.400000
841.846863	203.600000
841.881042	199.800000
841.915222	191.200000
841.949402	208.500000
841.983521	185.300000
842.017700	191.600000
842.051880	194.400000
842.086060	194.800000
842.120239	195.500000
842.154419	188.700000
842.188538	195.400000
842.222717	188.200000
842.256897	204.100000
842.291016	190.400000
842.325195	196.600000
842.359375	204.200000
842.393494	202.100000
842.427673	192.600000
842.461853	196.800000
842.495911	199.700000
842.530090	196.200000
842.564209	191.700000
842.598389	196.100000
842.632568	194.500000
842.666626	199.300000
842.700806	188.600000
842.734985	192.500000
842.769043	196.100000
842.803223	192.400000
842.837402	191.400000
842.871460	190.400000
842.905640	201.000000
842.939697	189.300000
842.973877	196.200000
843.007996	198.400000
843.042175	201.800000
843.076233	191.900000
843.110413	195.100000
843.144470	202.700000
843.178589	198.100000
843.212769	190.800000
843.246826	198.700000
843.280945	190.400000
843.315125	191.900000
843.349182	188.000000
843.383301	200.400000
843.417419	206.300000
843.451538	195.100000
843.485657	190.400000
843.519714	192.900000
843.553833	195.700000
843.587952	192.400000
843.622070	188.600000
843.656128	198.100000
843.690247	190.900000
843.724304	192.200000
843.758423	194.400000
843.792542	192.000000
843.826599	192.200000
843.860718	192.600000
843.894836	185.600000
843.928894	195.400000
843.963013	195.900000
843.997070	190.000000
844.031128	186.800000
844.065247	200.100000
844.099304	197.600000
844.133362	195.800000
844.167480	196.200000
844.201599	201.500000
844.235596	193.900000
844.269714	195.600000
844.303711	196.400000
844.337830	186.200000
844.371948	197.500000
844.405945	193.700000
844.440063	187.800000
844.474121	208.100000
844.508118	193.700000
844.542236	193.600000
844.576294	192.600000
844.610352	187.600000
844.644409	193.400000
844.678406	185.300000
844.712524	199.900000
844.746582	201.300000
844.780640	193.300000
844.814636	193.600000
844.848755	205.000000
844.882751	191.400000
844.916809	200.400000
844.950867	195.700000
844.984863	202.800000
845.018921	192.100000
845.052979	192.100000
845.086975	194.400000
845.121033	187.500000
845.155090	188.900000
845.189087	202.600000
845.223145	190.500000
845.257141	193.900000
845.291199	196.400000
845.325256	202.000000
845.359253	193.400000
845.393250	204.700000
845.427307	192.500000
845.461304	196.600000
845.495361	194.000000
845.529358	205.600000
845.563354	189.200000
845.597412	190.300000
845.631409	201.400000
845.665405	201.900000
845.699463	199.000000
845.733459	192.600000
845.767456	200.400000
845.801453	192.500000
845.835449	198.700000
845.869446	198.700000
845.903503	197.900000
845.937439	189.600000
845.971497	199.200000
846.005493	189.600000
846.039429	197.300000
846.073486	203.900000
846.107483	192.100000
846.141418	193.500000
846.175476	194.200000
846.209473	201.100000
846.243408	190.100000
846.277405	194.800000
846.311401	189.300000
846.345337	194.500000
846.379395	200.600000
846.413330	191.900000
846.447327	203.100000
846.481323	190.000000
846.515259	192.200000
846.549255	193.900000
846.583252	197.500000
846.617187	189.400000
846.651184	197.800000
846.685120	191.700000
846.719055	202.100000
846.753052	199.100000
846.786987	199.700000
846.820984	186.400000
846.854980	201.400000
846.888916	188.200000
846.922852	197.800000
846.956848	203.000000
846.990723	190.600000
847.024719	194.300000
847.058716	193.800000
847.092590	201.200000
847.126587	196.100000
847.160522	191.600000
847.194458	198.000000
847.228455	188.400000
847.262390	188.700000
847.296265	192.100000
847.330261	201.900000
847.364136	191.400000
847.398132	191.200000
847.432068	192.700000
847.466003	193.800000
847.499939	192.000000
847.533875	197.000000
847.567749	192.900000
847.601746	192.500000
847.635681	197.800000
847.669556	186.400000
847.703491	198.900000
847.737427	208.500000
847.771301	189.700000
847.805237	196.100000
847.839233	195.700000
847.873108	193.200000
847.907043	193.700000
847.940918	200.600000
847.974854	196.500000
848.008789	198.500000
848.042664	195.000000
848.076538	197.900000
848.110474	194.800000
848.144348	196.600000
848.178284	189.500000
848.212219	195.000000
848.246094	192.200000
848.279968	194.800000
848.313904	198.300000
848.347778	194.400000
848.381653	195.100000
848.415588	189.800000
848.449463	192.200000
848.483337	195.800000
848.517212	200.200000
848.551086	194.100000
848.585022	190.700000
848.618835	201.000000
848.652771	193.900000
848.686646	188.100000
848.720520	203.200000
848.754395	193.000000
848.788330	198.800000
848.822144	197.400000
848.856018	193.600000
848.889954	202.900000
848.923767	190.300000
848.957642	190.300000
848.991577	199.300000
849.025391	191.200000
849.059265	193.100000
849.093079	190.400000
849.126953	188.200000
849.160828	200.600000
849.194641	195.200000
849.228577	191.700000
849.262451	194.100000
849.296265	192.000000
849.330139	189.300000
849.364014	195.400000
849.397827	197.800000
849.431702	193.900000
849.465515	198.900000
849.499329	186.300000
849.533203	189.800000
849.567078	183.700000
849.600891	197.200000
849.634766	194.300000
849.668518	198.700000
849.702393	195.100000
849.736267	187.400000
849.770020	207.100000
849.803894	196.800000
849.837769	195.900000
849.871521	194.200000
849.905396	201.500000
849.939270	189.400000
849.973022	193.300000
850.006897	197.400000
850.040710	197.400000
850.074524	197.000000
850.108337	193.700000
850.142151	196.200000
850.175964	202.100000
850.209778	193.700000
850.243530	182.600000
850.277405	198.400000
850.311218	195.000000
850.344971	190.100000
850.378845	203.500000
850.412659	189.900000
850.446411	195.500000
850.480225	193.600000
850.514038	199.700000
850.547791	196.800000
850.581665	195.000000
850.615417	190.900000
850.649231	198.000000
850.683044	193.600000
850.716858	193.900000
850.750610	194.200000
850.784424	198.100000
850.818176	191.800000
850.851929	193.100000
850.885742	190.600000
850.919495	194.000000
850.953308	199.900000
850.987122	202.300000
851.020874	190.300000
851.054626	187.500000
851.088440	197.600000
851.122192	198.800000
851.156006	195.100000
851.189697	193.900000
851.223511	190.000000
851.257263	198.900000
851.291077	199.000000
851.324829	192.300000
851.358582	193.000000
851.392334	191.200000
851.426086	193.700000
851.459900	202.000000
851.493591	194.600000
851.527344	195.300000
851.561157	195.500000
851.594849	195.600000
851.628662	196.500000
851.662415	201.900000
851.696106	198.000000
851.729858	199.500000
851.763611	189.600000
851.797363	194.600000
851.831116	191.200000
851.864868	196.200000
851.898560	198.100000
851.932312	190.400000
851.966064	196.600000
851.999817	194.200000
852.033569	193.300000
852.067261	197.000000
852.101013	190.500000
852.134766	194.600000
852.168457	185.100000
852.202209	197.700000
852.235901	191.300000
852.269592	196.300000
852.303345	204.400000
852.337036	198.000000
852.370789	194.500000
852.404541	197.400000
852.438171	190.600000
852.471924	192.200000
852.505676	187.900000
852.539307	197.300000
852.573059	191.100000
852.606812	192.400000
852.640442	194.300000
852.674194	199.800000
852.707886	205.600000
852.741577	202.400000
852.775269	189.400000
852.809021	196.200000
852.842651	197.000000
852.876404	199.800000
852.910034	196.000000
852.943787	199.800000
852.977478	197.100000
853.011108	192.500000
853.044861	191.000000
853.078552	203.700000
853.112183	195.200000
853.145874	197.100000
853.179626	184.300000
853.213257	196.600000
853.246948	191.300000
853.280640	203.700000
853.314270	193.100000
853.347961	201.900000
853.381653	195.800000
853.415283	198.400000
853.448975	191.100000
853.482605	197.700000
853.516296	193.200000
853.549988	188.600000
853.583618	194.000000
853.617310	197.100000
853.651001	194.900000
853.684631	189.600000
853.718323	191.200000
853.751953	202.900000
853.785583	183.900000
853.819275	200.200000
853.852966	197.000000
853.886536	186.100000
853.920227	189.600000
853.953918	199.800000
853.987488	192.500000
854.021179	199.400000
854.054749	202.700000
854.088440	197.800000
854.122131	190.100000
854.155701	198.500000
854.189331	191.300000
854.223022	198.300000
854.256592	197.000000
854.290283	192.000000
854.323914	199.700000
854.357483	195.400000
854.391174	198.200000
854.424744	204.900000
854.458374	195.900000
854.492065	204.900000
854.525696	192.400000
854.559265	200.000000
854.592896	207.000000
854.626465	196.200000
854.660095	195.700000
854.693787	195.800000
854.727356	194.400000
854.760986	197.100000
854.794617	196.500000
854.828186	192.700000
854.861816	197.800000
854.895447	195.400000
854.929016	197.800000
854.962585	198.000000
854.996155	202.600000
855.029785	195.400000
855.063416	198.400000
855.097046	200.200000
855.130615	189.800000
855.164185	199.600000
855.197754	194.900000
855.231384	196.800000
855.264954	193.900000
855.298523	196.000000
855.332153	196.500000
855.365723	202.900000
855.399292	191.400000
855.432922	194.400000
855.466492	197.600000
855.500061	189.700000
855.533630	191.600000
855.567200	197.900000
855.600769	200.300000
855.634338	200.000000
855.667969	196.100000
855.701477	189.800000
855.735046	190.800000
855.768616	186.800000
855.802185	197.900000
855.835754	210.900000
855.869324	187.200000
855.902893	194.500000
855.936401	202.400000
855.969971	198.600000
856.003540	188.100000
856.037109	199.800000
856.070618	194.600000
856.104187	189.000000
856.137695	191.900000
856.171265	186.200000
856.204834	194.700000
856.238403	201.100000
856.271912	191.300000
856.305481	197.300000
856.338989	186.900000
856.372559	196.800000
856.406128	195.000000
856.439636	199.800000
856.473145	191.200000
856.506653	203.000000
856.540222	193.700000
856.573792	202.900000
856.607300	197.100000
856.640808	189.600000
856.674377	193.800000
856.707825	223.900000
856.741394	197.100000
856.774902	191.400000
856.808472	183.800000
856.841980	198.300000
856.875488	203.400000
856.908936	187.600000
856.942505	192.100000
856.976013	195.100000
857.009521	189.200000
857.043030	195.100000
857.076477	192.500000
857.110046	200.800000
857.143555	195.200000
857.177063	200.400000
857.210571	190.700000
857.244080	187.100000
857.277527	198.200000
857.311035	193.500000
857.344543	199.700000
857.378052	193.100000
857.411499	199.900000
857.445068	204.300000
857.478516	194.400000
857.512024	189.000000
857.545532	194.400000
857.578979	196.400000
857.612427	195.700000
857.645874	190.300000
857.679382	196.500000
857.712891	199.600000
857.746399	196.100000
857.779846	199.600000
857.813354	200.500000
857.846741	194.400000
857.880249	190.400000
857.913757	195.000000
857.947266	196.600000
857.980652	197.900000
858.014160	193.300000
858.047546	192.200000
858.081055	194.000000
858.114563	202.600000
858.147949	189.900000
858.181458	197.800000
858.214844	194.000000
858.248352	185.800000
858.281799	200.900000
858.315308	208.000000
858.348694	199.300000
858.382141	203.100000
858.415588	198.900000
858.449036	199.200000
858.482483	197.500000
858.515930	189.400000
858.549377	194.900000
858.582825	201.000000
858.616211	198.600000
858.649658	197.000000
858.683105	191.000000
858.716553	190.700000
858.750000	188.900000
858.783386	192.200000
858.816833	187.100000
858.850281	196.500000
858.883728	197.600000
858.917114	193.200000
858.950562	202.400000
858.983948	203.300000
859.017395	199.400000
859.050781	194.600000
859.084167	189.800000
859.117615	188.500000
859.151062	197.600000
859.184448	191.400000
859.217834	193.100000
859.251282	193.600000
859.284668	188.500000
859.318054	185.100000
859.351440	191.900000
859.384888	203.800000
859.418274	186.700000
859.451721	186.300000
859.485046	196.000000
859.518494	197.700000
859.551819	189.800000
859.585266	197.600000
859.618652	197.200000
859.652039	190.000000
859.685425	188.800000
859.718811	188.900000
859.752197	181.600000
859.785583	201.500000
859.819031	201.400000
859.852356	198.300000
859.885742	189.300000
859.919067	194.200000
859.952454	190.700000
859.985901	201.000000
860.019287	191.100000
860.052612	0.000000
860.085999	0.000000
860.119324	0.000000
860.152710	0.000000
860.186096	0.000000
860.219421	0.000000
860.252808	0.000000
860.286133	0.000000
860.319519	0.000000
860.352905	0.000000
860.386292	0.000000
860.419617	0.000000
860.452942	0.000000
860.486267	0.000000
860.519653	0.000000
860.553040	0.000000
860.586365	0.000000
860.619690	0.000000
860.653076	0.000000
860.686340	0.000000
860.719727	0.000000
860.753113	0.000000
860.786377	0.000000
860.819763	0.000000
860.853027	0.000000
860.886414	0.000000
860.919739	0.000000
860.953125	0.000000
860.986389	0.000000
861.019714	0.000000
861.053040	0.000000
861.086365	0.000000
861.119690	0.000000
861.153076	0.000000
861.186340	0.000000
861.219666	0.000000
861.252930	0.000000
861.286316	0.000000
861.319641	0.000000
861.352905	0.000000
861.386230	0.000000
861.419495	0.000000
861.452820	0.000000
861.486145	0.000000
861.519470	0.000000
861.552734	0.000000
861.586060	0.000000
861.619324	0.000000
861.652649	0.000000
861.685974	0.000000
861.719238	0.000000
861.752563	0.000000
861.785828	0.000000
861.819092	0.000000
861.852417	0.000000
861.885742	0.000000
861.918945	0.000000
861.952271	0.000000
861.985535	0.000000
862.018799	0.000000
862.052124	0.000000
862.085449	0.000000
862.118652	0.000000
862.151978	0.000000
862.185181	0.000000
862.218506	0.000000
862.251770	0.000000
862.285034	0.000000
862.318298	0.000000
862.351562	0.000000
862.384827	0.000000
862.418091	0.000000
862.451355	0.000000
862.484619	0.000000
862.517883	0.000000
862.551086	0.000000
862.584351	0.000000
862.617676	0.000000
862.650940	0.000000
862.684143	0.000000
862.717407	0.000000
862.750610	0.000000
862.783875	0.000000
862.817139	0.000000
862.850342	0.000000
862.883606	0.000000
862.916870	0.000000
862.950073	0.000000
862.983337	0.000000
863.016602	0.000000
863.049805	0.000000
863.083069	0.000000
863.116211	0.000000
863.149475	0.000000
863.182739	0.000000
863.216003	0.000000
863.249146	0.000000
863.282410	0.000000
863.315613	0.000000
863.348816	0.000000
863.382080	0.000000
863.415222	0.000000
863.448486	0.000000
863.481689	0.000000
863.514893	0.000000
863.548157	0.000000
863.581360	0.000000
863.614502	0.000000
863.647766	0.000000
863.680908	0.000000
863.714172	0.000000
863.747375	0.000000
863.780579	0.000000
863.813721	0.000000
863.846985	0.000000
863.880127	0.000000
863.913330	0.000000
863.946533	0.000000
863.979675	0.000000
864.012939	0.000000
