Model Number: SPM-001-M   
Serial Number: 10090201
Firmware Version: 004.17.6
Exposure Time: 500000.000000us
Data Taken on: 10-03-2021 11:03:18.986
Wavelength	Amplitude
733.770752	0.000000
733.808716	0.000000
733.846619	0.000000
733.884583	0.000000
733.922546	0.000000
733.960449	0.000000
733.998413	0.000000
734.036377	0.000000
734.074219	0.000000
734.112183	0.000000
734.150085	0.000000
734.188049	0.000000
734.226013	0.000000
734.263916	0.000000
734.301819	0.000000
734.339783	0.000000
734.377686	0.000000
734.415588	0.000000
734.453552	0.000000
734.491455	0.000000
734.529419	0.000000
734.567322	0.000000
734.605225	0.000000
734.643127	0.000000
734.681091	0.000000
734.718994	0.000000
734.756897	0.000000
734.794800	0.000000
734.832703	0.000000
734.870667	0.000000
734.908508	0.000000
734.946472	0.000000
734.984375	0.000000
735.022278	0.000000
735.060181	0.000000
735.098083	0.000000
735.135986	0.000000
735.173889	0.000000
735.211792	0.000000
735.249695	0.000000
735.287598	0.000000
735.325439	0.000000
735.363403	0.000000
735.401306	0.000000
735.439148	0.000000
735.477051	0.000000
735.515015	0.000000
735.552856	0.000000
735.590759	0.000000
735.628662	0.000000
735.666504	0.000000
735.704407	0.000000
735.742310	0.000000
735.780212	0.000000
735.818115	0.000000
735.856018	0.000000
735.893860	0.000000
735.931763	0.000000
735.969604	0.000000
736.007507	0.000000
736.045410	0.000000
736.083252	0.000000
736.121094	0.000000
736.158997	0.000000
736.196838	0.000000
736.234741	0.000000
736.272644	0.000000
736.310486	0.000000
736.348389	0.000000
736.386230	0.000000
736.424072	0.000000
736.461975	0.000000
736.499878	0.000000
736.537720	0.000000
736.575562	0.000000
736.613403	0.000000
736.651306	0.000000
736.689148	0.000000
736.726990	0.000000
736.764893	0.000000
736.802734	0.000000
736.840576	0.000000
736.878418	0.000000
736.916321	0.000000
736.954102	0.000000
736.992004	0.000000
737.029846	0.000000
737.067688	0.000000
737.105530	0.000000
737.143372	0.000000
737.181213	0.000000
737.219116	0.000000
737.256897	0.000000
737.294739	0.000000
737.332642	0.000000
737.370422	0.000000
737.408325	0.000000
737.446167	0.000000
737.483948	0.000000
737.521790	0.000000
737.559692	0.000000
737.597473	0.000000
737.635315	0.000000
737.673157	0.000000
737.710999	0.000000
737.748840	0.000000
737.786621	0.000000
737.824463	0.000000
737.862305	0.000000
737.900085	0.000000
737.937927	0.000000
737.975769	0.000000
738.013550	0.000000
738.051392	0.000000
738.089233	0.000000
738.127014	0.000000
738.164856	0.000000
738.202698	0.000000
738.240479	0.000000
738.278320	0.000000
738.316162	0.000000
738.353943	0.000000
738.391785	0.000000
738.429565	0.000000
738.467407	0.000000
738.505188	0.000000
738.542969	0.000000
738.580811	0.000000
738.618652	0.000000
738.656372	0.000000
738.694214	0.000000
738.732056	0.000000
738.769836	0.000000
738.807617	0.000000
738.845459	0.000000
738.883240	0.000000
738.921021	0.000000
738.958862	0.000000
738.996582	0.000000
739.034424	0.000000
739.072205	0.000000
739.109985	0.000000
739.147827	0.000000
739.185547	0.000000
739.223389	0.000000
739.261169	0.000000
739.298889	0.000000
739.336731	0.000000
739.374512	0.000000
739.412292	0.000000
739.450073	0.000000
739.487854	0.000000
739.525635	0.000000
739.563416	0.000000
739.601135	0.000000
739.638977	0.000000
739.676758	0.000000
739.714478	0.000000
739.752258	0.000000
739.790100	0.000000
739.827820	0.000000
739.865601	0.000000
739.903381	0.000000
739.941101	0.000000
739.978882	195.400000
740.016724	192.300000
740.054443	197.500000
740.092224	190.000000
740.130005	189.000000
740.167725	190.900000
740.205505	189.200000
740.243225	201.000000
740.281006	194.600000
740.318787	184.800000
740.356506	198.400000
740.394287	197.300000
740.432068	188.700000
740.469727	185.800000
740.507507	197.000000
740.545288	191.900000
740.583008	196.100000
740.620789	192.900000
740.658569	184.400000
740.696228	192.500000
740.734009	199.300000
740.771790	180.100000
740.809509	196.700000
740.847229	187.400000
740.884949	191.500000
740.922729	185.000000
740.960449	190.900000
740.998169	186.300000
741.035950	188.900000
741.073669	193.800000
741.111389	194.400000
741.149170	201.900000
741.186890	203.500000
741.224609	196.300000
741.262329	193.600000
741.300110	203.000000
741.337769	187.200000
741.375549	186.100000
741.413208	193.900000
741.450989	188.100000
741.488708	190.700000
741.526367	189.500000
741.564148	196.800000
741.601868	196.000000
741.639526	194.000000
741.677307	193.700000
741.715027	195.600000
741.752686	190.200000
741.790466	202.100000
741.828186	195.700000
741.865845	188.500000
741.903564	183.000000
741.941345	192.800000
741.979004	188.700000
742.016724	195.400000
742.054382	194.100000
742.092102	198.900000
742.129822	184.100000
742.167480	189.600000
742.205200	191.200000
742.242920	193.900000
742.280640	199.000000
742.318359	188.900000
742.356079	190.900000
742.393738	196.200000
742.431396	193.200000
742.469116	197.200000
742.506775	182.700000
742.544495	194.900000
742.582214	198.000000
742.619873	192.300000
742.657593	200.400000
742.695251	196.200000
742.732971	194.300000
742.770630	194.600000
742.808289	194.300000
742.846008	192.300000
742.883728	197.200000
742.921326	192.100000
742.959045	189.800000
742.996765	192.500000
743.034424	193.200000
743.072083	189.500000
743.109802	193.800000
743.147400	185.700000
743.185120	195.100000
743.222839	193.300000
743.260437	197.900000
743.298157	194.300000
743.335754	184.600000
743.373474	191.300000
743.411133	185.300000
743.448792	192.500000
743.486450	194.000000
743.524170	184.900000
743.561768	191.900000
743.599487	199.600000
743.637146	204.000000
743.674744	191.700000
743.712463	190.000000
743.750122	193.600000
743.787720	195.100000
743.825439	188.800000
743.863037	190.700000
743.900696	192.500000
743.938416	218.800000
743.976013	193.000000
744.013672	201.300000
744.051331	199.900000
744.088928	200.900000
744.126587	200.100000
744.164307	193.000000
744.201904	190.000000
744.239563	196.300000
744.277222	194.700000
744.314819	191.800000
744.352478	202.500000
744.390137	194.500000
744.427734	195.700000
744.465393	189.500000
744.502991	187.800000
744.540649	196.700000
744.578308	194.400000
744.615906	187.300000
744.653564	183.100000
744.691223	195.100000
744.728821	186.000000
744.766418	193.200000
744.804077	196.700000
744.841675	189.700000
744.879333	186.000000
744.916992	190.800000
744.954529	190.800000
744.992187	198.200000
745.029785	191.200000
745.067444	189.400000
745.105042	193.700000
745.142639	196.900000
745.180298	202.600000
745.217896	190.700000
745.255493	192.300000
745.293152	197.500000
745.330750	196.700000
745.368347	202.600000
745.405945	195.800000
745.443604	193.800000
745.481140	197.300000
745.518799	191.400000
745.556396	197.700000
745.593994	198.100000
745.631592	192.300000
745.669189	188.700000
745.706787	195.700000
745.744385	190.800000
745.781982	195.100000
745.819580	190.800000
745.857178	192.000000
745.894775	192.600000
745.932373	192.800000
745.969971	195.200000
746.007568	183.100000
746.045166	202.600000
746.082764	198.800000
746.120300	197.400000
746.157898	195.900000
746.195557	194.500000
746.233093	187.000000
746.270691	197.700000
746.308228	195.300000
746.345825	197.900000
746.383423	196.200000
746.420959	190.000000
746.458557	190.100000
746.496155	191.400000
746.533691	191.500000
746.571289	188.600000
746.608887	194.500000
746.646423	194.500000
746.684021	194.000000
746.721619	191.200000
746.759155	193.900000
746.796753	186.700000
746.834351	186.100000
746.871826	190.800000
746.909424	201.300000
746.946960	195.400000
746.984558	191.800000
747.022156	193.400000
747.059631	199.700000
747.097229	197.400000
747.134827	191.300000
747.172363	200.500000
747.209900	195.400000
747.247498	187.300000
747.285034	201.900000
747.322571	201.200000
747.360168	192.100000
747.397644	186.700000
747.435242	198.200000
747.472778	200.500000
747.510315	191.500000
747.547913	191.600000
747.585388	201.200000
747.622925	192.900000
747.660522	184.700000
747.697998	189.100000
747.735596	192.400000
747.773132	189.700000
747.810669	193.600000
747.848206	196.900000
747.885742	189.400000
747.923279	186.500000
747.960815	196.200000
747.998352	194.000000
748.035889	198.900000
748.073425	197.400000
748.110901	190.600000
748.148437	188.500000
748.185974	195.200000
748.223511	201.900000
748.261047	194.800000
748.298584	194.600000
748.336060	192.900000
748.373596	195.900000
748.411133	213.400000
748.448608	188.500000
748.486145	198.700000
748.523682	201.600000
748.561218	200.400000
748.598755	193.900000
748.636292	197.300000
748.673706	191.900000
748.711243	200.900000
748.748718	195.200000
748.786255	193.500000
748.823792	194.000000
748.861267	188.900000
748.898804	195.400000
748.936340	195.900000
748.973816	191.300000
749.011292	199.900000
749.048828	195.500000
749.086304	196.300000
749.123840	205.800000
749.161316	188.100000
749.198792	204.400000
749.236328	199.700000
749.273743	193.000000
749.311279	190.500000
749.348816	196.000000
749.386230	193.800000
749.423767	181.500000
749.461304	195.200000
749.498718	193.200000
749.536255	200.700000
749.573730	207.300000
749.611206	198.700000
749.648682	193.200000
749.686218	192.800000
749.723633	198.300000
749.761169	191.100000
749.798645	190.600000
749.836060	191.100000
749.873596	190.200000
749.911011	191.900000
749.948547	201.400000
749.986023	193.300000
750.023437	192.100000
750.060913	185.800000
750.098450	188.200000
750.135864	190.900000
750.173340	195.100000
750.210815	199.400000
750.248291	187.800000
750.285767	192.900000
750.323242	200.000000
750.360657	196.000000
750.398132	188.000000
750.435608	197.600000
750.473022	189.700000
750.510498	188.400000
750.547974	189.100000
750.585449	191.500000
750.622925	182.300000
750.660339	201.600000
750.697815	194.100000
750.735291	193.700000
750.772644	193.700000
750.810120	195.400000
750.847595	196.300000
750.885010	190.400000
750.922485	203.000000
750.959961	193.000000
750.997375	200.200000
751.034851	198.400000
751.072266	197.500000
751.109680	187.400000
751.147156	199.600000
751.184570	197.000000
751.221985	195.600000
751.259460	185.000000
751.296875	191.600000
751.334290	193.800000
751.371765	198.300000
751.409180	197.400000
751.446594	199.700000
751.484070	196.800000
751.521423	195.200000
751.558899	196.000000
751.596375	199.600000
751.633728	201.400000
751.671204	207.000000
751.708618	190.100000
751.746033	193.700000
751.783447	188.200000
751.820801	188.300000
751.858276	196.600000
751.895691	192.600000
751.933105	191.500000
751.970520	187.700000
752.007935	192.200000
752.045349	197.100000
752.082764	193.500000
752.120178	191.000000
752.157532	189.100000
752.195007	191.800000
752.232422	197.300000
752.269775	199.000000
752.307190	198.000000
752.344543	188.900000
752.382019	192.800000
752.419434	192.400000
752.456787	196.700000
752.494202	197.500000
752.531616	194.800000
752.568970	199.100000
752.606384	194.500000
752.643799	196.800000
752.681152	202.200000
752.718567	196.700000
752.755981	185.500000
752.793335	196.300000
752.830750	185.100000
752.868164	200.600000
752.905518	187.600000
752.942932	198.700000
752.980225	187.900000
753.017639	197.800000
753.055054	191.300000
753.092407	196.900000
753.129822	199.000000
753.167175	205.200000
753.204529	192.900000
753.241943	191.000000
753.279358	186.800000
753.316650	198.100000
753.354065	194.600000
753.391479	200.000000
753.428772	200.700000
753.466187	197.900000
753.503479	186.700000
753.540894	192.200000
753.578308	187.800000
753.615601	187.900000
753.653015	193.500000
753.690369	191.900000
753.727722	189.800000
753.765076	187.100000
753.802490	187.900000
753.839783	185.500000
753.877136	189.900000
753.914551	210.200000
753.951843	188.400000
753.989258	197.900000
754.026611	195.800000
754.063904	198.500000
754.101257	189.500000
754.138611	186.200000
754.175964	194.200000
754.213318	205.100000
754.250610	186.700000
754.288025	192.100000
754.325378	187.000000
754.362671	199.300000
754.400024	193.400000
754.437378	202.000000
754.474670	205.100000
754.512085	190.000000
754.549438	195.100000
754.586731	191.500000
754.624084	192.700000
754.661438	188.500000
754.698730	201.800000
754.736084	191.700000
754.773376	192.900000
754.810730	195.300000
754.848083	192.300000
754.885315	197.300000
754.922668	186.500000
754.960022	187.800000
754.997314	199.700000
755.034668	194.100000
755.072021	195.700000
755.109253	191.500000
755.146606	202.500000
755.183960	191.100000
755.221252	204.800000
755.258545	200.300000
755.295898	202.700000
755.333191	202.400000
755.370544	199.600000
755.407776	195.200000
755.445129	196.300000
755.482422	201.600000
755.519714	192.800000
755.557068	187.100000
755.594360	188.000000
755.631653	199.400000
755.668945	206.000000
755.706299	198.300000
755.743530	209.200000
755.780884	204.100000
755.818176	204.600000
755.855408	202.700000
755.892761	199.600000
755.930054	198.500000
755.967346	199.900000
756.004639	202.100000
756.041870	199.000000
756.079224	202.500000
756.116516	194.200000
756.153748	202.600000
756.191040	207.300000
756.228394	200.800000
756.265625	193.000000
756.302917	199.900000
756.340210	194.700000
756.377441	205.400000
756.414795	206.000000
756.452087	200.100000
756.489319	192.700000
756.526611	204.000000
756.563843	200.200000
756.601135	211.500000
756.638428	208.000000
756.675659	200.200000
756.712952	205.200000
756.750244	205.000000
756.787476	201.600000
756.824768	209.000000
756.862061	198.600000
756.899292	247.800000
756.936584	205.200000
756.973816	212.800000
757.011047	214.200000
757.048340	203.000000
757.085632	201.500000
757.122864	219.000000
757.160156	200.900000
757.197327	206.300000
757.234619	207.800000
757.271912	202.600000
757.309082	208.200000
757.346375	201.300000
757.383667	210.200000
757.420837	205.200000
757.458130	205.300000
757.495422	205.400000
757.532593	205.600000
757.569885	198.400000
757.607117	200.300000
757.644348	207.100000
757.681580	217.500000
757.718811	194.200000
757.756042	205.100000
757.793335	202.000000
757.830505	209.900000
757.867798	202.600000
757.905029	203.200000
757.942200	207.900000
757.979492	202.900000
758.016724	205.500000
758.053894	204.100000
758.091187	225.600000
758.128418	208.000000
758.165588	205.000000
758.202820	221.300000
758.240112	208.100000
758.277283	219.000000
758.314514	208.900000
758.351685	206.400000
758.388916	217.000000
758.426147	216.400000
758.463379	218.100000
758.500610	212.000000
758.537842	208.300000
758.575012	217.900000
758.612244	204.900000
758.649475	223.100000
758.686646	203.700000
758.723877	217.800000
758.761108	218.200000
758.798279	210.600000
758.835510	214.200000
758.872742	218.600000
758.909851	213.100000
758.947083	215.800000
758.984253	213.700000
759.021484	217.900000
759.058716	216.200000
759.095886	216.600000
759.133057	213.200000
759.170288	217.000000
759.207458	209.800000
759.244690	224.400000
759.281860	224.400000
759.319031	214.400000
759.356262	212.200000
759.393433	212.900000
759.430603	212.500000
759.467773	213.600000
759.505005	222.300000
759.542175	220.200000
759.579346	215.800000
759.616516	214.600000
759.653687	218.200000
759.690918	210.500000
759.728027	218.500000
759.765259	217.700000
759.802429	219.900000
759.839539	217.500000
759.876770	223.500000
759.913940	226.000000
759.951111	220.000000
759.988281	218.400000
760.025452	215.500000
760.062561	211.100000
760.099792	227.000000
760.136963	220.200000
760.174072	217.300000
760.211243	212.200000
760.248413	214.500000
760.285583	212.500000
760.322754	230.000000
760.359863	224.300000
760.397034	225.700000
760.434204	218.400000
760.471375	220.300000
760.508545	215.800000
760.545715	219.500000
760.582825	213.700000
760.619995	224.700000
760.657166	214.200000
760.694275	228.100000
760.731445	223.000000
760.768555	223.500000
760.805664	224.300000
760.842834	224.700000
760.879944	225.400000
760.917114	223.900000
760.954285	221.000000
760.991394	216.800000
761.028564	229.400000
761.065674	227.100000
761.102783	220.800000
761.139954	230.400000
761.177124	228.300000
761.214172	230.800000
761.251343	223.500000
761.288452	224.800000
761.325562	229.800000
761.362732	224.000000
761.399841	227.300000
761.436951	230.100000
761.474121	225.000000
761.511169	229.300000
761.548340	232.800000
761.585449	231.800000
761.622559	235.400000
761.659668	231.100000
761.696838	237.200000
761.733887	234.500000
761.771057	231.500000
761.808167	232.700000
761.845276	239.200000
761.882385	245.700000
761.919434	235.800000
761.956604	253.600000
761.993713	233.100000
762.030762	242.500000
762.067871	235.700000
762.105042	235.600000
762.142090	245.800000
762.179199	238.200000
762.216309	245.600000
762.253418	254.700000
762.290527	250.400000
762.327637	245.200000
762.364685	235.200000
762.401794	246.200000
762.438904	243.800000
762.475952	237.800000
762.513062	237.600000
762.550110	237.700000
762.587219	254.700000
762.624329	252.400000
762.661377	247.100000
762.698486	246.300000
762.735596	246.900000
762.772644	239.400000
762.809753	236.800000
762.846863	245.500000
762.883911	251.600000
762.921021	250.900000
762.958069	246.600000
762.995117	256.200000
763.032227	255.500000
763.069336	248.300000
763.106323	243.300000
763.143433	243.200000
763.180481	252.200000
763.217590	253.800000
763.254639	248.100000
763.291687	250.300000
763.328735	258.500000
763.365845	252.300000
763.402893	249.700000
763.439941	255.500000
763.477051	258.200000
763.514038	261.100000
763.551147	250.500000
763.588196	255.600000
763.625244	251.700000
763.662292	263.300000
763.699402	266.200000
763.736389	260.600000
763.773499	268.300000
763.810486	264.200000
763.847534	260.000000
763.884644	264.300000
763.921631	258.000000
763.958679	272.200000
763.995728	261.600000
764.032776	272.000000
764.069824	257.400000
764.106873	268.400000
764.143860	273.900000
764.180969	265.800000
764.218018	273.600000
764.255005	266.300000
764.292053	268.300000
764.329102	279.600000
764.366089	277.000000
764.403137	276.900000
764.440125	265.700000
764.477173	270.200000
764.514221	272.100000
764.551208	269.400000
764.588257	266.900000
764.625305	276.300000
764.662292	281.800000
764.699341	286.300000
764.736389	279.100000
764.773376	291.900000
764.810425	280.300000
764.847473	288.300000
764.884399	283.500000
764.921448	290.400000
764.958435	291.100000
764.995483	278.100000
765.032532	296.700000
765.069458	280.500000
765.106506	283.400000
765.143555	281.000000
765.180481	287.200000
765.217529	293.700000
765.254578	279.000000
765.291504	288.700000
765.328552	285.700000
765.365540	282.000000
765.402527	297.700000
765.439575	282.300000
765.476501	279.300000
765.513550	280.200000
765.550537	287.100000
765.587463	292.000000
765.624512	284.400000
765.661499	277.900000
765.698486	297.200000
765.735474	285.500000
765.772461	288.600000
765.809448	296.900000
765.846436	294.900000
765.883423	297.800000
765.920410	291.100000
765.957397	288.500000
765.994385	294.200000
766.031311	301.900000
766.068359	295.500000
766.105286	296.100000
766.142273	304.100000
766.179260	299.400000
766.216187	293.500000
766.253174	289.500000
766.290161	299.500000
766.327148	300.700000
766.364136	302.000000
766.401123	319.000000
766.438049	297.100000
766.475037	311.900000
766.512024	305.400000
766.548950	323.000000
766.585937	316.300000
766.622864	314.000000
766.659790	311.400000
766.696777	303.900000
766.733704	317.400000
766.770691	311.300000
766.807678	323.600000
766.844604	322.200000
766.881531	319.600000
766.918518	327.900000
766.955444	328.300000
766.992432	321.100000
767.029358	323.900000
767.066284	327.400000
767.103271	324.000000
767.140198	355.900000
767.177124	340.400000
767.214050	335.000000
767.251038	336.300000
767.287964	331.500000
767.324890	328.500000
767.361816	336.300000
767.398743	341.600000
767.435730	338.200000
767.472595	340.500000
767.509583	347.200000
767.546509	331.900000
767.583374	342.400000
767.620361	334.400000
767.657288	344.300000
767.694214	343.500000
767.731140	342.500000
767.768066	343.200000
767.804993	351.600000
767.841919	339.400000
767.878845	346.800000
767.915710	356.400000
767.952698	349.000000
767.989563	353.300000
768.026489	356.700000
768.063416	348.100000
768.100281	348.800000
768.137207	364.900000
768.174133	361.100000
768.211060	361.700000
768.247986	361.100000
768.284912	359.800000
768.321777	363.100000
768.358704	361.700000
768.395630	363.700000
768.432495	359.600000
768.469421	364.000000
768.506348	373.500000
768.543152	379.100000
768.580078	377.800000
768.616943	376.200000
768.653870	380.200000
768.690796	375.800000
768.727661	376.100000
768.764587	378.500000
768.801453	373.600000
768.838318	384.600000
768.875244	383.800000
768.912109	389.500000
768.948975	383.900000
768.985901	385.700000
769.022766	385.800000
769.059631	392.200000
769.096558	387.700000
769.133362	389.600000
769.170288	391.100000
769.207214	389.500000
769.244019	398.100000
769.280945	397.600000
769.317810	403.400000
769.354675	398.900000
769.391541	409.000000
769.428406	401.900000
769.465271	418.200000
769.502136	405.100000
769.539062	408.200000
769.575867	405.200000
769.612732	408.100000
769.649597	412.100000
769.686462	419.000000
769.723328	413.600000
769.760193	410.900000
769.797058	415.200000
769.833923	424.300000
769.870728	419.000000
769.907593	425.800000
769.944519	422.800000
769.981323	426.600000
770.018188	426.800000
770.055054	423.000000
770.091858	424.700000
770.128723	435.800000
770.165588	444.400000
770.202393	429.000000
770.239258	443.300000
770.276062	433.300000
770.312927	436.700000
770.349792	441.500000
770.386597	440.600000
770.423462	448.100000
770.460327	460.400000
770.497131	440.700000
770.533997	435.900000
770.570862	450.600000
770.607605	452.700000
770.644470	444.800000
770.681335	451.900000
770.718140	445.900000
770.754944	439.100000
770.791809	441.200000
770.828613	445.000000
770.865479	444.200000
770.902222	458.100000
770.939087	450.800000
770.975952	440.400000
771.012695	443.400000
771.049561	463.900000
771.086365	450.000000
771.123169	444.900000
771.159973	451.800000
771.196838	452.900000
771.233582	455.300000
771.270447	455.400000
771.307251	458.100000
771.344055	455.900000
771.380859	458.700000
771.417664	454.400000
771.454468	462.900000
771.491272	459.900000
771.528076	461.200000
771.564880	461.900000
771.601685	476.200000
771.638428	460.400000
771.675293	474.000000
771.712097	460.300000
771.748840	479.100000
771.785645	469.300000
771.822449	475.500000
771.859253	477.200000
771.896057	473.600000
771.932861	485.400000
771.969604	478.500000
772.006409	470.700000
772.043213	489.800000
772.079956	481.300000
772.116760	475.000000
772.153503	479.600000
772.190308	491.400000
772.227112	482.000000
772.263855	481.400000
772.300659	485.800000
772.337463	494.700000
772.374207	485.400000
772.411011	481.200000
772.447754	488.900000
772.484497	506.700000
772.521301	499.700000
772.558105	497.200000
772.594849	496.000000
772.631592	505.200000
772.668396	503.100000
772.705139	512.300000
772.741882	514.300000
772.778625	527.200000
772.815430	529.700000
772.852173	523.800000
772.888916	530.900000
772.925720	534.900000
772.962463	542.500000
772.999207	536.500000
773.035950	542.900000
773.072754	541.200000
773.109436	536.700000
773.146240	540.100000
773.182922	538.000000
773.219727	551.300000
773.256470	547.200000
773.293152	534.100000
773.329956	541.300000
773.366699	547.900000
773.403381	540.700000
773.440186	550.400000
773.476929	554.800000
773.513611	549.700000
773.550354	551.700000
773.587158	552.600000
773.623840	551.300000
773.660583	564.600000
773.697327	574.400000
773.734009	563.200000
773.770813	565.200000
773.807495	562.500000
773.844238	569.400000
773.880981	586.200000
773.917664	580.500000
773.954407	584.100000
773.991150	578.600000
774.027832	581.500000
774.064575	572.900000
774.101318	587.600000
774.138000	592.700000
774.174744	584.900000
774.211487	592.100000
774.248108	578.900000
774.284851	583.000000
774.321594	598.100000
774.358276	599.600000
774.395020	606.100000
774.431702	602.700000
774.468384	600.800000
774.505127	595.600000
774.541809	610.000000
774.578491	625.000000
774.615234	625.700000
774.651917	615.100000
774.688599	624.400000
774.725342	630.200000
774.762024	627.900000
774.798706	634.500000
774.835449	636.500000
774.872070	642.900000
774.908813	637.800000
774.945496	635.500000
774.982178	639.100000
775.018860	643.700000
775.055542	647.300000
775.092224	650.700000
775.128967	656.300000
775.165588	653.600000
775.202271	642.800000
775.239014	656.400000
775.275635	658.600000
775.312317	654.800000
775.349060	661.200000
775.385681	658.000000
775.422363	651.200000
775.459045	661.100000
775.495667	666.400000
775.532410	671.800000
775.569092	674.800000
775.605713	669.100000
775.642395	667.700000
775.679016	673.100000
775.715698	675.800000
775.752380	684.500000
775.789001	675.300000
775.825684	671.200000
775.862366	674.800000
775.898987	687.400000
775.935669	677.700000
775.972351	702.800000
776.008972	700.800000
776.045654	694.900000
776.082336	690.900000
776.118958	690.100000
776.155640	696.400000
776.192322	707.200000
776.228882	710.600000
776.265564	705.200000
776.302185	700.600000
776.338867	706.300000
776.375488	695.000000
776.412109	707.200000
776.448792	715.200000
776.485413	721.400000
776.522034	710.700000
776.558716	702.600000
776.595337	702.300000
776.631958	713.300000
776.668579	708.800000
776.705261	716.800000
776.741882	709.700000
776.778503	711.100000
776.815186	703.400000
776.851746	720.100000
776.888367	719.500000
776.924988	726.400000
776.961609	714.800000
776.998291	714.100000
777.034851	701.200000
777.071472	722.400000
777.108154	718.200000
777.144714	728.600000
777.181335	728.600000
777.218018	718.000000
777.254578	727.100000
777.291199	723.900000
777.327759	730.500000
777.364380	742.600000
777.401062	746.900000
777.437622	762.900000
777.474243	743.500000
777.510864	754.100000
777.547424	744.200000
777.584045	754.500000
777.620667	759.000000
777.657227	765.600000
777.693848	762.200000
777.730469	780.300000
777.767029	769.400000
777.803650	775.900000
777.840271	764.900000
777.876831	768.500000
777.913452	776.200000
777.950012	757.000000
777.986633	755.900000
778.023193	760.000000
778.059753	759.200000
778.096375	759.400000
778.132996	774.000000
778.169556	762.400000
778.206116	763.700000
778.242737	762.900000
778.279297	776.000000
778.315857	767.200000
778.352478	776.300000
778.389038	789.400000
778.425598	789.700000
778.462219	800.100000
778.498718	798.500000
778.535339	809.400000
778.571838	804.300000
778.608459	815.000000
778.645020	806.700000
778.681580	822.600000
778.718140	826.700000
778.754761	817.400000
778.791260	825.600000
778.827881	835.800000
778.864441	835.600000
778.900940	836.400000
778.937561	836.600000
778.974121	835.700000
779.010620	822.700000
779.047241	828.600000
779.083801	841.100000
779.120300	842.100000
779.156860	845.800000
779.193359	843.000000
779.229980	845.600000
779.266541	854.000000
779.303040	861.000000
779.339600	848.200000
779.376160	842.700000
779.412659	851.500000
779.449219	849.300000
779.485779	855.100000
779.522278	860.400000
779.558838	865.900000
779.595398	866.300000
779.631897	867.600000
779.668457	858.000000
779.705017	866.600000
779.741516	867.200000
779.778076	858.300000
779.814575	871.800000
779.851074	882.400000
779.887634	872.000000
779.924133	886.300000
779.960693	873.400000
779.997253	885.400000
780.033691	890.000000
780.070251	892.300000
780.106812	903.200000
780.143250	896.900000
780.179810	890.700000
780.216370	899.600000
780.252808	910.700000
780.289368	926.700000
780.325867	924.900000
780.362366	920.500000
780.398865	929.900000
780.435364	926.500000
780.471863	941.700000
780.508423	939.900000
780.544861	945.700000
780.581421	956.600000
780.617920	943.800000
780.654419	941.700000
780.690918	946.300000
780.727417	958.500000
780.763916	956.000000
780.800415	961.700000
780.836914	938.600000
780.873352	946.800000
780.909912	934.800000
780.946411	951.200000
780.982849	961.000000
781.019348	986.200000
781.055786	971.900000
781.092346	962.500000
781.128845	976.000000
781.165283	983.300000
781.201782	990.300000
781.238281	994.200000
781.274719	1001.200000
781.311218	989.600000
781.347717	1004.800000
781.384155	991.500000
781.420654	991.700000
781.457092	1008.300000
781.493591	1000.800000
781.530090	996.100000
781.566528	994.900000
781.602966	999.600000
781.639465	996.900000
781.675903	992.900000
781.712402	1003.300000
781.748901	1011.400000
781.785278	997.300000
781.821777	1008.200000
781.858276	1005.500000
781.894714	1021.100000
781.931152	1014.300000
781.967651	1020.500000
782.004089	1015.200000
782.040527	1016.700000
782.076965	1017.700000
782.113403	1023.700000
782.149902	1027.100000
782.186340	1019.800000
782.222778	1031.900000
782.259277	1015.200000
782.295654	1018.800000
782.332092	1031.100000
782.368591	1022.100000
782.404968	1014.100000
782.441467	1021.300000
782.477905	1026.400000
782.514282	1020.400000
782.550781	1032.900000
782.587219	1038.800000
782.623596	1038.200000
782.660095	1042.900000
782.696472	1043.900000
782.732910	1047.800000
782.769348	1054.700000
782.805786	1073.600000
782.842224	1062.300000
782.878662	1062.700000
782.915039	1064.000000
782.951477	1067.800000
782.987915	1058.800000
783.024292	1066.900000
783.060730	1061.800000
783.097168	1048.400000
783.133545	1039.200000
783.169983	1041.800000
783.206421	1031.900000
783.242798	1030.000000
783.279236	1016.500000
783.315613	1016.000000
783.352051	1012.000000
783.388489	996.400000
783.424866	983.500000
783.461304	993.600000
783.497681	998.500000
783.534058	999.800000
783.570496	993.700000
783.606934	984.900000
783.643250	994.100000
783.679687	1004.300000
783.716125	1000.600000
783.752441	1015.100000
783.788879	1031.500000
783.825317	1036.800000
783.861633	1040.500000
783.898071	1040.400000
783.934448	1053.700000
783.970825	1058.700000
784.007263	1034.900000
784.043579	973.900000
784.080017	854.500000
784.116394	687.300000
784.152710	548.600000
784.189148	462.600000
784.225525	447.700000
784.261902	493.300000
784.298279	600.800000
784.334656	737.700000
784.371033	864.400000
784.407410	974.700000
784.443787	1024.800000
784.480164	1030.200000
784.516541	1022.200000
784.552856	1036.900000
784.589233	1025.800000
784.625610	1026.400000
784.661987	1062.300000
784.698364	1044.800000
784.734741	1042.700000
784.771057	1039.300000
784.807434	1046.800000
784.843811	1065.800000
784.880127	1068.100000
784.916504	1099.300000
784.952881	1103.200000
784.989197	1096.600000
785.025574	1096.100000
785.061951	1103.300000
785.098267	1133.600000
785.134644	1131.700000
785.170959	1129.600000
785.207275	1137.100000
785.243652	1138.800000
785.279968	1124.000000
785.316345	1137.100000
785.352722	1139.000000
785.388977	1140.100000
785.425354	1122.700000
785.461731	1097.700000
785.498047	1085.400000
785.534363	1078.300000
785.570679	1080.800000
785.606995	1087.000000
785.643372	1092.100000
785.679687	1078.600000
785.716003	1066.600000
785.752380	1062.900000
785.788635	1065.600000
785.825012	1095.100000
785.861328	1105.900000
785.897644	1089.800000
785.933960	1100.400000
785.970337	1113.000000
786.006592	1136.600000
786.042908	1149.000000
786.079285	1166.700000
786.115540	1168.800000
786.151855	1165.400000
786.188171	1161.300000
786.224487	1164.500000
786.260803	1169.200000
786.297119	1180.300000
786.333435	1184.500000
786.369751	1179.700000
786.406006	1178.800000
786.442322	1157.200000
786.478638	1146.800000
786.514954	1169.300000
786.551270	1168.600000
786.587585	1172.500000
786.623840	1161.700000
786.660156	1153.000000
786.696472	1138.000000
786.732727	1136.800000
786.769043	1139.400000
786.805298	1134.800000
786.841614	1134.100000
786.877930	1139.300000
786.914124	1123.200000
786.950439	1137.700000
786.986755	1145.300000
787.023010	1161.900000
787.059326	1174.100000
787.095642	1171.000000
787.131836	1191.700000
787.168152	1180.000000
787.204468	1185.900000
787.240723	1204.700000
787.276978	1227.600000
787.313293	1232.800000
787.349548	1225.900000
787.385803	1228.100000
787.422058	1216.100000
787.458313	1219.700000
787.494629	1228.400000
787.530823	1220.200000
787.567139	1208.300000
787.603455	1189.700000
787.639648	1178.700000
787.675903	1179.200000
787.712219	1178.900000
787.748413	1180.400000
787.784729	1186.700000
787.820984	1179.700000
787.857178	1165.600000
787.893494	1151.200000
787.929749	1150.300000
787.965942	1155.100000
788.002258	1171.200000
788.038452	1181.400000
788.074707	1169.000000
788.110962	1169.800000
788.147217	1166.900000
788.183472	1174.200000
788.219727	1190.500000
788.255920	1208.600000
788.292175	1216.600000
788.328430	1205.000000
788.364624	1186.400000
788.400879	1187.100000
788.437134	1195.500000
788.473328	1195.700000
788.509583	1192.000000
788.545837	1179.800000
788.582031	1177.500000
788.618286	1162.000000
788.654480	1153.600000
788.690735	1172.100000
788.726990	1195.200000
788.763184	1189.300000
788.799377	1202.900000
788.835632	1188.300000
788.871826	1204.500000
788.908081	1204.500000
788.944336	1199.900000
788.980469	1224.200000
789.016724	1217.100000
789.052979	1210.400000
789.089111	1191.000000
789.125366	1196.400000
789.161621	1174.400000
789.197754	1189.300000
789.234009	1183.700000
789.270142	1170.200000
789.306396	1154.300000
789.342590	1145.800000
789.378784	1116.600000
789.414978	1118.600000
789.451233	1139.800000
789.487366	1142.300000
789.523621	1145.800000
789.559814	1138.900000
789.595947	1126.400000
789.632202	1139.000000
789.668335	1152.500000
789.704529	1169.700000
789.740784	1190.600000
789.776917	1196.800000
789.813110	1168.000000
789.849304	1183.000000
789.885498	1187.100000
789.921692	1212.600000
789.957886	1220.300000
789.994019	1220.600000
790.030212	1208.400000
790.066406	1214.100000
790.102539	1207.500000
790.138733	1216.900000
790.174927	1215.000000
790.211060	1227.900000
790.247253	1214.600000
790.283386	1198.200000
790.319580	1183.000000
790.355774	1160.800000
790.391907	1170.300000
790.428101	1198.000000
790.464294	1199.100000
790.500427	1198.300000
790.536621	1176.300000
790.572754	1160.500000
790.608887	1165.800000
790.645081	1178.400000
790.681274	1189.000000
790.717346	1186.400000
790.753540	1144.400000
790.789734	1062.500000
790.825867	995.500000
790.862000	991.100000
790.898132	1038.200000
790.934265	1098.600000
790.970459	1152.100000
791.006592	1170.600000
791.042725	1179.600000
791.078918	1169.600000
791.114990	1169.700000
791.151184	1184.000000
791.187317	1210.600000
791.223389	1201.200000
791.259583	1189.900000
791.295715	1189.200000
791.331848	1204.600000
791.367981	1206.000000
791.404114	1214.400000
791.440247	1210.800000
791.476379	1205.600000
791.512451	1188.800000
791.548584	1198.700000
791.584778	1191.400000
791.620850	1214.100000
791.656982	1211.500000
791.693115	1212.800000
791.729187	1209.000000
791.765381	1199.000000
791.801514	1195.700000
791.837585	1197.800000
791.873718	1209.800000
791.909851	1223.800000
791.945923	1233.500000
791.982056	1193.600000
792.018188	1189.700000
792.054260	1197.700000
792.090393	1199.800000
792.126465	1191.300000
792.162598	1205.100000
792.198669	1183.600000
792.234741	1180.600000
792.270874	1168.000000
792.307007	1153.100000
792.343079	1160.400000
792.379150	1184.100000
792.415283	1161.400000
792.451355	1166.300000
792.487488	1142.900000
792.523560	1144.600000
792.559631	1145.200000
792.595764	1142.300000
792.631836	1147.100000
792.667908	1154.200000
792.703979	1136.600000
792.740051	1136.900000
792.776184	1144.800000
792.812256	1150.000000
792.848328	1156.500000
792.884399	1164.400000
792.920471	1150.600000
792.956543	1144.500000
792.992615	1144.100000
793.028748	1140.700000
793.064758	1147.200000
793.100830	1172.400000
793.136963	1183.500000
793.172974	1172.700000
793.209045	1161.100000
793.245178	1178.900000
793.281189	1156.600000
793.317261	1171.300000
793.353271	1173.800000
793.389404	1181.200000
793.425476	1170.500000
793.461487	1157.500000
793.497559	1154.400000
793.533630	1167.800000
793.569641	1166.100000
793.605713	1170.000000
793.641785	1166.800000
793.677795	1174.700000
793.713867	1156.200000
793.749878	1166.000000
793.785950	1176.400000
793.822021	1185.300000
793.858032	1168.600000
793.894104	1181.400000
793.930176	1165.400000
793.966187	1164.500000
794.002258	1152.500000
794.038269	1160.600000
794.074280	1160.200000
794.110352	1182.800000
794.146423	1155.800000
794.182373	1145.600000
794.218445	1136.800000
794.254517	1122.800000
794.290466	1114.600000
794.326538	1126.200000
794.362549	1126.000000
794.398560	1129.500000
794.434631	1134.400000
794.470581	1096.700000
794.506653	1092.500000
794.542664	1095.100000
794.578674	1097.200000
794.614685	1093.400000
794.650757	1093.600000
794.686707	1090.900000
794.722778	1071.200000
794.758789	1085.200000
794.794739	1093.100000
794.830811	1117.400000
794.866821	1138.300000
794.902771	1127.300000
794.938843	1112.300000
794.974792	1113.800000
795.010803	1109.400000
795.046814	1107.600000
795.082825	1102.100000
795.118835	1117.200000
795.154846	1094.600000
795.190796	1091.500000
795.226807	1070.300000
795.262817	1082.700000
795.298767	1083.200000
795.334778	1087.700000
795.370850	1074.100000
795.406799	1074.300000
795.442810	1047.500000
795.478821	1049.600000
795.514709	1048.300000
795.550720	1069.000000
795.586670	1047.200000
795.622681	1054.100000
795.658691	1052.200000
795.694641	1044.900000
795.730652	1031.500000
795.766663	1042.900000
795.802551	1046.400000
795.838562	1066.300000
795.874573	1047.300000
795.910522	1046.200000
795.946472	1034.000000
795.982483	1042.100000
796.018433	1048.400000
796.054382	1050.900000
796.090393	1040.800000
796.126282	1033.200000
796.162292	1018.400000
796.198242	1006.300000
796.234192	1018.200000
796.270203	1017.500000
796.306091	1023.600000
796.342041	1035.500000
796.378052	1020.400000
796.413940	1017.100000
796.449951	1015.900000
796.485901	1009.900000
796.521790	1015.100000
796.557800	1029.400000
796.593689	1032.700000
796.629639	1017.900000
796.665649	1006.700000
796.701599	1003.500000
796.737488	1007.300000
796.773437	1008.900000
796.809387	1010.500000
796.845337	1009.000000
796.881287	998.100000
796.917175	982.300000
796.953125	981.900000
796.989075	994.100000
797.024963	1001.300000
797.060913	998.800000
797.096863	995.400000
797.132751	988.700000
797.168701	969.200000
797.204590	977.700000
797.240540	977.500000
797.276489	986.300000
797.312439	992.100000
797.348328	984.300000
797.384277	974.400000
797.420166	964.400000
797.456055	969.000000
797.492004	966.000000
797.527893	974.400000
797.563843	975.500000
797.599731	963.300000
797.635620	948.700000
797.671570	955.400000
797.707520	954.100000
797.743347	957.600000
797.779297	963.300000
797.815125	960.600000
797.851074	949.600000
797.887024	940.600000
797.922913	931.500000
797.958801	953.400000
797.994690	949.400000
798.030579	953.900000
798.066467	953.900000
798.102356	941.500000
798.138245	933.600000
798.174133	928.500000
798.210083	942.300000
798.245911	949.100000
798.281799	950.700000
798.317749	942.100000
798.353577	926.000000
798.389465	924.000000
798.425293	925.300000
798.461243	922.900000
798.497131	925.200000
798.532959	928.300000
798.568848	931.700000
798.604736	919.700000
798.640564	907.200000
798.676453	908.900000
798.712402	913.700000
798.748230	917.700000
798.784119	914.900000
798.820007	913.600000
798.855835	913.500000
798.891724	902.700000
798.927551	904.800000
798.963379	908.100000
798.999268	902.200000
799.035095	898.200000
799.070984	891.800000
799.106873	877.000000
799.142700	893.900000
799.178528	884.200000
799.214417	881.000000
799.250244	900.200000
799.286133	891.900000
799.321960	882.500000
799.357788	877.500000
799.393677	882.100000
799.429504	878.400000
799.465332	877.300000
799.501221	898.200000
799.537048	886.000000
799.572876	872.900000
799.608704	872.700000
799.644531	880.200000
799.680359	880.700000
799.716248	888.900000
799.752014	894.600000
799.787903	881.200000
799.823730	873.800000
799.859558	866.300000
799.895386	872.000000
799.931213	875.800000
799.967041	864.200000
800.002869	864.000000
800.038696	866.900000
800.074463	848.000000
800.110352	852.800000
800.146179	842.700000
800.181946	854.100000
800.217773	851.200000
800.253540	850.300000
800.289429	844.600000
800.325256	834.400000
800.361023	828.800000
800.396851	837.300000
800.432678	834.100000
800.468445	827.800000
800.504272	825.000000
800.540100	813.500000
800.575867	810.500000
800.611694	817.200000
800.647461	808.200000
800.683289	813.800000
800.719116	812.100000
800.754883	804.100000
800.790649	790.100000
800.826477	781.900000
800.862244	802.200000
800.898071	787.600000
800.933838	780.600000
800.969604	783.200000
801.005432	784.500000
801.041199	779.100000
801.076965	770.400000
801.112793	764.700000
801.148560	753.300000
801.184326	759.600000
801.220154	761.700000
801.255859	754.300000
801.291687	746.200000
801.327454	743.200000
801.363281	741.200000
801.398987	738.900000
801.434814	739.300000
801.470520	751.500000
801.506287	734.400000
801.542114	730.400000
801.577820	733.400000
801.613647	733.400000
801.649414	719.700000
801.685120	725.000000
801.720886	731.000000
801.756714	721.300000
801.792419	709.300000
801.828186	707.800000
801.863892	716.100000
801.899719	704.300000
801.935486	702.500000
801.971252	706.100000
802.006958	702.700000
802.042725	696.800000
802.078430	699.000000
802.114197	691.300000
802.149963	708.500000
802.185669	695.200000
802.221436	691.700000
802.257202	692.400000
802.292908	689.300000
802.328674	698.700000
802.364441	696.400000
802.400146	683.700000
802.435913	681.700000
802.471558	679.500000
802.507324	677.200000
802.543091	671.200000
802.578796	680.900000
802.614502	679.500000
802.650269	683.700000
802.685974	667.700000
802.721741	672.800000
802.757446	674.900000
802.793152	673.800000
802.828918	678.700000
802.864624	675.100000
802.900330	666.900000
802.936035	666.400000
802.971802	660.300000
803.007446	660.200000
803.043213	650.000000
803.078857	662.600000
803.114624	646.400000
803.150330	650.100000
803.185974	640.600000
803.221741	641.100000
803.257446	648.800000
803.293152	651.300000
803.328857	641.600000
803.364563	637.500000
803.400208	629.400000
803.435974	641.100000
803.471680	631.500000
803.507324	626.600000
803.543030	631.800000
803.578735	637.400000
803.614441	622.300000
803.650146	634.900000
803.685791	618.300000
803.721497	618.500000
803.757202	607.000000
803.792847	619.800000
803.828552	612.800000
803.864258	613.000000
803.899902	611.300000
803.935608	593.100000
803.971313	602.900000
804.006958	599.100000
804.042664	598.400000
804.078308	603.200000
804.113953	596.200000
804.149658	601.500000
804.185364	591.300000
804.221008	604.500000
804.256714	591.900000
804.292297	590.400000
804.328003	585.700000
804.363708	578.100000
804.399292	578.000000
804.434998	574.500000
804.470703	570.200000
804.506287	580.900000
804.541992	575.000000
804.577637	576.500000
804.613281	564.500000
804.648926	563.900000
804.684570	570.700000
804.720215	564.400000
804.755920	566.100000
804.791565	559.700000
804.827209	569.700000
804.862854	561.500000
804.898437	554.400000
804.934143	555.400000
804.969788	554.400000
805.005371	558.100000
805.041077	556.800000
805.076721	556.300000
805.112305	545.200000
805.147949	545.600000
805.183655	541.700000
805.219238	546.500000
805.254883	546.800000
805.290466	550.100000
805.326111	541.500000
805.361755	533.700000
805.397400	540.200000
805.432983	542.400000
805.468628	541.700000
805.504211	548.100000
805.539856	545.200000
805.575500	547.400000
805.611084	534.500000
805.646729	525.500000
805.682373	530.300000
805.717957	541.200000
805.753601	539.800000
805.789246	520.000000
805.824768	535.200000
805.860413	536.500000
805.895996	521.400000
805.931641	524.500000
805.967224	530.100000
806.002869	521.700000
806.038452	529.800000
806.074036	528.400000
806.109619	513.100000
806.145264	511.100000
806.180847	512.300000
806.216431	509.100000
806.252014	513.600000
806.287659	515.500000
806.323181	521.400000
806.358826	512.700000
806.394409	494.200000
806.429993	500.500000
806.465576	517.200000
806.501160	501.200000
806.536743	489.000000
806.572327	501.000000
806.607910	497.000000
806.643494	496.300000
806.679077	489.900000
806.714661	494.200000
806.750244	492.600000
806.785828	485.000000
806.821350	484.600000
806.856934	492.200000
806.892517	484.500000
806.928101	479.000000
806.963684	481.900000
806.999268	493.500000
807.034790	469.900000
807.070374	477.500000
807.105896	472.200000
807.141479	464.700000
807.177063	479.700000
807.212585	466.900000
807.248169	468.000000
807.283752	475.100000
807.319275	466.800000
807.354858	466.100000
807.390381	462.700000
807.425903	464.900000
807.461487	459.000000
807.497070	451.400000
807.532593	457.200000
807.568115	452.500000
807.603699	448.800000
807.639221	443.800000
807.674744	446.500000
807.710266	453.900000
807.745850	454.900000
807.781372	447.000000
807.816895	441.700000
807.852417	442.100000
807.888000	445.500000
807.923523	440.700000
807.959045	444.600000
807.994629	430.900000
808.030090	429.300000
808.065613	437.400000
808.101135	438.500000
808.136658	430.600000
808.172241	434.900000
808.207764	429.900000
808.243225	422.800000
808.278809	419.900000
808.314270	430.700000
808.349792	419.000000
808.385315	416.600000
808.420837	423.700000
808.456360	425.900000
808.491882	426.600000
808.527344	417.400000
808.562866	428.700000
808.598389	419.400000
808.633850	412.800000
808.669434	410.500000
808.704895	420.500000
808.740417	423.500000
808.775940	417.100000
808.811462	410.500000
808.846924	402.400000
808.882385	397.000000
808.917847	399.000000
808.953369	403.600000
808.988892	393.100000
809.024353	403.000000
809.059875	401.600000
809.095398	401.200000
809.130798	392.500000
809.166321	391.700000
809.201843	390.700000
809.237305	391.300000
809.272766	398.500000
809.308228	384.600000
809.343750	382.700000
809.379211	384.800000
809.414734	387.700000
809.450134	392.000000
809.485657	376.700000
809.521118	381.800000
809.556580	380.200000
809.592102	377.900000
809.627502	377.100000
809.663025	370.900000
809.698486	370.100000
809.733887	365.800000
809.769409	370.200000
809.804871	359.400000
809.840271	363.600000
809.875793	367.400000
809.911194	370.100000
809.946655	362.300000
809.982178	358.500000
810.017639	360.400000
810.053040	359.300000
810.088501	355.900000
810.123901	356.400000
810.159424	352.800000
810.194885	351.300000
810.230286	355.400000
810.265747	347.200000
810.301208	344.400000
810.336609	347.600000
810.372070	340.300000
810.407532	344.200000
810.442932	345.400000
810.478394	347.900000
810.513794	344.200000
810.549255	343.200000
810.584717	342.400000
810.620117	334.500000
810.655518	341.000000
810.690979	339.900000
810.726379	340.000000
810.761841	329.500000
810.797302	330.500000
810.832642	328.300000
810.868103	342.200000
810.903564	329.400000
810.938904	337.400000
810.974365	323.300000
811.009827	330.600000
811.045166	323.100000
811.080627	317.700000
811.115967	322.600000
811.151428	331.600000
811.186829	321.900000
811.222229	323.400000
811.257629	314.700000
811.293091	322.700000
811.328430	329.300000
811.363892	324.600000
811.399292	324.900000
811.434631	318.100000
811.470093	321.100000
811.505493	314.400000
811.540833	317.100000
811.576294	322.500000
811.611694	315.400000
811.647034	313.000000
811.682434	312.900000
811.717773	314.200000
811.753235	320.600000
811.788635	312.400000
811.823975	314.300000
811.859375	321.900000
811.894775	306.400000
811.930115	310.000000
811.965515	308.600000
812.000916	314.100000
812.036255	306.000000
812.071655	312.500000
812.106995	304.500000
812.142395	304.300000
812.177795	311.700000
812.213196	309.600000
812.248474	310.300000
812.283875	300.300000
812.319214	306.200000
812.354614	305.100000
812.390015	302.400000
812.425293	302.500000
812.460693	302.500000
812.496094	299.100000
812.531433	294.200000
812.566772	295.600000
812.602173	299.300000
812.637451	298.300000
812.672852	293.900000
812.708191	297.600000
812.743530	292.600000
812.778931	285.100000
812.814270	289.600000
812.849609	295.900000
812.884949	291.100000
812.920227	283.700000
812.955627	301.000000
812.990967	288.900000
813.026306	285.500000
813.061646	275.400000
813.096985	274.100000
813.132324	271.800000
813.167664	277.200000
813.203003	281.400000
813.238281	270.100000
813.273682	270.300000
813.308960	265.500000
813.344299	269.400000
813.379639	277.600000
813.414978	271.000000
813.450256	269.600000
813.485596	272.800000
813.520874	264.600000
813.556213	269.200000
813.591614	272.200000
813.626831	266.100000
813.662170	271.100000
813.697510	281.800000
813.732788	264.200000
813.768127	268.300000
813.803467	271.600000
813.838745	263.700000
813.874084	268.400000
813.909363	268.200000
813.944641	269.200000
813.979980	258.400000
814.015320	263.100000
814.050598	258.800000
814.085876	266.200000
814.121155	262.200000
814.156494	259.700000
814.191772	261.000000
814.227051	257.400000
814.262390	261.000000
814.297668	260.800000
814.332947	262.100000
814.368225	253.900000
814.403564	259.000000
814.438782	252.500000
814.474121	257.800000
814.509338	250.300000
814.544617	260.800000
814.579956	248.900000
814.615173	262.000000
814.650513	258.100000
814.685791	249.400000
814.721008	251.400000
814.756348	253.200000
814.791626	247.200000
814.826843	248.500000
814.862122	249.600000
814.897400	247.800000
814.932678	248.400000
814.967957	249.300000
815.003235	247.800000
815.038452	243.300000
815.073730	239.000000
815.108948	252.100000
815.144226	247.500000
815.179504	250.300000
815.214722	237.600000
815.250000	235.500000
815.285278	245.000000
815.320496	238.800000
815.355774	240.400000
815.391052	244.000000
815.426270	239.100000
815.461487	238.300000
815.496765	235.000000
815.531982	230.100000
815.567261	237.500000
815.602539	244.700000
815.637695	240.100000
815.672974	241.100000
815.708191	241.400000
815.743408	242.800000
815.778687	236.600000
815.813904	245.100000
815.849121	227.900000
815.884399	230.300000
815.919556	229.800000
815.954834	229.500000
815.990051	235.700000
816.025269	237.400000
816.060486	230.900000
816.095703	227.900000
816.130920	232.700000
816.166199	227.000000
816.201416	233.700000
816.236572	236.400000
816.271851	227.300000
816.307007	235.800000
816.342224	223.900000
816.377441	226.300000
816.412659	219.400000
816.447876	230.600000
816.483093	227.400000
816.518250	227.500000
816.553467	225.100000
816.588745	227.500000
816.623901	223.300000
816.659119	217.600000
816.694275	221.500000
816.729492	219.200000
816.764709	255.100000
816.799927	215.600000
816.835083	221.400000
816.870300	215.200000
816.905457	221.500000
816.940674	221.800000
816.975830	217.700000
817.010986	215.100000
817.046204	217.200000
817.081421	214.000000
817.116577	213.600000
817.151733	223.000000
817.186951	223.400000
817.222107	218.400000
817.257324	220.900000
817.292419	219.800000
817.327637	209.900000
817.362854	216.700000
817.398010	209.700000
817.433167	213.200000
817.468323	212.000000
817.503479	214.200000
817.538635	221.600000
817.573853	217.700000
817.608948	213.400000
817.644165	210.200000
817.679321	208.200000
817.714478	208.900000
817.749634	213.700000
817.784790	226.800000
817.819946	219.300000
817.855103	201.800000
817.890198	210.300000
817.925415	203.400000
817.960571	211.100000
817.995667	211.800000
818.030823	211.700000
818.066040	207.800000
818.101135	208.500000
818.136292	208.000000
818.171448	201.300000
818.206543	207.100000
818.241699	211.600000
818.276855	209.000000
818.311951	207.500000
818.347107	203.800000
818.382263	208.800000
818.417358	215.100000
818.452515	214.000000
818.487610	215.100000
818.522766	205.800000
818.557922	215.700000
818.593018	210.900000
818.628113	208.300000
818.663269	203.700000
818.698364	207.100000
818.733521	204.900000
818.768677	209.000000
818.803711	200.000000
818.838867	203.100000
818.874023	205.600000
818.909058	202.800000
818.944214	200.700000
818.979370	208.000000
819.014404	205.600000
819.049561	201.700000
819.084595	208.900000
819.119751	197.300000
819.154846	207.300000
819.189941	202.600000
819.225037	198.300000
819.260193	193.300000
819.295227	197.000000
819.330322	191.700000
819.365479	193.800000
819.400513	225.400000
819.435608	192.000000
819.470764	190.100000
819.505798	193.200000
819.540894	195.300000
819.575989	194.900000
819.611084	204.200000
819.646179	204.400000
819.681213	199.500000
819.716309	197.000000
819.751404	195.900000
819.786438	202.300000
819.821533	193.200000
819.856628	199.000000
819.891663	202.500000
819.926758	209.200000
819.961853	203.300000
819.996887	195.200000
820.031982	200.700000
820.067017	195.900000
820.102112	224.600000
820.137207	196.300000
820.172302	211.900000
820.207275	194.400000
820.242371	193.400000
820.277405	193.500000
820.312500	197.700000
820.347534	199.100000
820.382568	201.700000
820.417664	193.800000
820.452759	196.700000
820.487732	193.000000
820.522827	194.400000
820.557861	190.900000
820.592896	195.100000
820.627930	195.100000
820.662964	194.000000
820.698059	196.900000
820.733093	195.000000
820.768127	196.700000
820.803162	195.600000
820.838196	192.900000
820.873230	198.200000
820.908264	196.800000
820.943298	193.200000
820.978333	200.600000
821.013367	196.400000
821.048401	199.300000
821.083435	202.200000
821.118469	187.700000
821.153503	200.700000
821.188477	195.900000
821.223511	188.600000
821.258484	195.400000
821.293579	197.200000
821.328613	188.100000
821.363647	193.400000
821.398621	186.500000
821.433655	191.900000
821.468628	206.200000
821.503662	194.300000
821.538696	196.600000
821.573669	188.700000
821.608704	197.800000
821.643677	190.900000
821.678650	198.000000
821.713684	203.100000
821.748718	192.400000
821.783691	193.300000
821.818726	194.400000
821.853638	195.900000
821.888672	193.600000
821.923706	193.100000
821.958618	190.100000
821.993652	191.800000
822.028687	200.300000
822.063599	200.800000
822.098633	196.200000
822.133667	190.300000
822.168579	193.400000
822.203613	195.800000
822.238586	191.100000
822.273560	196.800000
822.308533	191.200000
822.343567	190.600000
822.378479	192.600000
822.413452	190.900000
822.448425	188.400000
822.483398	198.700000
822.518372	199.100000
822.553345	190.200000
822.588318	202.500000
822.623291	191.100000
822.658203	191.900000
822.693237	192.900000
822.728210	188.800000
822.763123	192.700000
822.798096	189.900000
822.833069	193.500000
822.867981	193.400000
822.902954	194.800000
822.937927	197.700000
822.972900	204.200000
823.007874	185.300000
823.042725	196.500000
823.077698	205.700000
823.112671	189.000000
823.147583	192.700000
823.182556	194.200000
823.217529	197.700000
823.252441	190.400000
823.287415	209.300000
823.322388	195.300000
823.357239	192.200000
823.392212	202.500000
823.427185	197.100000
823.462097	189.500000
823.497009	196.500000
823.531982	190.600000
823.566895	194.100000
823.601807	189.000000
823.636719	191.400000
823.671631	198.300000
823.706604	191.700000
823.741455	196.000000
823.776428	187.000000
823.811340	198.300000
823.846252	200.000000
823.881165	202.100000
823.916138	195.000000
823.950989	202.400000
823.985901	190.800000
824.020813	195.200000
824.055725	190.900000
824.090637	190.400000
824.125610	194.900000
824.160461	194.400000
824.195374	194.300000
824.230225	200.800000
824.265198	185.400000
824.300110	190.800000
824.334961	204.400000
824.369873	184.400000
824.404785	194.900000
824.439636	201.400000
824.474548	184.600000
824.509460	183.600000
824.544312	198.100000
824.579224	196.800000
824.614075	196.100000
824.648987	192.500000
824.683899	191.700000
824.718811	191.700000
824.753662	199.300000
824.788574	198.800000
824.823364	195.000000
824.858276	189.500000
824.893188	198.800000
824.928040	199.400000
824.962952	197.000000
824.997803	198.500000
825.032654	194.000000
825.067566	196.500000
825.102417	190.100000
825.137268	193.500000
825.172119	194.900000
825.206970	191.100000
825.241882	191.800000
825.276733	190.000000
825.311646	192.200000
825.346436	188.100000
825.381348	189.100000
825.416138	193.400000
825.450989	189.900000
825.485901	185.800000
825.520691	186.800000
825.555542	187.600000
825.590454	194.200000
825.625244	185.300000
825.660095	201.400000
825.695007	197.300000
825.729797	191.600000
825.764648	189.900000
825.799438	193.400000
825.834290	193.500000
825.869202	187.300000
825.903992	194.100000
825.938843	189.300000
825.973694	187.900000
826.008484	206.800000
826.043335	187.800000
826.078186	184.500000
826.112976	198.500000
826.147827	199.600000
826.182678	202.400000
826.217468	184.600000
826.252319	197.200000
826.287109	188.500000
826.321899	199.100000
826.356750	191.700000
826.391541	186.800000
826.426392	198.000000
826.461182	192.400000
826.495972	187.200000
826.530823	184.100000
826.565613	192.900000
826.600403	187.100000
826.635254	194.600000
826.670044	184.100000
826.704834	184.500000
826.739685	188.300000
826.774475	193.600000
826.809265	192.100000
826.844055	190.600000
826.878906	197.700000
826.913635	194.700000
826.948425	196.300000
826.983215	194.600000
827.018005	197.600000
827.052856	190.800000
827.087585	195.500000
827.122375	184.800000
827.157227	194.100000
827.191956	202.900000
827.226746	190.000000
827.261536	197.300000
827.296265	185.000000
827.331116	190.000000
827.365906	197.000000
827.400635	189.000000
827.435425	184.500000
827.470215	199.500000
827.504944	191.000000
827.539734	197.800000
827.574463	193.200000
827.609253	199.700000
827.644043	192.900000
827.678772	197.600000
827.713562	191.100000
827.748352	189.600000
827.783081	189.300000
827.817871	193.300000
827.852600	187.800000
827.887329	191.800000
827.922119	182.700000
827.956848	194.300000
827.991638	206.500000
828.026367	193.800000
828.061157	194.800000
828.095886	191.500000
828.130615	206.500000
828.165344	182.200000
828.200073	193.000000
828.234863	190.200000
828.269592	192.400000
828.304321	198.200000
828.339111	192.800000
828.373779	190.300000
828.408569	197.600000
828.443298	196.400000
828.477966	190.300000
828.512756	193.700000
828.547424	186.000000
828.582214	190.300000
828.616943	191.200000
828.651672	191.300000
828.686340	196.500000
828.721130	189.700000
828.755798	189.100000
828.790527	194.100000
828.825256	193.900000
828.859924	193.800000
828.894714	199.300000
828.929443	200.900000
828.964111	189.100000
828.998840	195.900000
829.033569	189.400000
829.068237	190.700000
829.102966	189.300000
829.137634	195.500000
829.172363	192.500000
829.207092	193.500000
829.241821	187.700000
829.276489	185.100000
829.311157	192.000000
829.345825	190.200000
829.380554	196.700000
829.415283	188.300000
829.449951	185.000000
829.484619	199.700000
829.519348	198.500000
829.554016	192.600000
829.588745	192.300000
829.623413	186.100000
829.658081	203.100000
829.692749	186.400000
829.727417	197.300000
829.762146	193.900000
829.796814	187.700000
829.831482	190.000000
829.866150	192.200000
829.900879	189.500000
829.935486	194.000000
829.970154	191.000000
830.004883	203.500000
830.039490	194.500000
830.074219	189.400000
830.108887	193.100000
830.143494	192.200000
830.178223	185.700000
830.212891	190.000000
830.247498	191.800000
830.282166	201.000000
830.316772	196.900000
830.351501	189.100000
830.386169	191.000000
830.420776	190.000000
830.455444	191.200000
830.490112	189.700000
830.524719	182.500000
830.559387	195.800000
830.594055	194.800000
830.628662	191.900000
830.663330	191.300000
830.697998	201.800000
830.732605	191.100000
830.767273	194.600000
830.801941	191.200000
830.836487	202.000000
830.871155	194.000000
830.905762	195.300000
830.940430	183.900000
830.975098	188.700000
831.009644	192.000000
831.044312	201.100000
831.078979	194.200000
831.113525	184.600000
831.148193	191.600000
831.182861	190.700000
831.217407	194.700000
831.252075	209.700000
831.286621	189.100000
831.321289	187.800000
831.355896	190.200000
831.390564	199.300000
831.425110	192.400000
831.459778	196.900000
831.494324	204.600000
831.528931	195.900000
831.563599	194.700000
831.598145	185.900000
831.632751	192.200000
831.667419	189.900000
831.701965	193.800000
831.736572	194.600000
831.771179	184.800000
831.805786	189.200000
831.840393	198.900000
831.874939	184.600000
831.909546	197.900000
831.944153	184.000000
831.978760	190.500000
832.013306	186.700000
832.047913	199.100000
832.082458	200.200000
832.117065	189.600000
832.151672	201.300000
832.186218	193.400000
832.220825	194.500000
832.255432	185.000000
832.289978	188.000000
832.324585	196.000000
832.359192	194.500000
832.393677	191.400000
832.428284	192.400000
832.462830	190.400000
832.497437	191.400000
832.531982	196.100000
832.566589	189.800000
832.601135	193.900000
832.635681	183.800000
832.670227	192.200000
832.704773	199.100000
832.739380	194.200000
832.773926	191.700000
832.808472	189.200000
832.843079	191.500000
832.877563	194.900000
832.912170	190.000000
832.946716	184.300000
832.981201	197.800000
833.015808	195.500000
833.050293	190.900000
833.084839	187.700000
833.119446	189.400000
833.153992	195.300000
833.188477	192.200000
833.223022	188.500000
833.257568	193.300000
833.292114	198.700000
833.326660	203.400000
833.361145	188.300000
833.395691	184.500000
833.430237	192.300000
833.464783	195.700000
833.499329	188.200000
833.533875	186.300000
833.568359	194.900000
833.602905	200.000000
833.637390	197.000000
833.671875	190.500000
833.706421	191.000000
833.740906	188.900000
833.775452	181.100000
833.809998	190.000000
833.844482	200.300000
833.879028	192.500000
833.913513	188.400000
833.947998	194.000000
833.982544	188.000000
834.017090	188.900000
834.051514	180.200000
834.086060	195.700000
834.120544	190.600000
834.155029	196.000000
834.189575	189.400000
834.223999	194.700000
834.258545	191.200000
834.293030	193.400000
834.327515	191.200000
834.362000	189.800000
834.396545	196.100000
834.430969	190.500000
834.465454	196.700000
834.500000	184.400000
834.534424	194.500000
834.568970	182.600000
834.603455	183.500000
834.637878	187.600000
834.672363	192.500000
834.706909	192.300000
834.741333	192.200000
834.775818	184.500000
834.810242	186.800000
834.844727	193.000000
834.879211	189.500000
834.913635	194.300000
834.948181	194.700000
834.982666	192.100000
835.017090	190.700000
835.051575	194.700000
835.086060	188.800000
835.120483	196.300000
835.154907	196.200000
835.189331	191.300000
835.223816	195.200000
835.258301	185.900000
835.292786	187.500000
835.327209	197.700000
835.361694	189.700000
835.396057	189.000000
835.430542	195.100000
835.465027	191.600000
835.499390	188.000000
835.533875	211.500000
835.568359	190.500000
835.602722	184.200000
835.637207	195.300000
835.671692	185.400000
835.706055	209.700000
835.740540	194.200000
835.774902	197.000000
835.809387	192.100000
835.843811	185.600000
835.878235	199.100000
835.912659	186.700000
835.947083	187.900000
835.981506	192.300000
836.015930	183.800000
836.050354	196.800000
836.084778	200.100000
836.119202	198.600000
836.153625	203.900000
836.187988	189.100000
836.222473	186.800000
836.256897	193.400000
836.291260	191.200000
836.325684	193.800000
836.360046	188.500000
836.394470	191.000000
836.428894	199.400000
836.463318	190.200000
836.497681	195.800000
836.532104	198.400000
836.566467	193.000000
836.600891	190.900000
836.635315	196.600000
836.669678	194.400000
836.704102	196.800000
836.738525	192.400000
836.772888	184.000000
836.807251	189.600000
836.841675	194.600000
836.876038	186.400000
836.910461	190.300000
836.944763	195.600000
836.979187	188.900000
837.013611	197.800000
837.047974	186.400000
837.082336	203.200000
837.116699	195.700000
837.151062	191.000000
837.185486	187.100000
837.219849	190.800000
837.254211	197.900000
837.288574	192.000000
837.322937	187.500000
837.357300	179.300000
837.391663	205.000000
837.426086	196.900000
837.460388	195.100000
837.494751	197.200000
837.529114	191.600000
837.563477	197.000000
837.597839	193.800000
837.632141	191.800000
837.666565	189.600000
837.700928	194.000000
837.735229	196.500000
837.769592	194.600000
837.803955	196.900000
837.838257	190.900000
837.872620	188.200000
837.906982	200.600000
837.941284	192.100000
837.975647	192.600000
838.010010	199.300000
838.044312	190.100000
838.078674	189.500000
838.112976	192.400000
838.147339	196.700000
838.181702	192.100000
838.216003	202.100000
838.250366	194.100000
838.284668	195.000000
838.318970	185.300000
838.353333	193.000000
838.387634	190.600000
838.421936	192.800000
838.456299	194.000000
838.490601	199.800000
838.524902	196.700000
838.559265	197.800000
838.593567	195.900000
838.627869	186.000000
838.662170	195.900000
838.696472	185.500000
838.730774	190.300000
838.765137	195.900000
838.799377	178.500000
838.833740	192.300000
838.868042	200.600000
838.902283	183.100000
838.936646	197.800000
838.970947	194.400000
839.005188	197.700000
839.039551	185.100000
839.073792	199.100000
839.108093	190.500000
839.142395	202.300000
839.176697	184.300000
839.210937	194.400000
839.245300	203.200000
839.279541	186.200000
839.313843	190.700000
839.348145	195.900000
839.382385	197.000000
839.416687	195.600000
839.450989	194.900000
839.485229	190.200000
839.519531	186.300000
839.553833	198.200000
839.588013	192.300000
839.622314	193.900000
839.656555	196.200000
839.690857	193.500000
839.725159	184.800000
839.759460	190.600000
839.793640	190.200000
839.827942	191.900000
839.862183	188.500000
839.896423	194.400000
839.930725	202.100000
839.964966	199.400000
839.999207	199.600000
840.033508	200.100000
840.067688	190.800000
840.101990	201.500000
840.136230	192.300000
840.170471	201.300000
840.204712	189.100000
840.238953	188.500000
840.273193	194.900000
840.307434	195.500000
840.341736	189.400000
840.375916	185.800000
840.410217	190.300000
840.444397	195.600000
840.478638	196.000000
840.512878	198.000000
840.547119	194.600000
840.581360	194.600000
840.615601	203.600000
840.649780	201.400000
840.684021	194.000000
840.718262	200.600000
840.752441	198.600000
840.786682	193.700000
840.820862	194.800000
840.855103	199.800000
840.889343	193.400000
840.923584	196.800000
840.957764	196.100000
840.992004	194.700000
841.026184	207.100000
841.060425	190.400000
841.094666	190.900000
841.128845	196.000000
841.163025	193.500000
841.197266	195.400000
841.231445	193.600000
841.265686	192.700000
841.299866	188.500000
841.334045	200.400000
841.368286	192.700000
841.402405	199.900000
841.436646	197.500000
841.470825	190.100000
841.505005	192.300000
841.539185	188.500000
841.573425	190.300000
841.607544	194.600000
841.641785	193.800000
841.675964	187.800000
841.710144	194.200000
841.744324	190.900000
841.778503	192.200000
841.812683	189.200000
841.846863	202.300000
841.881042	200.900000
841.915222	191.100000
841.949402	209.000000
841.983521	184.300000
842.017700	192.000000
842.051880	193.600000
842.086060	195.900000
842.120239	192.300000
842.154419	190.900000
842.188538	193.500000
842.222717	189.600000
842.256897	201.500000
842.291016	193.200000
842.325195	195.200000
842.359375	205.500000
842.393494	199.700000
842.427673	194.100000
842.461853	194.600000
842.495911	201.500000
842.530090	194.600000
842.564209	191.500000
842.598389	194.000000
842.632568	194.700000
842.666626	196.300000
842.700806	191.200000
842.734985	190.400000
842.769043	197.800000
842.803223	191.600000
842.837402	191.200000
842.871460	190.700000
842.905640	201.200000
842.939697	190.100000
842.973877	197.200000
843.007996	198.300000
843.042175	201.600000
843.076233	190.900000
843.110413	193.700000
843.144470	205.100000
843.178589	196.500000
843.212769	189.900000
843.246826	198.600000
843.280945	192.400000
843.315125	191.100000
843.349182	188.900000
843.383301	199.500000
843.417419	206.200000
843.451538	192.800000
843.485657	191.600000
843.519714	191.600000
843.553833	196.100000
843.587952	190.300000
843.622070	189.800000
843.656128	196.200000
843.690247	192.000000
843.724304	190.500000
843.758423	195.200000
843.792542	191.500000
843.826599	194.900000
843.860718	190.000000
843.894836	186.800000
843.928894	193.500000
843.963013	195.800000
843.997070	189.200000
844.031128	187.200000
844.065247	198.400000
844.099304	199.100000
844.133362	192.900000
844.167480	196.200000
844.201599	201.300000
844.235596	195.600000
844.269714	194.400000
844.303711	195.700000
844.337830	186.000000
844.371948	196.500000
844.405945	191.100000
844.440063	189.100000
844.474121	208.200000
844.508118	192.000000
844.542236	192.400000
844.576294	192.400000
844.610352	188.700000
844.644409	193.400000
844.678406	184.700000
844.712524	198.300000
844.746582	199.800000
844.780640	192.800000
844.814636	194.000000
844.848755	204.100000
844.882751	192.900000
844.916809	199.600000
844.950867	195.500000
844.984863	203.100000
845.018921	193.100000
845.052979	191.000000
845.086975	195.900000
845.121033	186.600000
845.155090	190.600000
845.189087	200.800000
845.223145	192.100000
845.257141	193.200000
845.291199	196.200000
845.325256	200.500000
845.359253	195.500000
845.393250	203.200000
845.427307	193.200000
845.461304	194.700000
845.495361	193.900000
845.529358	204.300000
845.563354	191.600000
845.597412	188.700000
845.631409	201.500000
845.665405	199.800000
845.699463	199.800000
845.733459	192.700000
845.767456	201.500000
845.801453	192.800000
845.835449	198.600000
845.869446	198.100000
845.903503	198.000000
845.937439	189.900000
845.971497	201.400000
846.005493	186.800000
846.039429	198.800000
846.073486	202.200000
846.107483	193.500000
846.141418	194.700000
846.175476	193.200000
846.209473	201.400000
846.243408	190.300000
846.277405	195.800000
846.311401	189.400000
846.345337	195.500000
846.379395	200.300000
846.413330	192.200000
846.447327	201.300000
846.481323	189.000000
846.515259	190.100000
846.549255	193.500000
846.583252	195.500000
846.617187	189.500000
846.651184	195.100000
846.685120	193.100000
846.719055	202.300000
846.753052	200.200000
846.786987	198.900000
846.820984	188.200000
846.854980	200.600000
846.888916	190.900000
846.922852	195.200000
846.956848	201.800000
846.990723	189.200000
847.024719	196.100000
847.058716	192.300000
847.092590	202.400000
847.126587	195.800000
847.160522	192.100000
847.194458	197.600000
847.228455	190.100000
847.262390	187.500000
847.296265	192.700000
847.330261	199.700000
847.364136	193.100000
847.398132	189.900000
847.432068	193.700000
847.466003	192.600000
847.499939	193.200000
847.533875	197.100000
847.567749	193.000000
847.601746	191.900000
847.635681	198.000000
847.669556	185.600000
847.703491	199.300000
847.737427	209.900000
847.771301	189.200000
847.805237	194.900000
847.839233	194.900000
847.873108	194.800000
847.907043	193.300000
847.940918	200.300000
847.974854	195.300000
848.008789	198.800000
848.042664	193.600000
848.076538	197.900000
848.110474	194.800000
848.144348	196.500000
848.178284	188.300000
848.212219	195.700000
848.246094	193.400000
848.279968	195.900000
848.313904	197.200000
848.347778	195.300000
848.381653	192.900000
848.415588	191.200000
848.449463	191.700000
848.483337	197.800000
848.517212	198.100000
848.551086	195.400000
848.585022	189.200000
848.618835	202.300000
848.652771	190.200000
848.686646	187.900000
848.720520	201.900000
848.754395	193.300000
848.788330	198.000000
848.822144	199.000000
848.856018	191.900000
848.889954	203.600000
848.923767	188.300000
848.957642	191.100000
848.991577	199.700000
849.025391	191.800000
849.059265	192.600000
849.093079	190.100000
849.126953	187.200000
849.160828	199.100000
849.194641	195.700000
849.228577	191.500000
849.262451	192.400000
849.296265	192.500000
849.330139	188.100000
849.364014	195.100000
849.397827	197.900000
849.431702	193.400000
849.465515	198.300000
849.499329	185.000000
849.533203	188.900000
849.567078	183.700000
849.600891	197.700000
849.634766	194.000000
849.668518	199.800000
849.702393	194.100000
849.736267	189.200000
849.770020	205.900000
849.803894	199.600000
849.837769	195.200000
849.871521	195.900000
849.905396	198.800000
849.939270	191.000000
849.973022	191.600000
850.006897	198.900000
850.040710	196.700000
850.074524	199.200000
850.108337	192.700000
850.142151	199.400000
850.175964	200.400000
850.209778	194.200000
850.243530	181.100000
850.277405	199.000000
850.311218	193.100000
850.344971	191.000000
850.378845	202.300000
850.412659	191.500000
850.446411	195.800000
850.480225	194.900000
850.514038	200.300000
850.547791	195.700000
850.581665	193.600000
850.615417	191.700000
850.649231	195.600000
850.683044	193.500000
850.716858	192.600000
850.750610	195.000000
850.784424	198.300000
850.818176	191.400000
850.851929	192.600000
850.885742	191.100000
850.919495	193.600000
850.953308	199.900000
850.987122	201.200000
851.020874	188.300000
851.054626	185.800000
851.088440	198.100000
851.122192	200.500000
851.156006	194.500000
851.189697	194.700000
851.223511	187.400000
851.257263	198.700000
851.291077	197.400000
851.324829	194.000000
851.358582	191.300000
851.392334	193.600000
851.426086	192.900000
851.459900	203.000000
851.493591	194.300000
851.527344	196.100000
851.561157	193.500000
851.594849	197.600000
851.628662	195.200000
851.662415	202.300000
851.696106	197.800000
851.729858	199.300000
851.763611	187.600000
851.797363	195.900000
851.831116	188.600000
851.864868	198.700000
851.898560	198.400000
851.932312	191.900000
851.966064	196.000000
851.999817	194.700000
852.033569	192.800000
852.067261	198.300000
852.101013	190.700000
852.134766	193.500000
852.168457	182.700000
852.202209	197.900000
852.235901	189.900000
852.269592	197.800000
852.303345	204.000000
852.337036	198.000000
852.370789	194.400000
852.404541	197.300000
852.438171	189.400000
852.471924	193.600000
852.505676	188.000000
852.539307	197.600000
852.573059	190.000000
852.606812	192.500000
852.640442	192.700000
852.674194	199.800000
852.707886	205.400000
852.741577	202.100000
852.775269	189.300000
852.809021	195.900000
852.842651	198.300000
852.876404	198.700000
852.910034	197.400000
852.943787	200.200000
852.977478	198.300000
853.011108	189.100000
853.044861	192.300000
853.078552	199.500000
853.112183	196.500000
853.145874	195.200000
853.179626	184.600000
853.213257	196.000000
853.246948	190.800000
853.280640	202.100000
853.314270	194.200000
853.347961	201.100000
853.381653	196.700000
853.415283	198.000000
853.448975	190.400000
853.482605	194.900000
853.516296	193.900000
853.549988	188.600000
853.583618	195.800000
853.617310	195.400000
853.651001	195.500000
853.684631	189.200000
853.718323	191.300000
853.751953	202.100000
853.785583	185.200000
853.819275	198.500000
853.852966	196.700000
853.886536	185.000000
853.920227	188.300000
853.953918	198.500000
853.987488	192.900000
854.021179	198.600000
854.054749	203.500000
854.088440	196.400000
854.122131	189.300000
854.155701	198.700000
854.189331	190.700000
854.223022	198.500000
854.256592	197.200000
854.290283	190.700000
854.323914	198.200000
854.357483	196.300000
854.391174	196.200000
854.424744	203.900000
854.458374	195.800000
854.492065	204.500000
854.525696	192.400000
854.559265	201.300000
854.592896	204.300000
854.626465	196.300000
854.660095	196.400000
854.693787	196.800000
854.727356	193.300000
854.760986	198.800000
854.794617	195.700000
854.828186	193.100000
854.861816	198.000000
854.895447	196.300000
854.929016	194.400000
854.962585	197.500000
854.996155	202.000000
855.029785	197.800000
855.063416	195.700000
855.097046	199.200000
855.130615	188.700000
855.164185	200.300000
855.197754	194.000000
855.231384	197.700000
855.264954	192.600000
855.298523	198.600000
855.332153	194.800000
855.365723	203.300000
855.399292	190.000000
855.432922	192.800000
855.466492	195.800000
855.500061	189.500000
855.533630	189.500000
855.567200	198.000000
855.600769	199.600000
855.634338	198.500000
855.667969	196.900000
855.701477	191.600000
855.735046	191.300000
855.768616	186.900000
855.802185	196.200000
855.835754	209.700000
855.869324	187.000000
855.902893	193.200000
855.936401	201.400000
855.969971	195.900000
856.003540	188.700000
856.037109	198.300000
856.070618	195.200000
856.104187	188.100000
856.137695	192.900000
856.171265	185.100000
856.204834	195.800000
856.238403	199.700000
856.271912	192.900000
856.305481	194.600000
856.338989	188.500000
856.372559	197.400000
856.406128	195.800000
856.439636	199.600000
856.473145	193.500000
856.506653	201.000000
856.540222	194.200000
856.573792	201.200000
856.607300	198.900000
856.640808	188.100000
856.674377	195.200000
856.707825	222.000000
856.741394	199.400000
856.774902	190.700000
856.808472	186.200000
856.841980	197.400000
856.875488	201.800000
856.908936	185.300000
856.942505	193.100000
856.976013	193.600000
857.009521	189.000000
857.043030	194.600000
857.076477	194.100000
857.110046	199.800000
857.143555	195.400000
857.177063	200.500000
857.210571	191.800000
857.244080	186.900000
857.277527	198.200000
857.311035	192.500000
857.344543	199.200000
857.378052	194.200000
857.411499	199.700000
857.445068	205.500000
857.478516	194.100000
857.512024	190.200000
857.545532	192.600000
857.578979	196.600000
857.612427	193.800000
857.645874	193.400000
857.679382	194.600000
857.712891	199.300000
857.746399	193.900000
857.779846	200.100000
857.813354	201.500000
857.846741	194.800000
857.880249	190.000000
857.913757	196.100000
857.947266	195.700000
857.980652	197.200000
858.014160	191.400000
858.047546	193.700000
858.081055	193.200000
858.114563	203.400000
858.147949	189.400000
858.181458	197.800000
858.214844	193.400000
858.248352	187.000000
858.281799	198.800000
858.315308	208.800000
858.348694	198.000000
858.382141	203.600000
858.415588	197.600000
858.449036	200.000000
858.482483	195.900000
858.515930	190.300000
858.549377	194.900000
858.582825	202.200000
858.616211	197.500000
858.649658	195.900000
858.683105	190.100000
858.716553	191.900000
858.750000	189.300000
858.783386	191.700000
858.816833	186.600000
858.850281	194.500000
858.883728	198.300000
858.917114	193.500000
858.950562	203.900000
858.983948	204.000000
859.017395	198.500000
859.050781	193.900000
859.084167	190.300000
859.117615	187.800000
859.151062	198.100000
859.184448	189.000000
859.217834	193.000000
859.251282	192.000000
859.284668	191.200000
859.318054	185.000000
859.351440	192.600000
859.384888	201.300000
859.418274	187.800000
859.451721	186.700000
859.485046	198.100000
859.518494	195.500000
859.551819	191.900000
859.585266	196.100000
859.618652	197.100000
859.652039	186.900000
859.685425	189.700000
859.718811	187.600000
859.752197	183.500000
859.785583	202.100000
859.819031	202.100000
859.852356	197.200000
859.885742	190.900000
859.919067	194.400000
859.952454	192.000000
859.985901	198.700000
860.019287	192.200000
860.052612	0.000000
860.085999	0.000000
860.119324	0.000000
860.152710	0.000000
860.186096	0.000000
860.219421	0.000000
860.252808	0.000000
860.286133	0.000000
860.319519	0.000000
860.352905	0.000000
860.386292	0.000000
860.419617	0.000000
860.452942	0.000000
860.486267	0.000000
860.519653	0.000000
860.553040	0.000000
860.586365	0.000000
860.619690	0.000000
860.653076	0.000000
860.686340	0.000000
860.719727	0.000000
860.753113	0.000000
860.786377	0.000000
860.819763	0.000000
860.853027	0.000000
860.886414	0.000000
860.919739	0.000000
860.953125	0.000000
860.986389	0.000000
861.019714	0.000000
861.053040	0.000000
861.086365	0.000000
861.119690	0.000000
861.153076	0.000000
861.186340	0.000000
861.219666	0.000000
861.252930	0.000000
861.286316	0.000000
861.319641	0.000000
861.352905	0.000000
861.386230	0.000000
861.419495	0.000000
861.452820	0.000000
861.486145	0.000000
861.519470	0.000000
861.552734	0.000000
861.586060	0.000000
861.619324	0.000000
861.652649	0.000000
861.685974	0.000000
861.719238	0.000000
861.752563	0.000000
861.785828	0.000000
861.819092	0.000000
861.852417	0.000000
861.885742	0.000000
861.918945	0.000000
861.952271	0.000000
861.985535	0.000000
862.018799	0.000000
862.052124	0.000000
862.085449	0.000000
862.118652	0.000000
862.151978	0.000000
862.185181	0.000000
862.218506	0.000000
862.251770	0.000000
862.285034	0.000000
862.318298	0.000000
862.351562	0.000000
862.384827	0.000000
862.418091	0.000000
862.451355	0.000000
862.484619	0.000000
862.517883	0.000000
862.551086	0.000000
862.584351	0.000000
862.617676	0.000000
862.650940	0.000000
862.684143	0.000000
862.717407	0.000000
862.750610	0.000000
862.783875	0.000000
862.817139	0.000000
862.850342	0.000000
862.883606	0.000000
862.916870	0.000000
862.950073	0.000000
862.983337	0.000000
863.016602	0.000000
863.049805	0.000000
863.083069	0.000000
863.116211	0.000000
863.149475	0.000000
863.182739	0.000000
863.216003	0.000000
863.249146	0.000000
863.282410	0.000000
863.315613	0.000000
863.348816	0.000000
863.382080	0.000000
863.415222	0.000000
863.448486	0.000000
863.481689	0.000000
863.514893	0.000000
863.548157	0.000000
863.581360	0.000000
863.614502	0.000000
863.647766	0.000000
863.680908	0.000000
863.714172	0.000000
863.747375	0.000000
863.780579	0.000000
863.813721	0.000000
863.846985	0.000000
863.880127	0.000000
863.913330	0.000000
863.946533	0.000000
863.979675	0.000000
864.012939	0.000000
