Model Number: SPM-001-M   
Serial Number: 10090201
Firmware Version: 004.17.6
Exposure Time: 500000.000000us
Data Taken on: 10-03-2021 11:04:28.486
Wavelength	Amplitude
733.770752	0.000000
733.808716	0.000000
733.846619	0.000000
733.884583	0.000000
733.922546	0.000000
733.960449	0.000000
733.998413	0.000000
734.036377	0.000000
734.074219	0.000000
734.112183	0.000000
734.150085	0.000000
734.188049	0.000000
734.226013	0.000000
734.263916	0.000000
734.301819	0.000000
734.339783	0.000000
734.377686	0.000000
734.415588	0.000000
734.453552	0.000000
734.491455	0.000000
734.529419	0.000000
734.567322	0.000000
734.605225	0.000000
734.643127	0.000000
734.681091	0.000000
734.718994	0.000000
734.756897	0.000000
734.794800	0.000000
734.832703	0.000000
734.870667	0.000000
734.908508	0.000000
734.946472	0.000000
734.984375	0.000000
735.022278	0.000000
735.060181	0.000000
735.098083	0.000000
735.135986	0.000000
735.173889	0.000000
735.211792	0.000000
735.249695	0.000000
735.287598	0.000000
735.325439	0.000000
735.363403	0.000000
735.401306	0.000000
735.439148	0.000000
735.477051	0.000000
735.515015	0.000000
735.552856	0.000000
735.590759	0.000000
735.628662	0.000000
735.666504	0.000000
735.704407	0.000000
735.742310	0.000000
735.780212	0.000000
735.818115	0.000000
735.856018	0.000000
735.893860	0.000000
735.931763	0.000000
735.969604	0.000000
736.007507	0.000000
736.045410	0.000000
736.083252	0.000000
736.121094	0.000000
736.158997	0.000000
736.196838	0.000000
736.234741	0.000000
736.272644	0.000000
736.310486	0.000000
736.348389	0.000000
736.386230	0.000000
736.424072	0.000000
736.461975	0.000000
736.499878	0.000000
736.537720	0.000000
736.575562	0.000000
736.613403	0.000000
736.651306	0.000000
736.689148	0.000000
736.726990	0.000000
736.764893	0.000000
736.802734	0.000000
736.840576	0.000000
736.878418	0.000000
736.916321	0.000000
736.954102	0.000000
736.992004	0.000000
737.029846	0.000000
737.067688	0.000000
737.105530	0.000000
737.143372	0.000000
737.181213	0.000000
737.219116	0.000000
737.256897	0.000000
737.294739	0.000000
737.332642	0.000000
737.370422	0.000000
737.408325	0.000000
737.446167	0.000000
737.483948	0.000000
737.521790	0.000000
737.559692	0.000000
737.597473	0.000000
737.635315	0.000000
737.673157	0.000000
737.710999	0.000000
737.748840	0.000000
737.786621	0.000000
737.824463	0.000000
737.862305	0.000000
737.900085	0.000000
737.937927	0.000000
737.975769	0.000000
738.013550	0.000000
738.051392	0.000000
738.089233	0.000000
738.127014	0.000000
738.164856	0.000000
738.202698	0.000000
738.240479	0.000000
738.278320	0.000000
738.316162	0.000000
738.353943	0.000000
738.391785	0.000000
738.429565	0.000000
738.467407	0.000000
738.505188	0.000000
738.542969	0.000000
738.580811	0.000000
738.618652	0.000000
738.656372	0.000000
738.694214	0.000000
738.732056	0.000000
738.769836	0.000000
738.807617	0.000000
738.845459	0.000000
738.883240	0.000000
738.921021	0.000000
738.958862	0.000000
738.996582	0.000000
739.034424	0.000000
739.072205	0.000000
739.109985	0.000000
739.147827	0.000000
739.185547	0.000000
739.223389	0.000000
739.261169	0.000000
739.298889	0.000000
739.336731	0.000000
739.374512	0.000000
739.412292	0.000000
739.450073	0.000000
739.487854	0.000000
739.525635	0.000000
739.563416	0.000000
739.601135	0.000000
739.638977	0.000000
739.676758	0.000000
739.714478	0.000000
739.752258	0.000000
739.790100	0.000000
739.827820	0.000000
739.865601	0.000000
739.903381	0.000000
739.941101	0.000000
739.978882	196.300000
740.016724	191.900000
740.054443	198.800000
740.092224	189.600000
740.130005	189.100000
740.167725	190.200000
740.205505	189.100000
740.243225	197.700000
740.281006	195.800000
740.318787	185.900000
740.356506	199.000000
740.394287	196.600000
740.432068	190.100000
740.469727	186.700000
740.507507	197.500000
740.545288	192.100000
740.583008	195.300000
740.620789	193.200000
740.658569	184.400000
740.696228	193.700000
740.734009	199.900000
740.771790	181.000000
740.809509	197.700000
740.847229	188.400000
740.884949	191.000000
740.922729	186.100000
740.960449	190.400000
740.998169	186.100000
741.035950	188.800000
741.073669	194.500000
741.111389	194.200000
741.149170	203.300000
741.186890	201.100000
741.224609	196.000000
741.262329	194.600000
741.300110	203.300000
741.337769	186.700000
741.375549	186.500000
741.413208	194.600000
741.450989	188.600000
741.488708	189.800000
741.526367	189.800000
741.564148	196.500000
741.601868	197.100000
741.639526	192.500000
741.677307	194.700000
741.715027	194.600000
741.752686	188.900000
741.790466	201.300000
741.828186	196.500000
741.865845	187.800000
741.903564	183.400000
741.941345	192.700000
741.979004	188.900000
742.016724	196.100000
742.054382	193.600000
742.092102	199.400000
742.129822	185.900000
742.167480	190.100000
742.205200	192.300000
742.242920	194.700000
742.280640	198.200000
742.318359	189.300000
742.356079	191.100000
742.393738	196.100000
742.431396	193.600000
742.469116	196.700000
742.506775	183.900000
742.544495	196.000000
742.582214	197.400000
742.619873	192.800000
742.657593	201.100000
742.695251	197.600000
742.732971	192.500000
742.770630	195.200000
742.808289	193.300000
742.846008	191.900000
742.883728	195.700000
742.921326	192.500000
742.959045	190.300000
742.996765	193.500000
743.034424	192.800000
743.072083	190.700000
743.109802	192.300000
743.147400	187.000000
743.185120	194.000000
743.222839	191.300000
743.260437	198.300000
743.298157	195.600000
743.335754	184.800000
743.373474	191.200000
743.411133	185.200000
743.448792	194.300000
743.486450	192.500000
743.524170	184.600000
743.561768	194.600000
743.599487	200.700000
743.637146	203.200000
743.674744	192.300000
743.712463	190.400000
743.750122	193.700000
743.787720	195.100000
743.825439	190.000000
743.863037	190.600000
743.900696	193.600000
743.938416	216.300000
743.976013	191.000000
744.013672	202.200000
744.051331	199.700000
744.088928	203.200000
744.126587	200.500000
744.164307	194.500000
744.201904	190.800000
744.239563	196.400000
744.277222	196.500000
744.314819	193.200000
744.352478	201.200000
744.390137	195.900000
744.427734	195.700000
744.465393	190.900000
744.502991	189.500000
744.540649	196.100000
744.578308	194.300000
744.615906	189.100000
744.653564	181.900000
744.691223	197.200000
744.728821	185.200000
744.766418	193.100000
744.804077	195.700000
744.841675	189.700000
744.879333	186.400000
744.916992	191.600000
744.954529	190.700000
744.992187	199.200000
745.029785	191.300000
745.067444	188.600000
745.105042	194.100000
745.142639	195.500000
745.180298	201.900000
745.217896	190.400000
745.255493	192.000000
745.293152	197.800000
745.330750	197.400000
745.368347	201.700000
745.405945	195.400000
745.443604	193.100000
745.481140	196.400000
745.518799	192.000000
745.556396	197.200000
745.593994	198.900000
745.631592	193.100000
745.669189	188.800000
745.706787	195.000000
745.744385	189.500000
745.781982	195.800000
745.819580	191.200000
745.857178	192.800000
745.894775	193.800000
745.932373	194.500000
745.969971	195.100000
746.007568	183.900000
746.045166	203.700000
746.082764	197.900000
746.120300	197.700000
746.157898	196.400000
746.195557	194.000000
746.233093	188.000000
746.270691	198.500000
746.308228	194.500000
746.345825	198.600000
746.383423	197.700000
746.420959	188.400000
746.458557	190.400000
746.496155	191.200000
746.533691	192.000000
746.571289	188.800000
746.608887	193.300000
746.646423	193.800000
746.684021	193.700000
746.721619	189.800000
746.759155	194.000000
746.796753	186.400000
746.834351	187.000000
746.871826	189.500000
746.909424	200.800000
746.946960	194.800000
746.984558	192.400000
747.022156	191.300000
747.059631	200.900000
747.097229	194.300000
747.134827	191.900000
747.172363	200.800000
747.209900	194.800000
747.247498	189.400000
747.285034	202.000000
747.322571	200.000000
747.360168	191.800000
747.397644	186.500000
747.435242	196.900000
747.472778	201.600000
747.510315	191.700000
747.547913	190.500000
747.585388	200.900000
747.622925	192.400000
747.660522	185.100000
747.697998	190.500000
747.735596	193.400000
747.773132	190.300000
747.810669	195.100000
747.848206	197.200000
747.885742	188.200000
747.923279	186.900000
747.960815	195.900000
747.998352	193.500000
748.035889	198.400000
748.073425	198.500000
748.110901	191.400000
748.148437	188.500000
748.185974	194.000000
748.223511	204.000000
748.261047	195.500000
748.298584	194.900000
748.336060	193.900000
748.373596	196.300000
748.411133	212.200000
748.448608	190.400000
748.486145	197.000000
748.523682	202.500000
748.561218	199.100000
748.598755	193.900000
748.636292	196.700000
748.673706	191.600000
748.711243	199.000000
748.748718	197.200000
748.786255	193.200000
748.823792	193.800000
748.861267	188.800000
748.898804	194.600000
748.936340	196.500000
748.973816	192.300000
749.011292	198.600000
749.048828	195.500000
749.086304	198.100000
749.123840	206.900000
749.161316	189.100000
749.198792	205.100000
749.236328	199.700000
749.273743	194.400000
749.311279	192.000000
749.348816	196.600000
749.386230	193.300000
749.423767	182.100000
749.461304	195.200000
749.498718	195.000000
749.536255	202.400000
749.573730	207.200000
749.611206	198.800000
749.648682	193.800000
749.686218	192.900000
749.723633	197.400000
749.761169	191.700000
749.798645	190.800000
749.836060	192.300000
749.873596	190.200000
749.911011	193.700000
749.948547	200.800000
749.986023	194.200000
750.023437	192.900000
750.060913	187.000000
750.098450	187.200000
750.135864	192.600000
750.173340	194.500000
750.210815	198.800000
750.248291	188.200000
750.285767	192.900000
750.323242	200.700000
750.360657	194.700000
750.398132	189.000000
750.435608	197.500000
750.473022	189.000000
750.510498	188.200000
750.547974	189.300000
750.585449	191.000000
750.622925	182.200000
750.660339	203.000000
750.697815	192.800000
750.735291	194.000000
750.772644	194.300000
750.810120	195.200000
750.847595	196.900000
750.885010	188.200000
750.922485	201.000000
750.959961	193.700000
750.997375	201.200000
751.034851	197.700000
751.072266	198.100000
751.109680	187.900000
751.147156	198.900000
751.184570	196.500000
751.221985	194.800000
751.259460	184.900000
751.296875	194.200000
751.334290	195.100000
751.371765	199.200000
751.409180	196.700000
751.446594	200.900000
751.484070	196.200000
751.521423	195.700000
751.558899	195.000000
751.596375	200.600000
751.633728	200.000000
751.671204	208.300000
751.708618	189.200000
751.746033	195.300000
751.783447	187.000000
751.820801	189.700000
751.858276	196.000000
751.895691	194.100000
751.933105	191.900000
751.970520	189.400000
752.007935	191.100000
752.045349	198.000000
752.082764	193.400000
752.120178	192.000000
752.157532	189.800000
752.195007	192.600000
752.232422	196.400000
752.269775	199.600000
752.307190	196.700000
752.344543	189.600000
752.382019	191.200000
752.419434	192.900000
752.456787	194.800000
752.494202	199.000000
752.531616	195.600000
752.568970	199.300000
752.606384	195.100000
752.643799	197.100000
752.681152	201.800000
752.718567	197.800000
752.755981	185.700000
752.793335	198.800000
752.830750	185.100000
752.868164	202.300000
752.905518	188.900000
752.942932	198.600000
752.980225	188.000000
753.017639	199.300000
753.055054	191.400000
753.092407	196.400000
753.129822	198.800000
753.167175	204.800000
753.204529	193.100000
753.241943	191.500000
753.279358	187.900000
753.316650	198.000000
753.354065	196.000000
753.391479	198.500000
753.428772	203.400000
753.466187	197.800000
753.503479	187.700000
753.540894	192.500000
753.578308	189.700000
753.615601	188.600000
753.653015	195.000000
753.690369	192.500000
753.727722	189.600000
753.765076	186.900000
753.802490	188.100000
753.839783	184.800000
753.877136	191.300000
753.914551	208.700000
753.951843	188.200000
753.989258	197.400000
754.026611	194.900000
754.063904	197.100000
754.101257	188.500000
754.138611	186.400000
754.175964	194.500000
754.213318	204.800000
754.250610	187.400000
754.288025	190.700000
754.325378	188.800000
754.362671	201.000000
754.400024	192.600000
754.437378	201.900000
754.474670	205.300000
754.512085	190.000000
754.549438	195.300000
754.586731	191.900000
754.624084	194.100000
754.661438	189.100000
754.698730	202.300000
754.736084	193.200000
754.773376	193.200000
754.810730	195.800000
754.848083	193.100000
754.885315	198.400000
754.922668	186.600000
754.960022	188.000000
754.997314	199.500000
755.034668	195.000000
755.072021	195.900000
755.109253	192.500000
755.146606	203.200000
755.183960	193.500000
755.221252	203.700000
755.258545	200.700000
755.295898	201.600000
755.333191	202.800000
755.370544	198.700000
755.407776	194.700000
755.445129	197.000000
755.482422	201.600000
755.519714	192.800000
755.557068	188.600000
755.594360	187.300000
755.631653	201.100000
755.668945	205.100000
755.706299	199.500000
755.743530	207.300000
755.780884	204.800000
755.818176	203.000000
755.855408	202.200000
755.892761	199.500000
755.930054	200.400000
755.967346	199.000000
756.004639	202.100000
756.041870	197.900000
756.079224	203.300000
756.116516	194.600000
756.153748	204.400000
756.191040	206.500000
756.228394	203.600000
756.265625	193.700000
756.302917	200.900000
756.340210	195.800000
756.377441	206.600000
756.414795	206.300000
756.452087	201.800000
756.489319	192.400000
756.526611	203.700000
756.563843	201.700000
756.601135	211.400000
756.638428	209.500000
756.675659	200.500000
756.712952	204.300000
756.750244	206.200000
756.787476	202.300000
756.824768	209.300000
756.862061	199.600000
756.899292	248.300000
756.936584	205.100000
756.973816	213.500000
757.011047	214.000000
757.048340	203.600000
757.085632	202.500000
757.122864	219.600000
757.160156	201.300000
757.197327	205.700000
757.234619	207.500000
757.271912	201.300000
757.309082	209.500000
757.346375	201.000000
757.383667	209.100000
757.420837	204.300000
757.458130	205.300000
757.495422	202.100000
757.532593	207.100000
757.569885	197.000000
757.607117	199.900000
757.644348	206.100000
757.681580	217.600000
757.718811	193.300000
757.756042	206.300000
757.793335	203.800000
757.830505	209.200000
757.867798	202.600000
757.905029	204.300000
757.942200	208.300000
757.979492	205.300000
758.016724	204.900000
758.053894	205.300000
758.091187	226.100000
758.128418	208.300000
758.165588	207.100000
758.202820	220.800000
758.240112	210.300000
758.277283	218.800000
758.314514	210.500000
758.351685	204.800000
758.388916	219.300000
758.426147	216.700000
758.463379	217.900000
758.500610	212.200000
758.537842	210.500000
758.575012	217.100000
758.612244	204.400000
758.649475	223.000000
758.686646	204.100000
758.723877	217.300000
758.761108	219.400000
758.798279	210.500000
758.835510	214.000000
758.872742	217.500000
758.909851	214.000000
758.947083	214.100000
758.984253	214.300000
759.021484	216.300000
759.058716	217.800000
759.095886	216.400000
759.133057	212.400000
759.170288	216.500000
759.207458	208.800000
759.244690	224.600000
759.281860	224.400000
759.319031	212.000000
759.356262	212.100000
759.393433	213.000000
759.430603	214.200000
759.467773	214.700000
759.505005	222.100000
759.542175	220.100000
759.579346	213.700000
759.616516	214.900000
759.653687	218.800000
759.690918	212.000000
759.728027	218.700000
759.765259	217.600000
759.802429	220.400000
759.839539	217.600000
759.876770	222.400000
759.913940	226.800000
759.951111	217.700000
759.988281	217.700000
760.025452	217.100000
760.062561	212.600000
760.099792	226.700000
760.136963	220.200000
760.174072	217.500000
760.211243	209.700000
760.248413	214.900000
760.285583	213.400000
760.322754	230.300000
760.359863	224.100000
760.397034	225.400000
760.434204	217.500000
760.471375	219.900000
760.508545	217.200000
760.545715	219.100000
760.582825	215.100000
760.619995	225.800000
760.657166	213.300000
760.694275	226.100000
760.731445	222.200000
760.768555	223.400000
760.805664	225.500000
760.842834	223.800000
760.879944	226.700000
760.917114	225.800000
760.954285	222.000000
760.991394	217.400000
761.028564	230.600000
761.065674	228.000000
761.102783	221.300000
761.139954	228.900000
761.177124	230.700000
761.214172	232.800000
761.251343	224.900000
761.288452	226.800000
761.325562	231.400000
761.362732	222.700000
761.399841	228.700000
761.436951	230.100000
761.474121	225.300000
761.511169	228.400000
761.548340	232.600000
761.585449	231.800000
761.622559	235.200000
761.659668	231.200000
761.696838	240.400000
761.733887	236.200000
761.771057	232.900000
761.808167	232.900000
761.845276	237.700000
761.882385	245.700000
761.919434	235.900000
761.956604	254.200000
761.993713	234.500000
762.030762	242.800000
762.067871	236.300000
762.105042	235.500000
762.142090	245.500000
762.179199	238.700000
762.216309	245.200000
762.253418	256.000000
762.290527	248.300000
762.327637	245.700000
762.364685	233.300000
762.401794	246.100000
762.438904	244.600000
762.475952	238.900000
762.513062	238.400000
762.550110	239.000000
762.587219	254.700000
762.624329	252.900000
762.661377	246.700000
762.698486	247.300000
762.735596	245.100000
762.772644	241.900000
762.809753	237.500000
762.846863	245.200000
762.883911	249.900000
762.921021	250.900000
762.958069	247.800000
762.995117	258.200000
763.032227	257.500000
763.069336	249.100000
763.106323	244.200000
763.143433	243.200000
763.180481	250.900000
763.217590	254.100000
763.254639	248.900000
763.291687	251.400000
763.328735	258.700000
763.365845	253.900000
763.402893	251.400000
763.439941	257.300000
763.477051	257.900000
763.514038	258.700000
763.551147	250.600000
763.588196	257.000000
763.625244	252.400000
763.662292	264.200000
763.699402	265.600000
763.736389	261.600000
763.773499	270.500000
763.810486	262.800000
763.847534	259.800000
763.884644	261.300000
763.921631	258.600000
763.958679	271.400000
763.995728	260.600000
764.032776	270.400000
764.069824	254.800000
764.106873	267.100000
764.143860	272.900000
764.180969	263.500000
764.218018	274.200000
764.255005	264.600000
764.292053	266.600000
764.329102	279.100000
764.366089	277.500000
764.403137	275.900000
764.440125	265.100000
764.477173	269.800000
764.514221	273.600000
764.551208	270.900000
764.588257	265.000000
764.625305	278.300000
764.662292	282.000000
764.699341	285.600000
764.736389	277.900000
764.773376	294.800000
764.810425	281.200000
764.847473	289.700000
764.884399	283.500000
764.921448	291.800000
764.958435	289.400000
764.995483	277.900000
765.032532	298.800000
765.069458	280.000000
765.106506	283.900000
765.143555	279.900000
765.180481	286.300000
765.217529	293.200000
765.254578	279.800000
765.291504	288.800000
765.328552	286.200000
765.365540	281.600000
765.402527	299.800000
765.439575	282.400000
765.476501	280.200000
765.513550	280.900000
765.550537	287.200000
765.587463	294.600000
765.624512	285.000000
765.661499	276.800000
765.698486	294.200000
765.735474	283.600000
765.772461	288.900000
765.809448	297.000000
765.846436	292.700000
765.883423	297.700000
765.920410	291.700000
765.957397	288.000000
765.994385	292.100000
766.031311	302.500000
766.068359	296.000000
766.105286	298.700000
766.142273	303.100000
766.179260	299.600000
766.216187	292.200000
766.253174	288.800000
766.290161	298.800000
766.327148	302.100000
766.364136	302.600000
766.401123	318.400000
766.438049	296.000000
766.475037	310.200000
766.512024	306.600000
766.548950	323.700000
766.585937	317.700000
766.622864	312.700000
766.659790	313.200000
766.696777	303.500000
766.733704	319.800000
766.770691	309.500000
766.807678	323.600000
766.844604	320.900000
766.881531	320.700000
766.918518	326.700000
766.955444	328.500000
766.992432	321.600000
767.029358	326.100000
767.066284	328.500000
767.103271	324.400000
767.140198	356.200000
767.177124	341.900000
767.214050	336.300000
767.251038	335.600000
767.287964	331.200000
767.324890	328.300000
767.361816	334.900000
767.398743	342.200000
767.435730	337.400000
767.472595	339.900000
767.509583	347.900000
767.546509	335.500000
767.583374	341.900000
767.620361	333.200000
767.657288	345.400000
767.694214	344.500000
767.731140	343.600000
767.768066	344.200000
767.804993	349.200000
767.841919	342.300000
767.878845	347.800000
767.915710	356.900000
767.952698	351.900000
767.989563	354.800000
768.026489	356.900000
768.063416	349.400000
768.100281	350.400000
768.137207	363.400000
768.174133	362.000000
768.211060	364.500000
768.247986	362.300000
768.284912	360.000000
768.321777	364.800000
768.358704	362.800000
768.395630	365.700000
768.432495	358.600000
768.469421	365.900000
768.506348	372.500000
768.543152	379.300000
768.580078	377.300000
768.616943	377.200000
768.653870	378.900000
768.690796	377.500000
768.727661	375.700000
768.764587	379.300000
768.801453	373.700000
768.838318	384.500000
768.875244	385.100000
768.912109	392.600000
768.948975	383.700000
768.985901	385.200000
769.022766	384.000000
769.059631	393.000000
769.096558	386.400000
769.133362	387.400000
769.170288	388.800000
769.207214	390.800000
769.244019	398.400000
769.280945	394.700000
769.317810	402.600000
769.354675	396.900000
769.391541	407.300000
769.428406	407.300000
769.465271	416.800000
769.502136	407.300000
769.539062	404.000000
769.575867	406.300000
769.612732	408.700000
769.649597	412.100000
769.686462	420.500000
769.723328	415.800000
769.760193	412.100000
769.797058	415.300000
769.833923	426.200000
769.870728	419.300000
769.907593	424.600000
769.944519	424.500000
769.981323	428.900000
770.018188	426.000000
770.055054	424.100000
770.091858	424.300000
770.128723	438.700000
770.165588	444.000000
770.202393	425.500000
770.239258	442.800000
770.276062	433.800000
770.312927	437.800000
770.349792	443.300000
770.386597	442.800000
770.423462	450.200000
770.460327	460.000000
770.497131	443.500000
770.533997	436.300000
770.570862	451.400000
770.607605	455.900000
770.644470	446.100000
770.681335	450.400000
770.718140	447.800000
770.754944	442.000000
770.791809	438.700000
770.828613	444.200000
770.865479	444.400000
770.902222	456.800000
770.939087	448.400000
770.975952	440.900000
771.012695	445.500000
771.049561	463.800000
771.086365	451.000000
771.123169	446.800000
771.159973	451.900000
771.196838	450.300000
771.233582	452.200000
771.270447	454.200000
771.307251	456.600000
771.344055	454.400000
771.380859	456.100000
771.417664	454.500000
771.454468	463.000000
771.491272	460.600000
771.528076	462.400000
771.564880	463.700000
771.601685	474.100000
771.638428	463.800000
771.675293	468.800000
771.712097	458.900000
771.748840	478.900000
771.785645	469.400000
771.822449	473.100000
771.859253	476.100000
771.896057	475.200000
771.932861	488.600000
771.969604	477.800000
772.006409	472.100000
772.043213	487.600000
772.079956	483.300000
772.116760	473.500000
772.153503	478.100000
772.190308	488.900000
772.227112	481.500000
772.263855	480.800000
772.300659	486.500000
772.337463	496.100000
772.374207	485.600000
772.411011	482.500000
772.447754	486.000000
772.484497	506.300000
772.521301	501.400000
772.558105	498.200000
772.594849	502.400000
772.631592	507.800000
772.668396	506.900000
772.705139	511.700000
772.741882	513.200000
772.778625	527.600000
772.815430	527.900000
772.852173	522.500000
772.888916	533.100000
772.925720	534.400000
772.962463	540.700000
772.999207	538.800000
773.035950	545.100000
773.072754	543.100000
773.109436	537.800000
773.146240	539.200000
773.182922	540.400000
773.219727	552.400000
773.256470	547.500000
773.293152	532.700000
773.329956	541.500000
773.366699	550.300000
773.403381	542.100000
773.440186	553.500000
773.476929	554.500000
773.513611	547.400000
773.550354	549.100000
773.587158	550.800000
773.623840	549.200000
773.660583	557.400000
773.697327	576.300000
773.734009	564.300000
773.770813	563.900000
773.807495	559.000000
773.844238	566.500000
773.880981	586.500000
773.917664	580.100000
773.954407	586.300000
773.991150	575.700000
774.027832	581.100000
774.064575	575.600000
774.101318	588.300000
774.138000	594.400000
774.174744	589.200000
774.211487	592.600000
774.248108	578.100000
774.284851	582.700000
774.321594	593.300000
774.358276	599.500000
774.395020	608.400000
774.431702	605.700000
774.468384	599.000000
774.505127	592.000000
774.541809	612.200000
774.578491	623.800000
774.615234	621.600000
774.651917	615.900000
774.688599	623.000000
774.725342	629.500000
774.762024	625.900000
774.798706	634.300000
774.835449	634.400000
774.872070	639.900000
774.908813	633.100000
774.945496	635.600000
774.982178	635.500000
775.018860	644.900000
775.055542	648.400000
775.092224	647.600000
775.128967	655.600000
775.165588	648.200000
775.202271	643.200000
775.239014	656.900000
775.275635	658.800000
775.312317	653.600000
775.349060	661.300000
775.385681	657.900000
775.422363	651.100000
775.459045	660.100000
775.495667	664.900000
775.532410	673.700000
775.569092	670.000000
775.605713	672.500000
775.642395	667.900000
775.679016	671.900000
775.715698	677.400000
775.752380	678.900000
775.789001	675.200000
775.825684	678.500000
775.862366	678.200000
775.898987	689.600000
775.935669	679.800000
775.972351	701.400000
776.008972	701.800000
776.045654	695.100000
776.082336	688.100000
776.118958	690.400000
776.155640	694.800000
776.192322	706.300000
776.228882	710.900000
776.265564	705.500000
776.302185	697.600000
776.338867	705.800000
776.375488	691.100000
776.412109	710.400000
776.448792	713.900000
776.485413	723.400000
776.522034	711.000000
776.558716	702.100000
776.595337	700.400000
776.631958	712.100000
776.668579	711.800000
776.705261	716.100000
776.741882	712.300000
776.778503	711.600000
776.815186	701.000000
776.851746	712.900000
776.888367	711.900000
776.924988	723.600000
776.961609	712.000000
776.998291	713.300000
777.034851	701.000000
777.071472	717.700000
777.108154	721.000000
777.144714	733.100000
777.181335	731.300000
777.218018	722.100000
777.254578	727.600000
777.291199	727.100000
777.327759	732.600000
777.364380	741.000000
777.401062	746.600000
777.437622	762.600000
777.474243	741.500000
777.510864	757.700000
777.547424	748.600000
777.584045	753.100000
777.620667	758.100000
777.657227	765.500000
777.693848	759.200000
777.730469	782.500000
777.767029	770.000000
777.803650	780.900000
777.840271	770.900000
777.876831	764.000000
777.913452	773.400000
777.950012	752.600000
777.986633	755.800000
778.023193	758.300000
778.059753	759.100000
778.096375	761.200000
778.132996	776.600000
778.169556	758.500000
778.206116	762.700000
778.242737	763.800000
778.279297	775.100000
778.315857	763.800000
778.352478	774.200000
778.389038	785.600000
778.425598	786.000000
778.462219	797.000000
778.498718	799.700000
778.535339	809.900000
778.571838	805.500000
778.608459	818.800000
778.645020	811.200000
778.681580	821.300000
778.718140	829.400000
778.754761	823.300000
778.791260	826.600000
778.827881	842.600000
778.864441	832.300000
778.900940	836.200000
778.937561	835.800000
778.974121	837.200000
779.010620	818.900000
779.047241	827.600000
779.083801	843.400000
779.120300	844.000000
779.156860	850.100000
779.193359	845.200000
779.229980	843.800000
779.266541	853.500000
779.303040	859.400000
779.339600	849.200000
779.376160	843.800000
779.412659	859.800000
779.449219	851.700000
779.485779	861.000000
779.522278	863.600000
779.558838	868.600000
779.595398	872.500000
779.631897	869.400000
779.668457	856.000000
779.705017	870.400000
779.741516	864.400000
779.778076	855.200000
779.814575	865.800000
779.851074	882.600000
779.887634	873.700000
779.924133	879.600000
779.960693	867.200000
779.997253	876.100000
780.033691	882.700000
780.070251	886.200000
780.106812	897.000000
780.143250	895.200000
780.179810	892.500000
780.216370	895.200000
780.252808	907.600000
780.289368	922.000000
780.325867	922.300000
780.362366	920.500000
780.398865	931.200000
780.435364	923.900000
780.471863	938.700000
780.508423	940.400000
780.544861	951.300000
780.581421	954.600000
780.617920	941.800000
780.654419	942.500000
780.690918	949.300000
780.727417	954.500000
780.763916	953.900000
780.800415	958.800000
780.836914	944.200000
780.873352	951.600000
780.909912	940.000000
780.946411	950.600000
780.982849	963.700000
781.019348	981.400000
781.055786	971.800000
781.092346	968.700000
781.128845	974.600000
781.165283	983.300000
781.201782	992.300000
781.238281	1000.600000
781.274719	1003.800000
781.311218	993.800000
781.347717	1003.700000
781.384155	992.700000
781.420654	990.800000
781.457092	1003.600000
781.493591	999.800000
781.530090	997.600000
781.566528	1003.400000
781.602966	1002.200000
781.639465	999.300000
781.675903	1001.500000
781.712402	1008.400000
781.748901	1009.200000
781.785278	1006.100000
781.821777	1016.600000
781.858276	1009.500000
781.894714	1016.300000
781.931152	1006.500000
781.967651	1024.100000
782.004089	1010.600000
782.040527	1019.200000
782.076965	1021.600000
782.113403	1023.000000
782.149902	1020.600000
782.186340	1023.000000
782.222778	1035.500000
782.259277	1019.400000
782.295654	1021.200000
782.332092	1026.400000
782.368591	1020.200000
782.404968	1015.600000
782.441467	1022.500000
782.477905	1023.200000
782.514282	1018.800000
782.550781	1038.300000
782.587219	1037.200000
782.623596	1037.200000
782.660095	1045.100000
782.696472	1050.600000
782.732910	1050.500000
782.769348	1054.600000
782.805786	1076.800000
782.842224	1068.400000
782.878662	1059.900000
782.915039	1061.900000
782.951477	1065.700000
782.987915	1054.800000
783.024292	1066.100000
783.060730	1067.800000
783.097168	1054.400000
783.133545	1045.100000
783.169983	1036.100000
783.206421	1033.400000
783.242798	1029.500000
783.279236	1013.800000
783.315613	1010.200000
783.352051	1007.200000
783.388489	997.300000
783.424866	986.400000
783.461304	988.500000
783.497681	1002.100000
783.534058	994.000000
783.570496	989.700000
783.606934	990.500000
783.643250	996.500000
783.679687	1003.200000
783.716125	1000.300000
783.752441	1017.300000
783.788879	1033.200000
783.825317	1031.500000
783.861633	1042.200000
783.898071	1044.300000
783.934448	1064.800000
783.970825	1072.300000
784.007263	1054.300000
784.043579	1016.200000
784.080017	938.700000
784.116394	803.000000
784.152710	681.800000
784.189148	598.800000
784.225525	570.400000
784.261902	611.000000
784.298279	706.100000
784.334656	821.500000
784.371033	931.100000
784.407410	1009.300000
784.443787	1037.500000
784.480164	1035.200000
784.516541	1028.700000
784.552856	1037.900000
784.589233	1027.900000
784.625610	1027.800000
784.661987	1058.800000
784.698364	1046.600000
784.734741	1036.800000
784.771057	1038.600000
784.807434	1045.900000
784.843811	1068.500000
784.880127	1068.500000
784.916504	1098.300000
784.952881	1099.400000
784.989197	1096.700000
785.025574	1096.200000
785.061951	1108.800000
785.098267	1136.100000
785.134644	1137.600000
785.170959	1135.600000
785.207275	1140.100000
785.243652	1136.200000
785.279968	1124.800000
785.316345	1137.200000
785.352722	1142.400000
785.388977	1143.800000
785.425354	1124.100000
785.461731	1100.200000
785.498047	1093.900000
785.534363	1089.300000
785.570679	1083.300000
785.606995	1082.700000
785.643372	1087.800000
785.679687	1075.300000
785.716003	1059.300000
785.752380	1058.400000
785.788635	1068.800000
785.825012	1098.800000
785.861328	1111.700000
785.897644	1085.500000
785.933960	1104.000000
785.970337	1112.600000
786.006592	1131.200000
786.042908	1147.900000
786.079285	1167.300000
786.115540	1175.200000
786.151855	1173.000000
786.188171	1167.700000
786.224487	1171.700000
786.260803	1171.700000
786.297119	1183.600000
786.333435	1182.400000
786.369751	1173.800000
786.406006	1182.200000
786.442322	1159.500000
786.478638	1149.100000
786.514954	1166.600000
786.551270	1167.800000
786.587585	1177.900000
786.623840	1158.700000
786.660156	1152.900000
786.696472	1131.900000
786.732727	1128.900000
786.769043	1145.500000
786.805298	1130.800000
786.841614	1132.800000
786.877930	1139.800000
786.914124	1122.600000
786.950439	1135.700000
786.986755	1140.900000
787.023010	1160.900000
787.059326	1173.300000
787.095642	1170.800000
787.131836	1185.500000
787.168152	1171.800000
787.204468	1186.600000
787.240723	1204.000000
787.276978	1225.800000
787.313293	1230.500000
787.349548	1228.000000
787.385803	1230.300000
787.422058	1219.300000
787.458313	1218.800000
787.494629	1215.300000
787.530823	1211.000000
787.567139	1203.200000
787.603455	1193.000000
787.639648	1173.400000
787.675903	1181.800000
787.712219	1183.300000
787.748413	1177.600000
787.784729	1192.300000
787.820984	1175.000000
787.857178	1173.000000
787.893494	1153.500000
787.929749	1149.100000
787.965942	1156.200000
788.002258	1173.500000
788.038452	1178.400000
788.074707	1168.900000
788.110962	1174.100000
788.147217	1163.800000
788.183472	1174.800000
788.219727	1189.500000
788.255920	1208.400000
788.292175	1212.300000
788.328430	1212.800000
788.364624	1189.000000
788.400879	1185.100000
788.437134	1188.300000
788.473328	1194.000000
788.509583	1189.600000
788.545837	1187.200000
788.582031	1174.800000
788.618286	1157.200000
788.654480	1152.100000
788.690735	1168.700000
788.726990	1198.000000
788.763184	1192.100000
788.799377	1202.700000
788.835632	1187.700000
788.871826	1207.100000
788.908081	1207.900000
788.944336	1211.700000
788.980469	1231.100000
789.016724	1227.100000
789.052979	1220.100000
789.089111	1198.800000
789.125366	1194.000000
789.161621	1177.000000
789.197754	1190.600000
789.234009	1182.900000
789.270142	1165.600000
789.306396	1161.600000
789.342590	1145.900000
789.378784	1119.400000
789.414978	1122.800000
789.451233	1139.500000
789.487366	1141.800000
789.523621	1144.300000
789.559814	1135.500000
789.595947	1123.000000
789.632202	1128.200000
789.668335	1152.900000
789.704529	1170.500000
789.740784	1190.900000
789.776917	1196.000000
789.813110	1178.800000
789.849304	1188.000000
789.885498	1190.200000
789.921692	1215.700000
789.957886	1219.200000
789.994019	1224.300000
790.030212	1211.600000
790.066406	1212.500000
790.102539	1211.500000
790.138733	1218.100000
790.174927	1214.200000
790.211060	1237.400000
790.247253	1215.200000
790.283386	1201.300000
790.319580	1179.400000
790.355774	1167.100000
790.391907	1183.000000
790.428101	1202.800000
790.464294	1205.100000
790.500427	1208.800000
790.536621	1185.600000
790.572754	1162.300000
790.608887	1167.700000
790.645081	1177.900000
790.681274	1191.100000
790.717346	1183.200000
790.753540	1141.100000
790.789734	1066.700000
790.825867	1004.700000
790.862000	1002.400000
790.898132	1051.300000
790.934265	1105.000000
790.970459	1170.300000
791.006592	1186.800000
791.042725	1190.900000
791.078918	1181.000000
791.114990	1189.900000
791.151184	1196.100000
791.187317	1226.100000
791.223389	1216.900000
791.259583	1201.200000
791.295715	1204.500000
791.331848	1208.700000
791.367981	1229.900000
791.404114	1240.000000
791.440247	1227.500000
791.476379	1234.700000
791.512451	1212.500000
791.548584	1212.600000
791.584778	1208.200000
791.620850	1233.300000
791.656982	1230.300000
791.693115	1225.400000
791.729187	1219.800000
791.765381	1207.800000
791.801514	1202.100000
791.837585	1211.400000
791.873718	1226.700000
791.909851	1240.100000
791.945923	1255.400000
791.982056	1207.600000
792.018188	1209.200000
792.054260	1210.100000
792.090393	1215.900000
792.126465	1202.500000
792.162598	1213.300000
792.198669	1190.400000
792.234741	1190.900000
792.270874	1184.000000
792.307007	1169.000000
792.343079	1175.900000
792.379150	1191.000000
792.415283	1175.600000
792.451355	1179.400000
792.487488	1150.600000
792.523560	1157.000000
792.559631	1166.900000
792.595764	1161.700000
792.631836	1162.300000
792.667908	1169.000000
792.703979	1154.900000
792.740051	1148.800000
792.776184	1163.700000
792.812256	1160.900000
792.848328	1169.600000
792.884399	1176.100000
792.920471	1166.800000
792.956543	1160.500000
792.992615	1159.200000
793.028748	1159.900000
793.064758	1163.800000
793.100830	1186.700000
793.136963	1201.900000
793.172974	1193.000000
793.209045	1181.800000
793.245178	1187.400000
793.281189	1176.500000
793.317261	1184.100000
793.353271	1181.900000
793.389404	1196.000000
793.425476	1190.000000
793.461487	1171.700000
793.497559	1161.300000
793.533630	1172.000000
793.569641	1176.500000
793.605713	1179.900000
793.641785	1181.000000
793.677795	1196.700000
793.713867	1171.800000
793.749878	1181.600000
793.785950	1197.300000
793.822021	1200.600000
793.858032	1179.600000
793.894104	1192.300000
793.930176	1179.700000
793.966187	1181.700000
794.002258	1169.500000
794.038269	1177.900000
794.074280	1177.800000
794.110352	1198.300000
794.146423	1170.300000
794.182373	1158.200000
794.218445	1152.400000
794.254517	1142.200000
794.290466	1133.400000
794.326538	1143.800000
794.362549	1141.200000
794.398560	1142.200000
794.434631	1147.500000
794.470581	1121.800000
794.506653	1112.800000
794.542664	1118.800000
794.578674	1112.700000
794.614685	1109.600000
794.650757	1107.100000
794.686707	1105.500000
794.722778	1090.900000
794.758789	1097.200000
794.794739	1109.000000
794.830811	1132.100000
794.866821	1143.500000
794.902771	1135.700000
794.938843	1131.100000
794.974792	1125.900000
795.010803	1123.600000
795.046814	1126.600000
795.082825	1119.600000
795.118835	1126.900000
795.154846	1104.600000
795.190796	1111.500000
795.226807	1085.600000
795.262817	1086.900000
795.298767	1087.300000
795.334778	1097.100000
795.370850	1084.700000
795.406799	1091.900000
795.442810	1066.400000
795.478821	1066.100000
795.514709	1061.300000
795.550720	1082.800000
795.586670	1062.000000
795.622681	1071.300000
795.658691	1068.000000
795.694641	1062.700000
795.730652	1047.100000
795.766663	1054.100000
795.802551	1057.900000
795.838562	1076.400000
795.874573	1059.400000
795.910522	1052.900000
795.946472	1049.200000
795.982483	1056.800000
796.018433	1056.200000
796.054382	1067.900000
796.090393	1049.400000
796.126282	1050.500000
796.162292	1029.800000
796.198242	1021.600000
796.234192	1030.100000
796.270203	1032.400000
796.306091	1035.500000
796.342041	1048.500000
796.378052	1033.700000
796.413940	1029.700000
796.449951	1027.600000
796.485901	1022.700000
796.521790	1030.600000
796.557800	1043.400000
796.593689	1036.400000
796.629639	1023.200000
796.665649	1021.900000
796.701599	1017.200000
796.737488	1013.000000
796.773437	1024.000000
796.809387	1029.200000
796.845337	1027.400000
796.881287	1010.300000
796.917175	993.700000
796.953125	994.200000
796.989075	1000.800000
797.024963	1012.700000
797.060913	1008.300000
797.096863	1006.100000
797.132751	999.400000
797.168701	977.100000
797.204590	985.000000
797.240540	990.100000
797.276489	998.900000
797.312439	1002.500000
797.348328	998.000000
797.384277	986.700000
797.420166	975.800000
797.456055	979.300000
797.492004	978.100000
797.527893	989.700000
797.563843	994.800000
797.599731	976.000000
797.635620	960.900000
797.671570	971.200000
797.707520	966.300000
797.743347	973.500000
797.779297	978.000000
797.815125	971.600000
797.851074	961.300000
797.887024	953.900000
797.922913	942.900000
797.958801	962.800000
797.994690	959.200000
798.030579	962.100000
798.066467	966.200000
798.102356	952.500000
798.138245	946.500000
798.174133	934.800000
798.210083	943.000000
798.245911	957.100000
798.281799	959.800000
798.317749	950.300000
798.353577	942.700000
798.389465	939.500000
798.425293	937.300000
798.461243	932.300000
798.497131	938.700000
798.532959	937.200000
798.568848	946.100000
798.604736	931.100000
798.640564	918.400000
798.676453	914.700000
798.712402	921.500000
798.748230	926.400000
798.784119	917.200000
798.820007	925.300000
798.855835	923.200000
798.891724	915.700000
798.927551	909.000000
798.963379	921.000000
798.999268	918.500000
799.035095	912.800000
799.070984	900.700000
799.106873	893.600000
799.142700	908.100000
799.178528	891.100000
799.214417	895.200000
799.250244	909.600000
799.286133	901.000000
799.321960	892.600000
799.357788	891.600000
799.393677	888.400000
799.429504	887.600000
799.465332	885.100000
799.501221	898.800000
799.537048	896.700000
799.572876	884.700000
799.608704	891.200000
799.644531	895.200000
799.680359	894.300000
799.716248	894.100000
799.752014	898.700000
799.787903	887.900000
799.823730	885.800000
799.859558	877.700000
799.895386	878.500000
799.931213	878.800000
799.967041	870.200000
800.002869	867.300000
800.038696	881.200000
800.074463	858.200000
800.110352	858.800000
800.146179	848.100000
800.181946	857.200000
800.217773	859.900000
800.253540	856.800000
800.289429	852.100000
800.325256	848.500000
800.361023	835.500000
800.396851	838.400000
800.432678	843.800000
800.468445	844.400000
800.504272	837.600000
800.540100	819.900000
800.575867	815.000000
800.611694	822.700000
800.647461	819.200000
800.683289	823.300000
800.719116	825.300000
800.754883	815.500000
800.790649	799.600000
800.826477	792.600000
800.862244	812.100000
800.898071	798.100000
800.933838	792.800000
800.969604	789.100000
801.005432	789.800000
801.041199	790.600000
801.076965	782.500000
801.112793	770.400000
801.148560	765.000000
801.184326	770.600000
801.220154	766.800000
801.255859	758.000000
801.291687	755.800000
801.327454	751.100000
801.363281	748.400000
801.398987	752.200000
801.434814	750.700000
801.470520	761.000000
801.506287	743.000000
801.542114	736.600000
801.577820	737.500000
801.613647	742.700000
801.649414	733.600000
801.685120	734.400000
801.720886	737.700000
801.756714	728.400000
801.792419	717.700000
801.828186	713.100000
801.863892	724.000000
801.899719	714.600000
801.935486	714.000000
801.971252	723.700000
802.006958	714.700000
802.042725	705.400000
802.078430	704.400000
802.114197	698.000000
802.149963	716.400000
802.185669	700.000000
802.221436	703.300000
802.257202	700.400000
802.292908	697.400000
802.328674	700.900000
802.364441	705.000000
802.400146	700.200000
802.435913	689.500000
802.471558	687.100000
802.507324	682.200000
802.543091	675.200000
802.578796	689.100000
802.614502	690.200000
802.650269	691.900000
802.685974	670.900000
802.721741	676.300000
802.757446	682.300000
802.793152	676.600000
802.828918	684.000000
802.864624	682.500000
802.900330	676.200000
802.936035	676.100000
802.971802	671.600000
803.007446	668.000000
803.043213	659.000000
803.078857	669.000000
803.114624	650.800000
803.150330	659.500000
803.185974	649.200000
803.221741	650.200000
803.257446	659.600000
803.293152	658.700000
803.328857	649.800000
803.364563	647.900000
803.400208	637.900000
803.435974	647.500000
803.471680	637.200000
803.507324	631.400000
803.543030	642.200000
803.578735	642.100000
803.614441	631.900000
803.650146	636.000000
803.685791	623.500000
803.721497	624.300000
803.757202	614.500000
803.792847	626.800000
803.828552	615.100000
803.864258	615.400000
803.899902	615.400000
803.935608	600.800000
803.971313	607.300000
804.006958	604.900000
804.042664	602.500000
804.078308	610.200000
804.113953	602.000000
804.149658	610.700000
804.185364	600.500000
804.221008	607.100000
804.256714	598.800000
804.292297	594.700000
804.328003	593.200000
804.363708	581.000000
804.399292	584.800000
804.434998	586.900000
804.470703	579.200000
804.506287	592.900000
804.541992	585.000000
804.577637	588.000000
804.613281	574.900000
804.648926	573.200000
804.684570	575.700000
804.720215	569.700000
804.755920	573.100000
804.791565	566.700000
804.827209	573.500000
804.862854	563.500000
804.898437	561.200000
804.934143	559.900000
804.969788	559.400000
805.005371	561.100000
805.041077	561.000000
805.076721	560.500000
805.112305	550.600000
805.147949	549.300000
805.183655	546.100000
805.219238	553.500000
805.254883	551.500000
805.290466	556.300000
805.326111	547.300000
805.361755	538.000000
805.397400	543.100000
805.432983	546.500000
805.468628	544.500000
805.504211	550.300000
805.539856	545.600000
805.575500	548.300000
805.611084	542.400000
805.646729	529.800000
805.682373	534.500000
805.717957	544.100000
805.753601	544.900000
805.789246	527.100000
805.824768	537.200000
805.860413	537.800000
805.895996	524.800000
805.931641	529.400000
805.967224	535.300000
806.002869	526.500000
806.038452	535.300000
806.074036	533.000000
806.109619	519.600000
806.145264	517.500000
806.180847	519.100000
806.216431	515.800000
806.252014	518.200000
806.287659	520.700000
806.323181	525.400000
806.358826	519.900000
806.394409	500.600000
806.429993	503.200000
806.465576	521.300000
806.501160	503.600000
806.536743	496.600000
806.572327	509.400000
806.607910	503.200000
806.643494	501.800000
806.679077	496.500000
806.714661	500.100000
806.750244	502.100000
806.785828	491.900000
806.821350	488.800000
806.856934	494.600000
806.892517	492.200000
806.928101	484.100000
806.963684	484.300000
806.999268	495.500000
807.034790	473.800000
807.070374	481.600000
807.105896	478.600000
807.141479	472.400000
807.177063	481.200000
807.212585	471.400000
807.248169	471.800000
807.283752	475.800000
807.319275	473.600000
807.354858	474.400000
807.390381	467.300000
807.425903	468.800000
807.461487	465.300000
807.497070	456.000000
807.532593	459.100000
807.568115	454.900000
807.603699	454.400000
807.639221	447.000000
807.674744	451.600000
807.710266	457.200000
807.745850	459.600000
807.781372	448.000000
807.816895	445.600000
807.852417	451.800000
807.888000	448.800000
807.923523	442.800000
807.959045	446.700000
807.994629	437.000000
808.030090	438.600000
808.065613	438.900000
808.101135	439.600000
808.136658	438.700000
808.172241	434.400000
808.207764	433.600000
808.243225	429.100000
808.278809	425.800000
808.314270	436.700000
808.349792	419.300000
808.385315	422.200000
808.420837	426.200000
808.456360	430.000000
808.491882	427.000000
808.527344	423.300000
808.562866	432.200000
808.598389	422.200000
808.633850	416.500000
808.669434	412.700000
808.704895	423.600000
808.740417	429.100000
808.775940	419.200000
808.811462	409.400000
808.846924	407.400000
808.882385	404.700000
808.917847	402.600000
808.953369	405.000000
808.988892	399.500000
809.024353	407.200000
809.059875	402.500000
809.095398	400.200000
809.130798	394.800000
809.166321	391.600000
809.201843	393.500000
809.237305	395.100000
809.272766	404.200000
809.308228	387.400000
809.343750	387.900000
809.379211	387.200000
809.414734	388.900000
809.450134	397.400000
809.485657	380.800000
809.521118	388.200000
809.556580	384.700000
809.592102	381.900000
809.627502	380.100000
809.663025	375.700000
809.698486	372.900000
809.733887	368.200000
809.769409	373.100000
809.804871	363.300000
809.840271	365.300000
809.875793	367.600000
809.911194	373.000000
809.946655	363.500000
809.982178	360.100000
810.017639	366.800000
810.053040	363.900000
810.088501	359.100000
810.123901	359.100000
810.159424	356.200000
810.194885	352.700000
810.230286	356.100000
810.265747	349.800000
810.301208	347.400000
810.336609	351.600000
810.372070	342.100000
810.407532	347.000000
810.442932	348.200000
810.478394	351.000000
810.513794	346.400000
810.549255	345.000000
810.584717	341.800000
810.620117	338.900000
810.655518	343.200000
810.690979	343.800000
810.726379	342.700000
810.761841	330.500000
810.797302	335.000000
810.832642	333.200000
810.868103	345.700000
810.903564	330.800000
810.938904	338.500000
810.974365	326.100000
811.009827	333.900000
811.045166	326.700000
811.080627	320.900000
811.115967	326.200000
811.151428	334.400000
811.186829	323.900000
811.222229	328.300000
811.257629	319.000000
811.293091	326.600000
811.328430	331.700000
811.363892	326.400000
811.399292	328.800000
811.434631	320.400000
811.470093	323.400000
811.505493	318.900000
811.540833	319.500000
811.576294	324.600000
811.611694	316.600000
811.647034	314.200000
811.682434	316.500000
811.717773	320.100000
811.753235	321.000000
811.788635	314.500000
811.823975	315.600000
811.859375	323.200000
811.894775	307.800000
811.930115	311.200000
811.965515	313.800000
812.000916	314.100000
812.036255	308.000000
812.071655	315.600000
812.106995	305.500000
812.142395	307.400000
812.177795	315.900000
812.213196	312.100000
812.248474	311.900000
812.283875	300.600000
812.319214	307.600000
812.354614	305.800000
812.390015	304.500000
812.425293	304.100000
812.460693	303.800000
812.496094	300.200000
812.531433	294.200000
812.566772	295.600000
812.602173	299.900000
812.637451	301.100000
812.672852	296.400000
812.708191	299.500000
812.743530	293.900000
812.778931	284.900000
812.814270	292.000000
812.849609	297.200000
812.884949	291.700000
812.920227	285.000000
812.955627	303.800000
812.990967	293.000000
813.026306	288.000000
813.061646	278.300000
813.096985	277.000000
813.132324	274.000000
813.167664	278.000000
813.203003	282.700000
813.238281	270.500000
813.273682	271.800000
813.308960	269.100000
813.344299	272.100000
813.379639	280.500000
813.414978	271.700000
813.450256	272.300000
813.485596	277.400000
813.520874	266.300000
813.556213	272.700000
813.591614	275.700000
813.626831	267.000000
813.662170	269.800000
813.697510	283.000000
813.732788	263.600000
813.768127	271.900000
813.803467	270.200000
813.838745	265.600000
813.874084	268.100000
813.909363	268.200000
813.944641	268.900000
813.979980	258.800000
814.015320	262.800000
814.050598	260.600000
814.085876	266.100000
814.121155	261.600000
814.156494	258.800000
814.191772	263.200000
814.227051	259.500000
814.262390	261.600000
814.297668	261.500000
814.332947	263.600000
814.368225	254.300000
814.403564	258.600000
814.438782	254.400000
814.474121	258.800000
814.509338	253.900000
814.544617	262.400000
814.579956	252.700000
814.615173	264.000000
814.650513	258.500000
814.685791	251.700000
814.721008	253.900000
814.756348	254.900000
814.791626	250.700000
814.826843	250.600000
814.862122	251.100000
814.897400	247.800000
814.932678	251.100000
814.967957	250.300000
815.003235	248.400000
815.038452	242.200000
815.073730	240.900000
815.108948	253.000000
815.144226	248.200000
815.179504	252.300000
815.214722	237.400000
815.250000	236.600000
815.285278	245.000000
815.320496	237.900000
815.355774	242.500000
815.391052	244.500000
815.426270	240.800000
815.461487	239.300000
815.496765	235.900000
815.531982	230.600000
815.567261	236.900000
815.602539	245.800000
815.637695	241.700000
815.672974	241.800000
815.708191	241.400000
815.743408	243.900000
815.778687	233.200000
815.813904	245.300000
815.849121	226.600000
815.884399	229.800000
815.919556	231.000000
815.954834	229.800000
815.990051	235.300000
816.025269	238.700000
816.060486	230.100000
816.095703	228.600000
816.130920	233.300000
816.166199	227.700000
816.201416	233.500000
816.236572	239.500000
816.271851	228.300000
816.307007	236.100000
816.342224	225.100000
816.377441	227.700000
816.412659	220.700000
816.447876	232.100000
816.483093	227.500000
816.518250	227.000000
816.553467	226.400000
816.588745	229.900000
816.623901	222.500000
816.659119	216.200000
816.694275	222.600000
816.729492	219.100000
816.764709	256.700000
816.799927	215.100000
816.835083	221.700000
816.870300	216.200000
816.905457	219.400000
816.940674	222.500000
816.975830	217.500000
817.010986	215.000000
817.046204	216.600000
817.081421	213.500000
817.116577	213.200000
817.151733	223.800000
817.186951	223.600000
817.222107	218.000000
817.257324	219.600000
817.292419	220.400000
817.327637	212.400000
817.362854	216.500000
817.398010	209.800000
817.433167	214.400000
817.468323	212.200000
817.503479	216.600000
817.538635	222.600000
817.573853	218.500000
817.608948	214.100000
817.644165	209.700000
817.679321	209.900000
817.714478	210.400000
817.749634	214.300000
817.784790	226.900000
817.819946	220.500000
817.855103	203.400000
817.890198	211.900000
817.925415	204.300000
817.960571	215.100000
817.995667	212.700000
818.030823	212.100000
818.066040	207.600000
818.101135	212.400000
818.136292	211.000000
818.171448	203.400000
818.206543	208.800000
818.241699	212.300000
818.276855	209.300000
818.311951	207.900000
818.347107	204.900000
818.382263	208.700000
818.417358	214.600000
818.452515	216.100000
818.487610	214.600000
818.522766	205.500000
818.557922	215.700000
818.593018	210.900000
818.628113	207.600000
818.663269	204.000000
818.698364	207.500000
818.733521	204.600000
818.768677	209.000000
818.803711	202.100000
818.838867	201.100000
818.874023	206.200000
818.909058	202.300000
818.944214	201.500000
818.979370	209.400000
819.014404	205.600000
819.049561	202.000000
819.084595	209.600000
819.119751	196.800000
819.154846	207.900000
819.189941	204.600000
819.225037	197.300000
819.260193	194.000000
819.295227	198.900000
819.330322	193.500000
819.365479	194.000000
819.400513	227.400000
819.435608	192.600000
819.470764	189.400000
819.505798	194.400000
819.540894	198.400000
819.575989	197.000000
819.611084	203.900000
819.646179	204.900000
819.681213	201.200000
819.716309	197.700000
819.751404	196.300000
819.786438	204.200000
819.821533	194.400000
819.856628	200.200000
819.891663	201.400000
819.926758	209.200000
819.961853	204.500000
819.996887	196.300000
820.031982	202.200000
820.067017	196.200000
820.102112	225.600000
820.137207	195.900000
820.172302	214.100000
820.207275	194.300000
820.242371	194.600000
820.277405	193.500000
820.312500	197.200000
820.347534	198.800000
820.382568	202.800000
820.417664	194.900000
820.452759	195.900000
820.487732	192.900000
820.522827	195.800000
820.557861	191.900000
820.592896	195.300000
820.627930	194.800000
820.662964	193.600000
820.698059	198.100000
820.733093	193.700000
820.768127	198.900000
820.803162	195.700000
820.838196	193.200000
820.873230	198.300000
820.908264	196.200000
820.943298	193.300000
820.978333	201.200000
821.013367	196.800000
821.048401	199.600000
821.083435	202.900000
821.118469	186.800000
821.153503	201.600000
821.188477	196.500000
821.223511	190.000000
821.258484	195.200000
821.293579	198.300000
821.328613	188.200000
821.363647	193.900000
821.398621	188.400000
821.433655	192.700000
821.468628	207.900000
821.503662	193.600000
821.538696	197.500000
821.573669	189.700000
821.608704	197.900000
821.643677	191.000000
821.678650	199.400000
821.713684	203.300000
821.748718	192.300000
821.783691	194.100000
821.818726	195.000000
821.853638	196.000000
821.888672	192.700000
821.923706	194.000000
821.958618	190.000000
821.993652	191.800000
822.028687	199.900000
822.063599	201.600000
822.098633	196.000000
822.133667	189.600000
822.168579	193.800000
822.203613	196.200000
822.238586	192.300000
822.273560	196.300000
822.308533	190.300000
822.343567	191.900000
822.378479	192.700000
822.413452	192.400000
822.448425	189.300000
822.483398	198.900000
822.518372	200.300000
822.553345	190.800000
822.588318	202.600000
822.623291	191.700000
822.658203	192.500000
822.693237	192.900000
822.728210	189.800000
822.763123	194.100000
822.798096	189.400000
822.833069	193.000000
822.867981	194.700000
822.902954	196.000000
822.937927	197.300000
822.972900	204.700000
823.007874	186.100000
823.042725	197.800000
823.077698	205.300000
823.112671	189.500000
823.147583	193.700000
823.182556	196.500000
823.217529	198.700000
823.252441	190.900000
823.287415	205.500000
823.322388	194.700000
823.357239	193.800000
823.392212	201.400000
823.427185	196.400000
823.462097	190.400000
823.497009	196.800000
823.531982	192.000000
823.566895	193.300000
823.601807	189.300000
823.636719	190.600000
823.671631	196.500000
823.706604	192.500000
823.741455	196.200000
823.776428	187.300000
823.811340	199.500000
823.846252	198.900000
823.881165	201.900000
823.916138	195.000000
823.950989	203.200000
823.985901	190.000000
824.020813	196.200000
824.055725	192.100000
824.090637	190.700000
824.125610	196.000000
824.160461	195.100000
824.195374	195.800000
824.230225	199.300000
824.265198	186.000000
824.300110	190.800000
824.334961	204.500000
824.369873	185.100000
824.404785	196.400000
824.439636	201.200000
824.474548	185.300000
824.509460	183.300000
824.544312	198.600000
824.579224	196.800000
824.614075	192.300000
824.648987	192.300000
824.683899	192.000000
824.718811	192.100000
824.753662	200.800000
824.788574	198.200000
824.823364	194.800000
824.858276	191.400000
824.893188	198.400000
824.928040	199.500000
824.962952	197.600000
824.997803	198.800000
825.032654	195.100000
825.067566	196.900000
825.102417	191.000000
825.137268	191.400000
825.172119	193.700000
825.206970	190.700000
825.241882	192.600000
825.276733	190.000000
825.311646	191.000000
825.346436	188.900000
825.381348	189.300000
825.416138	194.500000
825.450989	189.100000
825.485901	184.300000
825.520691	185.700000
825.555542	186.400000
825.590454	193.100000
825.625244	185.000000
825.660095	201.000000
825.695007	198.000000
825.729797	193.000000
825.764648	189.900000
825.799438	194.200000
825.834290	193.500000
825.869202	187.400000
825.903992	195.400000
825.938843	189.600000
825.973694	189.600000
826.008484	205.500000
826.043335	189.100000
826.078186	184.600000
826.112976	199.500000
826.147827	200.700000
826.182678	202.800000
826.217468	185.000000
826.252319	198.000000
826.287109	190.700000
826.321899	198.800000
826.356750	191.800000
826.391541	187.800000
826.426392	198.600000
826.461182	192.400000
826.495972	188.500000
826.530823	182.600000
826.565613	193.700000
826.600403	187.600000
826.635254	195.600000
826.670044	183.600000
826.704834	184.600000
826.739685	186.900000
826.774475	194.900000
826.809265	191.700000
826.844055	189.500000
826.878906	199.800000
826.913635	194.400000
826.948425	195.400000
826.983215	193.000000
827.018005	197.400000
827.052856	190.700000
827.087585	196.800000
827.122375	184.300000
827.157227	192.500000
827.191956	204.300000
827.226746	188.200000
827.261536	196.500000
827.296265	186.100000
827.331116	188.900000
827.365906	196.400000
827.400635	189.700000
827.435425	186.200000
827.470215	198.800000
827.504944	190.500000
827.539734	196.900000
827.574463	193.200000
827.609253	200.300000
827.644043	193.700000
827.678772	197.600000
827.713562	189.700000
827.748352	191.500000
827.783081	189.100000
827.817871	194.300000
827.852600	188.800000
827.887329	193.600000
827.922119	182.400000
827.956848	194.700000
827.991638	206.000000
828.026367	193.100000
828.061157	193.400000
828.095886	191.600000
828.130615	206.300000
828.165344	182.900000
828.200073	193.000000
828.234863	190.400000
828.269592	193.700000
828.304321	197.800000
828.339111	192.900000
828.373779	189.300000
828.408569	196.700000
828.443298	196.500000
828.477966	188.600000
828.512756	191.700000
828.547424	187.100000
828.582214	190.300000
828.616943	190.300000
828.651672	191.400000
828.686340	196.400000
828.721130	189.100000
828.755798	191.600000
828.790527	192.000000
828.825256	192.700000
828.859924	194.000000
828.894714	199.300000
828.929443	201.600000
828.964111	188.300000
828.998840	196.200000
829.033569	189.100000
829.068237	191.000000
829.102966	189.500000
829.137634	194.900000
829.172363	192.600000
829.207092	193.800000
829.241821	188.200000
829.276489	185.500000
829.311157	193.500000
829.345825	192.100000
829.380554	197.000000
829.415283	188.700000
829.449951	185.900000
829.484619	200.800000
829.519348	198.900000
829.554016	193.300000
829.588745	191.800000
829.623413	186.900000
829.658081	204.300000
829.692749	186.200000
829.727417	195.900000
829.762146	194.900000
829.796814	187.000000
829.831482	189.200000
829.866150	193.500000
829.900879	190.300000
829.935486	195.500000
829.970154	190.500000
830.004883	203.500000
830.039490	192.900000
830.074219	189.500000
830.108887	192.800000
830.143494	190.100000
830.178223	187.100000
830.212891	190.800000
830.247498	191.600000
830.282166	201.100000
830.316772	198.100000
830.351501	190.400000
830.386169	192.600000
830.420776	189.000000
830.455444	191.900000
830.490112	190.000000
830.524719	183.300000
830.559387	194.500000
830.594055	196.400000
830.628662	193.900000
830.663330	191.900000
830.697998	201.100000
830.732605	191.200000
830.767273	196.000000
830.801941	191.200000
830.836487	202.600000
830.871155	193.800000
830.905762	194.900000
830.940430	185.300000
830.975098	190.500000
831.009644	193.900000
831.044312	200.900000
831.078979	193.900000
831.113525	184.400000
831.148193	193.900000
831.182861	191.000000
831.217407	194.500000
831.252075	210.200000
831.286621	188.600000
831.321289	186.600000
831.355896	190.600000
831.390564	199.500000
831.425110	192.400000
831.459778	199.900000
831.494324	205.400000
831.528931	194.700000
831.563599	195.400000
831.598145	185.300000
831.632751	192.300000
831.667419	190.800000
831.701965	194.000000
831.736572	196.300000
831.771179	184.600000
831.805786	189.300000
831.840393	199.000000
831.874939	184.100000
831.909546	197.100000
831.944153	183.700000
831.978760	191.700000
832.013306	186.200000
832.047913	200.000000
832.082458	199.200000
832.117065	188.300000
832.151672	201.400000
832.186218	192.800000
832.220825	195.800000
832.255432	185.400000
832.289978	189.000000
832.324585	194.600000
832.359192	194.400000
832.393677	191.000000
832.428284	193.800000
832.462830	190.000000
832.497437	191.000000
832.531982	197.100000
832.566589	192.300000
832.601135	194.200000
832.635681	184.700000
832.670227	191.600000
832.704773	201.100000
832.739380	194.400000
832.773926	193.200000
832.808472	189.200000
832.843079	192.100000
832.877563	195.600000
832.912170	190.600000
832.946716	185.100000
832.981201	198.400000
833.015808	195.500000
833.050293	192.500000
833.084839	188.300000
833.119446	191.100000
833.153992	196.100000
833.188477	191.100000
833.223022	188.400000
833.257568	193.600000
833.292114	198.700000
833.326660	202.700000
833.361145	188.400000
833.395691	184.000000
833.430237	190.800000
833.464783	195.400000
833.499329	187.700000
833.533875	186.800000
833.568359	195.500000
833.602905	198.400000
833.637390	197.300000
833.671875	190.800000
833.706421	191.200000
833.740906	189.200000
833.775452	182.200000
833.809998	190.400000
833.844482	199.200000
833.879028	192.400000
833.913513	188.700000
833.947998	196.300000
833.982544	187.900000
834.017090	189.500000
834.051514	180.300000
834.086060	195.600000
834.120544	191.100000
834.155029	195.100000
834.189575	189.900000
834.223999	196.200000
834.258545	193.500000
834.293030	194.200000
834.327515	192.900000
834.362000	189.700000
834.396545	194.700000
834.430969	191.100000
834.465454	195.900000
834.500000	184.400000
834.534424	194.900000
834.568970	183.800000
834.603455	182.600000
834.637878	188.100000
834.672363	191.200000
834.706909	192.700000
834.741333	193.800000
834.775818	183.900000
834.810242	187.000000
834.844727	193.600000
834.879211	189.100000
834.913635	192.000000
834.948181	195.900000
834.982666	191.900000
835.017090	191.600000
835.051575	195.400000
835.086060	189.000000
835.120483	195.500000
835.154907	197.300000
835.189331	190.700000
835.223816	195.400000
835.258301	187.000000
835.292786	187.800000
835.327209	196.700000
835.361694	188.500000
835.396057	188.900000
835.430542	193.200000
835.465027	193.600000
835.499390	186.700000
835.533875	211.300000
835.568359	191.100000
835.602722	184.600000
835.637207	194.000000
835.671692	186.400000
835.706055	209.200000
835.740540	194.100000
835.774902	196.800000
835.809387	192.900000
835.843811	186.600000
835.878235	199.800000
835.912659	186.600000
835.947083	190.100000
835.981506	191.700000
836.015930	185.200000
836.050354	197.400000
836.084778	199.600000
836.119202	197.900000
836.153625	204.800000
836.187988	186.800000
836.222473	187.500000
836.256897	193.700000
836.291260	192.200000
836.325684	194.800000
836.360046	189.600000
836.394470	190.600000
836.428894	199.700000
836.463318	188.300000
836.497681	196.900000
836.532104	198.700000
836.566467	192.300000
836.600891	189.900000
836.635315	197.300000
836.669678	195.100000
836.704102	197.600000
836.738525	192.500000
836.772888	183.300000
836.807251	189.800000
836.841675	194.600000
836.876038	186.200000
836.910461	188.400000
836.944763	195.000000
836.979187	187.200000
837.013611	198.300000
837.047974	185.700000
837.082336	204.600000
837.116699	196.900000
837.151062	191.900000
837.185486	187.900000
837.219849	192.000000
837.254211	195.700000
837.288574	190.400000
837.322937	189.200000
837.357300	179.100000
837.391663	205.800000
837.426086	198.900000
837.460388	195.000000
837.494751	197.600000
837.529114	191.200000
837.563477	198.100000
837.597839	193.800000
837.632141	190.600000
837.666565	190.600000
837.700928	194.600000
837.735229	197.400000
837.769592	194.400000
837.803955	198.100000
837.838257	189.600000
837.872620	189.700000
837.906982	199.900000
837.941284	192.800000
837.975647	191.400000
838.010010	198.800000
838.044312	190.700000
838.078674	188.500000
838.112976	192.800000
838.147339	195.400000
838.181702	190.900000
838.216003	202.200000
838.250366	196.000000
838.284668	194.500000
838.318970	184.000000
838.353333	191.000000
838.387634	191.300000
838.421936	191.900000
838.456299	193.900000
838.490601	200.000000
838.524902	196.900000
838.559265	199.500000
838.593567	195.200000
838.627869	186.200000
838.662170	196.000000
838.696472	186.000000
838.730774	190.200000
838.765137	197.500000
838.799377	177.900000
838.833740	194.000000
838.868042	199.600000
838.902283	185.000000
838.936646	200.100000
838.970947	194.300000
839.005188	197.200000
839.039551	185.800000
839.073792	199.300000
839.108093	190.400000
839.142395	203.400000
839.176697	185.500000
839.210937	193.700000
839.245300	205.100000
839.279541	185.200000
839.313843	190.100000
839.348145	196.600000
839.382385	195.700000
839.416687	197.500000
839.450989	196.000000
839.485229	192.400000
839.519531	188.600000
839.553833	199.100000
839.588013	193.900000
839.622314	192.300000
839.656555	194.300000
839.690857	191.900000
839.725159	186.300000
839.759460	191.100000
839.793640	189.300000
839.827942	190.800000
839.862183	187.300000
839.896423	193.700000
839.930725	200.800000
839.964966	198.800000
839.999207	200.000000
840.033508	199.100000
840.067688	189.800000
840.101990	201.700000
840.136230	192.500000
840.170471	200.700000
840.204712	189.900000
840.238953	188.600000
840.273193	194.100000
840.307434	196.300000
840.341736	189.400000
840.375916	187.200000
840.410217	191.800000
840.444397	197.300000
840.478638	196.500000
840.512878	199.500000
840.547119	194.500000
840.581360	194.300000
840.615601	203.800000
840.649780	202.400000
840.684021	193.500000
840.718262	200.900000
840.752441	199.500000
840.786682	194.200000
840.820862	195.300000
840.855103	200.500000
840.889343	194.900000
840.923584	196.500000
840.957764	196.100000
840.992004	193.500000
841.026184	207.500000
841.060425	191.900000
841.094666	189.200000
841.128845	195.700000
841.163025	194.700000
841.197266	195.600000
841.231445	193.800000
841.265686	192.500000
841.299866	189.200000
841.334045	201.500000
841.368286	192.000000
841.402405	200.200000
841.436646	196.900000
841.470825	190.500000
841.505005	192.300000
841.539185	188.300000
841.573425	190.400000
841.607544	194.000000
841.641785	193.500000
841.675964	187.400000
841.710144	192.200000
841.744324	191.700000
841.778503	191.400000
841.812683	187.900000
841.846863	201.900000
841.881042	198.700000
841.915222	190.900000
841.949402	209.000000
841.983521	184.200000
842.017700	193.500000
842.051880	194.000000
842.086060	195.800000
842.120239	193.900000
842.154419	192.200000
842.188538	195.100000
842.222717	189.900000
842.256897	203.200000
842.291016	193.000000
842.325195	194.800000
842.359375	204.300000
842.393494	202.100000
842.427673	194.700000
842.461853	197.300000
842.495911	203.500000
842.530090	195.000000
842.564209	192.500000
842.598389	193.900000
842.632568	193.500000
842.666626	197.500000
842.700806	191.000000
842.734985	192.400000
842.769043	196.700000
842.803223	190.800000
842.837402	192.800000
842.871460	190.400000
842.905640	202.200000
842.939697	189.200000
842.973877	196.200000
843.007996	198.300000
843.042175	202.400000
843.076233	191.600000
843.110413	195.400000
843.144470	202.300000
843.178589	197.500000
843.212769	190.400000
843.246826	197.800000
843.280945	192.100000
843.315125	191.400000
843.349182	189.400000
843.383301	200.500000
843.417419	206.400000
843.451538	193.700000
843.485657	193.400000
843.519714	192.100000
843.553833	197.400000
843.587952	191.200000
843.622070	190.000000
843.656128	197.900000
843.690247	192.000000
843.724304	191.100000
843.758423	193.900000
843.792542	191.400000
843.826599	193.900000
843.860718	192.900000
843.894836	186.900000
843.928894	193.200000
843.963013	196.700000
843.997070	189.100000
844.031128	187.400000
844.065247	199.000000
844.099304	197.900000
844.133362	194.700000
844.167480	196.100000
844.201599	199.600000
844.235596	196.800000
844.269714	194.100000
844.303711	195.800000
844.337830	186.000000
844.371948	197.600000
844.405945	192.200000
844.440063	188.200000
844.474121	208.400000
844.508118	192.300000
844.542236	192.700000
844.576294	193.000000
844.610352	188.500000
844.644409	192.500000
844.678406	183.900000
844.712524	198.100000
844.746582	201.100000
844.780640	191.400000
844.814636	193.900000
844.848755	204.700000
844.882751	192.000000
844.916809	198.700000
844.950867	195.200000
844.984863	202.100000
845.018921	192.700000
845.052979	191.300000
845.086975	195.400000
845.121033	189.000000
845.155090	189.100000
845.189087	201.000000
845.223145	191.300000
845.257141	193.300000
845.291199	197.000000
845.325256	201.600000
845.359253	196.000000
845.393250	204.800000
845.427307	193.100000
845.461304	195.200000
845.495361	195.500000
845.529358	205.300000
845.563354	191.400000
845.597412	189.900000
845.631409	202.300000
845.665405	200.500000
845.699463	199.500000
845.733459	191.400000
845.767456	201.900000
845.801453	191.900000
845.835449	200.000000
845.869446	197.300000
845.903503	197.000000
845.937439	189.800000
845.971497	202.000000
846.005493	188.700000
846.039429	197.800000
846.073486	203.600000
846.107483	191.400000
846.141418	193.200000
846.175476	193.600000
846.209473	200.700000
846.243408	190.700000
846.277405	194.700000
846.311401	189.300000
846.345337	194.800000
846.379395	199.500000
846.413330	190.900000
846.447327	202.200000
846.481323	188.700000
846.515259	190.600000
846.549255	195.300000
846.583252	196.700000
846.617187	188.800000
846.651184	196.100000
846.685120	193.100000
846.719055	200.900000
846.753052	198.900000
846.786987	200.000000
846.820984	188.800000
846.854980	200.500000
846.888916	189.400000
846.922852	196.900000
846.956848	203.700000
846.990723	189.300000
847.024719	196.300000
847.058716	192.800000
847.092590	203.100000
847.126587	195.200000
847.160522	191.300000
847.194458	198.100000
847.228455	191.000000
847.262390	187.900000
847.296265	192.500000
847.330261	200.200000
847.364136	192.200000
847.398132	190.900000
847.432068	194.000000
847.466003	192.300000
847.499939	194.500000
847.533875	196.000000
847.567749	191.300000
847.601746	190.400000
847.635681	198.100000
847.669556	185.500000
847.703491	198.200000
847.737427	208.600000
847.771301	188.800000
847.805237	195.400000
847.839233	195.300000
847.873108	194.200000
847.907043	193.100000
847.940918	200.700000
847.974854	196.400000
848.008789	198.800000
848.042664	195.000000
848.076538	196.900000
848.110474	193.100000
848.144348	194.700000
848.178284	188.600000
848.212219	194.500000
848.246094	191.500000
848.279968	197.300000
848.313904	198.300000
848.347778	195.400000
848.381653	193.500000
848.415588	189.300000
848.449463	192.300000
848.483337	196.900000
848.517212	198.800000
848.551086	195.300000
848.585022	189.200000
848.618835	203.000000
848.652771	191.700000
848.686646	190.800000
848.720520	202.900000
848.754395	193.500000
848.788330	199.800000
848.822144	200.100000
848.856018	193.700000
848.889954	203.400000
848.923767	189.800000
848.957642	190.600000
848.991577	198.400000
849.025391	191.800000
849.059265	193.900000
849.093079	191.500000
849.126953	187.400000
849.160828	200.000000
849.194641	196.200000
849.228577	191.200000
849.262451	192.300000
849.296265	192.200000
849.330139	188.400000
849.364014	195.400000
849.397827	197.000000
849.431702	192.500000
849.465515	199.400000
849.499329	185.800000
849.533203	190.700000
849.567078	184.000000
849.600891	198.000000
849.634766	193.300000
849.668518	199.100000
849.702393	193.700000
849.736267	187.900000
849.770020	205.500000
849.803894	198.500000
849.837769	193.900000
849.871521	194.200000
849.905396	200.600000
849.939270	191.200000
849.973022	193.100000
850.006897	198.700000
850.040710	196.800000
850.074524	199.000000
850.108337	192.400000
850.142151	198.900000
850.175964	202.100000
850.209778	194.800000
850.243530	181.300000
850.277405	199.800000
850.311218	193.300000
850.344971	191.700000
850.378845	203.200000
850.412659	193.000000
850.446411	194.700000
850.480225	194.500000
850.514038	200.600000
850.547791	197.100000
850.581665	194.500000
850.615417	190.700000
850.649231	193.300000
850.683044	195.100000
850.716858	193.100000
850.750610	195.000000
850.784424	197.500000
850.818176	190.200000
850.851929	191.000000
850.885742	191.600000
850.919495	193.800000
850.953308	200.000000
850.987122	202.400000
851.020874	188.200000
851.054626	186.900000
851.088440	197.500000
851.122192	198.300000
851.156006	193.700000
851.189697	193.900000
851.223511	189.800000
851.257263	197.900000
851.291077	197.300000
851.324829	192.600000
851.358582	191.400000
851.392334	190.900000
851.426086	190.900000
851.459900	203.400000
851.493591	194.100000
851.527344	196.100000
851.561157	193.500000
851.594849	198.400000
851.628662	196.200000
851.662415	201.700000
851.696106	195.900000
851.729858	199.500000
851.763611	188.500000
851.797363	196.300000
851.831116	189.700000
851.864868	198.200000
851.898560	197.600000
851.932312	192.200000
851.966064	196.600000
851.999817	195.500000
852.033569	192.900000
852.067261	197.900000
852.101013	190.700000
852.134766	194.500000
852.168457	183.500000
852.202209	198.600000
852.235901	191.400000
852.269592	198.100000
852.303345	204.300000
852.337036	197.900000
852.370789	194.200000
852.404541	197.800000
852.438171	189.600000
852.471924	192.900000
852.505676	186.200000
852.539307	195.900000
852.573059	190.300000
852.606812	191.300000
852.640442	192.900000
852.674194	198.100000
852.707886	204.200000
852.741577	201.500000
852.775269	188.300000
852.809021	194.200000
852.842651	196.800000
852.876404	198.800000
852.910034	196.000000
852.943787	200.100000
852.977478	198.300000
853.011108	191.400000
853.044861	193.100000
853.078552	200.600000
853.112183	197.000000
853.145874	196.700000
853.179626	186.000000
853.213257	196.200000
853.246948	192.900000
853.280640	203.100000
853.314270	194.700000
853.347961	202.600000
853.381653	197.400000
853.415283	198.700000
853.448975	191.400000
853.482605	194.700000
853.516296	194.400000
853.549988	188.300000
853.583618	196.200000
853.617310	194.600000
853.651001	196.000000
853.684631	188.100000
853.718323	193.600000
853.751953	202.000000
853.785583	184.600000
853.819275	199.400000
853.852966	194.400000
853.886536	184.400000
853.920227	189.100000
853.953918	199.500000
853.987488	191.700000
854.021179	197.300000
854.054749	202.100000
854.088440	196.100000
854.122131	189.400000
854.155701	197.500000
854.189331	191.000000
854.223022	197.300000
854.256592	196.100000
854.290283	189.900000
854.323914	196.800000
854.357483	195.600000
854.391174	196.400000
854.424744	205.200000
854.458374	196.400000
854.492065	204.300000
854.525696	193.400000
854.559265	200.800000
854.592896	204.600000
854.626465	195.400000
854.660095	195.000000
854.693787	196.300000
854.727356	192.900000
854.760986	198.600000
854.794617	195.600000
854.828186	194.400000
854.861816	197.400000
854.895447	196.600000
854.929016	196.400000
854.962585	198.300000
854.996155	203.100000
855.029785	197.300000
855.063416	195.800000
855.097046	200.100000
855.130615	188.100000
855.164185	201.400000
855.197754	194.200000
855.231384	197.600000
855.264954	192.200000
855.298523	198.200000
855.332153	194.600000
855.365723	203.700000
855.399292	190.400000
855.432922	194.300000
855.466492	196.700000
855.500061	191.000000
855.533630	189.100000
855.567200	198.000000
855.600769	198.900000
855.634338	198.500000
855.667969	196.400000
855.701477	190.500000
855.735046	191.200000
855.768616	185.500000
855.802185	196.900000
855.835754	209.500000
855.869324	185.800000
855.902893	192.500000
855.936401	201.500000
855.969971	196.000000
856.003540	186.300000
856.037109	198.300000
856.070618	193.800000
856.104187	187.400000
856.137695	192.400000
856.171265	184.700000
856.204834	193.900000
856.238403	200.100000
856.271912	192.700000
856.305481	195.100000
856.338989	189.100000
856.372559	198.600000
856.406128	196.400000
856.439636	200.600000
856.473145	192.500000
856.506653	202.400000
856.540222	195.100000
856.573792	202.600000
856.607300	199.200000
856.640808	187.800000
856.674377	195.400000
856.707825	222.700000
856.741394	198.900000
856.774902	190.600000
856.808472	186.700000
856.841980	197.400000
856.875488	203.900000
856.908936	186.000000
856.942505	191.700000
856.976013	193.200000
857.009521	189.300000
857.043030	194.400000
857.076477	193.000000
857.110046	199.600000
857.143555	195.600000
857.177063	201.000000
857.210571	191.600000
857.244080	187.400000
857.277527	198.100000
857.311035	193.800000
857.344543	198.300000
857.378052	194.800000
857.411499	197.900000
857.445068	204.600000
857.478516	193.200000
857.512024	189.600000
857.545532	192.000000
857.578979	196.700000
857.612427	194.100000
857.645874	191.700000
857.679382	195.600000
857.712891	198.500000
857.746399	194.700000
857.779846	199.100000
857.813354	200.200000
857.846741	193.500000
857.880249	190.600000
857.913757	197.000000
857.947266	197.300000
857.980652	198.500000
858.014160	192.300000
858.047546	194.200000
858.081055	192.600000
858.114563	203.000000
858.147949	188.500000
858.181458	199.500000
858.214844	192.800000
858.248352	187.000000
858.281799	200.100000
858.315308	208.800000
858.348694	197.300000
858.382141	202.300000
858.415588	197.700000
858.449036	200.700000
858.482483	197.600000
858.515930	190.900000
858.549377	193.700000
858.582825	201.700000
858.616211	196.900000
858.649658	196.300000
858.683105	190.300000
858.716553	190.200000
858.750000	187.700000
858.783386	190.700000
858.816833	186.200000
858.850281	196.000000
858.883728	197.000000
858.917114	193.400000
858.950562	203.100000
858.983948	202.900000
859.017395	198.800000
859.050781	192.400000
859.084167	190.100000
859.117615	188.100000
859.151062	197.500000
859.184448	190.300000
859.217834	192.100000
859.251282	192.700000
859.284668	190.600000
859.318054	185.300000
859.351440	192.700000
859.384888	202.900000
859.418274	186.900000
859.451721	186.100000
859.485046	197.700000
859.518494	196.400000
859.551819	190.500000
859.585266	197.000000
859.618652	197.900000
859.652039	188.800000
859.685425	191.200000
859.718811	187.000000
859.752197	183.800000
859.785583	202.800000
859.819031	203.700000
859.852356	197.900000
859.885742	191.500000
859.919067	194.000000
859.952454	192.700000
859.985901	198.700000
860.019287	193.600000
860.052612	0.000000
860.085999	0.000000
860.119324	0.000000
860.152710	0.000000
860.186096	0.000000
860.219421	0.000000
860.252808	0.000000
860.286133	0.000000
860.319519	0.000000
860.352905	0.000000
860.386292	0.000000
860.419617	0.000000
860.452942	0.000000
860.486267	0.000000
860.519653	0.000000
860.553040	0.000000
860.586365	0.000000
860.619690	0.000000
860.653076	0.000000
860.686340	0.000000
860.719727	0.000000
860.753113	0.000000
860.786377	0.000000
860.819763	0.000000
860.853027	0.000000
860.886414	0.000000
860.919739	0.000000
860.953125	0.000000
860.986389	0.000000
861.019714	0.000000
861.053040	0.000000
861.086365	0.000000
861.119690	0.000000
861.153076	0.000000
861.186340	0.000000
861.219666	0.000000
861.252930	0.000000
861.286316	0.000000
861.319641	0.000000
861.352905	0.000000
861.386230	0.000000
861.419495	0.000000
861.452820	0.000000
861.486145	0.000000
861.519470	0.000000
861.552734	0.000000
861.586060	0.000000
861.619324	0.000000
861.652649	0.000000
861.685974	0.000000
861.719238	0.000000
861.752563	0.000000
861.785828	0.000000
861.819092	0.000000
861.852417	0.000000
861.885742	0.000000
861.918945	0.000000
861.952271	0.000000
861.985535	0.000000
862.018799	0.000000
862.052124	0.000000
862.085449	0.000000
862.118652	0.000000
862.151978	0.000000
862.185181	0.000000
862.218506	0.000000
862.251770	0.000000
862.285034	0.000000
862.318298	0.000000
862.351562	0.000000
862.384827	0.000000
862.418091	0.000000
862.451355	0.000000
862.484619	0.000000
862.517883	0.000000
862.551086	0.000000
862.584351	0.000000
862.617676	0.000000
862.650940	0.000000
862.684143	0.000000
862.717407	0.000000
862.750610	0.000000
862.783875	0.000000
862.817139	0.000000
862.850342	0.000000
862.883606	0.000000
862.916870	0.000000
862.950073	0.000000
862.983337	0.000000
863.016602	0.000000
863.049805	0.000000
863.083069	0.000000
863.116211	0.000000
863.149475	0.000000
863.182739	0.000000
863.216003	0.000000
863.249146	0.000000
863.282410	0.000000
863.315613	0.000000
863.348816	0.000000
863.382080	0.000000
863.415222	0.000000
863.448486	0.000000
863.481689	0.000000
863.514893	0.000000
863.548157	0.000000
863.581360	0.000000
863.614502	0.000000
863.647766	0.000000
863.680908	0.000000
863.714172	0.000000
863.747375	0.000000
863.780579	0.000000
863.813721	0.000000
863.846985	0.000000
863.880127	0.000000
863.913330	0.000000
863.946533	0.000000
863.979675	0.000000
864.012939	0.000000
