Model Number: SPM-001-M   
Serial Number: 10090201
Firmware Version: 004.17.6
Exposure Time: 500000.000000us
Data Taken on: 10-03-2021 11:05:38.985
Wavelength	Amplitude
733.770752	0.000000
733.808716	0.000000
733.846619	0.000000
733.884583	0.000000
733.922546	0.000000
733.960449	0.000000
733.998413	0.000000
734.036377	0.000000
734.074219	0.000000
734.112183	0.000000
734.150085	0.000000
734.188049	0.000000
734.226013	0.000000
734.263916	0.000000
734.301819	0.000000
734.339783	0.000000
734.377686	0.000000
734.415588	0.000000
734.453552	0.000000
734.491455	0.000000
734.529419	0.000000
734.567322	0.000000
734.605225	0.000000
734.643127	0.000000
734.681091	0.000000
734.718994	0.000000
734.756897	0.000000
734.794800	0.000000
734.832703	0.000000
734.870667	0.000000
734.908508	0.000000
734.946472	0.000000
734.984375	0.000000
735.022278	0.000000
735.060181	0.000000
735.098083	0.000000
735.135986	0.000000
735.173889	0.000000
735.211792	0.000000
735.249695	0.000000
735.287598	0.000000
735.325439	0.000000
735.363403	0.000000
735.401306	0.000000
735.439148	0.000000
735.477051	0.000000
735.515015	0.000000
735.552856	0.000000
735.590759	0.000000
735.628662	0.000000
735.666504	0.000000
735.704407	0.000000
735.742310	0.000000
735.780212	0.000000
735.818115	0.000000
735.856018	0.000000
735.893860	0.000000
735.931763	0.000000
735.969604	0.000000
736.007507	0.000000
736.045410	0.000000
736.083252	0.000000
736.121094	0.000000
736.158997	0.000000
736.196838	0.000000
736.234741	0.000000
736.272644	0.000000
736.310486	0.000000
736.348389	0.000000
736.386230	0.000000
736.424072	0.000000
736.461975	0.000000
736.499878	0.000000
736.537720	0.000000
736.575562	0.000000
736.613403	0.000000
736.651306	0.000000
736.689148	0.000000
736.726990	0.000000
736.764893	0.000000
736.802734	0.000000
736.840576	0.000000
736.878418	0.000000
736.916321	0.000000
736.954102	0.000000
736.992004	0.000000
737.029846	0.000000
737.067688	0.000000
737.105530	0.000000
737.143372	0.000000
737.181213	0.000000
737.219116	0.000000
737.256897	0.000000
737.294739	0.000000
737.332642	0.000000
737.370422	0.000000
737.408325	0.000000
737.446167	0.000000
737.483948	0.000000
737.521790	0.000000
737.559692	0.000000
737.597473	0.000000
737.635315	0.000000
737.673157	0.000000
737.710999	0.000000
737.748840	0.000000
737.786621	0.000000
737.824463	0.000000
737.862305	0.000000
737.900085	0.000000
737.937927	0.000000
737.975769	0.000000
738.013550	0.000000
738.051392	0.000000
738.089233	0.000000
738.127014	0.000000
738.164856	0.000000
738.202698	0.000000
738.240479	0.000000
738.278320	0.000000
738.316162	0.000000
738.353943	0.000000
738.391785	0.000000
738.429565	0.000000
738.467407	0.000000
738.505188	0.000000
738.542969	0.000000
738.580811	0.000000
738.618652	0.000000
738.656372	0.000000
738.694214	0.000000
738.732056	0.000000
738.769836	0.000000
738.807617	0.000000
738.845459	0.000000
738.883240	0.000000
738.921021	0.000000
738.958862	0.000000
738.996582	0.000000
739.034424	0.000000
739.072205	0.000000
739.109985	0.000000
739.147827	0.000000
739.185547	0.000000
739.223389	0.000000
739.261169	0.000000
739.298889	0.000000
739.336731	0.000000
739.374512	0.000000
739.412292	0.000000
739.450073	0.000000
739.487854	0.000000
739.525635	0.000000
739.563416	0.000000
739.601135	0.000000
739.638977	0.000000
739.676758	0.000000
739.714478	0.000000
739.752258	0.000000
739.790100	0.000000
739.827820	0.000000
739.865601	0.000000
739.903381	0.000000
739.941101	0.000000
739.978882	197.400000
740.016724	190.900000
740.054443	197.600000
740.092224	189.500000
740.130005	188.900000
740.167725	191.100000
740.205505	189.600000
740.243225	200.300000
740.281006	195.000000
740.318787	186.100000
740.356506	199.800000
740.394287	197.800000
740.432068	188.900000
740.469727	185.600000
740.507507	197.600000
740.545288	192.600000
740.583008	196.000000
740.620789	192.400000
740.658569	185.100000
740.696228	192.300000
740.734009	199.200000
740.771790	179.900000
740.809509	197.500000
740.847229	187.800000
740.884949	190.700000
740.922729	185.000000
740.960449	191.500000
740.998169	187.200000
741.035950	189.600000
741.073669	195.100000
741.111389	194.100000
741.149170	201.900000
741.186890	202.300000
741.224609	195.900000
741.262329	194.500000
741.300110	202.100000
741.337769	188.800000
741.375549	187.000000
741.413208	194.800000
741.450989	188.400000
741.488708	189.900000
741.526367	191.300000
741.564148	196.300000
741.601868	197.700000
741.639526	193.200000
741.677307	193.900000
741.715027	194.300000
741.752686	188.700000
741.790466	199.600000
741.828186	196.300000
741.865845	188.000000
741.903564	184.400000
741.941345	192.800000
741.979004	189.100000
742.016724	195.500000
742.054382	194.600000
742.092102	198.100000
742.129822	186.000000
742.167480	191.100000
742.205200	192.900000
742.242920	194.000000
742.280640	197.900000
742.318359	188.700000
742.356079	191.000000
742.393738	196.800000
742.431396	193.000000
742.469116	195.800000
742.506775	184.200000
742.544495	195.400000
742.582214	198.200000
742.619873	191.200000
742.657593	200.600000
742.695251	197.600000
742.732971	192.900000
742.770630	194.500000
742.808289	194.000000
742.846008	193.000000
742.883728	196.400000
742.921326	192.600000
742.959045	190.200000
742.996765	193.600000
743.034424	192.700000
743.072083	190.900000
743.109802	192.800000
743.147400	185.900000
743.185120	193.500000
743.222839	194.300000
743.260437	198.000000
743.298157	196.400000
743.335754	184.800000
743.373474	193.600000
743.411133	185.700000
743.448792	193.300000
743.486450	192.600000
743.524170	186.500000
743.561768	192.800000
743.599487	199.800000
743.637146	203.500000
743.674744	190.900000
743.712463	189.500000
743.750122	195.100000
743.787720	194.500000
743.825439	190.400000
743.863037	191.100000
743.900696	193.300000
743.938416	216.600000
743.976013	192.900000
744.013672	201.200000
744.051331	198.400000
744.088928	201.100000
744.126587	200.800000
744.164307	193.800000
744.201904	189.800000
744.239563	195.700000
744.277222	197.600000
744.314819	191.900000
744.352478	200.300000
744.390137	195.000000
744.427734	195.700000
744.465393	189.900000
744.502991	189.400000
744.540649	196.300000
744.578308	195.600000
744.615906	187.200000
744.653564	183.100000
744.691223	197.400000
744.728821	186.300000
744.766418	192.700000
744.804077	196.100000
744.841675	190.000000
744.879333	185.600000
744.916992	192.100000
744.954529	191.300000
744.992187	199.500000
745.029785	192.000000
745.067444	191.000000
745.105042	194.400000
745.142639	197.300000
745.180298	202.200000
745.217896	192.400000
745.255493	191.600000
745.293152	198.300000
745.330750	195.400000
745.368347	202.600000
745.405945	195.500000
745.443604	194.300000
745.481140	196.900000
745.518799	192.100000
745.556396	196.800000
745.593994	198.200000
745.631592	191.500000
745.669189	189.000000
745.706787	195.100000
745.744385	189.600000
745.781982	195.500000
745.819580	192.800000
745.857178	191.700000
745.894775	195.900000
745.932373	194.000000
745.969971	194.900000
746.007568	184.000000
746.045166	204.400000
746.082764	198.400000
746.120300	197.500000
746.157898	197.500000
746.195557	194.200000
746.233093	186.600000
746.270691	197.500000
746.308228	195.000000
746.345825	199.900000
746.383423	197.100000
746.420959	188.700000
746.458557	190.500000
746.496155	189.300000
746.533691	192.100000
746.571289	188.100000
746.608887	193.800000
746.646423	194.600000
746.684021	194.400000
746.721619	190.300000
746.759155	194.200000
746.796753	186.600000
746.834351	186.900000
746.871826	189.100000
746.909424	201.100000
746.946960	194.500000
746.984558	193.000000
747.022156	190.600000
747.059631	200.200000
747.097229	195.200000
747.134827	191.900000
747.172363	200.700000
747.209900	195.600000
747.247498	188.100000
747.285034	202.400000
747.322571	200.300000
747.360168	192.900000
747.397644	184.000000
747.435242	197.900000
747.472778	202.000000
747.510315	191.300000
747.547913	190.300000
747.585388	201.700000
747.622925	192.500000
747.660522	185.500000
747.697998	188.300000
747.735596	193.200000
747.773132	189.700000
747.810669	194.300000
747.848206	196.200000
747.885742	189.300000
747.923279	186.600000
747.960815	197.800000
747.998352	193.400000
748.035889	198.600000
748.073425	198.900000
748.110901	191.300000
748.148437	188.800000
748.185974	193.700000
748.223511	202.200000
748.261047	194.900000
748.298584	195.400000
748.336060	192.800000
748.373596	196.600000
748.411133	211.400000
748.448608	189.300000
748.486145	198.000000
748.523682	202.600000
748.561218	198.800000
748.598755	195.200000
748.636292	196.800000
748.673706	192.100000
748.711243	198.800000
748.748718	195.600000
748.786255	193.100000
748.823792	193.000000
748.861267	188.000000
748.898804	196.200000
748.936340	196.100000
748.973816	192.400000
749.011292	198.700000
749.048828	195.700000
749.086304	195.000000
749.123840	205.100000
749.161316	188.300000
749.198792	204.000000
749.236328	199.100000
749.273743	195.000000
749.311279	191.500000
749.348816	195.500000
749.386230	194.100000
749.423767	181.800000
749.461304	195.900000
749.498718	195.000000
749.536255	200.600000
749.573730	206.400000
749.611206	200.000000
749.648682	192.600000
749.686218	193.400000
749.723633	199.300000
749.761169	191.500000
749.798645	190.300000
749.836060	191.800000
749.873596	189.800000
749.911011	191.100000
749.948547	201.100000
749.986023	193.700000
750.023437	192.800000
750.060913	186.700000
750.098450	187.100000
750.135864	191.600000
750.173340	194.900000
750.210815	198.200000
750.248291	188.500000
750.285767	194.500000
750.323242	200.900000
750.360657	195.800000
750.398132	188.400000
750.435608	197.800000
750.473022	189.600000
750.510498	189.900000
750.547974	188.500000
750.585449	191.100000
750.622925	181.800000
750.660339	203.700000
750.697815	193.500000
750.735291	192.400000
750.772644	193.600000
750.810120	194.400000
750.847595	195.200000
750.885010	190.100000
750.922485	202.600000
750.959961	193.600000
750.997375	199.800000
751.034851	197.600000
751.072266	197.100000
751.109680	187.900000
751.147156	199.200000
751.184570	197.000000
751.221985	194.600000
751.259460	184.400000
751.296875	192.200000
751.334290	194.900000
751.371765	198.200000
751.409180	198.800000
751.446594	199.800000
751.484070	196.500000
751.521423	195.200000
751.558899	195.100000
751.596375	200.900000
751.633728	200.900000
751.671204	208.300000
751.708618	189.700000
751.746033	194.300000
751.783447	188.500000
751.820801	190.300000
751.858276	196.000000
751.895691	194.400000
751.933105	191.300000
751.970520	188.200000
752.007935	192.200000
752.045349	198.400000
752.082764	194.000000
752.120178	192.700000
752.157532	189.000000
752.195007	192.900000
752.232422	197.000000
752.269775	199.300000
752.307190	196.700000
752.344543	188.500000
752.382019	191.300000
752.419434	193.100000
752.456787	194.600000
752.494202	198.800000
752.531616	195.700000
752.568970	198.400000
752.606384	194.400000
752.643799	196.700000
752.681152	203.300000
752.718567	198.400000
752.755981	184.500000
752.793335	198.100000
752.830750	185.300000
752.868164	201.800000
752.905518	189.100000
752.942932	198.100000
752.980225	188.300000
753.017639	200.600000
753.055054	190.000000
753.092407	196.900000
753.129822	199.500000
753.167175	203.900000
753.204529	193.200000
753.241943	191.100000
753.279358	187.700000
753.316650	198.100000
753.354065	196.500000
753.391479	197.800000
753.428772	202.600000
753.466187	197.700000
753.503479	186.400000
753.540894	192.600000
753.578308	189.700000
753.615601	187.200000
753.653015	193.300000
753.690369	191.300000
753.727722	188.900000
753.765076	187.200000
753.802490	189.300000
753.839783	184.300000
753.877136	191.500000
753.914551	208.600000
753.951843	189.000000
753.989258	197.900000
754.026611	195.100000
754.063904	195.800000
754.101257	188.600000
754.138611	185.400000
754.175964	195.500000
754.213318	205.800000
754.250610	187.500000
754.288025	191.100000
754.325378	189.200000
754.362671	198.500000
754.400024	192.100000
754.437378	202.000000
754.474670	204.300000
754.512085	189.700000
754.549438	197.000000
754.586731	191.100000
754.624084	193.200000
754.661438	188.000000
754.698730	202.100000
754.736084	190.600000
754.773376	194.000000
754.810730	197.400000
754.848083	193.500000
754.885315	196.500000
754.922668	186.000000
754.960022	188.300000
754.997314	199.400000
755.034668	195.200000
755.072021	196.200000
755.109253	192.500000
755.146606	202.400000
755.183960	193.500000
755.221252	204.500000
755.258545	201.100000
755.295898	201.300000
755.333191	203.300000
755.370544	199.600000
755.407776	194.700000
755.445129	195.800000
755.482422	202.700000
755.519714	193.000000
755.557068	189.300000
755.594360	187.200000
755.631653	201.000000
755.668945	204.600000
755.706299	199.900000
755.743530	208.400000
755.780884	205.300000
755.818176	202.900000
755.855408	202.500000
755.892761	199.100000
755.930054	200.100000
755.967346	201.100000
756.004639	203.000000
756.041870	198.900000
756.079224	204.900000
756.116516	195.200000
756.153748	203.800000
756.191040	206.200000
756.228394	203.800000
756.265625	195.000000
756.302917	199.500000
756.340210	195.400000
756.377441	206.100000
756.414795	207.200000
756.452087	200.900000
756.489319	192.900000
756.526611	204.100000
756.563843	200.500000
756.601135	212.900000
756.638428	210.000000
756.675659	201.600000
756.712952	206.500000
756.750244	206.200000
756.787476	202.100000
756.824768	210.600000
756.862061	199.200000
756.899292	249.000000
756.936584	206.600000
756.973816	215.300000
757.011047	215.500000
757.048340	202.600000
757.085632	202.500000
757.122864	218.600000
757.160156	201.500000
757.197327	206.700000
757.234619	209.600000
757.271912	204.200000
757.309082	210.300000
757.346375	200.800000
757.383667	212.600000
757.420837	206.100000
757.458130	207.300000
757.495422	203.100000
757.532593	209.200000
757.569885	196.800000
757.607117	202.200000
757.644348	207.300000
757.681580	220.300000
757.718811	193.800000
757.756042	208.200000
757.793335	203.000000
757.830505	213.900000
757.867798	204.200000
757.905029	203.500000
757.942200	208.600000
757.979492	204.100000
758.016724	204.800000
758.053894	206.200000
758.091187	226.000000
758.128418	210.500000
758.165588	206.200000
758.202820	220.900000
758.240112	210.300000
758.277283	219.500000
758.314514	209.200000
758.351685	207.700000
758.388916	218.700000
758.426147	216.800000
758.463379	219.600000
758.500610	213.500000
758.537842	210.100000
758.575012	218.200000
758.612244	206.300000
758.649475	225.100000
758.686646	203.900000
758.723877	217.700000
758.761108	219.000000
758.798279	211.100000
758.835510	214.600000
758.872742	219.900000
758.909851	214.500000
758.947083	215.400000
758.984253	215.400000
759.021484	219.200000
759.058716	217.000000
759.095886	218.900000
759.133057	214.200000
759.170288	217.900000
759.207458	210.900000
759.244690	227.500000
759.281860	225.700000
759.319031	214.000000
759.356262	213.900000
759.393433	212.600000
759.430603	214.800000
759.467773	215.000000
759.505005	222.600000
759.542175	220.900000
759.579346	216.300000
759.616516	217.300000
759.653687	218.400000
759.690918	211.800000
759.728027	219.600000
759.765259	218.700000
759.802429	220.200000
759.839539	217.300000
759.876770	224.200000
759.913940	225.400000
759.951111	221.400000
759.988281	218.000000
760.025452	216.900000
760.062561	212.200000
760.099792	228.100000
760.136963	221.100000
760.174072	219.000000
760.211243	213.800000
760.248413	216.100000
760.285583	214.600000
760.322754	231.900000
760.359863	226.500000
760.397034	227.300000
760.434204	219.200000
760.471375	222.100000
760.508545	218.400000
760.545715	221.400000
760.582825	216.300000
760.619995	226.400000
760.657166	214.200000
760.694275	227.200000
760.731445	224.500000
760.768555	224.000000
760.805664	226.300000
760.842834	223.800000
760.879944	227.100000
760.917114	225.600000
760.954285	224.000000
760.991394	217.900000
761.028564	232.000000
761.065674	229.100000
761.102783	221.900000
761.139954	231.100000
761.177124	231.300000
761.214172	232.900000
761.251343	226.900000
761.288452	228.000000
761.325562	233.800000
761.362732	223.500000
761.399841	227.700000
761.436951	231.100000
761.474121	227.800000
761.511169	229.800000
761.548340	236.600000
761.585449	235.300000
761.622559	237.800000
761.659668	233.000000
761.696838	239.700000
761.733887	236.400000
761.771057	233.800000
761.808167	234.200000
761.845276	241.300000
761.882385	247.900000
761.919434	238.100000
761.956604	258.000000
761.993713	234.400000
762.030762	245.600000
762.067871	238.200000
762.105042	237.400000
762.142090	246.500000
762.179199	243.200000
762.216309	245.800000
762.253418	258.700000
762.290527	250.700000
762.327637	248.000000
762.364685	236.800000
762.401794	248.300000
762.438904	246.800000
762.475952	241.200000
762.513062	241.200000
762.550110	241.800000
762.587219	256.000000
762.624329	257.200000
762.661377	250.400000
762.698486	250.200000
762.735596	247.200000
762.772644	243.000000
762.809753	240.900000
762.846863	249.300000
762.883911	252.600000
762.921021	255.700000
762.958069	249.700000
762.995117	260.900000
763.032227	260.100000
763.069336	252.100000
763.106323	247.800000
763.143433	246.600000
763.180481	252.300000
763.217590	255.600000
763.254639	249.800000
763.291687	254.000000
763.328735	261.500000
763.365845	255.000000
763.402893	255.000000
763.439941	258.900000
763.477051	261.100000
763.514038	263.000000
763.551147	254.700000
763.588196	258.600000
763.625244	255.900000
763.662292	266.700000
763.699402	268.900000
763.736389	265.400000
763.773499	274.000000
763.810486	269.400000
763.847534	264.400000
763.884644	268.100000
763.921631	262.100000
763.958679	276.500000
763.995728	263.200000
764.032776	275.200000
764.069824	260.700000
764.106873	270.800000
764.143860	277.300000
764.180969	268.600000
764.218018	279.200000
764.255005	269.200000
764.292053	272.400000
764.329102	282.800000
764.366089	282.500000
764.403137	279.700000
764.440125	268.600000
764.477173	272.800000
764.514221	275.900000
764.551208	273.400000
764.588257	271.700000
764.625305	281.700000
764.662292	287.800000
764.699341	289.700000
764.736389	283.000000
764.773376	298.000000
764.810425	286.100000
764.847473	292.900000
764.884399	287.100000
764.921448	295.000000
764.958435	294.200000
764.995483	282.900000
765.032532	300.100000
765.069458	285.500000
765.106506	286.900000
765.143555	285.200000
765.180481	291.300000
765.217529	298.500000
765.254578	285.300000
765.291504	291.600000
765.328552	291.900000
765.365540	286.500000
765.402527	302.800000
765.439575	286.500000
765.476501	283.900000
765.513550	285.400000
765.550537	292.600000
765.587463	297.800000
765.624512	289.000000
765.661499	280.700000
765.698486	299.100000
765.735474	290.000000
765.772461	294.000000
765.809448	302.100000
765.846436	299.800000
765.883423	303.400000
765.920410	297.900000
765.957397	293.900000
765.994385	298.500000
766.031311	306.000000
766.068359	299.100000
766.105286	303.600000
766.142273	308.000000
766.179260	304.500000
766.216187	296.700000
766.253174	294.000000
766.290161	303.000000
766.327148	307.800000
766.364136	308.800000
766.401123	325.300000
766.438049	301.500000
766.475037	318.100000
766.512024	311.800000
766.548950	328.400000
766.585937	322.100000
766.622864	320.000000
766.659790	314.900000
766.696777	307.200000
766.733704	323.400000
766.770691	313.400000
766.807678	328.700000
766.844604	324.000000
766.881531	323.700000
766.918518	334.400000
766.955444	334.500000
766.992432	330.000000
767.029358	331.900000
767.066284	337.000000
767.103271	330.700000
767.140198	360.300000
767.177124	349.300000
767.214050	341.700000
767.251038	340.300000
767.287964	340.600000
767.324890	335.900000
767.361816	342.900000
767.398743	349.000000
767.435730	345.100000
767.472595	348.700000
767.509583	354.100000
767.546509	343.000000
767.583374	350.200000
767.620361	342.700000
767.657288	350.300000
767.694214	350.900000
767.731140	349.600000
767.768066	350.500000
767.804993	357.300000
767.841919	347.100000
767.878845	356.500000
767.915710	365.200000
767.952698	357.700000
767.989563	359.000000
768.026489	362.500000
768.063416	355.400000
768.100281	355.400000
768.137207	370.400000
768.174133	369.000000
768.211060	370.700000
768.247986	366.000000
768.284912	370.000000
768.321777	369.300000
768.358704	369.400000
768.395630	373.300000
768.432495	367.500000
768.469421	373.900000
768.506348	380.800000
768.543152	386.900000
768.580078	384.300000
768.616943	387.100000
768.653870	388.400000
768.690796	387.800000
768.727661	386.700000
768.764587	388.400000
768.801453	382.000000
768.838318	394.500000
768.875244	393.700000
768.912109	396.300000
768.948975	390.400000
768.985901	393.600000
769.022766	393.800000
769.059631	400.200000
769.096558	396.100000
769.133362	398.800000
769.170288	399.300000
769.207214	398.900000
769.244019	406.300000
769.280945	406.300000
769.317810	412.800000
769.354675	408.600000
769.391541	416.500000
769.428406	416.700000
769.465271	424.800000
769.502136	415.400000
769.539062	417.400000
769.575867	416.100000
769.612732	416.600000
769.649597	428.200000
769.686462	431.700000
769.723328	425.400000
769.760193	420.400000
769.797058	423.600000
769.833923	435.200000
769.870728	432.100000
769.907593	433.500000
769.944519	433.000000
769.981323	435.500000
770.018188	438.000000
770.055054	431.800000
770.091858	435.600000
770.128723	446.900000
770.165588	454.200000
770.202393	436.200000
770.239258	451.100000
770.276062	446.600000
770.312927	447.900000
770.349792	452.200000
770.386597	451.000000
770.423462	462.200000
770.460327	471.400000
770.497131	455.900000
770.533997	446.900000
770.570862	463.500000
770.607605	462.300000
770.644470	454.900000
770.681335	464.100000
770.718140	458.900000
770.754944	451.300000
770.791809	452.800000
770.828613	454.900000
770.865479	458.700000
770.902222	468.700000
770.939087	458.500000
770.975952	451.600000
771.012695	455.700000
771.049561	473.400000
771.086365	461.900000
771.123169	461.400000
771.159973	463.900000
771.196838	462.600000
771.233582	467.600000
771.270447	466.900000
771.307251	468.000000
771.344055	466.600000
771.380859	471.300000
771.417664	462.700000
771.454468	476.800000
771.491272	476.000000
771.528076	475.900000
771.564880	474.500000
771.601685	486.300000
771.638428	473.100000
771.675293	482.800000
771.712097	472.500000
771.748840	491.200000
771.785645	482.500000
771.822449	487.700000
771.859253	488.000000
771.896057	487.700000
771.932861	497.700000
771.969604	489.500000
772.006409	478.500000
772.043213	497.700000
772.079956	496.600000
772.116760	487.700000
772.153503	490.900000
772.190308	505.200000
772.227112	492.500000
772.263855	491.500000
772.300659	500.000000
772.337463	509.300000
772.374207	497.100000
772.411011	493.900000
772.447754	495.200000
772.484497	518.400000
772.521301	510.400000
772.558105	511.900000
772.594849	514.500000
772.631592	518.500000
772.668396	520.400000
772.705139	525.300000
772.741882	528.000000
772.778625	538.200000
772.815430	544.300000
772.852173	536.000000
772.888916	545.100000
772.925720	549.600000
772.962463	558.100000
772.999207	549.900000
773.035950	555.400000
773.072754	556.300000
773.109436	552.700000
773.146240	555.900000
773.182922	555.400000
773.219727	566.000000
773.256470	562.800000
773.293152	546.700000
773.329956	558.900000
773.366699	561.200000
773.403381	556.100000
773.440186	564.400000
773.476929	570.200000
773.513611	563.100000
773.550354	564.500000
773.587158	566.300000
773.623840	563.500000
773.660583	575.700000
773.697327	594.200000
773.734009	580.400000
773.770813	576.200000
773.807495	578.000000
773.844238	582.200000
773.880981	596.200000
773.917664	595.900000
773.954407	599.600000
773.991150	596.000000
774.027832	597.700000
774.064575	590.300000
774.101318	600.800000
774.138000	607.600000
774.174744	604.400000
774.211487	608.000000
774.248108	597.800000
774.284851	599.600000
774.321594	613.800000
774.358276	618.100000
774.395020	623.200000
774.431702	624.200000
774.468384	614.200000
774.505127	613.000000
774.541809	630.100000
774.578491	643.600000
774.615234	640.600000
774.651917	632.900000
774.688599	634.200000
774.725342	642.600000
774.762024	646.500000
774.798706	657.900000
774.835449	652.100000
774.872070	662.400000
774.908813	657.600000
774.945496	647.500000
774.982178	650.700000
775.018860	660.500000
775.055542	663.400000
775.092224	663.200000
775.128967	674.700000
775.165588	667.800000
775.202271	658.500000
775.239014	676.000000
775.275635	677.400000
775.312317	671.900000
775.349060	680.600000
775.385681	678.900000
775.422363	671.300000
775.459045	683.300000
775.495667	683.800000
775.532410	690.300000
775.569092	691.700000
775.605713	687.300000
775.642395	684.400000
775.679016	687.600000
775.715698	695.600000
775.752380	702.600000
775.789001	695.200000
775.825684	692.900000
775.862366	698.800000
775.898987	707.700000
775.935669	698.200000
775.972351	721.100000
776.008972	720.000000
776.045654	716.800000
776.082336	708.100000
776.118958	709.000000
776.155640	716.800000
776.192322	726.200000
776.228882	726.100000
776.265564	727.600000
776.302185	721.500000
776.338867	724.900000
776.375488	709.800000
776.412109	728.700000
776.448792	732.700000
776.485413	738.700000
776.522034	726.600000
776.558716	726.100000
776.595337	720.500000
776.631958	732.100000
776.668579	733.600000
776.705261	738.000000
776.741882	727.800000
776.778503	727.400000
776.815186	724.700000
776.851746	733.900000
776.888367	734.400000
776.924988	742.700000
776.961609	730.700000
776.998291	731.400000
777.034851	719.700000
777.071472	737.800000
777.108154	735.700000
777.144714	746.800000
777.181335	753.900000
777.218018	741.800000
777.254578	743.100000
777.291199	744.800000
777.327759	752.600000
777.364380	758.200000
777.401062	762.900000
777.437622	773.600000
777.474243	761.900000
777.510864	774.300000
777.547424	771.900000
777.584045	772.000000
777.620667	777.400000
777.657227	786.800000
777.693848	783.900000
777.730469	802.800000
777.767029	795.100000
777.803650	799.100000
777.840271	791.300000
777.876831	791.000000
777.913452	800.200000
777.950012	779.400000
777.986633	782.400000
778.023193	778.200000
778.059753	778.600000
778.096375	783.100000
778.132996	797.200000
778.169556	787.900000
778.206116	790.000000
778.242737	780.000000
778.279297	790.600000
778.315857	785.400000
778.352478	800.700000
778.389038	812.300000
778.425598	805.400000
778.462219	818.200000
778.498718	820.200000
778.535339	827.300000
778.571838	829.000000
778.608459	843.100000
778.645020	828.000000
778.681580	840.700000
778.718140	849.900000
778.754761	841.800000
778.791260	844.400000
778.827881	858.700000
778.864441	855.400000
778.900940	866.600000
778.937561	868.100000
778.974121	857.800000
779.010620	843.500000
779.047241	850.800000
779.083801	862.700000
779.120300	861.100000
779.156860	872.900000
779.193359	870.100000
779.229980	868.500000
779.266541	873.200000
779.303040	886.000000
779.339600	871.300000
779.376160	869.500000
779.412659	879.000000
779.449219	871.600000
779.485779	885.300000
779.522278	884.200000
779.558838	884.000000
779.595398	888.500000
779.631897	888.500000
779.668457	879.400000
779.705017	897.200000
779.741516	887.800000
779.778076	882.400000
779.814575	892.600000
779.851074	898.400000
779.887634	895.700000
779.924133	906.300000
779.960693	893.200000
779.997253	902.100000
780.033691	906.600000
780.070251	909.300000
780.106812	919.900000
780.143250	926.900000
780.179810	915.300000
780.216370	924.300000
780.252808	930.900000
780.289368	949.300000
780.325867	949.200000
780.362366	944.600000
780.398865	957.700000
780.435364	951.200000
780.471863	961.900000
780.508423	968.000000
780.544861	976.200000
780.581421	978.700000
780.617920	964.300000
780.654419	966.400000
780.690918	973.900000
780.727417	986.700000
780.763916	981.700000
780.800415	983.700000
780.836914	965.900000
780.873352	977.800000
780.909912	964.800000
780.946411	974.700000
780.982849	982.300000
781.019348	1009.500000
781.055786	1011.400000
781.092346	996.400000
781.128845	1007.500000
781.165283	1012.200000
781.201782	1021.200000
781.238281	1024.700000
781.274719	1028.600000
781.311218	1020.900000
781.347717	1035.000000
781.384155	1023.200000
781.420654	1022.600000
781.457092	1035.500000
781.493591	1027.900000
781.530090	1021.200000
781.566528	1028.100000
781.602966	1029.500000
781.639465	1022.900000
781.675903	1019.200000
781.712402	1042.300000
781.748901	1048.100000
781.785278	1035.800000
781.821777	1039.800000
781.858276	1038.200000
781.894714	1045.400000
781.931152	1040.500000
781.967651	1044.800000
782.004089	1043.700000
782.040527	1048.900000
782.076965	1054.200000
782.113403	1051.700000
782.149902	1051.500000
782.186340	1049.200000
782.222778	1067.300000
782.259277	1047.800000
782.295654	1046.300000
782.332092	1053.100000
782.368591	1056.900000
782.404968	1048.500000
782.441467	1053.900000
782.477905	1052.700000
782.514282	1041.500000
782.550781	1060.800000
782.587219	1060.600000
782.623596	1066.400000
782.660095	1068.000000
782.696472	1075.400000
782.732910	1080.800000
782.769348	1088.400000
782.805786	1109.700000
782.842224	1098.100000
782.878662	1086.600000
782.915039	1090.100000
782.951477	1096.300000
782.987915	1088.400000
783.024292	1100.400000
783.060730	1098.300000
783.097168	1079.100000
783.133545	1074.600000
783.169983	1069.700000
783.206421	1059.700000
783.242798	1050.900000
783.279236	1046.000000
783.315613	1046.400000
783.352051	1048.200000
783.388489	1034.100000
783.424866	1011.500000
783.461304	1015.600000
783.497681	1027.200000
783.534058	1019.500000
783.570496	1019.800000
783.606934	1009.700000
783.643250	1018.300000
783.679687	1034.500000
783.716125	1035.500000
783.752441	1048.300000
783.788879	1065.600000
783.825317	1061.900000
783.861633	1076.000000
783.898071	1082.900000
783.934448	1094.900000
783.970825	1098.100000
784.007263	1093.100000
784.043579	1057.500000
784.080017	987.300000
784.116394	870.400000
784.152710	763.500000
784.189148	693.800000
784.225525	676.000000
784.261902	715.100000
784.298279	801.100000
784.334656	909.400000
784.371033	996.700000
784.407410	1064.900000
784.443787	1080.500000
784.480164	1076.800000
784.516541	1056.800000
784.552856	1068.000000
784.589233	1054.300000
784.625610	1059.300000
784.661987	1101.300000
784.698364	1073.900000
784.734741	1062.200000
784.771057	1063.100000
784.807434	1076.800000
784.843811	1098.800000
784.880127	1102.700000
784.916504	1136.400000
784.952881	1134.200000
784.989197	1119.400000
785.025574	1129.600000
785.061951	1146.500000
785.098267	1172.900000
785.134644	1166.400000
785.170959	1166.600000
785.207275	1167.100000
785.243652	1165.700000
785.279968	1154.000000
785.316345	1168.700000
785.352722	1179.000000
785.388977	1179.800000
785.425354	1146.200000
785.461731	1119.400000
785.498047	1111.400000
785.534363	1105.800000
785.570679	1108.200000
785.606995	1113.600000
785.643372	1113.300000
785.679687	1106.100000
785.716003	1095.700000
785.752380	1097.400000
785.788635	1104.200000
785.825012	1123.000000
785.861328	1134.400000
785.897644	1115.400000
785.933960	1133.400000
785.970337	1147.200000
786.006592	1167.700000
786.042908	1172.200000
786.079285	1188.300000
786.115540	1207.600000
786.151855	1202.500000
786.188171	1196.700000
786.224487	1198.500000
786.260803	1196.500000
786.297119	1214.700000
786.333435	1222.400000
786.369751	1210.100000
786.406006	1207.800000
786.442322	1186.600000
786.478638	1177.900000
786.514954	1200.200000
786.551270	1203.300000
786.587585	1212.400000
786.623840	1193.700000
786.660156	1175.300000
786.696472	1164.500000
786.732727	1163.500000
786.769043	1170.500000
786.805298	1158.200000
786.841614	1161.900000
786.877930	1170.900000
786.914124	1150.800000
786.950439	1166.400000
786.986755	1179.500000
787.023010	1193.700000
787.059326	1209.200000
787.095642	1208.500000
787.131836	1226.500000
787.168152	1206.400000
787.204468	1216.100000
787.240723	1234.000000
787.276978	1257.300000
787.313293	1257.700000
787.349548	1258.400000
787.385803	1255.400000
787.422058	1246.400000
787.458313	1242.000000
787.494629	1251.600000
787.530823	1252.400000
787.567139	1235.800000
787.603455	1220.500000
787.639648	1211.000000
787.675903	1210.900000
787.712219	1209.200000
787.748413	1208.800000
787.784729	1219.800000
787.820984	1195.700000
787.857178	1194.300000
787.893494	1185.000000
787.929749	1175.300000
787.965942	1189.300000
788.002258	1211.900000
788.038452	1221.200000
788.074707	1204.300000
788.110962	1205.000000
788.147217	1196.600000
788.183472	1201.600000
788.219727	1220.400000
788.255920	1248.800000
788.292175	1252.200000
788.328430	1245.900000
788.364624	1222.600000
788.400879	1207.000000
788.437134	1219.100000
788.473328	1218.800000
788.509583	1219.300000
788.545837	1221.500000
788.582031	1202.600000
788.618286	1193.700000
788.654480	1190.700000
788.690735	1195.100000
788.726990	1220.000000
788.763184	1217.900000
788.799377	1227.300000
788.835632	1213.900000
788.871826	1236.800000
788.908081	1234.500000
788.944336	1231.800000
788.980469	1249.300000
789.016724	1239.900000
789.052979	1244.400000
789.089111	1214.800000
789.125366	1215.700000
789.161621	1195.400000
789.197754	1218.400000
789.234009	1209.700000
789.270142	1186.400000
789.306396	1179.200000
789.342590	1170.600000
789.378784	1149.600000
789.414978	1149.500000
789.451233	1168.200000
789.487366	1174.400000
789.523621	1175.000000
789.559814	1162.400000
789.595947	1159.800000
789.632202	1167.700000
789.668335	1178.800000
789.704529	1196.900000
789.740784	1217.800000
789.776917	1229.700000
789.813110	1201.000000
789.849304	1214.300000
789.885498	1214.500000
789.921692	1236.500000
789.957886	1244.100000
789.994019	1243.800000
790.030212	1240.200000
790.066406	1240.200000
790.102539	1233.600000
790.138733	1240.300000
790.174927	1248.300000
790.211060	1256.200000
790.247253	1242.300000
790.283386	1227.100000
790.319580	1210.200000
790.355774	1188.600000
790.391907	1203.200000
790.428101	1224.400000
790.464294	1232.400000
790.500427	1228.600000
790.536621	1211.700000
790.572754	1196.300000
790.608887	1207.100000
790.645081	1217.000000
790.681274	1227.500000
790.717346	1214.500000
790.753540	1176.300000
790.789734	1099.100000
790.825867	1042.500000
790.862000	1042.100000
790.898132	1096.100000
790.934265	1173.100000
790.970459	1231.500000
791.006592	1243.200000
791.042725	1257.200000
791.078918	1241.500000
791.114990	1252.900000
791.151184	1264.400000
791.187317	1292.300000
791.223389	1285.500000
791.259583	1266.600000
791.295715	1267.700000
791.331848	1275.800000
791.367981	1297.900000
791.404114	1308.200000
791.440247	1293.600000
791.476379	1295.500000
791.512451	1280.100000
791.548584	1279.300000
791.584778	1272.600000
791.620850	1297.500000
791.656982	1300.900000
791.693115	1296.200000
791.729187	1292.200000
791.765381	1277.500000
791.801514	1281.100000
791.837585	1282.600000
791.873718	1293.700000
791.909851	1312.000000
791.945923	1313.700000
791.982056	1276.600000
792.018188	1271.800000
792.054260	1269.300000
792.090393	1275.200000
792.126465	1269.900000
792.162598	1278.700000
792.198669	1261.000000
792.234741	1260.100000
792.270874	1250.000000
792.307007	1230.500000
792.343079	1244.200000
792.379150	1261.100000
792.415283	1241.600000
792.451355	1244.600000
792.487488	1221.100000
792.523560	1215.900000
792.559631	1223.700000
792.595764	1223.500000
792.631836	1223.900000
792.667908	1233.700000
792.703979	1215.200000
792.740051	1212.500000
792.776184	1220.100000
792.812256	1224.900000
792.848328	1232.800000
792.884399	1244.400000
792.920471	1235.400000
792.956543	1227.500000
792.992615	1222.300000
793.028748	1219.500000
793.064758	1219.800000
793.100830	1251.700000
793.136963	1264.200000
793.172974	1256.000000
793.209045	1245.000000
793.245178	1259.400000
793.281189	1239.100000
793.317261	1248.500000
793.353271	1252.300000
793.389404	1255.700000
793.425476	1242.500000
793.461487	1236.300000
793.497559	1229.600000
793.533630	1239.800000
793.569641	1239.600000
793.605713	1248.600000
793.641785	1251.500000
793.677795	1252.700000
793.713867	1236.800000
793.749878	1240.400000
793.785950	1253.900000
793.822021	1264.900000
793.858032	1254.500000
793.894104	1260.100000
793.930176	1250.500000
793.966187	1242.700000
794.002258	1235.300000
794.038269	1241.200000
794.074280	1242.200000
794.110352	1259.900000
794.146423	1231.100000
794.182373	1220.100000
794.218445	1217.900000
794.254517	1198.400000
794.290466	1192.600000
794.326538	1196.500000
794.362549	1199.900000
794.398560	1206.000000
794.434631	1209.900000
794.470581	1170.600000
794.506653	1163.500000
794.542664	1172.300000
794.578674	1175.400000
794.614685	1167.900000
794.650757	1167.800000
794.686707	1161.200000
794.722778	1158.000000
794.758789	1158.700000
794.794739	1164.400000
794.830811	1190.300000
794.866821	1210.600000
794.902771	1202.900000
794.938843	1188.400000
794.974792	1187.800000
795.010803	1183.600000
795.046814	1177.100000
795.082825	1169.300000
795.118835	1189.200000
795.154846	1168.200000
795.190796	1166.000000
795.226807	1149.500000
795.262817	1156.000000
795.298767	1146.000000
795.334778	1151.000000
795.370850	1143.400000
795.406799	1146.600000
795.442810	1116.500000
795.478821	1112.800000
795.514709	1112.300000
795.550720	1136.200000
795.586670	1118.800000
795.622681	1121.400000
795.658691	1114.900000
795.694641	1115.800000
795.730652	1102.300000
795.766663	1107.000000
795.802551	1109.400000
795.838562	1129.400000
795.874573	1116.400000
795.910522	1116.200000
795.946472	1101.300000
795.982483	1105.900000
796.018433	1108.200000
796.054382	1116.500000
796.090393	1103.900000
796.126282	1100.000000
796.162292	1081.400000
796.198242	1073.000000
796.234192	1080.000000
796.270203	1074.500000
796.306091	1079.500000
796.342041	1101.200000
796.378052	1083.400000
796.413940	1080.100000
796.449951	1085.900000
796.485901	1084.300000
796.521790	1084.100000
796.557800	1096.200000
796.593689	1101.400000
796.629639	1083.600000
796.665649	1072.700000
796.701599	1079.700000
796.737488	1070.700000
796.773437	1072.300000
796.809387	1078.300000
796.845337	1086.100000
796.881287	1062.300000
796.917175	1042.900000
796.953125	1045.100000
796.989075	1059.600000
797.024963	1067.700000
797.060913	1059.800000
797.096863	1058.300000
797.132751	1048.400000
797.168701	1027.900000
797.204590	1035.400000
797.240540	1038.300000
797.276489	1046.400000
797.312439	1058.900000
797.348328	1044.500000
797.384277	1031.000000
797.420166	1022.400000
797.456055	1027.100000
797.492004	1023.400000
797.527893	1032.600000
797.563843	1038.100000
797.599731	1019.000000
797.635620	1009.000000
797.671570	1013.800000
797.707520	1011.100000
797.743347	1015.700000
797.779297	1022.700000
797.815125	1013.300000
797.851074	1007.400000
797.887024	1003.500000
797.922913	992.900000
797.958801	1009.600000
797.994690	1007.400000
798.030579	1011.100000
798.066467	1011.900000
798.102356	997.800000
798.138245	991.900000
798.174133	988.600000
798.210083	996.900000
798.245911	1005.300000
798.281799	1006.800000
798.317749	996.100000
798.353577	989.300000
798.389465	986.800000
798.425293	984.500000
798.461243	974.900000
798.497131	986.400000
798.532959	989.200000
798.568848	986.600000
798.604736	976.100000
798.640564	964.800000
798.676453	952.500000
798.712402	964.500000
798.748230	975.200000
798.784119	967.000000
798.820007	961.300000
798.855835	961.100000
798.891724	956.600000
798.927551	960.800000
798.963379	966.100000
798.999268	962.200000
799.035095	954.300000
799.070984	941.200000
799.106873	929.400000
799.142700	945.500000
799.178528	932.100000
799.214417	941.200000
799.250244	953.000000
799.286133	943.900000
799.321960	936.300000
799.357788	932.600000
799.393677	929.800000
799.429504	928.200000
799.465332	931.300000
799.501221	940.700000
799.537048	934.800000
799.572876	918.600000
799.608704	922.200000
799.644531	934.600000
799.680359	934.400000
799.716248	937.000000
799.752014	940.500000
799.787903	929.400000
799.823730	926.400000
799.859558	915.800000
799.895386	927.600000
799.931213	925.400000
799.967041	911.600000
800.002869	908.800000
800.038696	915.300000
800.074463	895.300000
800.110352	899.600000
800.146179	892.800000
800.181946	901.500000
800.217773	901.800000
800.253540	900.100000
800.289429	889.300000
800.325256	889.300000
800.361023	878.900000
800.396851	879.800000
800.432678	881.000000
800.468445	885.400000
800.504272	870.600000
800.540100	858.500000
800.575867	854.500000
800.611694	859.600000
800.647461	848.500000
800.683289	854.200000
800.719116	854.600000
800.754883	853.500000
800.790649	832.200000
800.826477	823.100000
800.862244	843.100000
800.898071	830.400000
800.933838	821.500000
800.969604	824.600000
801.005432	826.600000
801.041199	827.300000
801.076965	817.100000
801.112793	809.300000
801.148560	798.000000
801.184326	797.500000
801.220154	798.100000
801.255859	788.900000
801.291687	788.600000
801.327454	783.000000
801.363281	779.500000
801.398987	778.700000
801.434814	780.600000
801.470520	787.600000
801.506287	770.600000
801.542114	764.600000
801.577820	770.800000
801.613647	769.400000
801.649414	765.400000
801.685120	766.200000
801.720886	771.500000
801.756714	761.100000
801.792419	751.100000
801.828186	741.700000
801.863892	754.300000
801.899719	741.200000
801.935486	743.400000
801.971252	751.700000
802.006958	743.200000
802.042725	732.800000
802.078430	731.900000
802.114197	725.600000
802.149963	744.600000
802.185669	728.200000
802.221436	729.100000
802.257202	728.800000
802.292908	725.500000
802.328674	733.800000
802.364441	731.200000
802.400146	719.700000
802.435913	717.300000
802.471558	714.100000
802.507324	708.200000
802.543091	697.900000
802.578796	714.300000
802.614502	716.100000
802.650269	717.900000
802.685974	703.800000
802.721741	706.100000
802.757446	708.400000
802.793152	708.300000
802.828918	713.900000
802.864624	708.400000
802.900330	707.100000
802.936035	700.500000
802.971802	694.400000
803.007446	692.500000
803.043213	689.600000
803.078857	693.200000
803.114624	677.300000
803.150330	684.300000
803.185974	676.400000
803.221741	676.200000
803.257446	681.900000
803.293152	681.600000
803.328857	671.500000
803.364563	663.300000
803.400208	659.600000
803.435974	672.700000
803.471680	666.100000
803.507324	656.800000
803.543030	664.100000
803.578735	668.600000
803.614441	660.000000
803.650146	660.900000
803.685791	648.500000
803.721497	648.000000
803.757202	639.600000
803.792847	650.000000
803.828552	639.300000
803.864258	637.700000
803.899902	635.400000
803.935608	619.100000
803.971313	628.600000
804.006958	631.100000
804.042664	625.400000
804.078308	632.100000
804.113953	622.400000
804.149658	628.000000
804.185364	618.900000
804.221008	626.900000
804.256714	617.700000
804.292297	613.400000
804.328003	611.600000
804.363708	604.800000
804.399292	605.200000
804.434998	606.300000
804.470703	596.400000
804.506287	608.500000
804.541992	604.300000
804.577637	603.900000
804.613281	592.100000
804.648926	591.300000
804.684570	595.300000
804.720215	592.100000
804.755920	593.200000
804.791565	584.500000
804.827209	589.600000
804.862854	584.300000
804.898437	579.000000
804.934143	581.700000
804.969788	579.300000
805.005371	579.200000
805.041077	579.400000
805.076721	580.600000
805.112305	569.900000
805.147949	571.500000
805.183655	561.900000
805.219238	567.800000
805.254883	565.700000
805.290466	574.700000
805.326111	563.500000
805.361755	553.400000
805.397400	558.300000
805.432983	564.500000
805.468628	564.400000
805.504211	571.200000
805.539856	565.500000
805.575500	565.700000
805.611084	559.800000
805.646729	546.500000
805.682373	553.000000
805.717957	562.400000
805.753601	562.700000
805.789246	546.300000
805.824768	555.100000
805.860413	557.200000
805.895996	544.000000
805.931641	546.600000
805.967224	547.800000
806.002869	543.700000
806.038452	552.600000
806.074036	552.300000
806.109619	536.800000
806.145264	532.700000
806.180847	534.000000
806.216431	533.200000
806.252014	535.000000
806.287659	533.800000
806.323181	541.400000
806.358826	537.300000
806.394409	517.200000
806.429993	521.900000
806.465576	536.300000
806.501160	518.000000
806.536743	508.400000
806.572327	520.800000
806.607910	518.200000
806.643494	519.800000
806.679077	511.800000
806.714661	514.800000
806.750244	515.100000
806.785828	503.600000
806.821350	504.800000
806.856934	511.600000
806.892517	505.500000
806.928101	496.100000
806.963684	499.800000
806.999268	511.900000
807.034790	490.100000
807.070374	498.700000
807.105896	491.300000
807.141479	487.300000
807.177063	495.400000
807.212585	485.500000
807.248169	484.600000
807.283752	490.300000
807.319275	484.300000
807.354858	484.500000
807.390381	478.600000
807.425903	480.100000
807.461487	475.300000
807.497070	470.600000
807.532593	471.300000
807.568115	468.800000
807.603699	466.600000
807.639221	457.900000
807.674744	463.400000
807.710266	468.500000
807.745850	471.700000
807.781372	463.800000
807.816895	457.200000
807.852417	461.500000
807.888000	458.900000
807.923523	453.300000
807.959045	460.200000
807.994629	449.100000
808.030090	445.500000
808.065613	453.000000
808.101135	454.500000
808.136658	449.500000
808.172241	448.800000
808.207764	444.200000
808.243225	438.600000
808.278809	433.100000
808.314270	444.900000
808.349792	430.900000
808.385315	430.500000
808.420837	439.100000
808.456360	441.000000
808.491882	439.200000
808.527344	434.200000
808.562866	443.300000
808.598389	432.400000
808.633850	428.400000
808.669434	427.100000
808.704895	435.500000
808.740417	437.600000
808.775940	425.600000
808.811462	422.000000
808.846924	416.600000
808.882385	411.700000
808.917847	412.400000
808.953369	413.000000
808.988892	407.400000
809.024353	417.100000
809.059875	413.600000
809.095398	407.700000
809.130798	404.600000
809.166321	404.200000
809.201843	403.700000
809.237305	402.900000
809.272766	411.500000
809.308228	396.200000
809.343750	395.000000
809.379211	396.600000
809.414734	398.800000
809.450134	407.000000
809.485657	387.300000
809.521118	395.400000
809.556580	392.700000
809.592102	388.500000
809.627502	388.800000
809.663025	383.500000
809.698486	381.900000
809.733887	375.800000
809.769409	381.200000
809.804871	370.200000
809.840271	377.400000
809.875793	378.900000
809.911194	382.700000
809.946655	372.000000
809.982178	366.800000
810.017639	373.900000
810.053040	371.600000
810.088501	368.000000
810.123901	368.800000
810.159424	363.600000
810.194885	357.500000
810.230286	365.100000
810.265747	357.500000
810.301208	354.100000
810.336609	356.300000
810.372070	348.900000
810.407532	354.100000
810.442932	354.700000
810.478394	357.700000
810.513794	356.600000
810.549255	349.100000
810.584717	351.500000
810.620117	343.100000
810.655518	349.300000
810.690979	350.100000
810.726379	349.800000
810.761841	335.300000
810.797302	338.300000
810.832642	336.600000
810.868103	349.200000
810.903564	337.700000
810.938904	344.600000
810.974365	333.300000
811.009827	338.600000
811.045166	332.600000
811.080627	326.100000
811.115967	331.500000
811.151428	341.100000
811.186829	330.700000
811.222229	332.300000
811.257629	324.000000
811.293091	330.700000
811.328430	337.800000
811.363892	332.100000
811.399292	331.600000
811.434631	327.100000
811.470093	331.600000
811.505493	322.900000
811.540833	324.900000
811.576294	331.400000
811.611694	324.400000
811.647034	320.800000
811.682434	322.200000
811.717773	322.400000
811.753235	328.600000
811.788635	320.500000
811.823975	321.500000
811.859375	328.800000
811.894775	316.300000
811.930115	319.600000
811.965515	319.000000
812.000916	321.700000
812.036255	314.400000
812.071655	318.900000
812.106995	312.500000
812.142395	312.800000
812.177795	320.200000
812.213196	315.000000
812.248474	316.500000
812.283875	306.800000
812.319214	311.900000
812.354614	309.400000
812.390015	308.700000
812.425293	307.500000
812.460693	310.000000
812.496094	303.800000
812.531433	299.400000
812.566772	299.600000
812.602173	303.600000
812.637451	304.100000
812.672852	299.400000
812.708191	303.500000
812.743530	298.200000
812.778931	291.300000
812.814270	296.300000
812.849609	301.500000
812.884949	296.200000
812.920227	289.100000
812.955627	306.000000
812.990967	295.200000
813.026306	289.700000
813.061646	280.400000
813.096985	277.800000
813.132324	276.700000
813.167664	283.300000
813.203003	287.000000
813.238281	274.400000
813.273682	276.400000
813.308960	273.100000
813.344299	274.700000
813.379639	285.700000
813.414978	275.800000
813.450256	274.300000
813.485596	279.800000
813.520874	271.200000
813.556213	277.200000
813.591614	277.700000
813.626831	269.800000
813.662170	275.900000
813.697510	284.800000
813.732788	268.400000
813.768127	274.000000
813.803467	272.200000
813.838745	270.200000
813.874084	273.000000
813.909363	271.000000
813.944641	272.400000
813.979980	262.200000
814.015320	267.200000
814.050598	265.400000
814.085876	268.400000
814.121155	267.400000
814.156494	262.800000
814.191772	266.300000
814.227051	260.100000
814.262390	263.200000
814.297668	261.200000
814.332947	264.200000
814.368225	257.700000
814.403564	261.300000
814.438782	256.300000
814.474121	262.600000
814.509338	256.800000
814.544617	267.200000
814.579956	252.600000
814.615173	266.800000
814.650513	261.400000
814.685791	253.900000
814.721008	257.300000
814.756348	257.900000
814.791626	250.300000
814.826843	252.300000
814.862122	252.300000
814.897400	251.200000
814.932678	254.300000
814.967957	253.200000
815.003235	251.000000
815.038452	245.800000
815.073730	243.500000
815.108948	255.600000
815.144226	252.400000
815.179504	254.800000
815.214722	241.000000
815.250000	239.000000
815.285278	246.800000
815.320496	240.800000
815.355774	242.800000
815.391052	246.200000
815.426270	242.900000
815.461487	241.200000
815.496765	238.000000
815.531982	231.900000
815.567261	240.800000
815.602539	247.800000
815.637695	243.700000
815.672974	243.900000
815.708191	244.500000
815.743408	243.500000
815.778687	237.200000
815.813904	246.500000
815.849121	230.400000
815.884399	231.400000
815.919556	233.100000
815.954834	231.800000
815.990051	238.500000
816.025269	241.100000
816.060486	231.600000
816.095703	230.400000
816.130920	235.500000
816.166199	229.800000
816.201416	237.000000
816.236572	239.800000
816.271851	231.500000
816.307007	236.000000
816.342224	227.600000
816.377441	231.200000
816.412659	222.200000
816.447876	232.900000
816.483093	229.200000
816.518250	229.600000
816.553467	226.700000
816.588745	231.700000
816.623901	223.200000
816.659119	218.000000
816.694275	224.700000
816.729492	221.400000
816.764709	256.500000
816.799927	217.300000
816.835083	224.000000
816.870300	218.400000
816.905457	220.300000
816.940674	226.100000
816.975830	217.200000
817.010986	216.000000
817.046204	217.900000
817.081421	214.300000
817.116577	213.700000
817.151733	224.700000
817.186951	224.200000
817.222107	219.700000
817.257324	222.100000
817.292419	220.700000
817.327637	211.600000
817.362854	217.700000
817.398010	211.800000
817.433167	214.700000
817.468323	213.300000
817.503479	215.100000
817.538635	223.800000
817.573853	219.100000
817.608948	214.300000
817.644165	211.400000
817.679321	209.700000
817.714478	209.900000
817.749634	214.900000
817.784790	226.400000
817.819946	221.600000
817.855103	203.200000
817.890198	212.100000
817.925415	205.400000
817.960571	214.100000
817.995667	211.900000
818.030823	214.600000
818.066040	208.000000
818.101135	211.500000
818.136292	209.000000
818.171448	204.200000
818.206543	210.900000
818.241699	213.400000
818.276855	209.900000
818.311951	209.100000
818.347107	206.500000
818.382263	211.600000
818.417358	216.400000
818.452515	217.200000
818.487610	216.300000
818.522766	206.000000
818.557922	216.800000
818.593018	212.900000
818.628113	209.200000
818.663269	204.600000
818.698364	209.700000
818.733521	206.200000
818.768677	209.700000
818.803711	202.900000
818.838867	205.200000
818.874023	207.600000
818.909058	202.400000
818.944214	200.900000
818.979370	209.200000
819.014404	206.500000
819.049561	202.200000
819.084595	208.200000
819.119751	198.100000
819.154846	206.700000
819.189941	204.600000
819.225037	199.700000
819.260193	195.100000
819.295227	198.100000
819.330322	193.600000
819.365479	194.500000
819.400513	227.100000
819.435608	195.000000
819.470764	190.400000
819.505798	196.100000
819.540894	197.800000
819.575989	197.100000
819.611084	206.200000
819.646179	204.400000
819.681213	201.400000
819.716309	197.900000
819.751404	197.700000
819.786438	203.000000
819.821533	194.900000
819.856628	200.100000
819.891663	202.700000
819.926758	209.300000
819.961853	205.600000
819.996887	194.700000
820.031982	202.900000
820.067017	197.300000
820.102112	226.500000
820.137207	196.200000
820.172302	214.100000
820.207275	194.100000
820.242371	195.100000
820.277405	194.900000
820.312500	197.200000
820.347534	199.200000
820.382568	202.500000
820.417664	194.700000
820.452759	197.700000
820.487732	192.300000
820.522827	195.000000
820.557861	191.500000
820.592896	196.100000
820.627930	194.300000
820.662964	194.100000
820.698059	199.100000
820.733093	195.100000
820.768127	199.100000
820.803162	196.300000
820.838196	192.700000
820.873230	198.200000
820.908264	196.900000
820.943298	192.400000
820.978333	200.800000
821.013367	198.100000
821.048401	200.600000
821.083435	202.400000
821.118469	186.800000
821.153503	201.200000
821.188477	197.700000
821.223511	189.800000
821.258484	195.200000
821.293579	196.000000
821.328613	189.800000
821.363647	193.600000
821.398621	189.400000
821.433655	191.400000
821.468628	207.800000
821.503662	193.800000
821.538696	197.200000
821.573669	190.800000
821.608704	199.100000
821.643677	192.800000
821.678650	198.800000
821.713684	203.400000
821.748718	193.300000
821.783691	192.300000
821.818726	196.800000
821.853638	198.600000
821.888672	193.300000
821.923706	194.200000
821.958618	192.400000
821.993652	191.600000
822.028687	200.800000
822.063599	200.900000
822.098633	197.300000
822.133667	190.500000
822.168579	193.900000
822.203613	194.500000
822.238586	191.100000
822.273560	197.300000
822.308533	190.900000
822.343567	189.900000
822.378479	191.500000
822.413452	191.100000
822.448425	190.200000
822.483398	197.800000
822.518372	199.700000
822.553345	190.600000
822.588318	201.400000
822.623291	193.000000
822.658203	192.000000
822.693237	193.700000
822.728210	190.700000
822.763123	195.000000
822.798096	190.500000
822.833069	194.100000
822.867981	192.900000
822.902954	196.100000
822.937927	198.000000
822.972900	204.300000
823.007874	186.200000
823.042725	198.400000
823.077698	206.300000
823.112671	189.800000
823.147583	192.800000
823.182556	197.500000
823.217529	199.400000
823.252441	192.300000
823.287415	207.200000
823.322388	196.400000
823.357239	192.400000
823.392212	201.200000
823.427185	197.500000
823.462097	191.900000
823.497009	197.400000
823.531982	190.900000
823.566895	193.800000
823.601807	188.600000
823.636719	192.700000
823.671631	198.500000
823.706604	192.500000
823.741455	196.200000
823.776428	185.500000
823.811340	199.500000
823.846252	200.900000
823.881165	202.200000
823.916138	194.900000
823.950989	202.900000
823.985901	189.600000
824.020813	195.900000
824.055725	191.100000
824.090637	191.400000
824.125610	195.300000
824.160461	194.800000
824.195374	195.300000
824.230225	199.700000
824.265198	186.100000
824.300110	192.500000
824.334961	204.900000
824.369873	183.800000
824.404785	195.600000
824.439636	200.900000
824.474548	184.600000
824.509460	184.100000
824.544312	199.000000
824.579224	196.400000
824.614075	196.200000
824.648987	192.800000
824.683899	193.300000
824.718811	191.300000
824.753662	202.500000
824.788574	199.700000
824.823364	195.400000
824.858276	191.000000
824.893188	199.900000
824.928040	200.400000
824.962952	197.100000
824.997803	199.300000
825.032654	196.000000
825.067566	196.200000
825.102417	192.600000
825.137268	192.700000
825.172119	193.900000
825.206970	190.700000
825.241882	193.400000
825.276733	189.900000
825.311646	191.600000
825.346436	187.200000
825.381348	188.900000
825.416138	193.800000
825.450989	190.000000
825.485901	183.800000
825.520691	185.600000
825.555542	186.200000
825.590454	193.800000
825.625244	185.000000
825.660095	201.100000
825.695007	195.800000
825.729797	193.500000
825.764648	188.900000
825.799438	192.900000
825.834290	194.000000
825.869202	187.800000
825.903992	195.200000
825.938843	190.700000
825.973694	187.700000
826.008484	205.200000
826.043335	187.400000
826.078186	184.400000
826.112976	200.700000
826.147827	198.200000
826.182678	203.900000
826.217468	186.500000
826.252319	197.600000
826.287109	190.200000
826.321899	200.900000
826.356750	191.100000
826.391541	188.000000
826.426392	197.300000
826.461182	192.700000
826.495972	187.600000
826.530823	183.500000
826.565613	193.200000
826.600403	188.500000
826.635254	196.000000
826.670044	184.500000
826.704834	184.900000
826.739685	188.600000
826.774475	194.200000
826.809265	192.500000
826.844055	189.000000
826.878906	198.700000
826.913635	192.700000
826.948425	196.900000
826.983215	194.400000
827.018005	199.100000
827.052856	190.400000
827.087585	196.600000
827.122375	184.500000
827.157227	193.300000
827.191956	204.200000
827.226746	188.600000
827.261536	195.800000
827.296265	186.300000
827.331116	189.000000
827.365906	197.500000
827.400635	187.400000
827.435425	185.000000
827.470215	199.700000
827.504944	191.900000
827.539734	197.500000
827.574463	192.700000
827.609253	199.200000
827.644043	192.500000
827.678772	198.100000
827.713562	191.000000
827.748352	190.600000
827.783081	189.900000
827.817871	194.600000
827.852600	189.700000
827.887329	194.500000
827.922119	183.300000
827.956848	196.100000
827.991638	206.100000
828.026367	193.500000
828.061157	194.200000
828.095886	193.200000
828.130615	207.000000
828.165344	183.700000
828.200073	193.000000
828.234863	189.700000
828.269592	192.200000
828.304321	199.200000
828.339111	193.200000
828.373779	189.500000
828.408569	197.300000
828.443298	196.500000
828.477966	189.900000
828.512756	193.500000
828.547424	186.500000
828.582214	190.400000
828.616943	191.200000
828.651672	192.000000
828.686340	196.300000
828.721130	189.800000
828.755798	191.600000
828.790527	193.800000
828.825256	193.400000
828.859924	194.600000
828.894714	199.000000
828.929443	200.000000
828.964111	188.300000
828.998840	196.600000
829.033569	188.200000
829.068237	190.600000
829.102966	190.100000
829.137634	195.500000
829.172363	194.000000
829.207092	195.200000
829.241821	189.100000
829.276489	184.900000
829.311157	192.400000
829.345825	191.500000
829.380554	197.100000
829.415283	188.400000
829.449951	185.900000
829.484619	202.500000
829.519348	200.300000
829.554016	192.300000
829.588745	192.500000
829.623413	187.400000
829.658081	205.100000
829.692749	186.500000
829.727417	198.000000
829.762146	193.400000
829.796814	189.100000
829.831482	191.200000
829.866150	195.000000
829.900879	190.500000
829.935486	194.900000
829.970154	189.700000
830.004883	204.400000
830.039490	192.700000
830.074219	189.600000
830.108887	193.400000
830.143494	191.000000
830.178223	185.400000
830.212891	190.500000
830.247498	190.900000
830.282166	200.500000
830.316772	198.000000
830.351501	190.100000
830.386169	190.400000
830.420776	192.200000
830.455444	191.200000
830.490112	189.800000
830.524719	182.200000
830.559387	195.200000
830.594055	195.500000
830.628662	193.200000
830.663330	192.600000
830.697998	201.000000
830.732605	191.500000
830.767273	194.900000
830.801941	191.800000
830.836487	202.500000
830.871155	195.100000
830.905762	194.900000
830.940430	185.900000
830.975098	189.600000
831.009644	193.000000
831.044312	202.100000
831.078979	193.900000
831.113525	182.500000
831.148193	192.000000
831.182861	190.600000
831.217407	196.000000
831.252075	210.700000
831.286621	190.000000
831.321289	189.100000
831.355896	192.300000
831.390564	199.400000
831.425110	193.900000
831.459778	198.500000
831.494324	206.800000
831.528931	196.500000
831.563599	196.400000
831.598145	186.500000
831.632751	192.500000
831.667419	190.800000
831.701965	195.500000
831.736572	194.900000
831.771179	184.700000
831.805786	189.700000
831.840393	199.600000
831.874939	182.700000
831.909546	198.600000
831.944153	184.800000
831.978760	191.900000
832.013306	185.800000
832.047913	199.700000
832.082458	198.600000
832.117065	190.200000
832.151672	200.900000
832.186218	193.800000
832.220825	194.100000
832.255432	185.600000
832.289978	188.100000
832.324585	194.500000
832.359192	194.300000
832.393677	190.300000
832.428284	192.500000
832.462830	191.100000
832.497437	191.300000
832.531982	197.500000
832.566589	189.600000
832.601135	193.800000
832.635681	184.000000
832.670227	192.000000
832.704773	199.900000
832.739380	194.700000
832.773926	192.500000
832.808472	189.500000
832.843079	192.900000
832.877563	196.800000
832.912170	189.300000
832.946716	185.600000
832.981201	198.000000
833.015808	196.000000
833.050293	192.400000
833.084839	188.300000
833.119446	190.800000
833.153992	196.100000
833.188477	192.700000
833.223022	187.900000
833.257568	193.700000
833.292114	199.600000
833.326660	204.100000
833.361145	188.700000
833.395691	184.900000
833.430237	189.200000
833.464783	196.400000
833.499329	187.800000
833.533875	187.900000
833.568359	194.500000
833.602905	198.200000
833.637390	196.300000
833.671875	190.200000
833.706421	190.100000
833.740906	188.900000
833.775452	182.200000
833.809998	190.400000
833.844482	199.000000
833.879028	193.300000
833.913513	190.100000
833.947998	195.200000
833.982544	188.400000
834.017090	189.500000
834.051514	180.900000
834.086060	196.500000
834.120544	191.900000
834.155029	194.800000
834.189575	190.800000
834.223999	195.700000
834.258545	193.000000
834.293030	194.300000
834.327515	194.000000
834.362000	190.800000
834.396545	196.100000
834.430969	192.200000
834.465454	197.300000
834.500000	184.500000
834.534424	195.900000
834.568970	183.000000
834.603455	184.100000
834.637878	189.700000
834.672363	191.400000
834.706909	193.900000
834.741333	194.000000
834.775818	184.200000
834.810242	188.500000
834.844727	193.500000
834.879211	191.300000
834.913635	192.900000
834.948181	194.400000
834.982666	191.900000
835.017090	190.600000
835.051575	194.300000
835.086060	188.500000
835.120483	195.300000
835.154907	197.000000
835.189331	191.000000
835.223816	194.700000
835.258301	187.400000
835.292786	188.100000
835.327209	197.600000
835.361694	189.600000
835.396057	187.600000
835.430542	194.100000
835.465027	192.700000
835.499390	188.000000
835.533875	209.400000
835.568359	190.900000
835.602722	183.400000
835.637207	194.700000
835.671692	184.800000
835.706055	209.100000
835.740540	193.700000
835.774902	195.600000
835.809387	192.900000
835.843811	185.600000
835.878235	199.100000
835.912659	187.800000
835.947083	190.100000
835.981506	192.900000
836.015930	184.800000
836.050354	197.100000
836.084778	201.300000
836.119202	198.100000
836.153625	204.800000
836.187988	189.200000
836.222473	189.000000
836.256897	193.000000
836.291260	192.700000
836.325684	194.600000
836.360046	190.900000
836.394470	189.400000
836.428894	199.600000
836.463318	187.900000
836.497681	199.100000
836.532104	199.800000
836.566467	194.100000
836.600891	190.700000
836.635315	198.500000
836.669678	195.700000
836.704102	197.400000
836.738525	192.900000
836.772888	184.400000
836.807251	188.900000
836.841675	195.500000
836.876038	185.900000
836.910461	189.000000
836.944763	194.600000
836.979187	190.300000
837.013611	198.000000
837.047974	185.300000
837.082336	203.100000
837.116699	197.000000
837.151062	191.100000
837.185486	186.900000
837.219849	190.300000
837.254211	196.200000
837.288574	191.000000
837.322937	187.200000
837.357300	180.000000
837.391663	206.200000
837.426086	197.400000
837.460388	193.200000
837.494751	198.100000
837.529114	190.200000
837.563477	197.400000
837.597839	194.400000
837.632141	191.800000
837.666565	190.800000
837.700928	196.200000
837.735229	196.200000
837.769592	195.900000
837.803955	197.900000
837.838257	190.000000
837.872620	188.900000
837.906982	201.100000
837.941284	193.900000
837.975647	193.600000
838.010010	198.400000
838.044312	190.500000
838.078674	189.500000
838.112976	192.400000
838.147339	195.300000
838.181702	192.700000
838.216003	202.800000
838.250366	195.500000
838.284668	193.600000
838.318970	185.500000
838.353333	191.300000
838.387634	191.800000
838.421936	192.900000
838.456299	194.100000
838.490601	200.100000
838.524902	195.700000
838.559265	197.000000
838.593567	197.200000
838.627869	185.800000
838.662170	195.000000
838.696472	184.800000
838.730774	189.300000
838.765137	197.100000
838.799377	178.400000
838.833740	193.000000
838.868042	198.600000
838.902283	184.800000
838.936646	199.100000
838.970947	194.900000
839.005188	198.300000
839.039551	185.300000
839.073792	199.300000
839.108093	189.600000
839.142395	202.900000
839.176697	185.700000
839.210937	193.400000
839.245300	204.100000
839.279541	186.200000
839.313843	190.600000
839.348145	196.000000
839.382385	196.800000
839.416687	197.000000
839.450989	197.200000
839.485229	191.100000
839.519531	187.700000
839.553833	198.100000
839.588013	193.800000
839.622314	193.900000
839.656555	196.600000
839.690857	192.500000
839.725159	185.800000
839.759460	189.800000
839.793640	191.400000
839.827942	190.600000
839.862183	189.400000
839.896423	193.200000
839.930725	202.600000
839.964966	198.800000
839.999207	200.200000
840.033508	200.600000
840.067688	190.500000
840.101990	200.600000
840.136230	191.700000
840.170471	199.900000
840.204712	190.300000
840.238953	187.100000
840.273193	194.600000
840.307434	196.500000
840.341736	189.100000
840.375916	186.700000
840.410217	190.700000
840.444397	196.900000
840.478638	196.000000
840.512878	198.900000
840.547119	194.400000
840.581360	195.500000
840.615601	202.500000
840.649780	201.500000
840.684021	194.000000
840.718262	201.400000
840.752441	199.000000
840.786682	194.100000
840.820862	196.800000
840.855103	200.100000
840.889343	192.600000
840.923584	197.400000
840.957764	194.800000
840.992004	195.400000
841.026184	207.600000
841.060425	191.700000
841.094666	189.100000
841.128845	196.900000
841.163025	194.900000
841.197266	196.400000
841.231445	193.700000
841.265686	193.400000
841.299866	187.800000
841.334045	201.600000
841.368286	192.400000
841.402405	201.600000
841.436646	197.400000
841.470825	190.400000
841.505005	191.700000
841.539185	190.500000
841.573425	188.600000
841.607544	193.700000
841.641785	193.300000
841.675964	188.200000
841.710144	193.500000
841.744324	191.100000
841.778503	192.400000
841.812683	189.300000
841.846863	202.000000
841.881042	199.900000
841.915222	190.600000
841.949402	209.200000
841.983521	185.100000
842.017700	192.300000
842.051880	195.800000
842.086060	195.900000
842.120239	194.000000
842.154419	189.900000
842.188538	193.300000
842.222717	190.000000
842.256897	203.000000
842.291016	192.900000
842.325195	195.500000
842.359375	205.600000
842.393494	201.700000
842.427673	194.100000
842.461853	196.000000
842.495911	202.200000
842.530090	196.000000
842.564209	193.100000
842.598389	196.000000
842.632568	194.300000
842.666626	199.700000
842.700806	189.600000
842.734985	191.200000
842.769043	196.100000
842.803223	192.800000
842.837402	191.600000
842.871460	191.300000
842.905640	201.800000
842.939697	189.500000
842.973877	195.400000
843.007996	201.000000
843.042175	202.500000
843.076233	192.100000
843.110413	194.200000
843.144470	202.900000
843.178589	197.400000
843.212769	191.600000
843.246826	198.100000
843.280945	191.700000
843.315125	191.000000
843.349182	189.500000
843.383301	199.700000
843.417419	207.100000
843.451538	193.200000
843.485657	193.200000
843.519714	191.300000
843.553833	195.900000
843.587952	191.000000
843.622070	190.400000
843.656128	197.000000
843.690247	193.300000
843.724304	190.800000
843.758423	194.700000
843.792542	192.000000
843.826599	193.600000
843.860718	192.600000
843.894836	187.400000
843.928894	194.500000
843.963013	195.700000
843.997070	189.900000
844.031128	188.100000
844.065247	200.000000
844.099304	199.600000
844.133362	194.600000
844.167480	197.200000
844.201599	201.800000
844.235596	196.300000
844.269714	196.000000
844.303711	196.600000
844.337830	185.000000
844.371948	197.400000
844.405945	193.000000
844.440063	188.200000
844.474121	207.300000
844.508118	192.100000
844.542236	192.600000
844.576294	192.800000
844.610352	189.000000
844.644409	192.300000
844.678406	185.700000
844.712524	197.200000
844.746582	201.500000
844.780640	194.000000
844.814636	194.200000
844.848755	205.200000
844.882751	192.500000
844.916809	198.700000
844.950867	196.400000
844.984863	202.000000
845.018921	192.600000
845.052979	189.600000
845.086975	196.200000
845.121033	187.000000
845.155090	190.300000
845.189087	200.200000
845.223145	191.500000
845.257141	193.200000
845.291199	197.000000
845.325256	201.100000
845.359253	195.700000
845.393250	204.800000
845.427307	193.300000
845.461304	195.300000
845.495361	194.400000
845.529358	204.100000
845.563354	192.500000
845.597412	189.200000
845.631409	201.400000
845.665405	200.900000
845.699463	199.400000
845.733459	192.900000
845.767456	201.500000
845.801453	192.100000
845.835449	199.400000
845.869446	198.400000
845.903503	197.400000
845.937439	189.800000
845.971497	201.000000
846.005493	187.700000
846.039429	197.400000
846.073486	204.600000
846.107483	191.600000
846.141418	194.700000
846.175476	193.800000
846.209473	201.200000
846.243408	190.400000
846.277405	195.600000
846.311401	188.200000
846.345337	195.600000
846.379395	200.100000
846.413330	191.300000
846.447327	201.400000
846.481323	188.900000
846.515259	190.600000
846.549255	195.600000
846.583252	196.500000
846.617187	190.000000
846.651184	196.000000
846.685120	192.200000
846.719055	201.300000
846.753052	199.200000
846.786987	197.700000
846.820984	187.000000
846.854980	200.500000
846.888916	189.500000
846.922852	195.800000
846.956848	202.900000
846.990723	189.600000
847.024719	196.200000
847.058716	193.400000
847.092590	201.900000
847.126587	194.800000
847.160522	193.100000
847.194458	197.600000
847.228455	189.700000
847.262390	189.000000
847.296265	192.700000
847.330261	201.300000
847.364136	192.700000
847.398132	191.300000
847.432068	194.600000
847.466003	192.600000
847.499939	194.300000
847.533875	197.400000
847.567749	190.600000
847.601746	192.900000
847.635681	198.200000
847.669556	185.400000
847.703491	199.900000
847.737427	210.300000
847.771301	189.000000
847.805237	195.400000
847.839233	195.900000
847.873108	194.800000
847.907043	192.000000
847.940918	201.000000
847.974854	196.100000
848.008789	198.600000
848.042664	194.500000
848.076538	198.000000
848.110474	194.300000
848.144348	196.400000
848.178284	188.200000
848.212219	194.700000
848.246094	191.200000
848.279968	196.200000
848.313904	197.700000
848.347778	195.600000
848.381653	193.000000
848.415588	190.900000
848.449463	191.600000
848.483337	197.500000
848.517212	198.200000
848.551086	194.900000
848.585022	189.900000
848.618835	202.800000
848.652771	191.500000
848.686646	190.600000
848.720520	202.800000
848.754395	194.300000
848.788330	198.100000
848.822144	198.500000
848.856018	192.000000
848.889954	203.900000
848.923767	190.400000
848.957642	191.300000
848.991577	198.100000
849.025391	193.100000
849.059265	193.000000
849.093079	190.200000
849.126953	189.100000
849.160828	199.100000
849.194641	194.500000
849.228577	191.100000
849.262451	193.300000
849.296265	191.700000
849.330139	189.400000
849.364014	195.500000
849.397827	198.100000
849.431702	194.300000
849.465515	199.200000
849.499329	185.200000
849.533203	189.700000
849.567078	182.800000
849.600891	199.000000
849.634766	192.300000
849.668518	200.400000
849.702393	194.700000
849.736267	186.700000
849.770020	204.600000
849.803894	198.200000
849.837769	192.600000
849.871521	194.100000
849.905396	200.400000
849.939270	189.000000
849.973022	191.700000
850.006897	198.800000
850.040710	197.000000
850.074524	198.800000
850.108337	192.200000
850.142151	198.200000
850.175964	201.800000
850.209778	193.500000
850.243530	181.500000
850.277405	200.300000
850.311218	193.800000
850.344971	191.300000
850.378845	203.000000
850.412659	191.300000
850.446411	195.200000
850.480225	194.300000
850.514038	200.000000
850.547791	197.200000
850.581665	194.900000
850.615417	191.600000
850.649231	195.600000
850.683044	194.100000
850.716858	194.100000
850.750610	193.900000
850.784424	199.500000
850.818176	191.400000
850.851929	191.700000
850.885742	191.800000
850.919495	194.600000
850.953308	200.600000
850.987122	202.500000
851.020874	189.400000
851.054626	186.600000
851.088440	197.600000
851.122192	198.800000
851.156006	196.100000
851.189697	193.100000
851.223511	188.300000
851.257263	198.700000
851.291077	196.700000
851.324829	193.700000
851.358582	190.300000
851.392334	192.300000
851.426086	191.200000
851.459900	203.000000
851.493591	193.900000
851.527344	195.300000
851.561157	193.900000
851.594849	197.500000
851.628662	195.400000
851.662415	202.600000
851.696106	196.500000
851.729858	199.700000
851.763611	187.300000
851.797363	195.600000
851.831116	189.400000
851.864868	196.400000
851.898560	198.100000
851.932312	192.500000
851.966064	196.600000
851.999817	194.100000
852.033569	194.300000
852.067261	198.600000
852.101013	190.600000
852.134766	194.200000
852.168457	184.100000
852.202209	198.600000
852.235901	191.100000
852.269592	198.200000
852.303345	204.800000
852.337036	197.300000
852.370789	194.500000
852.404541	197.800000
852.438171	191.400000
852.471924	193.900000
852.505676	187.100000
852.539307	195.400000
852.573059	190.700000
852.606812	191.400000
852.640442	193.200000
852.674194	200.100000
852.707886	204.700000
852.741577	201.500000
852.775269	188.900000
852.809021	195.400000
852.842651	197.800000
852.876404	198.200000
852.910034	197.600000
852.943787	199.300000
852.977478	197.900000
853.011108	190.600000
853.044861	191.200000
853.078552	201.200000
853.112183	195.300000
853.145874	195.100000
853.179626	185.600000
853.213257	196.400000
853.246948	192.000000
853.280640	200.900000
853.314270	194.000000
853.347961	201.200000
853.381653	196.100000
853.415283	197.800000
853.448975	190.000000
853.482605	194.600000
853.516296	194.400000
853.549988	190.000000
853.583618	194.800000
853.617310	196.400000
853.651001	196.900000
853.684631	189.900000
853.718323	192.100000
853.751953	203.400000
853.785583	185.400000
853.819275	200.000000
853.852966	194.800000
853.886536	186.300000
853.920227	188.600000
853.953918	199.800000
853.987488	191.000000
854.021179	197.500000
854.054749	202.400000
854.088440	196.800000
854.122131	189.600000
854.155701	199.500000
854.189331	190.800000
854.223022	198.800000
854.256592	196.600000
854.290283	191.600000
854.323914	197.400000
854.357483	195.100000
854.391174	196.400000
854.424744	204.600000
854.458374	195.700000
854.492065	205.800000
854.525696	193.800000
854.559265	202.900000
854.592896	204.300000
854.626465	195.200000
854.660095	194.700000
854.693787	196.900000
854.727356	192.500000
854.760986	199.100000
854.794617	194.400000
854.828186	193.500000
854.861816	198.700000
854.895447	195.000000
854.929016	196.300000
854.962585	197.000000
854.996155	202.400000
855.029785	196.900000
855.063416	197.400000
855.097046	200.900000
855.130615	188.900000
855.164185	200.800000
855.197754	195.000000
855.231384	198.200000
855.264954	192.400000
855.298523	198.400000
855.332153	194.000000
855.365723	202.900000
855.399292	191.400000
855.432922	193.600000
855.466492	198.300000
855.500061	190.200000
855.533630	190.500000
855.567200	197.800000
855.600769	198.900000
855.634338	198.700000
855.667969	197.300000
855.701477	190.200000
855.735046	190.900000
855.768616	186.000000
855.802185	195.600000
855.835754	209.600000
855.869324	186.500000
855.902893	191.600000
855.936401	201.600000
855.969971	195.600000
856.003540	186.900000
856.037109	199.300000
856.070618	196.200000
856.104187	187.600000
856.137695	193.100000
856.171265	185.200000
856.204834	194.500000
856.238403	199.900000
856.271912	192.200000
856.305481	195.900000
856.338989	189.400000
856.372559	198.100000
856.406128	196.700000
856.439636	198.900000
856.473145	192.900000
856.506653	201.300000
856.540222	196.000000
856.573792	202.400000
856.607300	199.000000
856.640808	188.900000
856.674377	195.800000
856.707825	224.000000
856.741394	198.500000
856.774902	191.700000
856.808472	186.900000
856.841980	196.900000
856.875488	203.500000
856.908936	188.900000
856.942505	192.300000
856.976013	195.500000
857.009521	190.000000
857.043030	195.800000
857.076477	193.800000
857.110046	199.600000
857.143555	195.700000
857.177063	200.100000
857.210571	190.600000
857.244080	189.000000
857.277527	197.700000
857.311035	194.200000
857.344543	198.900000
857.378052	193.800000
857.411499	199.800000
857.445068	205.500000
857.478516	192.400000
857.512024	190.500000
857.545532	193.000000
857.578979	197.600000
857.612427	194.600000
857.645874	191.800000
857.679382	196.000000
857.712891	199.100000
857.746399	195.300000
857.779846	199.600000
857.813354	199.500000
857.846741	195.200000
857.880249	190.900000
857.913757	195.500000
857.947266	195.000000
857.980652	197.100000
858.014160	190.600000
858.047546	193.000000
858.081055	193.900000
858.114563	203.500000
858.147949	189.100000
858.181458	199.100000
858.214844	194.200000
858.248352	186.700000
858.281799	201.000000
858.315308	207.600000
858.348694	198.700000
858.382141	203.300000
858.415588	198.600000
858.449036	200.800000
858.482483	197.700000
858.515930	191.400000
858.549377	195.000000
858.582825	201.200000
858.616211	198.700000
858.649658	196.400000
858.683105	190.200000
858.716553	191.200000
858.750000	188.700000
858.783386	191.300000
858.816833	185.800000
858.850281	195.600000
858.883728	197.200000
858.917114	193.100000
858.950562	203.600000
858.983948	203.200000
859.017395	198.200000
859.050781	191.400000
859.084167	190.700000
859.117615	185.600000
859.151062	198.100000
859.184448	190.700000
859.217834	193.600000
859.251282	192.600000
859.284668	191.300000
859.318054	184.100000
859.351440	192.400000
859.384888	203.100000
859.418274	186.800000
859.451721	184.600000
859.485046	197.500000
859.518494	196.200000
859.551819	192.300000
859.585266	197.700000
859.618652	197.600000
859.652039	188.500000
859.685425	191.500000
859.718811	187.100000
859.752197	183.800000
859.785583	201.400000
859.819031	202.500000
859.852356	197.500000
859.885742	191.000000
859.919067	193.900000
859.952454	192.600000
859.985901	200.400000
860.019287	192.100000
860.052612	0.000000
860.085999	0.000000
860.119324	0.000000
860.152710	0.000000
860.186096	0.000000
860.219421	0.000000
860.252808	0.000000
860.286133	0.000000
860.319519	0.000000
860.352905	0.000000
860.386292	0.000000
860.419617	0.000000
860.452942	0.000000
860.486267	0.000000
860.519653	0.000000
860.553040	0.000000
860.586365	0.000000
860.619690	0.000000
860.653076	0.000000
860.686340	0.000000
860.719727	0.000000
860.753113	0.000000
860.786377	0.000000
860.819763	0.000000
860.853027	0.000000
860.886414	0.000000
860.919739	0.000000
860.953125	0.000000
860.986389	0.000000
861.019714	0.000000
861.053040	0.000000
861.086365	0.000000
861.119690	0.000000
861.153076	0.000000
861.186340	0.000000
861.219666	0.000000
861.252930	0.000000
861.286316	0.000000
861.319641	0.000000
861.352905	0.000000
861.386230	0.000000
861.419495	0.000000
861.452820	0.000000
861.486145	0.000000
861.519470	0.000000
861.552734	0.000000
861.586060	0.000000
861.619324	0.000000
861.652649	0.000000
861.685974	0.000000
861.719238	0.000000
861.752563	0.000000
861.785828	0.000000
861.819092	0.000000
861.852417	0.000000
861.885742	0.000000
861.918945	0.000000
861.952271	0.000000
861.985535	0.000000
862.018799	0.000000
862.052124	0.000000
862.085449	0.000000
862.118652	0.000000
862.151978	0.000000
862.185181	0.000000
862.218506	0.000000
862.251770	0.000000
862.285034	0.000000
862.318298	0.000000
862.351562	0.000000
862.384827	0.000000
862.418091	0.000000
862.451355	0.000000
862.484619	0.000000
862.517883	0.000000
862.551086	0.000000
862.584351	0.000000
862.617676	0.000000
862.650940	0.000000
862.684143	0.000000
862.717407	0.000000
862.750610	0.000000
862.783875	0.000000
862.817139	0.000000
862.850342	0.000000
862.883606	0.000000
862.916870	0.000000
862.950073	0.000000
862.983337	0.000000
863.016602	0.000000
863.049805	0.000000
863.083069	0.000000
863.116211	0.000000
863.149475	0.000000
863.182739	0.000000
863.216003	0.000000
863.249146	0.000000
863.282410	0.000000
863.315613	0.000000
863.348816	0.000000
863.382080	0.000000
863.415222	0.000000
863.448486	0.000000
863.481689	0.000000
863.514893	0.000000
863.548157	0.000000
863.581360	0.000000
863.614502	0.000000
863.647766	0.000000
863.680908	0.000000
863.714172	0.000000
863.747375	0.000000
863.780579	0.000000
863.813721	0.000000
863.846985	0.000000
863.880127	0.000000
863.913330	0.000000
863.946533	0.000000
863.979675	0.000000
864.012939	0.000000
