Model Number: SPM-001-M   
Serial Number: 10090201
Firmware Version: 004.17.6
Exposure Time: 500000.000000us
Data Taken on: 10-03-2021 11:08:43.985
Wavelength	Amplitude
733.770752	0.000000
733.808716	0.000000
733.846619	0.000000
733.884583	0.000000
733.922546	0.000000
733.960449	0.000000
733.998413	0.000000
734.036377	0.000000
734.074219	0.000000
734.112183	0.000000
734.150085	0.000000
734.188049	0.000000
734.226013	0.000000
734.263916	0.000000
734.301819	0.000000
734.339783	0.000000
734.377686	0.000000
734.415588	0.000000
734.453552	0.000000
734.491455	0.000000
734.529419	0.000000
734.567322	0.000000
734.605225	0.000000
734.643127	0.000000
734.681091	0.000000
734.718994	0.000000
734.756897	0.000000
734.794800	0.000000
734.832703	0.000000
734.870667	0.000000
734.908508	0.000000
734.946472	0.000000
734.984375	0.000000
735.022278	0.000000
735.060181	0.000000
735.098083	0.000000
735.135986	0.000000
735.173889	0.000000
735.211792	0.000000
735.249695	0.000000
735.287598	0.000000
735.325439	0.000000
735.363403	0.000000
735.401306	0.000000
735.439148	0.000000
735.477051	0.000000
735.515015	0.000000
735.552856	0.000000
735.590759	0.000000
735.628662	0.000000
735.666504	0.000000
735.704407	0.000000
735.742310	0.000000
735.780212	0.000000
735.818115	0.000000
735.856018	0.000000
735.893860	0.000000
735.931763	0.000000
735.969604	0.000000
736.007507	0.000000
736.045410	0.000000
736.083252	0.000000
736.121094	0.000000
736.158997	0.000000
736.196838	0.000000
736.234741	0.000000
736.272644	0.000000
736.310486	0.000000
736.348389	0.000000
736.386230	0.000000
736.424072	0.000000
736.461975	0.000000
736.499878	0.000000
736.537720	0.000000
736.575562	0.000000
736.613403	0.000000
736.651306	0.000000
736.689148	0.000000
736.726990	0.000000
736.764893	0.000000
736.802734	0.000000
736.840576	0.000000
736.878418	0.000000
736.916321	0.000000
736.954102	0.000000
736.992004	0.000000
737.029846	0.000000
737.067688	0.000000
737.105530	0.000000
737.143372	0.000000
737.181213	0.000000
737.219116	0.000000
737.256897	0.000000
737.294739	0.000000
737.332642	0.000000
737.370422	0.000000
737.408325	0.000000
737.446167	0.000000
737.483948	0.000000
737.521790	0.000000
737.559692	0.000000
737.597473	0.000000
737.635315	0.000000
737.673157	0.000000
737.710999	0.000000
737.748840	0.000000
737.786621	0.000000
737.824463	0.000000
737.862305	0.000000
737.900085	0.000000
737.937927	0.000000
737.975769	0.000000
738.013550	0.000000
738.051392	0.000000
738.089233	0.000000
738.127014	0.000000
738.164856	0.000000
738.202698	0.000000
738.240479	0.000000
738.278320	0.000000
738.316162	0.000000
738.353943	0.000000
738.391785	0.000000
738.429565	0.000000
738.467407	0.000000
738.505188	0.000000
738.542969	0.000000
738.580811	0.000000
738.618652	0.000000
738.656372	0.000000
738.694214	0.000000
738.732056	0.000000
738.769836	0.000000
738.807617	0.000000
738.845459	0.000000
738.883240	0.000000
738.921021	0.000000
738.958862	0.000000
738.996582	0.000000
739.034424	0.000000
739.072205	0.000000
739.109985	0.000000
739.147827	0.000000
739.185547	0.000000
739.223389	0.000000
739.261169	0.000000
739.298889	0.000000
739.336731	0.000000
739.374512	0.000000
739.412292	0.000000
739.450073	0.000000
739.487854	0.000000
739.525635	0.000000
739.563416	0.000000
739.601135	0.000000
739.638977	0.000000
739.676758	0.000000
739.714478	0.000000
739.752258	0.000000
739.790100	0.000000
739.827820	0.000000
739.865601	0.000000
739.903381	0.000000
739.941101	0.000000
739.978882	197.400000
740.016724	192.500000
740.054443	198.700000
740.092224	191.300000
740.130005	189.900000
740.167725	191.100000
740.205505	189.600000
740.243225	199.300000
740.281006	195.300000
740.318787	185.800000
740.356506	200.800000
740.394287	198.100000
740.432068	190.200000
740.469727	186.500000
740.507507	198.300000
740.545288	192.100000
740.583008	196.100000
740.620789	193.800000
740.658569	185.300000
740.696228	191.400000
740.734009	198.400000
740.771790	181.100000
740.809509	198.300000
740.847229	187.500000
740.884949	190.500000
740.922729	186.100000
740.960449	192.200000
740.998169	186.200000
741.035950	187.800000
741.073669	195.100000
741.111389	194.200000
741.149170	201.900000
741.186890	204.100000
741.224609	197.200000
741.262329	193.000000
741.300110	204.000000
741.337769	187.600000
741.375549	186.100000
741.413208	196.200000
741.450989	188.900000
741.488708	191.200000
741.526367	191.100000
741.564148	196.800000
741.601868	199.200000
741.639526	193.100000
741.677307	194.100000
741.715027	195.700000
741.752686	189.100000
741.790466	201.500000
741.828186	198.100000
741.865845	188.800000
741.903564	185.100000
741.941345	193.800000
741.979004	190.100000
742.016724	196.900000
742.054382	194.800000
742.092102	198.600000
742.129822	187.100000
742.167480	191.000000
742.205200	190.900000
742.242920	194.500000
742.280640	199.100000
742.318359	189.200000
742.356079	190.800000
742.393738	196.300000
742.431396	191.500000
742.469116	196.500000
742.506775	183.800000
742.544495	195.300000
742.582214	198.200000
742.619873	191.600000
742.657593	201.200000
742.695251	195.900000
742.732971	192.300000
742.770630	194.700000
742.808289	193.300000
742.846008	193.000000
742.883728	196.200000
742.921326	193.100000
742.959045	191.000000
742.996765	193.800000
743.034424	192.700000
743.072083	190.100000
743.109802	194.400000
743.147400	186.600000
743.185120	193.500000
743.222839	192.600000
743.260437	199.600000
743.298157	194.900000
743.335754	186.200000
743.373474	191.700000
743.411133	185.500000
743.448792	194.500000
743.486450	193.500000
743.524170	185.700000
743.561768	195.500000
743.599487	200.400000
743.637146	205.200000
743.674744	191.800000
743.712463	191.900000
743.750122	195.400000
743.787720	195.000000
743.825439	189.400000
743.863037	191.000000
743.900696	193.900000
743.938416	217.900000
743.976013	192.700000
744.013672	202.800000
744.051331	198.700000
744.088928	201.200000
744.126587	200.400000
744.164307	192.900000
744.201904	190.700000
744.239563	197.100000
744.277222	195.600000
744.314819	193.500000
744.352478	199.300000
744.390137	193.800000
744.427734	195.700000
744.465393	190.300000
744.502991	188.400000
744.540649	196.400000
744.578308	194.300000
744.615906	186.700000
744.653564	183.500000
744.691223	196.700000
744.728821	185.900000
744.766418	193.000000
744.804077	196.800000
744.841675	190.400000
744.879333	186.800000
744.916992	193.000000
744.954529	190.600000
744.992187	200.700000
745.029785	190.900000
745.067444	189.200000
745.105042	194.700000
745.142639	195.800000
745.180298	201.700000
745.217896	192.100000
745.255493	192.300000
745.293152	198.500000
745.330750	197.600000
745.368347	202.300000
745.405945	197.400000
745.443604	195.400000
745.481140	198.700000
745.518799	192.600000
745.556396	197.500000
745.593994	197.300000
745.631592	193.100000
745.669189	188.400000
745.706787	195.700000
745.744385	189.400000
745.781982	195.300000
745.819580	191.700000
745.857178	191.800000
745.894775	193.400000
745.932373	194.300000
745.969971	196.100000
746.007568	184.400000
746.045166	203.300000
746.082764	197.600000
746.120300	196.100000
746.157898	196.200000
746.195557	193.300000
746.233093	187.700000
746.270691	198.100000
746.308228	194.800000
746.345825	199.200000
746.383423	195.800000
746.420959	189.000000
746.458557	191.700000
746.496155	192.000000
746.533691	193.500000
746.571289	188.100000
746.608887	194.200000
746.646423	194.100000
746.684021	195.000000
746.721619	190.300000
746.759155	194.100000
746.796753	186.900000
746.834351	186.900000
746.871826	188.400000
746.909424	200.000000
746.946960	196.700000
746.984558	194.800000
747.022156	192.300000
747.059631	200.800000
747.097229	196.100000
747.134827	193.100000
747.172363	201.900000
747.209900	194.900000
747.247498	188.600000
747.285034	202.500000
747.322571	201.300000
747.360168	192.900000
747.397644	186.800000
747.435242	198.000000
747.472778	200.900000
747.510315	191.800000
747.547913	190.900000
747.585388	201.100000
747.622925	191.800000
747.660522	185.400000
747.697998	188.900000
747.735596	193.600000
747.773132	189.300000
747.810669	193.300000
747.848206	196.300000
747.885742	188.400000
747.923279	187.800000
747.960815	195.200000
747.998352	192.000000
748.035889	198.800000
748.073425	197.600000
748.110901	189.300000
748.148437	189.200000
748.185974	192.700000
748.223511	202.700000
748.261047	194.800000
748.298584	195.400000
748.336060	192.800000
748.373596	195.400000
748.411133	212.500000
748.448608	189.600000
748.486145	199.400000
748.523682	203.100000
748.561218	199.600000
748.598755	193.500000
748.636292	198.500000
748.673706	191.400000
748.711243	200.500000
748.748718	196.200000
748.786255	194.400000
748.823792	193.900000
748.861267	189.300000
748.898804	195.300000
748.936340	196.000000
748.973816	191.900000
749.011292	199.900000
749.048828	195.000000
749.086304	196.300000
749.123840	205.400000
749.161316	189.400000
749.198792	205.700000
749.236328	200.400000
749.273743	193.900000
749.311279	191.100000
749.348816	195.900000
749.386230	194.000000
749.423767	182.400000
749.461304	196.900000
749.498718	195.100000
749.536255	199.800000
749.573730	206.800000
749.611206	199.800000
749.648682	192.200000
749.686218	192.800000
749.723633	198.500000
749.761169	190.900000
749.798645	190.000000
749.836060	191.200000
749.873596	191.000000
749.911011	192.200000
749.948547	199.500000
749.986023	194.100000
750.023437	191.200000
750.060913	187.500000
750.098450	187.900000
750.135864	192.700000
750.173340	194.700000
750.210815	198.700000
750.248291	189.700000
750.285767	194.400000
750.323242	200.500000
750.360657	195.300000
750.398132	189.900000
750.435608	198.300000
750.473022	189.600000
750.510498	189.700000
750.547974	190.600000
750.585449	191.300000
750.622925	184.400000
750.660339	203.200000
750.697815	193.100000
750.735291	194.000000
750.772644	193.200000
750.810120	193.500000
750.847595	195.300000
750.885010	189.400000
750.922485	202.600000
750.959961	193.600000
750.997375	201.300000
751.034851	198.800000
751.072266	199.600000
751.109680	186.900000
751.147156	199.900000
751.184570	196.700000
751.221985	194.400000
751.259460	185.400000
751.296875	194.200000
751.334290	194.600000
751.371765	198.700000
751.409180	198.400000
751.446594	200.000000
751.484070	196.500000
751.521423	195.300000
751.558899	195.700000
751.596375	202.200000
751.633728	201.000000
751.671204	208.000000
751.708618	188.800000
751.746033	195.000000
751.783447	189.700000
751.820801	189.900000
751.858276	197.400000
751.895691	193.100000
751.933105	192.000000
751.970520	187.900000
752.007935	191.600000
752.045349	198.000000
752.082764	193.000000
752.120178	192.700000
752.157532	189.700000
752.195007	191.700000
752.232422	196.300000
752.269775	198.300000
752.307190	195.200000
752.344543	189.100000
752.382019	190.900000
752.419434	192.900000
752.456787	195.400000
752.494202	198.800000
752.531616	196.300000
752.568970	199.600000
752.606384	195.400000
752.643799	196.600000
752.681152	203.000000
752.718567	197.600000
752.755981	185.600000
752.793335	197.300000
752.830750	186.700000
752.868164	200.500000
752.905518	188.900000
752.942932	198.800000
752.980225	189.000000
753.017639	199.200000
753.055054	191.600000
753.092407	196.700000
753.129822	198.900000
753.167175	204.700000
753.204529	192.900000
753.241943	190.600000
753.279358	186.800000
753.316650	198.600000
753.354065	195.000000
753.391479	198.500000
753.428772	203.700000
753.466187	197.300000
753.503479	186.600000
753.540894	193.700000
753.578308	188.300000
753.615601	188.800000
753.653015	193.700000
753.690369	191.500000
753.727722	189.200000
753.765076	187.000000
753.802490	188.700000
753.839783	183.900000
753.877136	190.300000
753.914551	209.000000
753.951843	189.300000
753.989258	198.900000
754.026611	195.700000
754.063904	196.400000
754.101257	190.200000
754.138611	187.300000
754.175964	194.900000
754.213318	206.000000
754.250610	187.000000
754.288025	191.700000
754.325378	188.800000
754.362671	198.700000
754.400024	193.300000
754.437378	203.400000
754.474670	204.600000
754.512085	190.400000
754.549438	196.300000
754.586731	190.900000
754.624084	194.000000
754.661438	188.900000
754.698730	202.000000
754.736084	190.800000
754.773376	193.400000
754.810730	197.000000
754.848083	193.100000
754.885315	198.300000
754.922668	186.600000
754.960022	189.300000
754.997314	199.800000
755.034668	195.500000
755.072021	195.700000
755.109253	191.200000
755.146606	203.200000
755.183960	194.700000
755.221252	204.700000
755.258545	201.500000
755.295898	201.300000
755.333191	203.400000
755.370544	199.500000
755.407776	195.400000
755.445129	197.600000
755.482422	201.800000
755.519714	193.500000
755.557068	188.500000
755.594360	188.800000
755.631653	201.600000
755.668945	207.000000
755.706299	200.200000
755.743530	210.000000
755.780884	206.700000
755.818176	203.400000
755.855408	204.600000
755.892761	201.300000
755.930054	198.700000
755.967346	201.500000
756.004639	202.600000
756.041870	198.400000
756.079224	204.300000
756.116516	194.500000
756.153748	203.900000
756.191040	207.800000
756.228394	202.500000
756.265625	195.000000
756.302917	200.800000
756.340210	196.400000
756.377441	206.400000
756.414795	207.900000
756.452087	199.400000
756.489319	192.500000
756.526611	204.200000
756.563843	201.600000
756.601135	212.500000
756.638428	209.600000
756.675659	201.500000
756.712952	205.800000
756.750244	205.500000
756.787476	203.000000
756.824768	209.000000
756.862061	199.000000
756.899292	248.500000
756.936584	206.400000
756.973816	214.500000
757.011047	215.500000
757.048340	205.000000
757.085632	203.000000
757.122864	220.000000
757.160156	201.600000
757.197327	205.400000
757.234619	208.800000
757.271912	204.000000
757.309082	210.000000
757.346375	203.200000
757.383667	211.300000
757.420837	207.300000
757.458130	207.200000
757.495422	205.500000
757.532593	208.400000
757.569885	199.500000
757.607117	201.800000
757.644348	208.000000
757.681580	221.100000
757.718811	194.500000
757.756042	207.900000
757.793335	203.400000
757.830505	210.400000
757.867798	204.700000
757.905029	205.000000
757.942200	208.200000
757.979492	204.500000
758.016724	207.400000
758.053894	205.800000
758.091187	227.500000
758.128418	209.300000
758.165588	205.200000
758.202820	219.300000
758.240112	209.900000
758.277283	220.100000
758.314514	211.100000
758.351685	206.400000
758.388916	220.300000
758.426147	217.500000
758.463379	219.000000
758.500610	214.400000
758.537842	209.500000
758.575012	218.100000
758.612244	206.300000
758.649475	224.500000
758.686646	204.300000
758.723877	219.300000
758.761108	219.100000
758.798279	211.600000
758.835510	215.400000
758.872742	218.300000
758.909851	214.900000
758.947083	215.500000
758.984253	215.400000
759.021484	219.300000
759.058716	220.200000
759.095886	217.900000
759.133057	214.200000
759.170288	218.300000
759.207458	212.000000
759.244690	226.600000
759.281860	227.000000
759.319031	215.000000
759.356262	215.200000
759.393433	214.600000
759.430603	215.600000
759.467773	215.400000
759.505005	223.300000
759.542175	221.500000
759.579346	215.300000
759.616516	216.300000
759.653687	220.800000
759.690918	212.600000
759.728027	217.700000
759.765259	218.100000
759.802429	221.600000
759.839539	220.400000
759.876770	224.800000
759.913940	228.000000
759.951111	220.200000
759.988281	218.100000
760.025452	217.200000
760.062561	213.300000
760.099792	227.900000
760.136963	221.800000
760.174072	218.900000
760.211243	213.100000
760.248413	217.200000
760.285583	214.800000
760.322754	232.600000
760.359863	226.600000
760.397034	227.000000
760.434204	218.500000
760.471375	220.400000
760.508545	220.000000
760.545715	219.400000
760.582825	216.000000
760.619995	227.000000
760.657166	214.500000
760.694275	227.800000
760.731445	224.800000
760.768555	225.200000
760.805664	226.300000
760.842834	225.100000
760.879944	228.700000
760.917114	226.100000
760.954285	225.400000
760.991394	218.600000
761.028564	230.900000
761.065674	230.500000
761.102783	223.000000
761.139954	231.100000
761.177124	232.400000
761.214172	234.500000
761.251343	227.100000
761.288452	227.900000
761.325562	233.600000
761.362732	224.400000
761.399841	230.000000
761.436951	232.400000
761.474121	226.000000
761.511169	231.200000
761.548340	238.200000
761.585449	235.400000
761.622559	238.800000
761.659668	233.800000
761.696838	241.000000
761.733887	237.900000
761.771057	233.800000
761.808167	235.000000
761.845276	239.900000
761.882385	247.600000
761.919434	239.200000
761.956604	258.800000
761.993713	234.600000
762.030762	245.600000
762.067871	238.700000
762.105042	237.200000
762.142090	248.600000
762.179199	241.600000
762.216309	246.200000
762.253418	257.500000
762.290527	252.500000
762.327637	247.400000
762.364685	238.700000
762.401794	248.900000
762.438904	245.600000
762.475952	241.500000
762.513062	240.800000
762.550110	241.500000
762.587219	257.000000
762.624329	258.300000
762.661377	250.500000
762.698486	251.200000
762.735596	250.400000
762.772644	242.600000
762.809753	240.900000
762.846863	249.900000
762.883911	253.200000
762.921021	253.700000
762.958069	251.200000
762.995117	260.400000
763.032227	259.000000
763.069336	252.400000
763.106323	248.400000
763.143433	246.100000
763.180481	255.500000
763.217590	256.100000
763.254639	251.000000
763.291687	255.200000
763.328735	262.900000
763.365845	257.100000
763.402893	253.900000
763.439941	259.200000
763.477051	260.900000
763.514038	263.900000
763.551147	254.400000
763.588196	259.900000
763.625244	257.700000
763.662292	267.800000
763.699402	267.400000
763.736389	265.100000
763.773499	271.700000
763.810486	266.200000
763.847534	264.500000
763.884644	268.800000
763.921631	261.400000
763.958679	276.200000
763.995728	264.000000
764.032776	275.300000
764.069824	258.900000
764.106873	268.500000
764.143860	276.700000
764.180969	268.800000
764.218018	278.400000
764.255005	269.400000
764.292053	272.800000
764.329102	284.100000
764.366089	282.500000
764.403137	280.400000
764.440125	270.500000
764.477173	273.200000
764.514221	276.500000
764.551208	276.500000
764.588257	269.300000
764.625305	280.700000
764.662292	288.700000
764.699341	293.300000
764.736389	283.200000
764.773376	297.600000
764.810425	286.300000
764.847473	292.400000
764.884399	289.100000
764.921448	295.300000
764.958435	294.100000
764.995483	282.900000
765.032532	302.100000
765.069458	284.500000
765.106506	288.000000
765.143555	285.900000
765.180481	289.800000
765.217529	296.700000
765.254578	284.900000
765.291504	293.000000
765.328552	291.500000
765.365540	287.000000
765.402527	303.800000
765.439575	288.200000
765.476501	284.200000
765.513550	284.400000
765.550537	292.100000
765.587463	297.900000
765.624512	288.100000
765.661499	281.400000
765.698486	299.900000
765.735474	288.500000
765.772461	293.700000
765.809448	300.800000
765.846436	300.700000
765.883423	302.800000
765.920410	297.000000
765.957397	292.800000
765.994385	297.700000
766.031311	308.600000
766.068359	302.100000
766.105286	302.100000
766.142273	307.600000
766.179260	304.900000
766.216187	296.600000
766.253174	296.200000
766.290161	304.800000
766.327148	308.200000
766.364136	308.100000
766.401123	324.800000
766.438049	301.600000
766.475037	319.000000
766.512024	313.200000
766.548950	329.700000
766.585937	323.100000
766.622864	319.300000
766.659790	318.200000
766.696777	307.800000
766.733704	325.000000
766.770691	317.600000
766.807678	330.500000
766.844604	325.700000
766.881531	325.900000
766.918518	330.700000
766.955444	334.600000
766.992432	327.500000
767.029358	330.300000
767.066284	332.800000
767.103271	330.200000
767.140198	363.000000
767.177124	347.100000
767.214050	340.400000
767.251038	342.100000
767.287964	337.600000
767.324890	334.300000
767.361816	340.100000
767.398743	349.800000
767.435730	343.100000
767.472595	347.000000
767.509583	354.100000
767.546509	342.400000
767.583374	350.900000
767.620361	342.600000
767.657288	353.400000
767.694214	349.400000
767.731140	349.900000
767.768066	352.000000
767.804993	356.600000
767.841919	347.200000
767.878845	356.200000
767.915710	368.200000
767.952698	357.800000
767.989563	361.500000
768.026489	363.200000
768.063416	358.700000
768.100281	356.500000
768.137207	371.700000
768.174133	370.900000
768.211060	369.400000
768.247986	367.800000
768.284912	368.100000
768.321777	370.200000
768.358704	368.000000
768.395630	372.300000
768.432495	368.700000
768.469421	374.700000
768.506348	377.300000
768.543152	389.300000
768.580078	384.400000
768.616943	384.300000
768.653870	386.800000
768.690796	385.400000
768.727661	385.500000
768.764587	385.500000
768.801453	382.500000
768.838318	393.100000
768.875244	392.100000
768.912109	398.200000
768.948975	391.300000
768.985901	394.000000
769.022766	397.300000
769.059631	402.100000
769.096558	395.400000
769.133362	399.200000
769.170288	397.200000
769.207214	398.600000
769.244019	407.800000
769.280945	403.300000
769.317810	413.000000
769.354675	407.300000
769.391541	416.300000
769.428406	410.200000
769.465271	422.800000
769.502136	414.100000
769.539062	418.200000
769.575867	416.200000
769.612732	417.500000
769.649597	424.100000
769.686462	430.100000
769.723328	425.500000
769.760193	421.700000
769.797058	423.200000
769.833923	434.800000
769.870728	427.400000
769.907593	434.100000
769.944519	432.900000
769.981323	436.400000
770.018188	438.000000
770.055054	433.100000
770.091858	435.000000
770.128723	448.300000
770.165588	451.300000
770.202393	435.600000
770.239258	450.800000
770.276062	445.700000
770.312927	448.500000
770.349792	452.100000
770.386597	452.000000
770.423462	458.600000
770.460327	466.800000
770.497131	450.800000
770.533997	445.400000
770.570862	461.400000
770.607605	465.600000
770.644470	456.000000
770.681335	459.900000
770.718140	456.900000
770.754944	450.100000
770.791809	452.100000
770.828613	455.400000
770.865479	453.800000
770.902222	469.100000
770.939087	460.800000
770.975952	449.700000
771.012695	456.400000
771.049561	476.700000
771.086365	461.000000
771.123169	459.900000
771.159973	463.700000
771.196838	461.900000
771.233582	464.300000
771.270447	464.100000
771.307251	469.200000
771.344055	467.000000
771.380859	472.500000
771.417664	463.000000
771.454468	472.500000
771.491272	474.400000
771.528076	474.300000
771.564880	472.900000
771.601685	486.500000
771.638428	475.700000
771.675293	481.600000
771.712097	470.400000
771.748840	494.300000
771.785645	480.100000
771.822449	483.000000
771.859253	486.300000
771.896057	486.700000
771.932861	498.700000
771.969604	489.100000
772.006409	482.700000
772.043213	498.300000
772.079956	495.000000
772.116760	487.100000
772.153503	491.200000
772.190308	499.900000
772.227112	491.600000
772.263855	490.400000
772.300659	499.300000
772.337463	509.200000
772.374207	498.600000
772.411011	496.200000
772.447754	500.100000
772.484497	518.000000
772.521301	512.400000
772.558105	509.700000
772.594849	510.800000
772.631592	516.500000
772.668396	516.300000
772.705139	527.500000
772.741882	525.800000
772.778625	540.000000
772.815430	541.400000
772.852173	535.800000
772.888916	544.200000
772.925720	548.500000
772.962463	556.700000
772.999207	553.800000
773.035950	558.000000
773.072754	554.000000
773.109436	550.600000
773.146240	554.000000
773.182922	552.900000
773.219727	566.300000
773.256470	559.200000
773.293152	544.400000
773.329956	554.900000
773.366699	561.600000
773.403381	555.200000
773.440186	564.300000
773.476929	571.200000
773.513611	561.900000
773.550354	563.000000
773.587158	565.200000
773.623840	564.200000
773.660583	574.600000
773.697327	591.000000
773.734009	578.300000
773.770813	580.300000
773.807495	576.800000
773.844238	582.500000
773.880981	595.500000
773.917664	597.400000
773.954407	601.700000
773.991150	592.000000
774.027832	595.800000
774.064575	591.400000
774.101318	601.100000
774.138000	607.000000
774.174744	605.100000
774.211487	606.300000
774.248108	598.800000
774.284851	595.900000
774.321594	607.900000
774.358276	613.000000
774.395020	620.400000
774.431702	618.700000
774.468384	613.900000
774.505127	611.000000
774.541809	630.100000
774.578491	641.500000
774.615234	643.200000
774.651917	631.200000
774.688599	632.400000
774.725342	641.900000
774.762024	644.800000
774.798706	651.900000
774.835449	650.700000
774.872070	657.700000
774.908813	655.800000
774.945496	650.900000
774.982178	653.200000
775.018860	659.100000
775.055542	662.300000
775.092224	665.000000
775.128967	670.400000
775.165588	666.900000
775.202271	659.100000
775.239014	670.900000
775.275635	675.700000
775.312317	670.500000
775.349060	677.400000
775.385681	675.100000
775.422363	667.500000
775.459045	680.700000
775.495667	682.500000
775.532410	687.200000
775.569092	690.500000
775.605713	685.400000
775.642395	686.900000
775.679016	690.000000
775.715698	697.800000
775.752380	701.900000
775.789001	693.400000
775.825684	686.700000
775.862366	692.400000
775.898987	705.500000
775.935669	695.600000
775.972351	719.500000
776.008972	716.700000
776.045654	713.700000
776.082336	708.700000
776.118958	705.400000
776.155640	711.400000
776.192322	722.500000
776.228882	727.000000
776.265564	723.600000
776.302185	716.600000
776.338867	725.500000
776.375488	712.100000
776.412109	727.600000
776.448792	736.900000
776.485413	739.800000
776.522034	727.600000
776.558716	722.200000
776.595337	716.800000
776.631958	725.700000
776.668579	729.800000
776.705261	733.100000
776.741882	724.300000
776.778503	724.000000
776.815186	719.100000
776.851746	728.300000
776.888367	731.900000
776.924988	741.700000
776.961609	726.800000
776.998291	731.700000
777.034851	718.300000
777.071472	737.000000
777.108154	733.600000
777.144714	746.800000
777.181335	746.600000
777.218018	736.300000
777.254578	742.900000
777.291199	741.700000
777.327759	751.300000
777.364380	758.900000
777.401062	761.000000
777.437622	776.900000
777.474243	755.500000
777.510864	770.100000
777.547424	768.300000
777.584045	772.700000
777.620667	778.500000
777.657227	782.900000
777.693848	783.700000
777.730469	798.800000
777.767029	788.600000
777.803650	792.800000
777.840271	784.200000
777.876831	788.300000
777.913452	793.300000
777.950012	775.100000
777.986633	776.400000
778.023193	777.000000
778.059753	780.800000
778.096375	782.600000
778.132996	793.600000
778.169556	781.600000
778.206116	784.500000
778.242737	781.400000
778.279297	790.800000
778.315857	785.700000
778.352478	791.800000
778.389038	809.500000
778.425598	808.400000
778.462219	817.900000
778.498718	815.400000
778.535339	820.500000
778.571838	827.700000
778.608459	833.800000
778.645020	827.500000
778.681580	838.000000
778.718140	844.200000
778.754761	840.800000
778.791260	848.100000
778.827881	858.300000
778.864441	851.000000
778.900940	858.800000
778.937561	857.400000
778.974121	855.500000
779.010620	840.600000
779.047241	850.900000
779.083801	865.900000
779.120300	865.500000
779.156860	871.100000
779.193359	861.800000
779.229980	865.100000
779.266541	878.000000
779.303040	881.900000
779.339600	871.400000
779.376160	864.500000
779.412659	873.400000
779.449219	867.200000
779.485779	880.200000
779.522278	881.400000
779.558838	884.300000
779.595398	889.000000
779.631897	886.500000
779.668457	876.500000
779.705017	887.200000
779.741516	882.000000
779.778076	879.400000
779.814575	887.900000
779.851074	898.000000
779.887634	891.700000
779.924133	901.000000
779.960693	884.200000
779.997253	894.300000
780.033691	906.900000
780.070251	910.500000
780.106812	924.100000
780.143250	920.200000
780.179810	914.100000
780.216370	916.600000
780.252808	930.100000
780.289368	944.300000
780.325867	944.500000
780.362366	941.700000
780.398865	954.000000
780.435364	951.200000
780.471863	961.100000
780.508423	959.700000
780.544861	967.600000
780.581421	974.800000
780.617920	960.600000
780.654419	959.900000
780.690918	969.400000
780.727417	979.000000
780.763916	973.200000
780.800415	978.100000
780.836914	964.200000
780.873352	971.100000
780.909912	963.500000
780.946411	975.900000
780.982849	979.300000
781.019348	1001.700000
781.055786	995.800000
781.092346	984.500000
781.128845	995.700000
781.165283	1010.700000
781.201782	1013.500000
781.238281	1018.200000
781.274719	1022.800000
781.311218	1014.400000
781.347717	1025.600000
781.384155	1010.900000
781.420654	1009.900000
781.457092	1026.100000
781.493591	1019.800000
781.530090	1016.100000
781.566528	1019.400000
781.602966	1023.500000
781.639465	1021.200000
781.675903	1019.600000
781.712402	1026.300000
781.748901	1034.700000
781.785278	1025.300000
781.821777	1034.100000
781.858276	1024.900000
781.894714	1040.700000
781.931152	1037.500000
781.967651	1044.500000
782.004089	1036.600000
782.040527	1040.000000
782.076965	1042.300000
782.113403	1041.900000
782.149902	1050.200000
782.186340	1043.800000
782.222778	1056.900000
782.259277	1039.400000
782.295654	1038.600000
782.332092	1048.800000
782.368591	1047.900000
782.404968	1033.900000
782.441467	1042.700000
782.477905	1044.100000
782.514282	1039.000000
782.550781	1060.500000
782.587219	1054.200000
782.623596	1057.300000
782.660095	1058.900000
782.696472	1068.900000
782.732910	1072.000000
782.769348	1075.600000
782.805786	1092.300000
782.842224	1089.700000
782.878662	1085.200000
782.915039	1082.500000
782.951477	1082.200000
782.987915	1077.500000
783.024292	1086.800000
783.060730	1084.100000
783.097168	1065.200000
783.133545	1061.400000
783.169983	1053.700000
783.206421	1054.100000
783.242798	1049.100000
783.279236	1036.600000
783.315613	1036.000000
783.352051	1034.300000
783.388489	1018.300000
783.424866	1005.000000
783.461304	1012.000000
783.497681	1016.900000
783.534058	1009.300000
783.570496	1005.000000
783.606934	1000.800000
783.643250	1012.400000
783.679687	1022.700000
783.716125	1025.900000
783.752441	1040.400000
783.788879	1056.100000
783.825317	1055.000000
783.861633	1060.800000
783.898071	1065.600000
783.934448	1091.300000
783.970825	1098.800000
784.007263	1084.700000
784.043579	1043.100000
784.080017	983.000000
784.116394	888.300000
784.152710	829.300000
784.189148	807.500000
784.225525	831.100000
784.261902	879.700000
784.298279	950.900000
784.334656	1022.800000
784.371033	1067.700000
784.407410	1093.000000
784.443787	1086.700000
784.480164	1069.300000
784.516541	1053.700000
784.552856	1059.000000
784.589233	1053.900000
784.625610	1050.100000
784.661987	1083.500000
784.698364	1066.900000
784.734741	1060.900000
784.771057	1059.400000
784.807434	1067.100000
784.843811	1086.300000
784.880127	1090.200000
784.916504	1120.900000
784.952881	1120.800000
784.989197	1113.600000
785.025574	1116.500000
785.061951	1128.400000
785.098267	1158.800000
785.134644	1155.300000
785.170959	1152.400000
785.207275	1164.500000
785.243652	1161.200000
785.279968	1147.200000
785.316345	1158.500000
785.352722	1165.500000
785.388977	1164.700000
785.425354	1142.800000
785.461731	1114.900000
785.498047	1099.600000
785.534363	1097.100000
785.570679	1099.200000
785.606995	1104.100000
785.643372	1108.300000
785.679687	1092.100000
785.716003	1081.100000
785.752380	1078.900000
785.788635	1082.300000
785.825012	1106.400000
785.861328	1118.100000
785.897644	1104.900000
785.933960	1126.100000
785.970337	1132.600000
786.006592	1149.600000
786.042908	1164.800000
786.079285	1186.500000
786.115540	1193.500000
786.151855	1186.200000
786.188171	1183.800000
786.224487	1186.700000
786.260803	1189.900000
786.297119	1198.100000
786.333435	1195.900000
786.369751	1198.100000
786.406006	1196.500000
786.442322	1177.100000
786.478638	1169.200000
786.514954	1186.800000
786.551270	1182.300000
786.587585	1194.400000
786.623840	1177.100000
786.660156	1169.500000
786.696472	1154.400000
786.732727	1155.800000
786.769043	1159.900000
786.805298	1149.100000
786.841614	1152.000000
786.877930	1153.200000
786.914124	1136.900000
786.950439	1151.700000
786.986755	1164.300000
787.023010	1181.300000
787.059326	1192.500000
787.095642	1187.300000
787.131836	1206.400000
787.168152	1192.900000
787.204468	1202.700000
787.240723	1231.100000
787.276978	1240.700000
787.313293	1244.500000
787.349548	1244.700000
787.385803	1242.900000
787.422058	1231.500000
787.458313	1234.600000
787.494629	1234.700000
787.530823	1230.700000
787.567139	1225.700000
787.603455	1215.500000
787.639648	1191.900000
787.675903	1192.500000
787.712219	1198.000000
787.748413	1199.300000
787.784729	1204.800000
787.820984	1187.500000
787.857178	1174.900000
787.893494	1169.000000
787.929749	1163.300000
787.965942	1170.300000
788.002258	1178.200000
788.038452	1191.200000
788.074707	1180.100000
788.110962	1182.100000
788.147217	1182.900000
788.183472	1189.300000
788.219727	1203.200000
788.255920	1224.100000
788.292175	1236.700000
788.328430	1225.000000
788.364624	1203.000000
788.400879	1196.300000
788.437134	1211.300000
788.473328	1202.500000
788.509583	1201.200000
788.545837	1199.400000
788.582031	1186.500000
788.618286	1175.900000
788.654480	1170.700000
788.690735	1186.500000
788.726990	1209.700000
788.763184	1209.600000
788.799377	1214.800000
788.835632	1199.800000
788.871826	1218.200000
788.908081	1218.400000
788.944336	1217.700000
788.980469	1232.800000
789.016724	1224.800000
789.052979	1225.000000
789.089111	1201.400000
789.125366	1207.000000
789.161621	1185.700000
789.197754	1198.500000
789.234009	1193.500000
789.270142	1180.000000
789.306396	1166.600000
789.342590	1154.600000
789.378784	1126.000000
789.414978	1127.900000
789.451233	1154.300000
789.487366	1149.100000
789.523621	1149.400000
789.559814	1144.100000
789.595947	1135.300000
789.632202	1144.600000
789.668335	1163.500000
789.704529	1180.900000
789.740784	1195.800000
789.776917	1197.500000
789.813110	1185.800000
789.849304	1206.200000
789.885498	1209.400000
789.921692	1224.000000
789.957886	1233.800000
789.994019	1232.100000
790.030212	1215.700000
790.066406	1226.100000
790.102539	1221.300000
790.138733	1228.400000
790.174927	1229.400000
790.211060	1240.900000
790.247253	1223.600000
790.283386	1205.200000
790.319580	1191.200000
790.355774	1174.600000
790.391907	1185.500000
790.428101	1201.400000
790.464294	1203.400000
790.500427	1205.100000
790.536621	1190.600000
790.572754	1175.000000
790.608887	1178.200000
790.645081	1188.700000
790.681274	1197.200000
790.717346	1199.200000
790.753540	1159.300000
790.789734	1074.200000
790.825867	1017.800000
790.862000	1014.800000
790.898132	1060.400000
790.934265	1124.800000
790.970459	1185.400000
791.006592	1213.000000
791.042725	1212.400000
791.078918	1206.000000
791.114990	1209.800000
791.151184	1226.500000
791.187317	1254.300000
791.223389	1242.600000
791.259583	1226.500000
791.295715	1229.500000
791.331848	1236.500000
791.367981	1249.300000
791.404114	1261.800000
791.440247	1255.200000
791.476379	1254.800000
791.512451	1234.400000
791.548584	1235.200000
791.584778	1224.700000
791.620850	1252.400000
791.656982	1254.100000
791.693115	1249.000000
791.729187	1243.600000
791.765381	1235.000000
791.801514	1225.500000
791.837585	1232.500000
791.873718	1249.700000
791.909851	1254.100000
791.945923	1262.400000
791.982056	1221.500000
792.018188	1223.600000
792.054260	1228.000000
792.090393	1228.100000
792.126465	1227.600000
792.162598	1237.200000
792.198669	1221.700000
792.234741	1211.600000
792.270874	1204.100000
792.307007	1186.100000
792.343079	1198.500000
792.379150	1214.100000
792.415283	1197.300000
792.451355	1196.200000
792.487488	1166.700000
792.523560	1169.200000
792.559631	1174.700000
792.595764	1171.200000
792.631836	1181.100000
792.667908	1189.900000
792.703979	1167.100000
792.740051	1168.500000
792.776184	1176.200000
792.812256	1175.100000
792.848328	1183.500000
792.884399	1189.900000
792.920471	1187.700000
792.956543	1175.700000
792.992615	1171.700000
793.028748	1164.500000
793.064758	1176.600000
793.100830	1199.300000
793.136963	1215.300000
793.172974	1203.800000
793.209045	1193.600000
793.245178	1210.000000
793.281189	1199.300000
793.317261	1202.400000
793.353271	1205.200000
793.389404	1210.500000
793.425476	1211.700000
793.461487	1191.400000
793.497559	1185.400000
793.533630	1192.300000
793.569641	1194.100000
793.605713	1194.600000
793.641785	1204.100000
793.677795	1208.000000
793.713867	1190.300000
793.749878	1198.700000
793.785950	1212.400000
793.822021	1215.300000
793.858032	1195.300000
793.894104	1209.900000
793.930176	1200.700000
793.966187	1205.900000
794.002258	1188.600000
794.038269	1191.100000
794.074280	1194.300000
794.110352	1215.800000
794.146423	1187.600000
794.182373	1172.100000
794.218445	1166.200000
794.254517	1155.500000
794.290466	1144.500000
794.326538	1147.300000
794.362549	1157.400000
794.398560	1159.800000
794.434631	1164.600000
794.470581	1131.300000
794.506653	1123.700000
794.542664	1122.700000
794.578674	1123.500000
794.614685	1122.100000
794.650757	1120.900000
794.686707	1114.200000
794.722778	1097.400000
794.758789	1105.800000
794.794739	1117.600000
794.830811	1141.900000
794.866821	1159.600000
794.902771	1147.800000
794.938843	1138.300000
794.974792	1136.900000
795.010803	1132.700000
795.046814	1130.200000
795.082825	1121.100000
795.118835	1138.600000
795.154846	1115.500000
795.190796	1121.100000
795.226807	1095.700000
795.262817	1100.500000
795.298767	1098.100000
795.334778	1106.200000
795.370850	1094.400000
795.406799	1095.700000
795.442810	1075.800000
795.478821	1074.900000
795.514709	1070.700000
795.550720	1092.500000
795.586670	1073.900000
795.622681	1077.100000
795.658691	1074.900000
795.694641	1070.300000
795.730652	1058.000000
795.766663	1065.300000
795.802551	1069.700000
795.838562	1085.400000
795.874573	1063.600000
795.910522	1066.200000
795.946472	1054.100000
795.982483	1059.600000
796.018433	1062.400000
796.054382	1072.300000
796.090393	1062.300000
796.126282	1049.000000
796.162292	1037.400000
796.198242	1027.500000
796.234192	1031.700000
796.270203	1034.100000
796.306091	1039.200000
796.342041	1054.300000
796.378052	1041.100000
796.413940	1035.500000
796.449951	1034.100000
796.485901	1031.000000
796.521790	1037.900000
796.557800	1050.300000
796.593689	1042.300000
796.629639	1035.100000
796.665649	1026.800000
796.701599	1029.000000
796.737488	1025.500000
796.773437	1033.100000
796.809387	1033.200000
796.845337	1030.800000
796.881287	1016.600000
796.917175	1001.400000
796.953125	1003.900000
796.989075	1013.600000
797.024963	1020.200000
797.060913	1014.200000
797.096863	1012.400000
797.132751	1005.000000
797.168701	985.800000
797.204590	994.100000
797.240540	995.600000
797.276489	1005.800000
797.312439	1009.000000
797.348328	1001.500000
797.384277	992.700000
797.420166	985.000000
797.456055	983.700000
797.492004	978.200000
797.527893	989.500000
797.563843	992.600000
797.599731	977.600000
797.635620	961.400000
797.671570	973.200000
797.707520	969.100000
797.743347	973.400000
797.779297	982.400000
797.815125	973.200000
797.851074	966.400000
797.887024	955.500000
797.922913	952.400000
797.958801	965.400000
797.994690	958.100000
798.030579	966.500000
798.066467	965.100000
798.102356	951.700000
798.138245	945.300000
798.174133	941.300000
798.210083	947.100000
798.245911	955.000000
798.281799	962.500000
798.317749	953.200000
798.353577	941.600000
798.389465	935.400000
798.425293	936.200000
798.461243	928.200000
798.497131	936.700000
798.532959	942.500000
798.568848	946.900000
798.604736	926.500000
798.640564	910.500000
798.676453	915.200000
798.712402	918.700000
798.748230	927.700000
798.784119	924.800000
798.820007	928.200000
798.855835	924.600000
798.891724	912.800000
798.927551	912.300000
798.963379	919.200000
798.999268	916.200000
799.035095	914.300000
799.070984	902.700000
799.106873	893.100000
799.142700	904.000000
799.178528	890.600000
799.214417	889.600000
799.250244	904.400000
799.286133	901.700000
799.321960	896.200000
799.357788	890.600000
799.393677	889.100000
799.429504	887.800000
799.465332	888.300000
799.501221	901.600000
799.537048	895.000000
799.572876	882.100000
799.608704	882.000000
799.644531	888.400000
799.680359	888.800000
799.716248	897.600000
799.752014	900.100000
799.787903	887.500000
799.823730	883.700000
799.859558	875.600000
799.895386	882.100000
799.931213	880.200000
799.967041	870.100000
800.002869	869.800000
800.038696	881.100000
800.074463	854.700000
800.110352	859.400000
800.146179	852.300000
800.181946	859.300000
800.217773	858.800000
800.253540	854.600000
800.289429	853.300000
800.325256	844.600000
800.361023	837.100000
800.396851	841.500000
800.432678	842.100000
800.468445	839.600000
800.504272	831.600000
800.540100	813.700000
800.575867	815.800000
800.611694	822.600000
800.647461	811.600000
800.683289	820.100000
800.719116	820.000000
800.754883	814.500000
800.790649	793.400000
800.826477	788.200000
800.862244	807.700000
800.898071	795.100000
800.933838	784.100000
800.969604	786.900000
801.005432	782.700000
801.041199	785.800000
801.076965	774.400000
801.112793	769.900000
801.148560	760.300000
801.184326	764.300000
801.220154	763.900000
801.255859	755.300000
801.291687	755.000000
801.327454	746.800000
801.363281	743.700000
801.398987	741.400000
801.434814	743.300000
801.470520	756.200000
801.506287	741.100000
801.542114	733.000000
801.577820	732.600000
801.613647	733.600000
801.649414	732.400000
801.685120	731.300000
801.720886	736.700000
801.756714	722.800000
801.792419	712.200000
801.828186	710.800000
801.863892	720.600000
801.899719	707.800000
801.935486	706.400000
801.971252	715.700000
802.006958	706.500000
802.042725	701.300000
802.078430	699.100000
802.114197	692.700000
802.149963	711.600000
802.185669	697.600000
802.221436	696.100000
802.257202	694.000000
802.292908	691.800000
802.328674	696.000000
802.364441	697.500000
802.400146	693.300000
802.435913	687.200000
802.471558	683.500000
802.507324	679.200000
802.543091	671.900000
802.578796	685.600000
802.614502	684.000000
802.650269	685.000000
802.685974	669.400000
802.721741	674.500000
802.757446	674.200000
802.793152	670.600000
802.828918	679.900000
802.864624	677.400000
802.900330	671.000000
802.936035	665.500000
802.971802	662.100000
803.007446	663.900000
803.043213	653.600000
803.078857	661.900000
803.114624	643.300000
803.150330	656.700000
803.185974	640.300000
803.221741	644.500000
803.257446	651.100000
803.293152	648.100000
803.328857	643.200000
803.364563	637.900000
803.400208	631.100000
803.435974	638.900000
803.471680	634.400000
803.507324	629.300000
803.543030	641.000000
803.578735	636.700000
803.614441	626.900000
803.650146	632.700000
803.685791	620.000000
803.721497	622.100000
803.757202	610.100000
803.792847	618.500000
803.828552	611.900000
803.864258	612.200000
803.899902	612.000000
803.935608	594.500000
803.971313	602.000000
804.006958	599.600000
804.042664	598.300000
804.078308	601.600000
804.113953	593.900000
804.149658	601.000000
804.185364	589.000000
804.221008	598.100000
804.256714	588.100000
804.292297	585.400000
804.328003	583.700000
804.363708	573.900000
804.399292	579.200000
804.434998	574.500000
804.470703	567.800000
804.506287	582.900000
804.541992	573.900000
804.577637	578.300000
804.613281	567.600000
804.648926	564.100000
804.684570	567.700000
804.720215	558.800000
804.755920	564.800000
804.791565	558.400000
804.827209	563.700000
804.862854	555.700000
804.898437	551.800000
804.934143	551.600000
804.969788	552.000000
805.005371	552.800000
805.041077	555.500000
805.076721	552.700000
805.112305	542.900000
805.147949	546.200000
805.183655	538.100000
805.219238	542.300000
805.254883	541.200000
805.290466	547.900000
805.326111	540.000000
805.361755	531.100000
805.397400	532.800000
805.432983	537.000000
805.468628	539.600000
805.504211	544.000000
805.539856	538.400000
805.575500	543.800000
805.611084	533.500000
805.646729	522.300000
805.682373	527.000000
805.717957	538.900000
805.753601	538.400000
805.789246	519.000000
805.824768	531.900000
805.860413	532.700000
805.895996	521.200000
805.931641	521.400000
805.967224	525.200000
806.002869	518.000000
806.038452	529.400000
806.074036	524.300000
806.109619	512.700000
806.145264	507.700000
806.180847	510.700000
806.216431	506.900000
806.252014	511.300000
806.287659	513.000000
806.323181	518.200000
806.358826	513.800000
806.394409	493.200000
806.429993	499.400000
806.465576	511.800000
806.501160	494.500000
806.536743	485.100000
806.572327	495.800000
806.607910	492.100000
806.643494	494.000000
806.679077	488.400000
806.714661	490.200000
806.750244	494.500000
806.785828	483.600000
806.821350	482.100000
806.856934	486.800000
806.892517	482.200000
806.928101	475.500000
806.963684	478.700000
806.999268	487.100000
807.034790	465.400000
807.070374	475.000000
807.105896	469.500000
807.141479	468.300000
807.177063	473.500000
807.212585	465.100000
807.248169	464.700000
807.283752	470.600000
807.319275	465.100000
807.354858	460.800000
807.390381	460.400000
807.425903	459.700000
807.461487	456.500000
807.497070	446.900000
807.532593	450.700000
807.568115	446.900000
807.603699	444.000000
807.639221	437.600000
807.674744	441.300000
807.710266	447.700000
807.745850	450.000000
807.781372	440.800000
807.816895	438.900000
807.852417	440.800000
807.888000	438.300000
807.923523	436.000000
807.959045	440.500000
807.994629	428.300000
808.030090	426.600000
808.065613	432.800000
808.101135	436.100000
808.136658	429.800000
808.172241	428.800000
808.207764	426.600000
808.243225	420.400000
808.278809	420.800000
808.314270	427.800000
808.349792	415.600000
808.385315	412.900000
808.420837	418.700000
808.456360	423.500000
808.491882	419.400000
808.527344	415.400000
808.562866	428.700000
808.598389	416.900000
808.633850	409.300000
808.669434	406.900000
808.704895	417.500000
808.740417	423.100000
808.775940	412.400000
808.811462	407.000000
808.846924	400.600000
808.882385	394.300000
808.917847	396.400000
808.953369	396.800000
808.988892	392.200000
809.024353	399.700000
809.059875	398.900000
809.095398	396.900000
809.130798	391.100000
809.166321	388.900000
809.201843	388.200000
809.237305	389.900000
809.272766	395.200000
809.308228	377.100000
809.343750	380.100000
809.379211	381.800000
809.414734	382.300000
809.450134	389.400000
809.485657	372.800000
809.521118	379.000000
809.556580	375.200000
809.592102	375.600000
809.627502	372.600000
809.663025	369.800000
809.698486	367.200000
809.733887	364.600000
809.769409	365.700000
809.804871	355.700000
809.840271	359.700000
809.875793	364.300000
809.911194	368.000000
809.946655	358.000000
809.982178	353.600000
810.017639	359.300000
810.053040	357.900000
810.088501	354.400000
810.123901	353.600000
810.159424	349.700000
810.194885	343.800000
810.230286	351.100000
810.265747	342.900000
810.301208	341.900000
810.336609	346.500000
810.372070	337.700000
810.407532	341.600000
810.442932	341.700000
810.478394	347.100000
810.513794	343.600000
810.549255	340.400000
810.584717	338.000000
810.620117	331.300000
810.655518	341.500000
810.690979	336.800000
810.726379	337.600000
810.761841	325.400000
810.797302	328.800000
810.832642	326.500000
810.868103	339.300000
810.903564	325.900000
810.938904	336.000000
810.974365	318.600000
811.009827	328.000000
811.045166	320.700000
811.080627	314.800000
811.115967	321.800000
811.151428	331.300000
811.186829	319.600000
811.222229	320.600000
811.257629	312.800000
811.293091	320.500000
811.328430	325.600000
811.363892	323.600000
811.399292	323.600000
811.434631	318.800000
811.470093	321.900000
811.505493	312.800000
811.540833	314.200000
811.576294	320.600000
811.611694	314.300000
811.647034	308.500000
811.682434	311.700000
811.717773	312.700000
811.753235	319.100000
811.788635	310.800000
811.823975	311.800000
811.859375	318.900000
811.894775	306.000000
811.930115	306.600000
811.965515	306.200000
812.000916	310.200000
812.036255	305.600000
812.071655	309.900000
812.106995	303.600000
812.142395	304.200000
812.177795	311.700000
812.213196	306.300000
812.248474	309.100000
812.283875	297.600000
812.319214	301.700000
812.354614	303.400000
812.390015	297.800000
812.425293	298.200000
812.460693	300.300000
812.496094	294.900000
812.531433	289.600000
812.566772	290.000000
812.602173	294.300000
812.637451	296.300000
812.672852	292.200000
812.708191	294.900000
812.743530	290.300000
812.778931	280.700000
812.814270	286.200000
812.849609	291.700000
812.884949	289.300000
812.920227	279.000000
812.955627	299.400000
812.990967	287.400000
813.026306	281.400000
813.061646	272.400000
813.096985	270.800000
813.132324	268.500000
813.167664	275.800000
813.203003	279.800000
813.238281	266.500000
813.273682	269.900000
813.308960	264.000000
813.344299	266.500000
813.379639	275.800000
813.414978	268.600000
813.450256	267.700000
813.485596	272.300000
813.520874	264.500000
813.556213	270.700000
813.591614	274.500000
813.626831	264.900000
813.662170	268.900000
813.697510	280.100000
813.732788	261.700000
813.768127	268.500000
813.803467	267.600000
813.838745	262.500000
813.874084	266.700000
813.909363	266.500000
813.944641	265.600000
813.979980	256.700000
814.015320	259.400000
814.050598	258.700000
814.085876	264.800000
814.121155	259.500000
814.156494	256.700000
814.191772	258.900000
814.227051	257.100000
814.262390	258.000000
814.297668	257.000000
814.332947	259.500000
814.368225	249.200000
814.403564	255.600000
814.438782	251.400000
814.474121	254.800000
814.509338	250.500000
814.544617	260.400000
814.579956	249.200000
814.615173	260.600000
814.650513	255.900000
814.685791	247.200000
814.721008	250.500000
814.756348	254.300000
814.791626	246.300000
814.826843	248.300000
814.862122	248.000000
814.897400	245.200000
814.932678	247.600000
814.967957	247.200000
815.003235	246.600000
815.038452	240.500000
815.073730	239.300000
815.108948	250.200000
815.144226	247.400000
815.179504	251.000000
815.214722	234.400000
815.250000	235.200000
815.285278	243.700000
815.320496	236.300000
815.355774	241.000000
815.391052	241.000000
815.426270	238.900000
815.461487	237.000000
815.496765	234.000000
815.531982	227.600000
815.567261	236.000000
815.602539	242.400000
815.637695	238.300000
815.672974	239.100000
815.708191	240.400000
815.743408	241.300000
815.778687	233.400000
815.813904	243.500000
815.849121	227.500000
815.884399	226.500000
815.919556	228.800000
815.954834	228.500000
815.990051	233.800000
816.025269	236.400000
816.060486	228.700000
816.095703	227.200000
816.130920	231.500000
816.166199	227.000000
816.201416	231.600000
816.236572	236.200000
816.271851	227.000000
816.307007	234.200000
816.342224	224.000000
816.377441	226.000000
816.412659	218.300000
816.447876	230.500000
816.483093	226.700000
816.518250	225.800000
816.553467	224.000000
816.588745	228.000000
816.623901	221.000000
816.659119	216.000000
816.694275	221.500000
816.729492	219.400000
816.764709	255.100000
816.799927	214.900000
816.835083	221.200000
816.870300	215.700000
816.905457	220.600000
816.940674	223.300000
816.975830	214.000000
817.010986	213.600000
817.046204	215.100000
817.081421	213.600000
817.116577	213.500000
817.151733	222.700000
817.186951	221.100000
817.222107	219.000000
817.257324	218.500000
817.292419	219.000000
817.327637	210.800000
817.362854	216.100000
817.398010	210.000000
817.433167	212.100000
817.468323	211.300000
817.503479	212.600000
817.538635	220.500000
817.573853	217.500000
817.608948	213.900000
817.644165	210.000000
817.679321	208.200000
817.714478	209.500000
817.749634	212.900000
817.784790	225.000000
817.819946	220.000000
817.855103	200.000000
817.890198	210.800000
817.925415	201.700000
817.960571	211.600000
817.995667	209.600000
818.030823	212.900000
818.066040	205.200000
818.101135	209.200000
818.136292	209.100000
818.171448	203.000000
818.206543	208.300000
818.241699	212.700000
818.276855	209.100000
818.311951	207.100000
818.347107	203.300000
818.382263	212.400000
818.417358	216.600000
818.452515	216.100000
818.487610	216.000000
818.522766	204.300000
818.557922	215.700000
818.593018	211.300000
818.628113	209.000000
818.663269	205.500000
818.698364	206.900000
818.733521	204.400000
818.768677	209.800000
818.803711	200.100000
818.838867	201.400000
818.874023	206.200000
818.909058	200.800000
818.944214	201.500000
818.979370	207.800000
819.014404	207.200000
819.049561	200.800000
819.084595	208.100000
819.119751	197.600000
819.154846	206.800000
819.189941	203.200000
819.225037	198.200000
819.260193	193.200000
819.295227	197.200000
819.330322	191.400000
819.365479	193.600000
819.400513	225.600000
819.435608	192.600000
819.470764	191.300000
819.505798	193.700000
819.540894	195.700000
819.575989	195.500000
819.611084	204.300000
819.646179	204.700000
819.681213	199.600000
819.716309	197.900000
819.751404	195.200000
819.786438	202.000000
819.821533	193.500000
819.856628	198.500000
819.891663	202.700000
819.926758	209.100000
819.961853	204.500000
819.996887	194.300000
820.031982	202.500000
820.067017	196.600000
820.102112	225.700000
820.137207	195.100000
820.172302	214.000000
820.207275	193.700000
820.242371	195.200000
820.277405	193.600000
820.312500	197.600000
820.347534	199.800000
820.382568	202.500000
820.417664	194.600000
820.452759	196.300000
820.487732	192.700000
820.522827	195.500000
820.557861	192.600000
820.592896	195.100000
820.627930	194.100000
820.662964	193.500000
820.698059	197.800000
820.733093	192.900000
820.768127	199.000000
820.803162	196.100000
820.838196	191.700000
820.873230	197.300000
820.908264	195.900000
820.943298	192.100000
820.978333	199.100000
821.013367	196.500000
821.048401	199.800000
821.083435	202.200000
821.118469	186.600000
821.153503	200.300000
821.188477	197.500000
821.223511	189.200000
821.258484	194.900000
821.293579	196.700000
821.328613	187.700000
821.363647	193.500000
821.398621	188.700000
821.433655	191.400000
821.468628	207.500000
821.503662	193.000000
821.538696	197.000000
821.573669	191.000000
821.608704	199.300000
821.643677	191.500000
821.678650	200.000000
821.713684	203.200000
821.748718	193.100000
821.783691	194.100000
821.818726	196.600000
821.853638	196.900000
821.888672	193.300000
821.923706	194.700000
821.958618	192.300000
821.993652	191.900000
822.028687	199.500000
822.063599	200.900000
822.098633	196.700000
822.133667	190.000000
822.168579	193.000000
822.203613	195.000000
822.238586	190.800000
822.273560	196.500000
822.308533	192.300000
822.343567	190.100000
822.378479	194.800000
822.413452	191.100000
822.448425	190.200000
822.483398	199.500000
822.518372	200.500000
822.553345	190.600000
822.588318	201.500000
822.623291	192.100000
822.658203	191.800000
822.693237	193.400000
822.728210	188.600000
822.763123	194.300000
822.798096	189.700000
822.833069	192.400000
822.867981	194.100000
822.902954	195.000000
822.937927	197.600000
822.972900	205.700000
823.007874	185.900000
823.042725	197.300000
823.077698	206.300000
823.112671	189.800000
823.147583	193.400000
823.182556	198.000000
823.217529	199.400000
823.252441	192.500000
823.287415	207.800000
823.322388	196.400000
823.357239	194.500000
823.392212	203.100000
823.427185	198.300000
823.462097	190.600000
823.497009	197.700000
823.531982	192.600000
823.566895	193.800000
823.601807	190.100000
823.636719	192.000000
823.671631	199.500000
823.706604	192.000000
823.741455	197.500000
823.776428	187.200000
823.811340	198.000000
823.846252	200.400000
823.881165	201.800000
823.916138	195.300000
823.950989	204.000000
823.985901	189.200000
824.020813	195.600000
824.055725	191.500000
824.090637	190.500000
824.125610	195.200000
824.160461	195.400000
824.195374	195.500000
824.230225	199.700000
824.265198	186.500000
824.300110	192.500000
824.334961	203.900000
824.369873	184.800000
824.404785	195.800000
824.439636	201.900000
824.474548	183.800000
824.509460	183.600000
824.544312	199.900000
824.579224	196.100000
824.614075	196.400000
824.648987	193.400000
824.683899	192.200000
824.718811	191.100000
824.753662	201.600000
824.788574	199.000000
824.823364	195.200000
824.858276	191.000000
824.893188	198.500000
824.928040	198.800000
824.962952	197.400000
824.997803	197.700000
825.032654	196.400000
825.067566	197.700000
825.102417	191.500000
825.137268	193.700000
825.172119	194.300000
825.206970	190.700000
825.241882	193.700000
825.276733	189.600000
825.311646	192.000000
825.346436	188.500000
825.381348	189.300000
825.416138	194.600000
825.450989	190.700000
825.485901	185.800000
825.520691	186.700000
825.555542	187.800000
825.590454	192.800000
825.625244	185.600000
825.660095	201.100000
825.695007	196.500000
825.729797	192.100000
825.764648	189.100000
825.799438	193.300000
825.834290	193.200000
825.869202	186.500000
825.903992	193.700000
825.938843	190.800000
825.973694	187.500000
826.008484	205.200000
826.043335	187.300000
826.078186	185.000000
826.112976	199.300000
826.147827	198.300000
826.182678	202.900000
826.217468	185.700000
826.252319	197.200000
826.287109	188.800000
826.321899	200.300000
826.356750	191.800000
826.391541	188.700000
826.426392	198.100000
826.461182	192.600000
826.495972	186.800000
826.530823	186.000000
826.565613	193.800000
826.600403	189.000000
826.635254	196.500000
826.670044	185.700000
826.704834	185.600000
826.739685	189.100000
826.774475	194.300000
826.809265	192.300000
826.844055	190.500000
826.878906	200.100000
826.913635	194.600000
826.948425	196.800000
826.983215	192.800000
827.018005	197.800000
827.052856	190.400000
827.087585	197.500000
827.122375	183.700000
827.157227	192.600000
827.191956	203.800000
827.226746	188.200000
827.261536	195.500000
827.296265	187.400000
827.331116	189.300000
827.365906	196.800000
827.400635	187.700000
827.435425	184.200000
827.470215	198.900000
827.504944	189.800000
827.539734	197.500000
827.574463	191.600000
827.609253	199.400000
827.644043	193.800000
827.678772	197.000000
827.713562	191.500000
827.748352	190.800000
827.783081	190.900000
827.817871	195.100000
827.852600	188.300000
827.887329	194.500000
827.922119	183.300000
827.956848	196.600000
827.991638	207.100000
828.026367	194.400000
828.061157	193.100000
828.095886	192.900000
828.130615	206.100000
828.165344	183.600000
828.200073	192.900000
828.234863	190.400000
828.269592	193.300000
828.304321	199.000000
828.339111	193.300000
828.373779	188.700000
828.408569	198.800000
828.443298	198.800000
828.477966	191.100000
828.512756	194.700000
828.547424	187.100000
828.582214	192.100000
828.616943	189.700000
828.651672	192.200000
828.686340	197.000000
828.721130	189.100000
828.755798	191.800000
828.790527	195.000000
828.825256	194.100000
828.859924	194.100000
828.894714	198.400000
828.929443	201.200000
828.964111	188.200000
828.998840	194.900000
829.033569	189.700000
829.068237	191.300000
829.102966	189.900000
829.137634	194.100000
829.172363	194.200000
829.207092	195.000000
829.241821	188.900000
829.276489	184.400000
829.311157	193.000000
829.345825	191.700000
829.380554	196.800000
829.415283	189.600000
829.449951	187.100000
829.484619	202.200000
829.519348	199.600000
829.554016	192.900000
829.588745	192.100000
829.623413	187.500000
829.658081	203.500000
829.692749	188.200000
829.727417	196.800000
829.762146	195.900000
829.796814	189.400000
829.831482	191.200000
829.866150	195.500000
829.900879	189.800000
829.935486	196.800000
829.970154	190.300000
830.004883	204.100000
830.039490	193.600000
830.074219	190.000000
830.108887	193.200000
830.143494	192.800000
830.178223	187.700000
830.212891	190.200000
830.247498	192.700000
830.282166	201.200000
830.316772	198.300000
830.351501	190.400000
830.386169	191.300000
830.420776	191.500000
830.455444	191.600000
830.490112	191.300000
830.524719	182.800000
830.559387	196.100000
830.594055	194.300000
830.628662	193.800000
830.663330	191.500000
830.697998	201.800000
830.732605	191.500000
830.767273	194.300000
830.801941	192.900000
830.836487	202.200000
830.871155	194.100000
830.905762	195.100000
830.940430	184.800000
830.975098	190.200000
831.009644	192.800000
831.044312	201.700000
831.078979	193.800000
831.113525	184.800000
831.148193	191.600000
831.182861	192.000000
831.217407	196.600000
831.252075	210.900000
831.286621	190.300000
831.321289	189.000000
831.355896	190.500000
831.390564	201.000000
831.425110	193.800000
831.459778	199.400000
831.494324	207.000000
831.528931	196.100000
831.563599	196.600000
831.598145	186.000000
831.632751	192.300000
831.667419	190.700000
831.701965	196.700000
831.736572	196.200000
831.771179	185.900000
831.805786	189.900000
831.840393	200.400000
831.874939	184.600000
831.909546	199.500000
831.944153	184.500000
831.978760	192.400000
832.013306	187.600000
832.047913	199.500000
832.082458	199.800000
832.117065	190.300000
832.151672	201.200000
832.186218	194.400000
832.220825	194.500000
832.255432	185.700000
832.289978	188.000000
832.324585	194.700000
832.359192	194.100000
832.393677	190.500000
832.428284	193.400000
832.462830	190.500000
832.497437	190.500000
832.531982	196.700000
832.566589	190.300000
832.601135	194.000000
832.635681	184.100000
832.670227	192.200000
832.704773	199.900000
832.739380	194.800000
832.773926	192.700000
832.808472	187.600000
832.843079	193.300000
832.877563	196.300000
832.912170	189.700000
832.946716	184.500000
832.981201	199.000000
833.015808	195.300000
833.050293	191.900000
833.084839	188.000000
833.119446	190.500000
833.153992	196.500000
833.188477	192.000000
833.223022	187.500000
833.257568	195.000000
833.292114	199.800000
833.326660	203.500000
833.361145	189.200000
833.395691	185.900000
833.430237	191.400000
833.464783	196.800000
833.499329	186.500000
833.533875	187.300000
833.568359	195.500000
833.602905	199.300000
833.637390	197.900000
833.671875	189.900000
833.706421	190.100000
833.740906	190.100000
833.775452	181.600000
833.809998	190.700000
833.844482	198.700000
833.879028	191.500000
833.913513	189.700000
833.947998	195.000000
833.982544	188.000000
834.017090	189.800000
834.051514	180.800000
834.086060	195.500000
834.120544	192.200000
834.155029	195.500000
834.189575	190.900000
834.223999	195.900000
834.258545	192.700000
834.293030	193.400000
834.327515	192.100000
834.362000	189.800000
834.396545	196.300000
834.430969	190.300000
834.465454	197.300000
834.500000	184.900000
834.534424	196.000000
834.568970	181.900000
834.603455	183.300000
834.637878	189.700000
834.672363	193.000000
834.706909	194.600000
834.741333	193.600000
834.775818	185.800000
834.810242	189.400000
834.844727	193.300000
834.879211	190.900000
834.913635	193.300000
834.948181	193.800000
834.982666	193.700000
835.017090	191.900000
835.051575	195.100000
835.086060	190.000000
835.120483	196.900000
835.154907	196.600000
835.189331	191.400000
835.223816	195.600000
835.258301	187.300000
835.292786	188.400000
835.327209	196.100000
835.361694	190.400000
835.396057	189.500000
835.430542	194.200000
835.465027	192.000000
835.499390	187.400000
835.533875	211.100000
835.568359	190.200000
835.602722	183.900000
835.637207	194.800000
835.671692	185.600000
835.706055	209.100000
835.740540	193.900000
835.774902	195.500000
835.809387	193.000000
835.843811	185.900000
835.878235	199.800000
835.912659	186.800000
835.947083	189.000000
835.981506	192.900000
836.015930	185.000000
836.050354	198.000000
836.084778	201.100000
836.119202	198.100000
836.153625	204.500000
836.187988	188.600000
836.222473	189.600000
836.256897	194.400000
836.291260	192.500000
836.325684	194.300000
836.360046	191.100000
836.394470	192.800000
836.428894	199.400000
836.463318	188.900000
836.497681	197.800000
836.532104	198.800000
836.566467	194.800000
836.600891	190.400000
836.635315	197.900000
836.669678	196.200000
836.704102	197.100000
836.738525	193.100000
836.772888	186.500000
836.807251	189.100000
836.841675	194.500000
836.876038	187.100000
836.910461	190.200000
836.944763	196.000000
836.979187	189.800000
837.013611	197.600000
837.047974	187.100000
837.082336	203.700000
837.116699	196.300000
837.151062	191.800000
837.185486	186.500000
837.219849	190.700000
837.254211	196.600000
837.288574	191.000000
837.322937	188.100000
837.357300	179.000000
837.391663	205.200000
837.426086	198.300000
837.460388	193.200000
837.494751	197.000000
837.529114	191.800000
837.563477	198.000000
837.597839	193.000000
837.632141	193.600000
837.666565	189.100000
837.700928	193.800000
837.735229	195.500000
837.769592	194.000000
837.803955	198.700000
837.838257	192.500000
837.872620	189.200000
837.906982	199.900000
837.941284	194.200000
837.975647	192.300000
838.010010	198.900000
838.044312	192.100000
838.078674	190.600000
838.112976	194.300000
838.147339	197.000000
838.181702	193.600000
838.216003	202.400000
838.250366	196.000000
838.284668	194.200000
838.318970	187.200000
838.353333	191.500000
838.387634	191.300000
838.421936	192.400000
838.456299	194.800000
838.490601	201.300000
838.524902	196.900000
838.559265	197.400000
838.593567	197.100000
838.627869	185.300000
838.662170	195.800000
838.696472	184.700000
838.730774	190.200000
838.765137	197.900000
838.799377	178.900000
838.833740	192.600000
838.868042	198.800000
838.902283	184.100000
838.936646	199.400000
838.970947	194.300000
839.005188	198.500000
839.039551	184.600000
839.073792	200.100000
839.108093	189.500000
839.142395	202.100000
839.176697	186.500000
839.210937	193.500000
839.245300	205.200000
839.279541	187.100000
839.313843	191.100000
839.348145	196.000000
839.382385	197.200000
839.416687	197.400000
839.450989	197.100000
839.485229	192.300000
839.519531	188.800000
839.553833	198.000000
839.588013	194.300000
839.622314	193.300000
839.656555	196.200000
839.690857	192.700000
839.725159	187.900000
839.759460	191.300000
839.793640	190.500000
839.827942	190.900000
839.862183	187.900000
839.896423	193.200000
839.930725	201.700000
839.964966	199.100000
839.999207	199.500000
840.033508	200.900000
840.067688	190.800000
840.101990	200.200000
840.136230	192.800000
840.170471	200.400000
840.204712	189.600000
840.238953	188.300000
840.273193	194.100000
840.307434	194.700000
840.341736	189.100000
840.375916	185.600000
840.410217	192.500000
840.444397	197.200000
840.478638	196.300000
840.512878	199.500000
840.547119	194.700000
840.581360	195.300000
840.615601	201.800000
840.649780	201.300000
840.684021	193.000000
840.718262	201.900000
840.752441	198.800000
840.786682	194.500000
840.820862	195.400000
840.855103	201.200000
840.889343	194.600000
840.923584	198.400000
840.957764	196.000000
840.992004	195.600000
841.026184	207.400000
841.060425	191.600000
841.094666	190.400000
841.128845	197.800000
841.163025	194.000000
841.197266	195.200000
841.231445	193.300000
841.265686	194.100000
841.299866	189.300000
841.334045	203.100000
841.368286	192.500000
841.402405	202.900000
841.436646	197.600000
841.470825	190.900000
841.505005	191.900000
841.539185	188.200000
841.573425	189.300000
841.607544	194.000000
841.641785	192.500000
841.675964	187.900000
841.710144	193.000000
841.744324	191.000000
841.778503	193.200000
841.812683	189.500000
841.846863	202.200000
841.881042	200.100000
841.915222	191.300000
841.949402	209.400000
841.983521	182.900000
842.017700	192.200000
842.051880	195.500000
842.086060	196.200000
842.120239	193.900000
842.154419	192.300000
842.188538	194.000000
842.222717	191.100000
842.256897	202.300000
842.291016	192.000000
842.325195	196.000000
842.359375	205.700000
842.393494	200.200000
842.427673	193.700000
842.461853	197.100000
842.495911	201.500000
842.530090	196.300000
842.564209	192.800000
842.598389	195.000000
842.632568	194.400000
842.666626	198.200000
842.700806	191.400000
842.734985	192.300000
842.769043	197.200000
842.803223	191.600000
842.837402	191.500000
842.871460	191.800000
842.905640	201.800000
842.939697	190.700000
842.973877	196.000000
843.007996	200.900000
843.042175	203.100000
843.076233	190.900000
843.110413	195.500000
843.144470	203.500000
843.178589	198.400000
843.212769	192.100000
843.246826	198.500000
843.280945	192.800000
843.315125	190.800000
843.349182	190.700000
843.383301	198.600000
843.417419	206.200000
843.451538	193.100000
843.485657	192.100000
843.519714	193.600000
843.553833	196.100000
843.587952	191.300000
843.622070	189.300000
843.656128	196.700000
843.690247	192.200000
843.724304	190.600000
843.758423	195.500000
843.792542	191.700000
843.826599	193.800000
843.860718	192.000000
843.894836	186.800000
843.928894	194.600000
843.963013	195.700000
843.997070	191.400000
844.031128	187.600000
844.065247	199.300000
844.099304	199.800000
844.133362	193.900000
844.167480	197.500000
844.201599	201.900000
844.235596	197.400000
844.269714	197.000000
844.303711	196.100000
844.337830	187.100000
844.371948	198.400000
844.405945	193.400000
844.440063	189.000000
844.474121	210.400000
844.508118	192.400000
844.542236	194.800000
844.576294	192.800000
844.610352	188.800000
844.644409	194.200000
844.678406	185.500000
844.712524	198.100000
844.746582	200.900000
844.780640	193.700000
844.814636	194.500000
844.848755	205.200000
844.882751	192.000000
844.916809	199.600000
844.950867	195.800000
844.984863	201.700000
845.018921	194.300000
845.052979	190.800000
845.086975	195.000000
845.121033	186.700000
845.155090	190.600000
845.189087	202.300000
845.223145	191.400000
845.257141	192.300000
845.291199	197.000000
845.325256	200.700000
845.359253	195.100000
845.393250	203.900000
845.427307	194.700000
845.461304	195.500000
845.495361	194.600000
845.529358	205.200000
845.563354	192.300000
845.597412	189.500000
845.631409	202.300000
845.665405	200.600000
845.699463	198.300000
845.733459	191.600000
845.767456	201.100000
845.801453	192.900000
845.835449	199.900000
845.869446	197.500000
845.903503	199.100000
845.937439	191.800000
845.971497	201.400000
846.005493	189.800000
846.039429	198.700000
846.073486	205.400000
846.107483	192.500000
846.141418	194.400000
846.175476	194.600000
846.209473	201.300000
846.243408	190.800000
846.277405	196.300000
846.311401	189.800000
846.345337	196.200000
846.379395	200.600000
846.413330	192.200000
846.447327	200.900000
846.481323	189.900000
846.515259	190.500000
846.549255	194.900000
846.583252	196.500000
846.617187	188.900000
846.651184	197.100000
846.685120	192.700000
846.719055	201.900000
846.753052	200.200000
846.786987	198.300000
846.820984	188.200000
846.854980	199.900000
846.888916	190.100000
846.922852	194.800000
846.956848	204.300000
846.990723	189.400000
847.024719	195.300000
847.058716	192.900000
847.092590	201.200000
847.126587	195.300000
847.160522	192.400000
847.194458	199.300000
847.228455	190.100000
847.262390	190.200000
847.296265	193.100000
847.330261	200.800000
847.364136	193.400000
847.398132	190.700000
847.432068	195.800000
847.466003	194.000000
847.499939	193.300000
847.533875	196.600000
847.567749	192.400000
847.601746	192.600000
847.635681	198.400000
847.669556	186.300000
847.703491	200.400000
847.737427	210.500000
847.771301	190.200000
847.805237	196.200000
847.839233	195.300000
847.873108	194.900000
847.907043	193.200000
847.940918	201.800000
847.974854	196.800000
848.008789	199.100000
848.042664	194.700000
848.076538	199.700000
848.110474	193.400000
848.144348	196.000000
848.178284	188.500000
848.212219	195.800000
848.246094	191.600000
848.279968	195.800000
848.313904	196.400000
848.347778	195.300000
848.381653	193.300000
848.415588	190.800000
848.449463	192.900000
848.483337	197.000000
848.517212	200.200000
848.551086	194.700000
848.585022	190.800000
848.618835	203.500000
848.652771	190.800000
848.686646	189.500000
848.720520	202.600000
848.754395	194.200000
848.788330	198.500000
848.822144	199.300000
848.856018	193.800000
848.889954	203.100000
848.923767	189.600000
848.957642	191.600000
848.991577	199.900000
849.025391	193.300000
849.059265	194.700000
849.093079	190.700000
849.126953	188.900000
849.160828	199.200000
849.194641	196.100000
849.228577	192.000000
849.262451	193.800000
849.296265	191.600000
849.330139	189.700000
849.364014	195.000000
849.397827	198.500000
849.431702	194.500000
849.465515	199.200000
849.499329	185.800000
849.533203	189.400000
849.567078	183.200000
849.600891	197.400000
849.634766	193.000000
849.668518	199.900000
849.702393	193.200000
849.736267	187.600000
849.770020	205.000000
849.803894	198.700000
849.837769	195.000000
849.871521	194.600000
849.905396	200.000000
849.939270	189.900000
849.973022	192.600000
850.006897	198.300000
850.040710	195.600000
850.074524	198.300000
850.108337	193.500000
850.142151	198.300000
850.175964	201.200000
850.209778	194.600000
850.243530	180.900000
850.277405	200.300000
850.311218	195.100000
850.344971	191.500000
850.378845	202.300000
850.412659	191.800000
850.446411	194.300000
850.480225	194.200000
850.514038	200.400000
850.547791	197.000000
850.581665	195.100000
850.615417	191.400000
850.649231	195.200000
850.683044	193.800000
850.716858	194.300000
850.750610	194.400000
850.784424	199.200000
850.818176	191.300000
850.851929	193.100000
850.885742	191.600000
850.919495	194.900000
850.953308	201.300000
850.987122	204.200000
851.020874	189.100000
851.054626	188.100000
851.088440	199.000000
851.122192	198.800000
851.156006	194.800000
851.189697	194.100000
851.223511	189.900000
851.257263	199.400000
851.291077	196.900000
851.324829	192.500000
851.358582	190.100000
851.392334	192.800000
851.426086	192.500000
851.459900	205.100000
851.493591	193.800000
851.527344	195.500000
851.561157	193.300000
851.594849	197.600000
851.628662	196.500000
851.662415	202.900000
851.696106	197.400000
851.729858	199.000000
851.763611	187.700000
851.797363	195.700000
851.831116	190.600000
851.864868	198.100000
851.898560	198.100000
851.932312	192.000000
851.966064	196.300000
851.999817	194.800000
852.033569	195.100000
852.067261	197.700000
852.101013	190.600000
852.134766	195.600000
852.168457	184.100000
852.202209	199.400000
852.235901	190.800000
852.269592	197.800000
852.303345	205.300000
852.337036	198.000000
852.370789	195.300000
852.404541	198.500000
852.438171	191.700000
852.471924	193.600000
852.505676	189.400000
852.539307	196.100000
852.573059	191.400000
852.606812	191.900000
852.640442	194.700000
852.674194	200.900000
852.707886	206.800000
852.741577	200.300000
852.775269	190.700000
852.809021	195.300000
852.842651	197.500000
852.876404	200.300000
852.910034	196.300000
852.943787	199.200000
852.977478	198.500000
853.011108	190.000000
853.044861	190.800000
853.078552	202.800000
853.112183	196.500000
853.145874	195.800000
853.179626	185.000000
853.213257	196.700000
853.246948	193.100000
853.280640	201.900000
853.314270	194.600000
853.347961	201.100000
853.381653	199.100000
853.415283	197.600000
853.448975	190.700000
853.482605	195.900000
853.516296	194.200000
853.549988	188.900000
853.583618	195.800000
853.617310	195.400000
853.651001	196.700000
853.684631	189.600000
853.718323	191.900000
853.751953	202.900000
853.785583	185.600000
853.819275	200.000000
853.852966	196.000000
853.886536	186.500000
853.920227	189.800000
853.953918	200.800000
853.987488	192.600000
854.021179	198.600000
854.054749	202.200000
854.088440	197.700000
854.122131	190.400000
854.155701	200.000000
854.189331	191.200000
854.223022	199.100000
854.256592	196.500000
854.290283	191.600000
854.323914	198.500000
854.357483	195.800000
854.391174	197.900000
854.424744	205.100000
854.458374	195.400000
854.492065	206.800000
854.525696	191.600000
854.559265	202.200000
854.592896	205.300000
854.626465	196.100000
854.660095	196.100000
854.693787	196.800000
854.727356	193.200000
854.760986	199.300000
854.794617	195.500000
854.828186	193.600000
854.861816	196.900000
854.895447	196.100000
854.929016	195.400000
854.962585	197.900000
854.996155	200.600000
855.029785	197.100000
855.063416	197.400000
855.097046	200.100000
855.130615	188.300000
855.164185	201.500000
855.197754	195.300000
855.231384	198.600000
855.264954	193.700000
855.298523	199.300000
855.332153	196.300000
855.365723	203.300000
855.399292	190.600000
855.432922	194.300000
855.466492	197.500000
855.500061	189.900000
855.533630	192.200000
855.567200	197.800000
855.600769	200.300000
855.634338	199.900000
855.667969	196.300000
855.701477	190.300000
855.735046	190.900000
855.768616	185.400000
855.802185	197.200000
855.835754	208.900000
855.869324	185.600000
855.902893	194.000000
855.936401	202.500000
855.969971	196.400000
856.003540	189.100000
856.037109	197.800000
856.070618	194.700000
856.104187	189.500000
856.137695	192.600000
856.171265	184.200000
856.204834	194.900000
856.238403	198.200000
856.271912	191.400000
856.305481	196.100000
856.338989	188.400000
856.372559	197.100000
856.406128	195.100000
856.439636	199.100000
856.473145	193.200000
856.506653	199.900000
856.540222	195.000000
856.573792	202.300000
856.607300	198.500000
856.640808	189.100000
856.674377	196.100000
856.707825	223.100000
856.741394	201.900000
856.774902	191.300000
856.808472	186.000000
856.841980	198.600000
856.875488	202.700000
856.908936	188.700000
856.942505	194.300000
856.976013	195.200000
857.009521	189.100000
857.043030	196.100000
857.076477	192.400000
857.110046	200.400000
857.143555	196.400000
857.177063	200.900000
857.210571	191.600000
857.244080	189.700000
857.277527	196.700000
857.311035	193.200000
857.344543	197.200000
857.378052	195.400000
857.411499	198.900000
857.445068	205.900000
857.478516	194.400000
857.512024	190.800000
857.545532	193.400000
857.578979	197.400000
857.612427	194.100000
857.645874	190.200000
857.679382	194.600000
857.712891	198.500000
857.746399	193.900000
857.779846	200.100000
857.813354	199.200000
857.846741	194.200000
857.880249	192.100000
857.913757	196.600000
857.947266	197.100000
857.980652	199.200000
858.014160	191.500000
858.047546	193.400000
858.081055	194.400000
858.114563	203.200000
858.147949	187.700000
858.181458	199.500000
858.214844	194.000000
858.248352	186.400000
858.281799	200.500000
858.315308	207.700000
858.348694	198.100000
858.382141	203.600000
858.415588	198.000000
858.449036	200.700000
858.482483	197.800000
858.515930	191.800000
858.549377	194.400000
858.582825	202.400000
858.616211	198.300000
858.649658	197.700000
858.683105	190.500000
858.716553	191.400000
858.750000	190.000000
858.783386	192.800000
858.816833	188.300000
858.850281	195.600000
858.883728	197.600000
858.917114	193.200000
858.950562	204.900000
858.983948	203.600000
859.017395	200.500000
859.050781	191.700000
859.084167	190.700000
859.117615	188.500000
859.151062	197.400000
859.184448	190.800000
859.217834	192.400000
859.251282	192.400000
859.284668	190.100000
859.318054	185.400000
859.351440	193.300000
859.384888	202.700000
859.418274	186.800000
859.451721	185.000000
859.485046	197.900000
859.518494	195.900000
859.551819	190.200000
859.585266	195.600000
859.618652	196.300000
859.652039	187.900000
859.685425	190.800000
859.718811	187.700000
859.752197	183.900000
859.785583	202.900000
859.819031	204.000000
859.852356	197.500000
859.885742	191.300000
859.919067	194.500000
859.952454	192.600000
859.985901	200.000000
860.019287	192.500000
860.052612	0.000000
860.085999	0.000000
860.119324	0.000000
860.152710	0.000000
860.186096	0.000000
860.219421	0.000000
860.252808	0.000000
860.286133	0.000000
860.319519	0.000000
860.352905	0.000000
860.386292	0.000000
860.419617	0.000000
860.452942	0.000000
860.486267	0.000000
860.519653	0.000000
860.553040	0.000000
860.586365	0.000000
860.619690	0.000000
860.653076	0.000000
860.686340	0.000000
860.719727	0.000000
860.753113	0.000000
860.786377	0.000000
860.819763	0.000000
860.853027	0.000000
860.886414	0.000000
860.919739	0.000000
860.953125	0.000000
860.986389	0.000000
861.019714	0.000000
861.053040	0.000000
861.086365	0.000000
861.119690	0.000000
861.153076	0.000000
861.186340	0.000000
861.219666	0.000000
861.252930	0.000000
861.286316	0.000000
861.319641	0.000000
861.352905	0.000000
861.386230	0.000000
861.419495	0.000000
861.452820	0.000000
861.486145	0.000000
861.519470	0.000000
861.552734	0.000000
861.586060	0.000000
861.619324	0.000000
861.652649	0.000000
861.685974	0.000000
861.719238	0.000000
861.752563	0.000000
861.785828	0.000000
861.819092	0.000000
861.852417	0.000000
861.885742	0.000000
861.918945	0.000000
861.952271	0.000000
861.985535	0.000000
862.018799	0.000000
862.052124	0.000000
862.085449	0.000000
862.118652	0.000000
862.151978	0.000000
862.185181	0.000000
862.218506	0.000000
862.251770	0.000000
862.285034	0.000000
862.318298	0.000000
862.351562	0.000000
862.384827	0.000000
862.418091	0.000000
862.451355	0.000000
862.484619	0.000000
862.517883	0.000000
862.551086	0.000000
862.584351	0.000000
862.617676	0.000000
862.650940	0.000000
862.684143	0.000000
862.717407	0.000000
862.750610	0.000000
862.783875	0.000000
862.817139	0.000000
862.850342	0.000000
862.883606	0.000000
862.916870	0.000000
862.950073	0.000000
862.983337	0.000000
863.016602	0.000000
863.049805	0.000000
863.083069	0.000000
863.116211	0.000000
863.149475	0.000000
863.182739	0.000000
863.216003	0.000000
863.249146	0.000000
863.282410	0.000000
863.315613	0.000000
863.348816	0.000000
863.382080	0.000000
863.415222	0.000000
863.448486	0.000000
863.481689	0.000000
863.514893	0.000000
863.548157	0.000000
863.581360	0.000000
863.614502	0.000000
863.647766	0.000000
863.680908	0.000000
863.714172	0.000000
863.747375	0.000000
863.780579	0.000000
863.813721	0.000000
863.846985	0.000000
863.880127	0.000000
863.913330	0.000000
863.946533	0.000000
863.979675	0.000000
864.012939	0.000000
