Model Number: SPM-001-M   
Serial Number: 10090201
Firmware Version: 004.17.6
Exposure Time: 500000.000000us
Data Taken on: 10-03-2021 11:12:12.484
Wavelength	Amplitude
733.770752	0.000000
733.808716	0.000000
733.846619	0.000000
733.884583	0.000000
733.922546	0.000000
733.960449	0.000000
733.998413	0.000000
734.036377	0.000000
734.074219	0.000000
734.112183	0.000000
734.150085	0.000000
734.188049	0.000000
734.226013	0.000000
734.263916	0.000000
734.301819	0.000000
734.339783	0.000000
734.377686	0.000000
734.415588	0.000000
734.453552	0.000000
734.491455	0.000000
734.529419	0.000000
734.567322	0.000000
734.605225	0.000000
734.643127	0.000000
734.681091	0.000000
734.718994	0.000000
734.756897	0.000000
734.794800	0.000000
734.832703	0.000000
734.870667	0.000000
734.908508	0.000000
734.946472	0.000000
734.984375	0.000000
735.022278	0.000000
735.060181	0.000000
735.098083	0.000000
735.135986	0.000000
735.173889	0.000000
735.211792	0.000000
735.249695	0.000000
735.287598	0.000000
735.325439	0.000000
735.363403	0.000000
735.401306	0.000000
735.439148	0.000000
735.477051	0.000000
735.515015	0.000000
735.552856	0.000000
735.590759	0.000000
735.628662	0.000000
735.666504	0.000000
735.704407	0.000000
735.742310	0.000000
735.780212	0.000000
735.818115	0.000000
735.856018	0.000000
735.893860	0.000000
735.931763	0.000000
735.969604	0.000000
736.007507	0.000000
736.045410	0.000000
736.083252	0.000000
736.121094	0.000000
736.158997	0.000000
736.196838	0.000000
736.234741	0.000000
736.272644	0.000000
736.310486	0.000000
736.348389	0.000000
736.386230	0.000000
736.424072	0.000000
736.461975	0.000000
736.499878	0.000000
736.537720	0.000000
736.575562	0.000000
736.613403	0.000000
736.651306	0.000000
736.689148	0.000000
736.726990	0.000000
736.764893	0.000000
736.802734	0.000000
736.840576	0.000000
736.878418	0.000000
736.916321	0.000000
736.954102	0.000000
736.992004	0.000000
737.029846	0.000000
737.067688	0.000000
737.105530	0.000000
737.143372	0.000000
737.181213	0.000000
737.219116	0.000000
737.256897	0.000000
737.294739	0.000000
737.332642	0.000000
737.370422	0.000000
737.408325	0.000000
737.446167	0.000000
737.483948	0.000000
737.521790	0.000000
737.559692	0.000000
737.597473	0.000000
737.635315	0.000000
737.673157	0.000000
737.710999	0.000000
737.748840	0.000000
737.786621	0.000000
737.824463	0.000000
737.862305	0.000000
737.900085	0.000000
737.937927	0.000000
737.975769	0.000000
738.013550	0.000000
738.051392	0.000000
738.089233	0.000000
738.127014	0.000000
738.164856	0.000000
738.202698	0.000000
738.240479	0.000000
738.278320	0.000000
738.316162	0.000000
738.353943	0.000000
738.391785	0.000000
738.429565	0.000000
738.467407	0.000000
738.505188	0.000000
738.542969	0.000000
738.580811	0.000000
738.618652	0.000000
738.656372	0.000000
738.694214	0.000000
738.732056	0.000000
738.769836	0.000000
738.807617	0.000000
738.845459	0.000000
738.883240	0.000000
738.921021	0.000000
738.958862	0.000000
738.996582	0.000000
739.034424	0.000000
739.072205	0.000000
739.109985	0.000000
739.147827	0.000000
739.185547	0.000000
739.223389	0.000000
739.261169	0.000000
739.298889	0.000000
739.336731	0.000000
739.374512	0.000000
739.412292	0.000000
739.450073	0.000000
739.487854	0.000000
739.525635	0.000000
739.563416	0.000000
739.601135	0.000000
739.638977	0.000000
739.676758	0.000000
739.714478	0.000000
739.752258	0.000000
739.790100	0.000000
739.827820	0.000000
739.865601	0.000000
739.903381	0.000000
739.941101	0.000000
739.978882	197.500000
740.016724	192.900000
740.054443	198.900000
740.092224	189.900000
740.130005	190.500000
740.167725	191.400000
740.205505	190.600000
740.243225	199.800000
740.281006	195.300000
740.318787	187.200000
740.356506	199.900000
740.394287	198.600000
740.432068	188.900000
740.469727	187.600000
740.507507	197.600000
740.545288	193.200000
740.583008	196.100000
740.620789	195.300000
740.658569	185.300000
740.696228	194.100000
740.734009	199.900000
740.771790	181.700000
740.809509	198.100000
740.847229	188.200000
740.884949	190.400000
740.922729	186.700000
740.960449	192.600000
740.998169	189.000000
741.035950	189.700000
741.073669	195.900000
741.111389	193.600000
741.149170	203.400000
741.186890	204.300000
741.224609	197.400000
741.262329	194.700000
741.300110	205.200000
741.337769	187.200000
741.375549	187.700000
741.413208	195.300000
741.450989	190.300000
741.488708	190.000000
741.526367	191.300000
741.564148	196.800000
741.601868	198.800000
741.639526	193.500000
741.677307	196.200000
741.715027	195.100000
741.752686	189.500000
741.790466	200.000000
741.828186	197.200000
741.865845	188.500000
741.903564	184.400000
741.941345	193.000000
741.979004	188.900000
742.016724	197.400000
742.054382	194.000000
742.092102	202.000000
742.129822	186.000000
742.167480	190.800000
742.205200	193.100000
742.242920	194.900000
742.280640	198.000000
742.318359	190.500000
742.356079	191.300000
742.393738	196.900000
742.431396	193.000000
742.469116	196.800000
742.506775	183.600000
742.544495	195.400000
742.582214	198.700000
742.619873	193.600000
742.657593	200.600000
742.695251	197.200000
742.732971	192.400000
742.770630	195.500000
742.808289	194.100000
742.846008	195.100000
742.883728	196.000000
742.921326	194.500000
742.959045	189.800000
742.996765	195.500000
743.034424	193.400000
743.072083	190.000000
743.109802	192.900000
743.147400	187.600000
743.185120	194.400000
743.222839	193.000000
743.260437	198.800000
743.298157	195.900000
743.335754	185.600000
743.373474	193.700000
743.411133	184.700000
743.448792	194.500000
743.486450	193.200000
743.524170	186.500000
743.561768	194.000000
743.599487	200.600000
743.637146	205.400000
743.674744	192.600000
743.712463	191.400000
743.750122	195.100000
743.787720	196.100000
743.825439	191.700000
743.863037	192.000000
743.900696	194.900000
743.938416	219.100000
743.976013	192.500000
744.013672	202.000000
744.051331	199.100000
744.088928	203.400000
744.126587	200.200000
744.164307	194.600000
744.201904	190.900000
744.239563	198.700000
744.277222	196.700000
744.314819	192.400000
744.352478	200.700000
744.390137	196.700000
744.427734	196.500000
744.465393	190.800000
744.502991	189.300000
744.540649	197.700000
744.578308	194.300000
744.615906	188.700000
744.653564	182.800000
744.691223	198.500000
744.728821	185.700000
744.766418	193.700000
744.804077	197.200000
744.841675	191.300000
744.879333	186.800000
744.916992	193.600000
744.954529	190.500000
744.992187	200.900000
745.029785	192.300000
745.067444	190.500000
745.105042	193.800000
745.142639	197.100000
745.180298	201.900000
745.217896	191.200000
745.255493	192.300000
745.293152	197.200000
745.330750	196.800000
745.368347	202.600000
745.405945	197.300000
745.443604	195.100000
745.481140	198.700000
745.518799	192.200000
745.556396	198.300000
745.593994	199.900000
745.631592	192.800000
745.669189	188.100000
745.706787	195.100000
745.744385	189.300000
745.781982	196.000000
745.819580	191.100000
745.857178	191.300000
745.894775	194.100000
745.932373	194.600000
745.969971	195.200000
746.007568	185.000000
746.045166	203.200000
746.082764	198.700000
746.120300	196.300000
746.157898	197.800000
746.195557	193.500000
746.233093	187.200000
746.270691	197.600000
746.308228	195.500000
746.345825	198.800000
746.383423	197.400000
746.420959	190.300000
746.458557	192.800000
746.496155	189.900000
746.533691	193.300000
746.571289	188.900000
746.608887	194.900000
746.646423	194.300000
746.684021	194.400000
746.721619	191.600000
746.759155	194.400000
746.796753	187.700000
746.834351	187.300000
746.871826	190.200000
746.909424	201.600000
746.946960	195.600000
746.984558	193.300000
747.022156	192.800000
747.059631	200.000000
747.097229	196.500000
747.134827	193.800000
747.172363	201.500000
747.209900	196.000000
747.247498	188.600000
747.285034	201.900000
747.322571	202.300000
747.360168	192.500000
747.397644	185.800000
747.435242	198.100000
747.472778	201.400000
747.510315	190.100000
747.547913	192.200000
747.585388	200.900000
747.622925	194.400000
747.660522	184.900000
747.697998	190.900000
747.735596	193.600000
747.773132	191.500000
747.810669	193.700000
747.848206	199.200000
747.885742	189.400000
747.923279	188.200000
747.960815	197.100000
747.998352	194.200000
748.035889	199.800000
748.073425	199.300000
748.110901	190.700000
748.148437	190.100000
748.185974	193.800000
748.223511	204.400000
748.261047	194.500000
748.298584	195.300000
748.336060	192.700000
748.373596	197.600000
748.411133	212.100000
748.448608	190.000000
748.486145	198.100000
748.523682	202.200000
748.561218	200.300000
748.598755	195.500000
748.636292	197.800000
748.673706	193.600000
748.711243	199.500000
748.748718	195.000000
748.786255	194.700000
748.823792	195.200000
748.861267	189.100000
748.898804	196.000000
748.936340	195.900000
748.973816	192.400000
749.011292	200.300000
749.048828	195.600000
749.086304	197.000000
749.123840	206.000000
749.161316	188.300000
749.198792	204.000000
749.236328	200.600000
749.273743	196.000000
749.311279	192.900000
749.348816	196.600000
749.386230	194.900000
749.423767	182.200000
749.461304	197.200000
749.498718	196.600000
749.536255	201.500000
749.573730	208.000000
749.611206	199.700000
749.648682	193.200000
749.686218	194.300000
749.723633	198.500000
749.761169	192.200000
749.798645	190.000000
749.836060	194.200000
749.873596	192.100000
749.911011	194.100000
749.948547	201.100000
749.986023	194.700000
750.023437	193.100000
750.060913	188.100000
750.098450	187.900000
750.135864	193.900000
750.173340	194.000000
750.210815	199.600000
750.248291	188.600000
750.285767	194.000000
750.323242	201.300000
750.360657	195.600000
750.398132	188.700000
750.435608	197.900000
750.473022	190.200000
750.510498	189.600000
750.547974	189.300000
750.585449	191.400000
750.622925	183.700000
750.660339	202.800000
750.697815	193.800000
750.735291	194.000000
750.772644	195.500000
750.810120	191.900000
750.847595	196.900000
750.885010	189.600000
750.922485	203.300000
750.959961	194.300000
750.997375	201.700000
751.034851	198.800000
751.072266	200.600000
751.109680	187.500000
751.147156	199.300000
751.184570	197.300000
751.221985	196.800000
751.259460	185.500000
751.296875	194.200000
751.334290	194.600000
751.371765	200.900000
751.409180	197.700000
751.446594	199.900000
751.484070	195.900000
751.521423	197.300000
751.558899	195.700000
751.596375	202.800000
751.633728	201.400000
751.671204	209.600000
751.708618	188.600000
751.746033	194.900000
751.783447	189.000000
751.820801	191.400000
751.858276	196.500000
751.895691	193.300000
751.933105	192.500000
751.970520	188.700000
752.007935	191.400000
752.045349	199.300000
752.082764	193.500000
752.120178	192.200000
752.157532	189.100000
752.195007	192.300000
752.232422	197.300000
752.269775	198.100000
752.307190	197.600000
752.344543	190.700000
752.382019	192.200000
752.419434	192.000000
752.456787	196.400000
752.494202	198.400000
752.531616	195.900000
752.568970	198.800000
752.606384	196.000000
752.643799	196.300000
752.681152	203.100000
752.718567	197.500000
752.755981	187.400000
752.793335	196.400000
752.830750	186.400000
752.868164	200.800000
752.905518	189.800000
752.942932	198.200000
752.980225	189.900000
753.017639	199.800000
753.055054	193.700000
753.092407	197.600000
753.129822	200.300000
753.167175	203.900000
753.204529	194.300000
753.241943	191.700000
753.279358	188.000000
753.316650	198.700000
753.354065	198.500000
753.391479	198.700000
753.428772	204.300000
753.466187	197.800000
753.503479	189.300000
753.540894	193.200000
753.578308	189.400000
753.615601	190.400000
753.653015	196.400000
753.690369	192.400000
753.727722	189.800000
753.765076	187.000000
753.802490	189.100000
753.839783	185.500000
753.877136	191.800000
753.914551	209.700000
753.951843	189.000000
753.989258	197.900000
754.026611	197.400000
754.063904	195.500000
754.101257	190.800000
754.138611	187.500000
754.175964	195.700000
754.213318	205.200000
754.250610	186.800000
754.288025	192.100000
754.325378	187.900000
754.362671	200.300000
754.400024	192.400000
754.437378	204.700000
754.474670	205.500000
754.512085	191.300000
754.549438	193.900000
754.586731	192.000000
754.624084	193.900000
754.661438	190.200000
754.698730	202.800000
754.736084	193.000000
754.773376	194.100000
754.810730	197.700000
754.848083	192.800000
754.885315	198.600000
754.922668	185.700000
754.960022	190.000000
754.997314	200.300000
755.034668	196.400000
755.072021	195.300000
755.109253	192.800000
755.146606	202.800000
755.183960	194.300000
755.221252	205.200000
755.258545	202.500000
755.295898	202.900000
755.333191	204.200000
755.370544	200.200000
755.407776	197.600000
755.445129	197.000000
755.482422	202.200000
755.519714	192.900000
755.557068	190.700000
755.594360	187.100000
755.631653	202.500000
755.668945	206.400000
755.706299	199.900000
755.743530	209.500000
755.780884	206.200000
755.818176	204.100000
755.855408	203.700000
755.892761	199.800000
755.930054	199.700000
755.967346	199.900000
756.004639	203.700000
756.041870	199.100000
756.079224	204.400000
756.116516	193.300000
756.153748	204.600000
756.191040	207.100000
756.228394	203.600000
756.265625	195.000000
756.302917	201.200000
756.340210	196.900000
756.377441	205.400000
756.414795	208.100000
756.452087	199.300000
756.489319	193.600000
756.526611	204.300000
756.563843	202.100000
756.601135	212.600000
756.638428	210.700000
756.675659	201.500000
756.712952	206.900000
756.750244	204.700000
756.787476	202.200000
756.824768	210.500000
756.862061	199.700000
756.899292	248.700000
756.936584	207.600000
756.973816	214.500000
757.011047	215.100000
757.048340	203.200000
757.085632	203.800000
757.122864	218.400000
757.160156	203.900000
757.197327	206.300000
757.234619	209.000000
757.271912	203.500000
757.309082	211.200000
757.346375	201.200000
757.383667	211.600000
757.420837	206.200000
757.458130	207.200000
757.495422	204.300000
757.532593	208.900000
757.569885	197.500000
757.607117	201.100000
757.644348	207.200000
757.681580	220.200000
757.718811	194.000000
757.756042	206.500000
757.793335	203.100000
757.830505	210.000000
757.867798	203.800000
757.905029	204.400000
757.942200	210.400000
757.979492	203.600000
758.016724	206.500000
758.053894	205.800000
758.091187	226.500000
758.128418	209.300000
758.165588	205.500000
758.202820	219.300000
758.240112	210.600000
758.277283	217.700000
758.314514	209.400000
758.351685	206.700000
758.388916	219.500000
758.426147	217.200000
758.463379	218.600000
758.500610	213.000000
758.537842	210.200000
758.575012	217.400000
758.612244	206.000000
758.649475	224.200000
758.686646	205.200000
758.723877	219.000000
758.761108	220.500000
758.798279	211.600000
758.835510	214.700000
758.872742	218.800000
758.909851	215.700000
758.947083	214.600000
758.984253	214.700000
759.021484	217.800000
759.058716	218.400000
759.095886	216.300000
759.133057	212.700000
759.170288	218.100000
759.207458	211.700000
759.244690	225.300000
759.281860	224.500000
759.319031	215.200000
759.356262	212.200000
759.393433	212.300000
759.430603	215.000000
759.467773	213.800000
759.505005	222.100000
759.542175	221.300000
759.579346	215.300000
759.616516	216.200000
759.653687	219.600000
759.690918	213.100000
759.728027	218.900000
759.765259	217.700000
759.802429	221.000000
759.839539	218.500000
759.876770	224.000000
759.913940	228.100000
759.951111	219.200000
759.988281	218.900000
760.025452	214.900000
760.062561	214.400000
760.099792	227.600000
760.136963	221.200000
760.174072	218.600000
760.211243	212.100000
760.248413	216.300000
760.285583	213.200000
760.322754	231.200000
760.359863	225.700000
760.397034	227.500000
760.434204	219.300000
760.471375	219.600000
760.508545	219.900000
760.545715	220.500000
760.582825	217.100000
760.619995	226.100000
760.657166	216.400000
760.694275	227.700000
760.731445	224.100000
760.768555	223.800000
760.805664	225.700000
760.842834	224.200000
760.879944	226.400000
760.917114	226.200000
760.954285	223.800000
760.991394	218.200000
761.028564	231.600000
761.065674	228.000000
761.102783	221.800000
761.139954	231.500000
761.177124	230.200000
761.214172	234.000000
761.251343	226.700000
761.288452	227.800000
761.325562	231.700000
761.362732	224.600000
761.399841	227.000000
761.436951	230.800000
761.474121	225.900000
761.511169	231.300000
761.548340	236.300000
761.585449	234.800000
761.622559	234.700000
761.659668	232.700000
761.696838	241.000000
761.733887	235.700000
761.771057	232.900000
761.808167	234.600000
761.845276	239.300000
761.882385	248.200000
761.919434	237.200000
761.956604	256.100000
761.993713	233.300000
762.030762	245.800000
762.067871	238.800000
762.105042	236.700000
762.142090	244.500000
762.179199	241.900000
762.216309	245.600000
762.253418	256.800000
762.290527	250.500000
762.327637	247.200000
762.364685	237.000000
762.401794	247.800000
762.438904	245.300000
762.475952	240.600000
762.513062	238.300000
762.550110	240.400000
762.587219	254.600000
762.624329	255.600000
762.661377	249.400000
762.698486	247.400000
762.735596	248.400000
762.772644	242.600000
762.809753	238.200000
762.846863	248.700000
762.883911	250.400000
762.921021	253.300000
762.958069	251.100000
762.995117	258.800000
763.032227	257.900000
763.069336	251.000000
763.106323	245.400000
763.143433	245.400000
763.180481	253.500000
763.217590	254.400000
763.254639	251.300000
763.291687	253.000000
763.328735	260.800000
763.365845	253.200000
763.402893	251.500000
763.439941	255.900000
763.477051	257.100000
763.514038	260.700000
763.551147	253.400000
763.588196	256.900000
763.625244	256.200000
763.662292	263.700000
763.699402	267.600000
763.736389	262.300000
763.773499	273.300000
763.810486	265.600000
763.847534	262.400000
763.884644	266.100000
763.921631	262.100000
763.958679	274.200000
763.995728	263.900000
764.032776	272.700000
764.069824	259.100000
764.106873	265.900000
764.143860	274.500000
764.180969	266.600000
764.218018	276.600000
764.255005	267.500000
764.292053	268.200000
764.329102	279.300000
764.366089	278.700000
764.403137	278.400000
764.440125	268.700000
764.477173	272.800000
764.514221	274.200000
764.551208	272.600000
764.588257	268.200000
764.625305	280.300000
764.662292	284.400000
764.699341	286.200000
764.736389	279.900000
764.773376	296.300000
764.810425	283.600000
764.847473	290.300000
764.884399	284.700000
764.921448	295.300000
764.958435	291.800000
764.995483	280.900000
765.032532	298.200000
765.069458	282.700000
765.106506	284.600000
765.143555	282.600000
765.180481	286.000000
765.217529	294.600000
765.254578	279.800000
765.291504	290.800000
765.328552	287.100000
765.365540	283.400000
765.402527	300.000000
765.439575	286.100000
765.476501	280.100000
765.513550	282.800000
765.550537	287.500000
765.587463	295.900000
765.624512	285.600000
765.661499	278.800000
765.698486	297.700000
765.735474	287.500000
765.772461	290.800000
765.809448	297.900000
765.846436	296.400000
765.883423	299.600000
765.920410	293.800000
765.957397	290.300000
765.994385	294.800000
766.031311	304.600000
766.068359	298.500000
766.105286	300.500000
766.142273	305.700000
766.179260	301.900000
766.216187	292.100000
766.253174	292.000000
766.290161	301.500000
766.327148	303.700000
766.364136	305.400000
766.401123	320.900000
766.438049	299.500000
766.475037	313.000000
766.512024	309.200000
766.548950	322.900000
766.585937	318.200000
766.622864	315.400000
766.659790	313.300000
766.696777	303.200000
766.733704	319.700000
766.770691	310.800000
766.807678	327.300000
766.844604	322.300000
766.881531	320.600000
766.918518	327.500000
766.955444	329.000000
766.992432	323.100000
767.029358	327.300000
767.066284	329.900000
767.103271	327.000000
767.140198	356.400000
767.177124	345.100000
767.214050	336.400000
767.251038	336.000000
767.287964	333.200000
767.324890	330.400000
767.361816	337.900000
767.398743	346.200000
767.435730	337.900000
767.472595	343.500000
767.509583	350.100000
767.546509	338.600000
767.583374	345.100000
767.620361	337.900000
767.657288	343.600000
767.694214	345.200000
767.731140	346.000000
767.768066	347.000000
767.804993	351.500000
767.841919	343.200000
767.878845	350.900000
767.915710	357.800000
767.952698	353.500000
767.989563	354.400000
768.026489	357.400000
768.063416	350.400000
768.100281	351.700000
768.137207	366.500000
768.174133	363.900000
768.211060	362.100000
768.247986	362.600000
768.284912	364.400000
768.321777	365.600000
768.358704	363.700000
768.395630	366.500000
768.432495	361.800000
768.469421	369.600000
768.506348	376.600000
768.543152	382.500000
768.580078	378.600000
768.616943	381.400000
768.653870	382.000000
768.690796	378.600000
768.727661	380.100000
768.764587	382.400000
768.801453	376.900000
768.838318	389.700000
768.875244	386.900000
768.912109	392.300000
768.948975	383.100000
768.985901	388.300000
769.022766	388.800000
769.059631	395.400000
769.096558	389.800000
769.133362	390.200000
769.170288	392.100000
769.207214	394.500000
769.244019	399.400000
769.280945	399.200000
769.317810	405.200000
769.354675	402.200000
769.391541	410.000000
769.428406	407.400000
769.465271	420.100000
769.502136	404.700000
769.539062	409.600000
769.575867	407.400000
769.612732	410.000000
769.649597	417.300000
769.686462	424.200000
769.723328	417.100000
769.760193	413.300000
769.797058	418.100000
769.833923	426.100000
769.870728	422.200000
769.907593	426.200000
769.944519	423.700000
769.981323	426.300000
770.018188	431.100000
770.055054	425.900000
770.091858	427.600000
770.128723	440.600000
770.165588	446.000000
770.202393	429.600000
770.239258	443.500000
770.276062	438.500000
770.312927	438.000000
770.349792	446.300000
770.386597	442.800000
770.423462	450.200000
770.460327	459.800000
770.497131	441.700000
770.533997	437.300000
770.570862	454.500000
770.607605	455.800000
770.644470	449.200000
770.681335	452.900000
770.718140	451.400000
770.754944	443.000000
770.791809	444.500000
770.828613	445.500000
770.865479	446.200000
770.902222	461.400000
770.939087	451.900000
770.975952	441.900000
771.012695	448.200000
771.049561	464.700000
771.086365	450.500000
771.123169	448.500000
771.159973	455.200000
771.196838	454.900000
771.233582	454.600000
771.270447	457.400000
771.307251	460.000000
771.344055	458.500000
771.380859	461.900000
771.417664	457.600000
771.454468	467.600000
771.491272	468.400000
771.528076	465.900000
771.564880	464.400000
771.601685	478.000000
771.638428	465.400000
771.675293	473.400000
771.712097	461.100000
771.748840	481.000000
771.785645	473.600000
771.822449	474.100000
771.859253	478.500000
771.896057	475.200000
771.932861	489.700000
771.969604	481.500000
772.006409	474.600000
772.043213	490.000000
772.079956	485.600000
772.116760	477.300000
772.153503	478.900000
772.190308	495.200000
772.227112	486.500000
772.263855	482.000000
772.300659	488.000000
772.337463	494.500000
772.374207	487.100000
772.411011	486.700000
772.447754	490.900000
772.484497	507.300000
772.521301	505.600000
772.558105	502.300000
772.594849	504.900000
772.631592	511.600000
772.668396	512.600000
772.705139	517.000000
772.741882	517.300000
772.778625	528.800000
772.815430	533.000000
772.852173	522.700000
772.888916	533.500000
772.925720	539.000000
772.962463	544.700000
772.999207	538.800000
773.035950	546.200000
773.072754	546.900000
773.109436	540.500000
773.146240	545.800000
773.182922	544.500000
773.219727	558.200000
773.256470	551.100000
773.293152	535.800000
773.329956	545.200000
773.366699	553.100000
773.403381	545.400000
773.440186	556.100000
773.476929	557.600000
773.513611	553.300000
773.550354	553.900000
773.587158	555.200000
773.623840	551.700000
773.660583	564.300000
773.697327	582.500000
773.734009	568.000000
773.770813	566.900000
773.807495	562.300000
773.844238	569.800000
773.880981	590.300000
773.917664	586.200000
773.954407	588.500000
773.991150	579.500000
774.027832	584.500000
774.064575	579.600000
774.101318	590.500000
774.138000	597.600000
774.174744	592.200000
774.211487	593.800000
774.248108	581.100000
774.284851	579.600000
774.321594	596.600000
774.358276	603.700000
774.395020	613.000000
774.431702	609.000000
774.468384	603.100000
774.505127	595.800000
774.541809	616.400000
774.578491	624.800000
774.615234	628.400000
774.651917	620.600000
774.688599	626.500000
774.725342	632.000000
774.762024	630.600000
774.798706	638.000000
774.835449	639.800000
774.872070	645.100000
774.908813	642.900000
774.945496	636.600000
774.982178	642.000000
775.018860	645.900000
775.055542	651.300000
775.092224	649.800000
775.128967	658.400000
775.165588	654.400000
775.202271	645.200000
775.239014	661.200000
775.275635	661.900000
775.312317	657.100000
775.349060	664.800000
775.385681	663.200000
775.422363	655.500000
775.459045	667.300000
775.495667	666.600000
775.532410	674.900000
775.569092	675.700000
775.605713	675.100000
775.642395	670.500000
775.679016	675.100000
775.715698	677.800000
775.752380	684.300000
775.789001	679.900000
775.825684	678.800000
775.862366	681.700000
775.898987	696.600000
775.935669	682.800000
775.972351	704.800000
776.008972	704.400000
776.045654	699.500000
776.082336	690.300000
776.118958	695.200000
776.155640	700.300000
776.192322	709.700000
776.228882	710.800000
776.265564	711.200000
776.302185	703.400000
776.338867	711.000000
776.375488	698.000000
776.412109	716.200000
776.448792	721.200000
776.485413	726.000000
776.522034	712.900000
776.558716	704.100000
776.595337	706.100000
776.631958	715.300000
776.668579	713.700000
776.705261	718.300000
776.741882	710.700000
776.778503	712.400000
776.815186	708.900000
776.851746	718.000000
776.888367	716.300000
776.924988	725.300000
776.961609	715.700000
776.998291	714.000000
777.034851	703.400000
777.071472	723.400000
777.108154	720.000000
777.144714	732.800000
777.181335	730.700000
777.218018	721.400000
777.254578	726.900000
777.291199	728.900000
777.327759	735.800000
777.364380	744.000000
777.401062	748.900000
777.437622	761.800000
777.474243	744.700000
777.510864	752.200000
777.547424	750.500000
777.584045	757.300000
777.620667	761.400000
777.657227	765.800000
777.693848	767.000000
777.730469	780.000000
777.767029	772.700000
777.803650	777.100000
777.840271	771.500000
777.876831	767.500000
777.913452	780.400000
777.950012	758.300000
777.986633	763.600000
778.023193	761.700000
778.059753	759.800000
778.096375	763.600000
778.132996	777.900000
778.169556	760.300000
778.206116	765.700000
778.242737	764.000000
778.279297	781.500000
778.315857	766.700000
778.352478	778.700000
778.389038	786.400000
778.425598	791.100000
778.462219	798.000000
778.498718	800.600000
778.535339	808.100000
778.571838	811.400000
778.608459	814.300000
778.645020	809.600000
778.681580	822.400000
778.718140	832.900000
778.754761	820.400000
778.791260	825.500000
778.827881	839.300000
778.864441	838.000000
778.900940	838.600000
778.937561	836.800000
778.974121	838.400000
779.010620	823.700000
779.047241	833.500000
779.083801	848.500000
779.120300	844.800000
779.156860	848.200000
779.193359	846.300000
779.229980	848.200000
779.266541	852.700000
779.303040	858.300000
779.339600	851.100000
779.376160	847.000000
779.412659	860.900000
779.449219	851.500000
779.485779	858.300000
779.522278	864.100000
779.558838	869.100000
779.595398	870.600000
779.631897	869.500000
779.668457	858.800000
779.705017	873.700000
779.741516	868.500000
779.778076	863.100000
779.814575	871.800000
779.851074	882.300000
779.887634	877.800000
779.924133	887.200000
779.960693	870.900000
779.997253	886.000000
780.033691	886.000000
780.070251	889.000000
780.106812	901.000000
780.143250	905.400000
780.179810	896.100000
780.216370	902.000000
780.252808	915.700000
780.289368	924.500000
780.325867	929.900000
780.362366	924.900000
780.398865	936.200000
780.435364	926.100000
780.471863	942.700000
780.508423	938.300000
780.544861	950.900000
780.581421	955.800000
780.617920	943.000000
780.654419	940.700000
780.690918	950.100000
780.727417	955.400000
780.763916	955.800000
780.800415	961.200000
780.836914	939.900000
780.873352	952.800000
780.909912	943.200000
780.946411	951.800000
780.982849	965.900000
781.019348	977.800000
781.055786	972.800000
781.092346	969.800000
781.128845	981.300000
781.165283	992.400000
781.201782	992.500000
781.238281	997.800000
781.274719	1008.600000
781.311218	994.500000
781.347717	1003.400000
781.384155	989.900000
781.420654	995.700000
781.457092	1011.100000
781.493591	1000.200000
781.530090	992.100000
781.566528	996.700000
781.602966	1000.100000
781.639465	1000.400000
781.675903	997.600000
781.712402	1010.900000
781.748901	1017.600000
781.785278	1006.800000
781.821777	1011.100000
781.858276	1010.200000
781.894714	1029.600000
781.931152	1017.800000
781.967651	1026.500000
782.004089	1013.600000
782.040527	1026.600000
782.076965	1027.500000
782.113403	1023.600000
782.149902	1027.100000
782.186340	1025.200000
782.222778	1037.900000
782.259277	1022.300000
782.295654	1021.500000
782.332092	1029.700000
782.368591	1022.100000
782.404968	1017.200000
782.441467	1021.500000
782.477905	1024.800000
782.514282	1018.400000
782.550781	1039.200000
782.587219	1036.800000
782.623596	1041.700000
782.660095	1043.000000
782.696472	1050.200000
782.732910	1051.000000
782.769348	1058.300000
782.805786	1073.300000
782.842224	1065.200000
782.878662	1061.200000
782.915039	1064.500000
782.951477	1063.000000
782.987915	1062.900000
783.024292	1068.600000
783.060730	1063.400000
783.097168	1051.900000
783.133545	1047.100000
783.169983	1041.300000
783.206421	1033.500000
783.242798	1033.000000
783.279236	1020.900000
783.315613	1017.300000
783.352051	1014.600000
783.388489	1000.900000
783.424866	989.900000
783.461304	995.200000
783.497681	998.100000
783.534058	991.900000
783.570496	990.400000
783.606934	982.700000
783.643250	989.100000
783.679687	999.500000
783.716125	996.400000
783.752441	1009.800000
783.788879	1030.100000
783.825317	1034.500000
783.861633	1038.600000
783.898071	1044.000000
783.934448	1064.000000
783.970825	1074.400000
784.007263	1072.700000
784.043579	1071.900000
784.080017	1064.900000
784.116394	1016.100000
784.152710	914.400000
784.189148	762.600000
784.225525	584.300000
784.261902	431.200000
784.298279	368.200000
784.334656	388.500000
784.371033	413.900000
784.407410	430.000000
784.443787	403.100000
784.480164	372.900000
784.516541	382.600000
784.552856	503.100000
784.589233	659.700000
784.625610	813.400000
784.661987	970.100000
784.698364	1010.200000
784.734741	1022.900000
784.771057	1030.000000
784.807434	1042.100000
784.843811	1061.500000
784.880127	1060.700000
784.916504	1093.300000
784.952881	1102.400000
784.989197	1092.400000
785.025574	1097.500000
785.061951	1110.900000
785.098267	1135.900000
785.134644	1134.800000
785.170959	1136.600000
785.207275	1141.300000
785.243652	1134.500000
785.279968	1123.900000
785.316345	1131.700000
785.352722	1147.300000
785.388977	1143.700000
785.425354	1119.200000
785.461731	1099.700000
785.498047	1094.900000
785.534363	1089.700000
785.570679	1091.700000
785.606995	1092.500000
785.643372	1094.900000
785.679687	1085.600000
785.716003	1071.000000
785.752380	1063.600000
785.788635	1076.600000
785.825012	1095.300000
785.861328	1105.500000
785.897644	1091.200000
785.933960	1106.200000
785.970337	1118.700000
786.006592	1136.700000
786.042908	1147.300000
786.079285	1167.400000
786.115540	1177.600000
786.151855	1173.500000
786.188171	1168.000000
786.224487	1172.700000
786.260803	1168.900000
786.297119	1187.900000
786.333435	1189.100000
786.369751	1180.800000
786.406006	1185.000000
786.442322	1161.500000
786.478638	1154.100000
786.514954	1169.800000
786.551270	1172.900000
786.587585	1183.400000
786.623840	1168.600000
786.660156	1160.200000
786.696472	1143.100000
786.732727	1138.900000
786.769043	1141.600000
786.805298	1135.300000
786.841614	1140.800000
786.877930	1140.700000
786.914124	1124.400000
786.950439	1142.400000
786.986755	1148.700000
787.023010	1163.400000
787.059326	1176.300000
787.095642	1183.900000
787.131836	1195.900000
787.168152	1177.200000
787.204468	1187.400000
787.240723	1213.100000
787.276978	1224.400000
787.313293	1235.100000
787.349548	1233.400000
787.385803	1232.000000
787.422058	1222.100000
787.458313	1221.300000
787.494629	1224.800000
787.530823	1222.300000
787.567139	1209.100000
787.603455	1196.500000
787.639648	1178.300000
787.675903	1181.000000
787.712219	1186.700000
787.748413	1186.300000
787.784729	1197.000000
787.820984	1176.700000
787.857178	1167.800000
787.893494	1158.800000
787.929749	1151.400000
787.965942	1159.300000
788.002258	1172.200000
788.038452	1185.800000
788.074707	1170.300000
788.110962	1176.700000
788.147217	1172.200000
788.183472	1182.800000
788.219727	1186.400000
788.255920	1209.600000
788.292175	1215.100000
788.328430	1211.600000
788.364624	1193.600000
788.400879	1183.400000
788.437134	1195.000000
788.473328	1195.000000
788.509583	1191.600000
788.545837	1185.600000
788.582031	1179.700000
788.618286	1166.300000
788.654480	1159.700000
788.690735	1180.400000
788.726990	1199.100000
788.763184	1192.300000
788.799377	1211.100000
788.835632	1194.400000
788.871826	1209.100000
788.908081	1210.400000
788.944336	1204.900000
788.980469	1224.900000
789.016724	1221.800000
789.052979	1218.800000
789.089111	1196.800000
789.125366	1200.700000
789.161621	1182.300000
789.197754	1195.000000
789.234009	1188.600000
789.270142	1169.300000
789.306396	1160.100000
789.342590	1153.100000
789.378784	1124.200000
789.414978	1129.500000
789.451233	1149.200000
789.487366	1143.700000
789.523621	1152.900000
789.559814	1136.900000
789.595947	1132.000000
789.632202	1134.500000
789.668335	1154.000000
789.704529	1170.100000
789.740784	1197.400000
789.776917	1197.500000
789.813110	1182.800000
789.849304	1197.000000
789.885498	1197.600000
789.921692	1213.000000
789.957886	1226.900000
789.994019	1227.600000
790.030212	1218.100000
790.066406	1218.800000
790.102539	1212.700000
790.138733	1223.100000
790.174927	1215.700000
790.211060	1234.500000
790.247253	1218.100000
790.283386	1202.300000
790.319580	1188.100000
790.355774	1170.900000
790.391907	1179.900000
790.428101	1206.200000
790.464294	1210.900000
790.500427	1209.900000
790.536621	1189.800000
790.572754	1170.200000
790.608887	1173.500000
790.645081	1189.300000
790.681274	1207.200000
790.717346	1201.800000
790.753540	1162.600000
790.789734	1093.100000
790.825867	1041.100000
790.862000	1069.200000
790.898132	1136.500000
790.934265	1216.700000
790.970459	1287.700000
791.006592	1308.000000
791.042725	1316.900000
791.078918	1308.100000
791.114990	1308.300000
791.151184	1328.600000
791.187317	1359.600000
791.223389	1348.200000
791.259583	1329.000000
791.295715	1342.400000
791.331848	1344.100000
791.367981	1356.300000
791.404114	1367.400000
791.440247	1367.600000
791.476379	1365.400000
791.512451	1344.500000
791.548584	1339.100000
791.584778	1338.500000
791.620850	1355.700000
791.656982	1370.600000
791.693115	1362.300000
791.729187	1354.900000
791.765381	1341.700000
791.801514	1344.900000
791.837585	1352.500000
791.873718	1359.400000
791.909851	1374.300000
791.945923	1383.400000
791.982056	1336.300000
792.018188	1341.000000
792.054260	1339.500000
792.090393	1345.800000
792.126465	1335.600000
792.162598	1347.700000
792.198669	1330.100000
792.234741	1320.200000
792.270874	1314.900000
792.307007	1296.900000
792.343079	1310.300000
792.379150	1329.100000
792.415283	1302.900000
792.451355	1310.700000
792.487488	1279.700000
792.523560	1276.500000
792.559631	1285.200000
792.595764	1280.500000
792.631836	1289.300000
792.667908	1290.800000
792.703979	1274.400000
792.740051	1271.300000
792.776184	1280.500000
792.812256	1282.400000
792.848328	1292.300000
792.884399	1296.500000
792.920471	1296.100000
792.956543	1282.400000
792.992615	1274.600000
793.028748	1279.000000
793.064758	1289.300000
793.100830	1314.900000
793.136963	1325.300000
793.172974	1316.700000
793.209045	1311.800000
793.245178	1321.300000
793.281189	1306.700000
793.317261	1314.000000
793.353271	1322.900000
793.389404	1329.600000
793.425476	1314.000000
793.461487	1296.200000
793.497559	1289.800000
793.533630	1297.800000
793.569641	1303.400000
793.605713	1307.800000
793.641785	1308.700000
793.677795	1323.400000
793.713867	1304.600000
793.749878	1300.500000
793.785950	1321.700000
793.822021	1330.600000
793.858032	1305.600000
793.894104	1320.100000
793.930176	1307.800000
793.966187	1311.800000
794.002258	1303.100000
794.038269	1301.600000
794.074280	1302.800000
794.110352	1322.700000
794.146423	1292.500000
794.182373	1285.600000
794.218445	1276.900000
794.254517	1267.700000
794.290466	1249.400000
794.326538	1260.700000
794.362549	1263.900000
794.398560	1264.100000
794.434631	1270.900000
794.470581	1241.300000
794.506653	1230.100000
794.542664	1239.000000
794.578674	1233.400000
794.614685	1229.600000
794.650757	1228.500000
794.686707	1217.000000
794.722778	1209.600000
794.758789	1218.700000
794.794739	1226.200000
794.830811	1251.300000
794.866821	1271.800000
794.902771	1261.000000
794.938843	1248.800000
794.974792	1242.400000
795.010803	1240.600000
795.046814	1244.700000
795.082825	1232.500000
795.118835	1249.700000
795.154846	1228.200000
795.190796	1229.700000
795.226807	1201.100000
795.262817	1212.200000
795.298767	1208.700000
795.334778	1211.100000
795.370850	1201.200000
795.406799	1203.700000
795.442810	1177.500000
795.478821	1173.500000
795.514709	1174.300000
795.550720	1194.200000
795.586670	1176.300000
795.622681	1188.600000
795.658691	1183.600000
795.694641	1172.900000
795.730652	1162.500000
795.766663	1168.800000
795.802551	1165.800000
795.838562	1186.600000
795.874573	1173.100000
795.910522	1165.800000
795.946472	1156.100000
795.982483	1160.400000
796.018433	1165.000000
796.054382	1175.600000
796.090393	1165.700000
796.126282	1154.700000
796.162292	1132.500000
796.198242	1129.500000
796.234192	1138.700000
796.270203	1134.800000
796.306091	1140.500000
796.342041	1155.700000
796.378052	1142.500000
796.413940	1134.200000
796.449951	1136.600000
796.485901	1137.300000
796.521790	1131.500000
796.557800	1147.100000
796.593689	1150.000000
796.629639	1132.500000
796.665649	1134.100000
796.701599	1132.200000
796.737488	1127.100000
796.773437	1133.900000
796.809387	1137.300000
796.845337	1127.400000
796.881287	1115.500000
796.917175	1095.300000
796.953125	1098.600000
796.989075	1118.600000
797.024963	1120.700000
797.060913	1115.100000
797.096863	1113.600000
797.132751	1101.300000
797.168701	1085.200000
797.204590	1091.500000
797.240540	1095.000000
797.276489	1102.000000
797.312439	1111.900000
797.348328	1107.100000
797.384277	1090.900000
797.420166	1073.700000
797.456055	1078.900000
797.492004	1077.800000
797.527893	1084.100000
797.563843	1090.600000
797.599731	1073.200000
797.635620	1059.900000
797.671570	1068.200000
797.707520	1068.200000
797.743347	1069.400000
797.779297	1079.800000
797.815125	1074.200000
797.851074	1061.100000
797.887024	1053.200000
797.922913	1044.400000
797.958801	1060.100000
797.994690	1060.300000
798.030579	1063.000000
798.066467	1058.600000
798.102356	1044.200000
798.138245	1034.800000
798.174133	1036.300000
798.210083	1042.900000
798.245911	1050.400000
798.281799	1058.500000
798.317749	1049.300000
798.353577	1036.200000
798.389465	1031.700000
798.425293	1033.400000
798.461243	1026.300000
798.497131	1033.700000
798.532959	1034.600000
798.568848	1040.400000
798.604736	1023.900000
798.640564	1008.800000
798.676453	1007.900000
798.712402	1013.900000
798.748230	1022.500000
798.784119	1017.000000
798.820007	1018.300000
798.855835	1014.100000
798.891724	1008.700000
798.927551	1003.500000
798.963379	1014.300000
798.999268	1009.300000
799.035095	1006.400000
799.070984	992.700000
799.106873	982.600000
799.142700	993.800000
799.178528	985.500000
799.214417	984.900000
799.250244	1002.300000
799.286133	995.400000
799.321960	982.800000
799.357788	981.300000
799.393677	977.300000
799.429504	979.800000
799.465332	987.300000
799.501221	990.900000
799.537048	985.200000
799.572876	975.300000
799.608704	972.900000
799.644531	981.500000
799.680359	979.800000
799.716248	985.200000
799.752014	993.800000
799.787903	981.300000
799.823730	979.300000
799.859558	967.400000
799.895386	970.500000
799.931213	972.900000
799.967041	965.500000
800.002869	955.900000
800.038696	971.300000
800.074463	941.900000
800.110352	949.500000
800.146179	941.000000
800.181946	946.000000
800.217773	947.700000
800.253540	947.800000
800.289429	938.200000
800.325256	929.200000
800.361023	921.800000
800.396851	932.700000
800.432678	930.500000
800.468445	926.600000
800.504272	923.100000
800.540100	902.400000
800.575867	901.300000
800.611694	905.900000
800.647461	899.600000
800.683289	902.800000
800.719116	903.700000
800.754883	898.200000
800.790649	876.000000
800.826477	872.600000
800.862244	896.800000
800.898071	876.600000
800.933838	869.900000
800.969604	868.200000
801.005432	866.700000
801.041199	866.500000
801.076965	857.900000
801.112793	850.000000
801.148560	840.100000
801.184326	841.300000
801.220154	843.300000
801.255859	831.700000
801.291687	826.800000
801.327454	821.900000
801.363281	824.000000
801.398987	822.700000
801.434814	820.600000
801.470520	830.300000
801.506287	815.700000
801.542114	804.700000
801.577820	810.600000
801.613647	808.500000
801.649414	802.300000
801.685120	801.200000
801.720886	808.200000
801.756714	795.800000
801.792419	786.800000
801.828186	783.000000
801.863892	796.300000
801.899719	782.100000
801.935486	776.600000
801.971252	787.800000
802.006958	776.800000
802.042725	770.400000
802.078430	771.100000
802.114197	762.600000
802.149963	781.300000
802.185669	771.000000
802.221436	761.800000
802.257202	764.500000
802.292908	762.300000
802.328674	767.900000
802.364441	769.300000
802.400146	761.400000
802.435913	752.200000
802.471558	747.700000
802.507324	748.300000
802.543091	735.100000
802.578796	751.200000
802.614502	753.400000
802.650269	752.700000
802.685974	734.500000
802.721741	741.000000
802.757446	744.800000
802.793152	741.700000
802.828918	748.200000
802.864624	742.200000
802.900330	740.000000
802.936035	730.700000
802.971802	730.300000
803.007446	727.700000
803.043213	721.700000
803.078857	722.700000
803.114624	710.400000
803.150330	715.900000
803.185974	707.900000
803.221741	709.500000
803.257446	715.500000
803.293152	713.400000
803.328857	705.900000
803.364563	702.200000
803.400208	694.700000
803.435974	704.100000
803.471680	693.600000
803.507324	689.000000
803.543030	698.000000
803.578735	695.900000
803.614441	687.600000
803.650146	693.700000
803.685791	679.500000
803.721497	682.400000
803.757202	672.000000
803.792847	681.700000
803.828552	672.300000
803.864258	674.800000
803.899902	669.200000
803.935608	652.100000
803.971313	662.300000
804.006958	660.400000
804.042664	655.000000
804.078308	664.300000
804.113953	652.000000
804.149658	658.700000
804.185364	649.200000
804.221008	653.700000
804.256714	645.700000
804.292297	646.700000
804.328003	645.600000
804.363708	632.800000
804.399292	632.800000
804.434998	634.300000
804.470703	624.100000
804.506287	638.300000
804.541992	631.500000
804.577637	633.900000
804.613281	622.200000
804.648926	617.300000
804.684570	622.300000
804.720215	617.500000
804.755920	617.300000
804.791565	608.400000
804.827209	617.900000
804.862854	609.700000
804.898437	605.200000
804.934143	605.400000
804.969788	605.700000
805.005371	610.300000
805.041077	609.000000
805.076721	607.300000
805.112305	595.000000
805.147949	598.000000
805.183655	595.600000
805.219238	599.400000
805.254883	594.900000
805.290466	603.500000
805.326111	590.400000
805.361755	581.000000
805.397400	585.300000
805.432983	593.200000
805.468628	590.600000
805.504211	597.000000
805.539856	591.800000
805.575500	594.900000
805.611084	585.400000
805.646729	572.700000
805.682373	577.400000
805.717957	591.300000
805.753601	589.200000
805.789246	570.800000
805.824768	581.200000
805.860413	584.600000
805.895996	570.800000
805.931641	568.700000
805.967224	573.800000
806.002869	570.500000
806.038452	579.100000
806.074036	576.300000
806.109619	560.200000
806.145264	557.600000
806.180847	560.600000
806.216431	553.500000
806.252014	562.500000
806.287659	559.700000
806.323181	568.100000
806.358826	564.300000
806.394409	542.200000
806.429993	543.200000
806.465576	558.700000
806.501160	542.800000
806.536743	536.100000
806.572327	545.000000
806.607910	540.200000
806.643494	537.700000
806.679077	536.100000
806.714661	537.100000
806.750244	537.900000
806.785828	528.000000
806.821350	529.000000
806.856934	534.200000
806.892517	528.500000
806.928101	518.800000
806.963684	523.000000
806.999268	533.800000
807.034790	513.500000
807.070374	519.400000
807.105896	511.400000
807.141479	508.900000
807.177063	514.600000
807.212585	507.900000
807.248169	507.100000
807.283752	513.300000
807.319275	506.900000
807.354858	503.700000
807.390381	501.800000
807.425903	504.100000
807.461487	496.400000
807.497070	489.200000
807.532593	492.500000
807.568115	488.700000
807.603699	484.100000
807.639221	481.700000
807.674744	485.600000
807.710266	489.400000
807.745850	491.000000
807.781372	480.500000
807.816895	479.900000
807.852417	483.700000
807.888000	477.000000
807.923523	476.400000
807.959045	479.300000
807.994629	467.100000
808.030090	466.000000
808.065613	472.300000
808.101135	473.700000
808.136658	469.600000
808.172241	466.900000
808.207764	465.800000
808.243225	459.600000
808.278809	455.600000
808.314270	462.500000
808.349792	449.400000
808.385315	448.800000
808.420837	456.600000
808.456360	459.400000
808.491882	458.200000
808.527344	453.300000
808.562866	460.600000
808.598389	451.400000
808.633850	446.700000
808.669434	443.500000
808.704895	451.300000
808.740417	457.000000
808.775940	444.500000
808.811462	441.100000
808.846924	435.300000
808.882385	431.200000
808.917847	432.000000
808.953369	429.000000
808.988892	424.900000
809.024353	434.100000
809.059875	431.900000
809.095398	428.300000
809.130798	420.000000
809.166321	422.400000
809.201843	421.600000
809.237305	420.800000
809.272766	428.200000
809.308228	411.800000
809.343750	413.200000
809.379211	412.900000
809.414734	412.900000
809.450134	423.000000
809.485657	402.600000
809.521118	409.800000
809.556580	407.400000
809.592102	404.900000
809.627502	400.800000
809.663025	401.100000
809.698486	395.300000
809.733887	391.700000
809.769409	396.500000
809.804871	385.100000
809.840271	388.500000
809.875793	391.200000
809.911194	394.800000
809.946655	386.700000
809.982178	382.300000
810.017639	387.300000
810.053040	382.700000
810.088501	381.100000
810.123901	380.600000
810.159424	377.600000
810.194885	372.100000
810.230286	376.000000
810.265747	370.800000
810.301208	371.600000
810.336609	370.800000
810.372070	365.200000
810.407532	368.600000
810.442932	366.700000
810.478394	373.800000
810.513794	366.600000
810.549255	362.800000
810.584717	362.500000
810.620117	354.900000
810.655518	365.900000
810.690979	361.400000
810.726379	361.500000
810.761841	349.700000
810.797302	352.400000
810.832642	350.300000
810.868103	362.900000
810.903564	351.500000
810.938904	356.400000
810.974365	343.000000
811.009827	347.400000
811.045166	346.000000
811.080627	337.500000
811.115967	343.400000
811.151428	350.700000
811.186829	341.500000
811.222229	343.300000
811.257629	335.300000
811.293091	341.600000
811.328430	350.200000
811.363892	340.700000
811.399292	344.500000
811.434631	337.200000
811.470093	343.300000
811.505493	334.300000
811.540833	335.100000
811.576294	342.000000
811.611694	333.500000
811.647034	329.500000
811.682434	331.400000
811.717773	333.800000
811.753235	337.900000
811.788635	330.500000
811.823975	330.400000
811.859375	338.300000
811.894775	324.300000
811.930115	325.900000
811.965515	325.400000
812.000916	330.300000
812.036255	323.200000
812.071655	327.000000
812.106995	322.000000
812.142395	324.100000
812.177795	327.900000
812.213196	325.200000
812.248474	325.100000
812.283875	317.400000
812.319214	319.600000
812.354614	319.700000
812.390015	318.300000
812.425293	317.900000
812.460693	317.400000
812.496094	313.800000
812.531433	307.800000
812.566772	309.200000
812.602173	312.500000
812.637451	312.900000
812.672852	308.500000
812.708191	314.000000
812.743530	306.000000
812.778931	297.900000
812.814270	303.700000
812.849609	309.900000
812.884949	304.900000
812.920227	296.800000
812.955627	312.500000
812.990967	304.700000
813.026306	298.100000
813.061646	288.300000
813.096985	285.200000
813.132324	284.600000
813.167664	289.800000
813.203003	294.900000
813.238281	280.500000
813.273682	283.700000
813.308960	279.500000
813.344299	281.300000
813.379639	290.200000
813.414978	283.200000
813.450256	282.000000
813.485596	285.100000
813.520874	277.700000
813.556213	283.900000
813.591614	286.900000
813.626831	278.200000
813.662170	282.700000
813.697510	292.200000
813.732788	273.900000
813.768127	282.400000
813.803467	281.200000
813.838745	276.300000
813.874084	278.100000
813.909363	278.100000
813.944641	279.400000
813.979980	267.500000
814.015320	274.200000
814.050598	270.400000
814.085876	275.700000
814.121155	273.300000
814.156494	269.100000
814.191772	270.900000
814.227051	266.400000
814.262390	269.400000
814.297668	269.200000
814.332947	272.100000
814.368225	262.000000
814.403564	268.200000
814.438782	262.000000
814.474121	265.600000
814.509338	261.500000
814.544617	271.100000
814.579956	259.800000
814.615173	271.200000
814.650513	267.800000
814.685791	257.500000
814.721008	259.900000
814.756348	261.900000
814.791626	257.800000
814.826843	258.500000
814.862122	259.600000
814.897400	256.700000
814.932678	260.000000
814.967957	258.200000
815.003235	256.700000
815.038452	249.500000
815.073730	249.700000
815.108948	258.100000
815.144226	256.800000
815.179504	261.400000
815.214722	245.500000
815.250000	244.600000
815.285278	251.600000
815.320496	246.900000
815.355774	247.700000
815.391052	252.600000
815.426270	248.000000
815.461487	246.200000
815.496765	242.300000
815.531982	237.200000
815.567261	244.900000
815.602539	252.400000
815.637695	246.900000
815.672974	249.300000
815.708191	248.800000
815.743408	249.800000
815.778687	242.300000
815.813904	252.300000
815.849121	233.900000
815.884399	234.800000
815.919556	236.600000
815.954834	237.200000
815.990051	241.500000
816.025269	244.600000
816.060486	236.300000
816.095703	234.300000
816.130920	237.800000
816.166199	234.100000
816.201416	238.700000
816.236572	243.800000
816.271851	234.100000
816.307007	241.700000
816.342224	230.200000
816.377441	233.400000
816.412659	224.900000
816.447876	236.900000
816.483093	232.000000
816.518250	233.800000
816.553467	229.100000
816.588745	235.100000
816.623901	226.000000
816.659119	221.100000
816.694275	226.600000
816.729492	224.300000
816.764709	259.200000
816.799927	221.900000
816.835083	227.500000
816.870300	220.000000
816.905457	223.900000
816.940674	226.500000
816.975830	222.000000
817.010986	218.600000
817.046204	219.500000
817.081421	217.700000
817.116577	217.200000
817.151733	226.700000
817.186951	226.400000
817.222107	222.500000
817.257324	225.800000
817.292419	223.000000
817.327637	215.400000
817.362854	219.600000
817.398010	214.900000
817.433167	217.500000
817.468323	216.400000
817.503479	218.500000
817.538635	226.200000
817.573853	221.400000
817.608948	218.200000
817.644165	214.100000
817.679321	213.300000
817.714478	212.500000
817.749634	217.600000
817.784790	228.600000
817.819946	222.900000
817.855103	206.900000
817.890198	214.600000
817.925415	207.400000
817.960571	216.400000
817.995667	214.600000
818.030823	217.400000
818.066040	210.100000
818.101135	214.900000
818.136292	212.400000
818.171448	207.000000
818.206543	211.600000
818.241699	217.300000
818.276855	211.900000
818.311951	211.300000
818.347107	208.000000
818.382263	214.400000
818.417358	219.300000
818.452515	218.900000
818.487610	218.900000
818.522766	207.700000
818.557922	218.800000
818.593018	215.200000
818.628113	211.400000
818.663269	207.700000
818.698364	211.100000
818.733521	207.000000
818.768677	213.400000
818.803711	204.500000
818.838867	206.300000
818.874023	209.300000
818.909058	204.800000
818.944214	203.500000
818.979370	210.900000
819.014404	208.100000
819.049561	204.900000
819.084595	211.100000
819.119751	201.700000
819.154846	210.000000
819.189941	205.800000
819.225037	201.900000
819.260193	197.400000
819.295227	201.600000
819.330322	195.800000
819.365479	195.700000
819.400513	227.000000
819.435608	194.400000
819.470764	192.000000
819.505798	196.200000
819.540894	197.900000
819.575989	197.100000
819.611084	207.500000
819.646179	205.600000
819.681213	202.800000
819.716309	199.600000
819.751404	200.100000
819.786438	203.700000
819.821533	196.300000
819.856628	201.300000
819.891663	204.400000
819.926758	210.600000
819.961853	206.900000
819.996887	197.000000
820.031982	203.900000
820.067017	198.400000
820.102112	227.400000
820.137207	197.500000
820.172302	215.400000
820.207275	195.800000
820.242371	195.900000
820.277405	195.000000
820.312500	198.500000
820.347534	202.000000
820.382568	203.100000
820.417664	198.000000
820.452759	196.900000
820.487732	194.500000
820.522827	197.100000
820.557861	194.800000
820.592896	196.300000
820.627930	196.600000
820.662964	195.900000
820.698059	200.100000
820.733093	195.900000
820.768127	200.100000
820.803162	196.600000
820.838196	194.500000
820.873230	198.000000
820.908264	198.100000
820.943298	194.000000
820.978333	202.000000
821.013367	198.100000
821.048401	201.500000
821.083435	204.100000
821.118469	188.700000
821.153503	202.200000
821.188477	198.000000
821.223511	189.000000
821.258484	196.800000
821.293579	198.200000
821.328613	189.800000
821.363647	195.500000
821.398621	190.600000
821.433655	193.300000
821.468628	209.400000
821.503662	195.600000
821.538696	199.200000
821.573669	189.700000
821.608704	200.300000
821.643677	192.600000
821.678650	201.900000
821.713684	204.400000
821.748718	194.700000
821.783691	194.800000
821.818726	197.100000
821.853638	197.200000
821.888672	193.800000
821.923706	196.600000
821.958618	192.300000
821.993652	193.500000
822.028687	201.200000
822.063599	201.700000
822.098633	198.300000
822.133667	192.100000
822.168579	195.700000
822.203613	196.900000
822.238586	191.100000
822.273560	198.300000
822.308533	193.700000
822.343567	192.300000
822.378479	192.400000
822.413452	193.200000
822.448425	192.000000
822.483398	199.800000
822.518372	199.600000
822.553345	191.700000
822.588318	203.700000
822.623291	193.600000
822.658203	192.200000
822.693237	194.800000
822.728210	189.800000
822.763123	196.500000
822.798096	189.700000
822.833069	195.000000
822.867981	193.800000
822.902954	196.400000
822.937927	198.500000
822.972900	206.800000
823.007874	185.700000
823.042725	198.300000
823.077698	204.500000
823.112671	190.100000
823.147583	193.100000
823.182556	197.200000
823.217529	199.200000
823.252441	192.500000
823.287415	208.400000
823.322388	198.300000
823.357239	194.000000
823.392212	202.400000
823.427185	197.500000
823.462097	191.100000
823.497009	198.100000
823.531982	191.500000
823.566895	194.500000
823.601807	189.700000
823.636719	192.600000
823.671631	198.700000
823.706604	192.200000
823.741455	197.300000
823.776428	188.700000
823.811340	197.900000
823.846252	200.000000
823.881165	203.100000
823.916138	197.900000
823.950989	203.700000
823.985901	191.400000
824.020813	196.100000
824.055725	193.300000
824.090637	191.000000
824.125610	195.600000
824.160461	194.700000
824.195374	197.800000
824.230225	201.300000
824.265198	187.500000
824.300110	192.600000
824.334961	207.000000
824.369873	185.500000
824.404785	196.900000
824.439636	201.700000
824.474548	186.200000
824.509460	184.400000
824.544312	200.100000
824.579224	197.800000
824.614075	198.000000
824.648987	193.500000
824.683899	193.400000
824.718811	191.800000
824.753662	202.900000
824.788574	199.700000
824.823364	196.600000
824.858276	191.300000
824.893188	200.200000
824.928040	199.400000
824.962952	197.200000
824.997803	198.200000
825.032654	195.800000
825.067566	198.700000
825.102417	192.100000
825.137268	193.700000
825.172119	195.500000
825.206970	190.700000
825.241882	191.800000
825.276733	191.500000
825.311646	191.300000
825.346436	187.900000
825.381348	190.100000
825.416138	195.200000
825.450989	190.900000
825.485901	185.700000
825.520691	186.200000
825.555542	189.200000
825.590454	194.600000
825.625244	187.200000
825.660095	201.100000
825.695007	196.900000
825.729797	192.300000
825.764648	189.300000
825.799438	194.200000
825.834290	194.300000
825.869202	187.000000
825.903992	195.500000
825.938843	190.200000
825.973694	188.900000
826.008484	205.800000
826.043335	188.500000
826.078186	184.700000
826.112976	201.500000
826.147827	199.100000
826.182678	202.700000
826.217468	186.900000
826.252319	198.600000
826.287109	189.600000
826.321899	200.500000
826.356750	190.200000
826.391541	188.400000
826.426392	198.400000
826.461182	193.400000
826.495972	187.900000
826.530823	183.000000
826.565613	194.000000
826.600403	189.200000
826.635254	196.500000
826.670044	185.300000
826.704834	184.900000
826.739685	187.900000
826.774475	193.800000
826.809265	192.500000
826.844055	191.300000
826.878906	197.500000
826.913635	196.100000
826.948425	196.500000
826.983215	195.600000
827.018005	198.400000
827.052856	191.300000
827.087585	196.800000
827.122375	185.700000
827.157227	194.300000
827.191956	205.800000
827.226746	188.700000
827.261536	197.300000
827.296265	186.300000
827.331116	189.900000
827.365906	196.900000
827.400635	189.800000
827.435425	186.300000
827.470215	200.000000
827.504944	192.000000
827.539734	198.000000
827.574463	192.400000
827.609253	200.500000
827.644043	194.000000
827.678772	199.200000
827.713562	190.300000
827.748352	193.000000
827.783081	189.300000
827.817871	194.700000
827.852600	189.000000
827.887329	194.800000
827.922119	181.500000
827.956848	196.700000
827.991638	206.700000
828.026367	195.200000
828.061157	193.700000
828.095886	194.200000
828.130615	207.600000
828.165344	183.500000
828.200073	192.900000
828.234863	190.600000
828.269592	193.100000
828.304321	199.800000
828.339111	193.300000
828.373779	189.100000
828.408569	198.600000
828.443298	197.500000
828.477966	190.700000
828.512756	192.700000
828.547424	188.400000
828.582214	191.500000
828.616943	191.200000
828.651672	192.000000
828.686340	197.700000
828.721130	190.100000
828.755798	191.900000
828.790527	193.100000
828.825256	194.200000
828.859924	193.800000
828.894714	200.100000
828.929443	201.300000
828.964111	189.500000
828.998840	195.700000
829.033569	190.400000
829.068237	189.600000
829.102966	191.400000
829.137634	194.900000
829.172363	195.100000
829.207092	195.000000
829.241821	189.200000
829.276489	184.000000
829.311157	192.600000
829.345825	190.600000
829.380554	197.900000
829.415283	189.000000
829.449951	186.500000
829.484619	201.800000
829.519348	200.100000
829.554016	193.000000
829.588745	193.300000
829.623413	187.400000
829.658081	203.900000
829.692749	186.600000
829.727417	197.900000
829.762146	194.600000
829.796814	189.900000
829.831482	190.500000
829.866150	194.700000
829.900879	189.600000
829.935486	195.400000
829.970154	190.700000
830.004883	203.200000
830.039490	192.800000
830.074219	189.800000
830.108887	192.200000
830.143494	192.100000
830.178223	187.600000
830.212891	190.600000
830.247498	193.300000
830.282166	200.500000
830.316772	198.600000
830.351501	189.500000
830.386169	191.900000
830.420776	191.200000
830.455444	191.800000
830.490112	191.400000
830.524719	184.200000
830.559387	196.000000
830.594055	195.300000
830.628662	193.100000
830.663330	193.200000
830.697998	201.200000
830.732605	191.400000
830.767273	194.900000
830.801941	193.700000
830.836487	202.300000
830.871155	195.000000
830.905762	192.800000
830.940430	185.400000
830.975098	189.500000
831.009644	194.400000
831.044312	201.500000
831.078979	195.400000
831.113525	184.700000
831.148193	193.000000
831.182861	191.000000
831.217407	197.300000
831.252075	210.400000
831.286621	190.300000
831.321289	188.100000
831.355896	192.200000
831.390564	201.100000
831.425110	193.100000
831.459778	200.900000
831.494324	207.200000
831.528931	196.300000
831.563599	197.300000
831.598145	187.100000
831.632751	193.500000
831.667419	191.800000
831.701965	196.400000
831.736572	196.000000
831.771179	185.700000
831.805786	190.400000
831.840393	199.200000
831.874939	184.600000
831.909546	197.200000
831.944153	185.200000
831.978760	191.400000
832.013306	187.600000
832.047913	201.800000
832.082458	201.200000
832.117065	189.800000
832.151672	202.000000
832.186218	194.200000
832.220825	196.100000
832.255432	185.800000
832.289978	189.900000
832.324585	195.100000
832.359192	195.700000
832.393677	191.400000
832.428284	193.600000
832.462830	192.700000
832.497437	191.000000
832.531982	197.300000
832.566589	192.000000
832.601135	194.300000
832.635681	184.300000
832.670227	193.300000
832.704773	200.100000
832.739380	194.900000
832.773926	194.500000
832.808472	188.500000
832.843079	193.300000
832.877563	196.300000
832.912170	190.000000
832.946716	184.900000
832.981201	199.000000
833.015808	194.900000
833.050293	191.700000
833.084839	187.900000
833.119446	192.100000
833.153992	197.800000
833.188477	192.600000
833.223022	187.600000
833.257568	194.300000
833.292114	200.300000
833.326660	204.100000
833.361145	189.800000
833.395691	183.800000
833.430237	192.100000
833.464783	196.000000
833.499329	188.900000
833.533875	188.700000
833.568359	196.400000
833.602905	199.000000
833.637390	198.400000
833.671875	191.100000
833.706421	192.100000
833.740906	191.400000
833.775452	183.000000
833.809998	191.300000
833.844482	199.500000
833.879028	193.000000
833.913513	191.500000
833.947998	195.400000
833.982544	188.800000
834.017090	190.200000
834.051514	181.400000
834.086060	195.100000
834.120544	191.700000
834.155029	193.800000
834.189575	190.100000
834.223999	195.600000
834.258545	194.400000
834.293030	194.200000
834.327515	194.100000
834.362000	189.600000
834.396545	196.800000
834.430969	191.200000
834.465454	197.300000
834.500000	184.400000
834.534424	195.000000
834.568970	183.700000
834.603455	184.700000
834.637878	188.600000
834.672363	193.300000
834.706909	193.200000
834.741333	194.100000
834.775818	184.700000
834.810242	189.200000
834.844727	193.200000
834.879211	191.700000
834.913635	193.600000
834.948181	194.500000
834.982666	193.800000
835.017090	191.200000
835.051575	196.200000
835.086060	189.600000
835.120483	196.400000
835.154907	197.500000
835.189331	192.100000
835.223816	195.100000
835.258301	187.300000
835.292786	187.000000
835.327209	198.700000
835.361694	189.700000
835.396057	190.000000
835.430542	195.600000
835.465027	193.600000
835.499390	188.400000
835.533875	212.100000
835.568359	191.700000
835.602722	186.200000
835.637207	195.000000
835.671692	186.600000
835.706055	209.900000
835.740540	194.900000
835.774902	196.400000
835.809387	194.200000
835.843811	187.400000
835.878235	200.000000
835.912659	186.500000
835.947083	190.200000
835.981506	192.100000
836.015930	185.000000
836.050354	196.600000
836.084778	201.700000
836.119202	197.500000
836.153625	205.800000
836.187988	189.000000
836.222473	189.600000
836.256897	194.200000
836.291260	191.400000
836.325684	195.000000
836.360046	190.800000
836.394470	190.300000
836.428894	199.000000
836.463318	189.600000
836.497681	198.500000
836.532104	200.500000
836.566467	194.300000
836.600891	191.800000
836.635315	199.300000
836.669678	196.800000
836.704102	196.800000
836.738525	192.700000
836.772888	185.200000
836.807251	190.200000
836.841675	194.900000
836.876038	187.700000
836.910461	188.600000
836.944763	196.800000
836.979187	189.300000
837.013611	198.700000
837.047974	186.900000
837.082336	205.300000
837.116699	196.100000
837.151062	193.000000
837.185486	186.700000
837.219849	191.300000
837.254211	196.600000
837.288574	191.600000
837.322937	188.000000
837.357300	180.200000
837.391663	206.200000
837.426086	198.300000
837.460388	194.500000
837.494751	197.900000
837.529114	191.400000
837.563477	197.800000
837.597839	193.900000
837.632141	192.400000
837.666565	189.800000
837.700928	195.600000
837.735229	197.800000
837.769592	196.200000
837.803955	198.900000
837.838257	191.100000
837.872620	189.100000
837.906982	200.400000
837.941284	194.200000
837.975647	193.200000
838.010010	199.200000
838.044312	191.000000
838.078674	190.300000
838.112976	193.100000
838.147339	197.900000
838.181702	193.800000
838.216003	204.000000
838.250366	195.200000
838.284668	194.300000
838.318970	186.200000
838.353333	192.800000
838.387634	190.900000
838.421936	194.200000
838.456299	193.900000
838.490601	200.200000
838.524902	195.400000
838.559265	199.000000
838.593567	197.000000
838.627869	187.600000
838.662170	195.200000
838.696472	187.900000
838.730774	190.600000
838.765137	198.500000
838.799377	178.900000
838.833740	193.200000
838.868042	199.800000
838.902283	184.500000
838.936646	200.200000
838.970947	195.000000
839.005188	198.400000
839.039551	185.800000
839.073792	200.900000
839.108093	190.400000
839.142395	202.200000
839.176697	187.600000
839.210937	193.900000
839.245300	205.100000
839.279541	187.000000
839.313843	190.900000
839.348145	197.000000
839.382385	198.200000
839.416687	197.900000
839.450989	197.400000
839.485229	191.900000
839.519531	188.300000
839.553833	199.400000
839.588013	193.200000
839.622314	193.100000
839.656555	196.300000
839.690857	192.500000
839.725159	187.700000
839.759460	192.100000
839.793640	190.500000
839.827942	192.800000
839.862183	190.800000
839.896423	195.200000
839.930725	203.000000
839.964966	200.000000
839.999207	200.900000
840.033508	200.800000
840.067688	190.900000
840.101990	201.800000
840.136230	192.600000
840.170471	201.700000
840.204712	190.000000
840.238953	188.700000
840.273193	194.600000
840.307434	196.200000
840.341736	189.200000
840.375916	187.400000
840.410217	191.800000
840.444397	196.000000
840.478638	195.100000
840.512878	200.400000
840.547119	193.400000
840.581360	195.500000
840.615601	202.500000
840.649780	201.000000
840.684021	193.700000
840.718262	201.700000
840.752441	198.800000
840.786682	196.600000
840.820862	195.100000
840.855103	200.400000
840.889343	193.800000
840.923584	198.200000
840.957764	194.500000
840.992004	195.800000
841.026184	208.400000
841.060425	192.500000
841.094666	190.600000
841.128845	197.800000
841.163025	194.300000
841.197266	196.100000
841.231445	195.300000
841.265686	193.700000
841.299866	189.900000
841.334045	202.200000
841.368286	191.700000
841.402405	202.900000
841.436646	198.700000
841.470825	191.300000
841.505005	191.800000
841.539185	189.600000
841.573425	189.500000
841.607544	193.900000
841.641785	194.100000
841.675964	187.800000
841.710144	194.000000
841.744324	191.400000
841.778503	192.600000
841.812683	189.800000
841.846863	202.000000
841.881042	200.300000
841.915222	190.600000
841.949402	210.000000
841.983521	185.800000
842.017700	193.400000
842.051880	194.900000
842.086060	197.100000
842.120239	195.300000
842.154419	191.700000
842.188538	194.800000
842.222717	191.300000
842.256897	205.200000
842.291016	191.300000
842.325195	196.900000
842.359375	205.100000
842.393494	202.500000
842.427673	194.400000
842.461853	197.400000
842.495911	202.900000
842.530090	196.200000
842.564209	194.100000
842.598389	196.200000
842.632568	195.300000
842.666626	199.700000
842.700806	190.000000
842.734985	191.900000
842.769043	195.800000
842.803223	191.500000
842.837402	193.300000
842.871460	191.000000
842.905640	202.900000
842.939697	190.900000
842.973877	197.500000
843.007996	200.000000
843.042175	202.700000
843.076233	192.500000
843.110413	195.800000
843.144470	203.300000
843.178589	197.900000
843.212769	190.900000
843.246826	198.700000
843.280945	193.600000
843.315125	192.900000
843.349182	190.100000
843.383301	202.900000
843.417419	205.100000
843.451538	195.000000
843.485657	193.300000
843.519714	193.200000
843.553833	196.400000
843.587952	191.200000
843.622070	190.900000
843.656128	198.600000
843.690247	192.300000
843.724304	192.600000
843.758423	196.400000
843.792542	192.700000
843.826599	193.800000
843.860718	192.300000
843.894836	187.200000
843.928894	194.900000
843.963013	196.300000
843.997070	190.600000
844.031128	187.900000
844.065247	199.200000
844.099304	199.700000
844.133362	197.200000
844.167480	197.100000
844.201599	201.900000
844.235596	197.100000
844.269714	196.300000
844.303711	195.300000
844.337830	187.200000
844.371948	197.600000
844.405945	192.000000
844.440063	189.500000
844.474121	209.200000
844.508118	193.600000
844.542236	194.000000
844.576294	194.500000
844.610352	189.400000
844.644409	193.300000
844.678406	185.700000
844.712524	198.600000
844.746582	200.800000
844.780640	193.300000
844.814636	194.400000
844.848755	205.600000
844.882751	194.400000
844.916809	199.600000
844.950867	197.200000
844.984863	203.500000
845.018921	195.100000
845.052979	191.600000
845.086975	196.000000
845.121033	188.400000
845.155090	190.100000
845.189087	202.900000
845.223145	191.600000
845.257141	194.500000
845.291199	197.200000
845.325256	203.300000
845.359253	194.900000
845.393250	205.400000
845.427307	193.100000
845.461304	197.200000
845.495361	196.400000
845.529358	205.500000
845.563354	191.500000
845.597412	190.800000
845.631409	202.400000
845.665405	201.300000
845.699463	200.400000
845.733459	193.100000
845.767456	201.200000
845.801453	194.300000
845.835449	199.800000
845.869446	198.400000
845.903503	198.800000
845.937439	191.300000
845.971497	201.800000
846.005493	188.500000
846.039429	197.700000
846.073486	205.100000
846.107483	192.400000
846.141418	194.800000
846.175476	194.500000
846.209473	201.000000
846.243408	190.000000
846.277405	195.900000
846.311401	190.400000
846.345337	194.100000
846.379395	201.000000
846.413330	190.500000
846.447327	202.200000
846.481323	189.900000
846.515259	191.800000
846.549255	195.800000
846.583252	196.900000
846.617187	188.700000
846.651184	197.600000
846.685120	193.700000
846.719055	203.400000
846.753052	199.400000
846.786987	198.900000
846.820984	188.000000
846.854980	201.200000
846.888916	190.400000
846.922852	197.200000
846.956848	204.200000
846.990723	189.700000
847.024719	195.600000
847.058716	192.800000
847.092590	202.500000
847.126587	195.600000
847.160522	192.900000
847.194458	198.400000
847.228455	191.300000
847.262390	188.600000
847.296265	192.900000
847.330261	201.300000
847.364136	193.600000
847.398132	190.400000
847.432068	194.800000
847.466003	194.000000
847.499939	192.800000
847.533875	196.900000
847.567749	191.600000
847.601746	193.300000
847.635681	198.300000
847.669556	185.900000
847.703491	199.800000
847.737427	211.400000
847.771301	189.700000
847.805237	196.700000
847.839233	195.100000
847.873108	194.600000
847.907043	193.600000
847.940918	201.700000
847.974854	197.000000
848.008789	199.200000
848.042664	194.900000
848.076538	198.200000
848.110474	195.000000
848.144348	196.100000
848.178284	188.300000
848.212219	194.700000
848.246094	193.200000
848.279968	197.700000
848.313904	198.100000
848.347778	194.800000
848.381653	193.500000
848.415588	191.500000
848.449463	192.200000
848.483337	197.100000
848.517212	201.000000
848.551086	194.900000
848.585022	190.200000
848.618835	202.800000
848.652771	193.600000
848.686646	189.500000
848.720520	204.300000
848.754395	194.000000
848.788330	199.000000
848.822144	198.100000
848.856018	194.100000
848.889954	203.800000
848.923767	190.700000
848.957642	190.000000
848.991577	199.900000
849.025391	192.100000
849.059265	194.500000
849.093079	191.600000
849.126953	189.700000
849.160828	200.200000
849.194641	195.900000
849.228577	192.500000
849.262451	194.600000
849.296265	192.800000
849.330139	190.300000
849.364014	196.800000
849.397827	198.500000
849.431702	193.300000
849.465515	198.300000
849.499329	185.400000
849.533203	189.700000
849.567078	183.900000
849.600891	198.300000
849.634766	194.200000
849.668518	199.600000
849.702393	195.000000
849.736267	189.100000
849.770020	206.300000
849.803894	198.900000
849.837769	195.700000
849.871521	194.800000
849.905396	199.800000
849.939270	190.900000
849.973022	193.000000
850.006897	197.700000
850.040710	197.900000
850.074524	199.100000
850.108337	192.600000
850.142151	199.500000
850.175964	202.100000
850.209778	195.200000
850.243530	182.500000
850.277405	200.000000
850.311218	195.800000
850.344971	191.200000
850.378845	204.100000
850.412659	192.500000
850.446411	194.700000
850.480225	193.500000
850.514038	201.100000
850.547791	197.900000
850.581665	194.900000
850.615417	191.700000
850.649231	197.400000
850.683044	193.300000
850.716858	194.200000
850.750610	194.700000
850.784424	199.700000
850.818176	191.200000
850.851929	191.800000
850.885742	191.000000
850.919495	193.800000
850.953308	200.300000
850.987122	202.900000
851.020874	189.500000
851.054626	186.800000
851.088440	198.100000
851.122192	199.400000
851.156006	194.600000
851.189697	194.200000
851.223511	188.100000
851.257263	199.000000
851.291077	198.400000
851.324829	194.800000
851.358582	192.600000
851.392334	193.000000
851.426086	194.100000
851.459900	203.000000
851.493591	194.500000
851.527344	194.800000
851.561157	194.600000
851.594849	197.500000
851.628662	197.600000
851.662415	202.500000
851.696106	197.300000
851.729858	199.400000
851.763611	189.800000
851.797363	196.900000
851.831116	190.600000
851.864868	198.500000
851.898560	197.900000
851.932312	192.600000
851.966064	198.200000
851.999817	194.600000
852.033569	194.300000
852.067261	198.500000
852.101013	191.700000
852.134766	194.400000
852.168457	184.100000
852.202209	197.900000
852.235901	191.100000
852.269592	198.100000
852.303345	203.700000
852.337036	197.600000
852.370789	195.000000
852.404541	198.900000
852.438171	191.600000
852.471924	193.900000
852.505676	187.800000
852.539307	198.500000
852.573059	191.600000
852.606812	191.700000
852.640442	194.000000
852.674194	199.200000
852.707886	205.200000
852.741577	202.700000
852.775269	189.900000
852.809021	196.000000
852.842651	198.300000
852.876404	199.600000
852.910034	196.800000
852.943787	201.900000
852.977478	197.500000
853.011108	191.300000
853.044861	192.400000
853.078552	203.600000
853.112183	197.400000
853.145874	197.700000
853.179626	185.300000
853.213257	196.000000
853.246948	192.700000
853.280640	202.800000
853.314270	194.000000
853.347961	203.200000
853.381653	197.300000
853.415283	199.500000
853.448975	191.400000
853.482605	196.300000
853.516296	193.700000
853.549988	190.300000
853.583618	196.000000
853.617310	197.100000
853.651001	198.100000
853.684631	190.300000
853.718323	190.600000
853.751953	203.500000
853.785583	186.200000
853.819275	200.100000
853.852966	195.900000
853.886536	186.400000
853.920227	189.500000
853.953918	201.100000
853.987488	192.100000
854.021179	199.400000
854.054749	202.200000
854.088440	198.400000
854.122131	191.000000
854.155701	197.800000
854.189331	192.000000
854.223022	199.100000
854.256592	197.000000
854.290283	192.100000
854.323914	199.300000
854.357483	197.300000
854.391174	198.500000
854.424744	204.900000
854.458374	198.100000
854.492065	205.600000
854.525696	193.600000
854.559265	202.200000
854.592896	205.900000
854.626465	196.500000
854.660095	196.800000
854.693787	196.900000
854.727356	193.700000
854.760986	199.200000
854.794617	196.600000
854.828186	194.000000
854.861816	199.500000
854.895447	195.500000
854.929016	197.300000
854.962585	197.800000
854.996155	203.700000
855.029785	198.300000
855.063416	198.700000
855.097046	199.200000
855.130615	190.400000
855.164185	200.900000
855.197754	196.500000
855.231384	199.600000
855.264954	194.900000
855.298523	199.100000
855.332153	196.400000
855.365723	203.500000
855.399292	192.100000
855.432922	194.400000
855.466492	197.000000
855.500061	189.800000
855.533630	191.700000
855.567200	198.900000
855.600769	200.100000
855.634338	199.900000
855.667969	197.400000
855.701477	191.500000
855.735046	190.900000
855.768616	187.500000
855.802185	195.700000
855.835754	209.700000
855.869324	188.300000
855.902893	194.200000
855.936401	201.600000
855.969971	196.400000
856.003540	188.300000
856.037109	199.300000
856.070618	195.400000
856.104187	189.200000
856.137695	192.200000
856.171265	186.300000
856.204834	196.500000
856.238403	200.100000
856.271912	193.200000
856.305481	197.100000
856.338989	190.000000
856.372559	198.300000
856.406128	197.700000
856.439636	200.400000
856.473145	192.300000
856.506653	202.200000
856.540222	194.500000
856.573792	203.100000
856.607300	199.400000
856.640808	190.300000
856.674377	196.300000
856.707825	222.500000
856.741394	200.200000
856.774902	192.200000
856.808472	185.800000
856.841980	198.000000
856.875488	203.200000
856.908936	189.100000
856.942505	192.600000
856.976013	194.600000
857.009521	189.900000
857.043030	196.600000
857.076477	192.900000
857.110046	201.800000
857.143555	195.500000
857.177063	200.900000
857.210571	193.000000
857.244080	188.300000
857.277527	198.800000
857.311035	194.200000
857.344543	199.500000
857.378052	195.400000
857.411499	201.800000
857.445068	204.600000
857.478516	194.600000
857.512024	189.700000
857.545532	194.200000
857.578979	196.500000
857.612427	194.700000
857.645874	193.000000
857.679382	196.700000
857.712891	200.200000
857.746399	195.500000
857.779846	201.300000
857.813354	200.900000
857.846741	195.200000
857.880249	191.000000
857.913757	197.100000
857.947266	198.600000
857.980652	198.600000
858.014160	192.800000
858.047546	194.500000
858.081055	194.000000
858.114563	204.100000
858.147949	189.500000
858.181458	199.700000
858.214844	195.400000
858.248352	187.800000
858.281799	202.300000
858.315308	209.300000
858.348694	199.800000
858.382141	203.800000
858.415588	198.900000
858.449036	200.900000
858.482483	198.200000
858.515930	191.200000
858.549377	195.700000
858.582825	202.900000
858.616211	198.700000
858.649658	196.800000
858.683105	189.700000
858.716553	190.900000
858.750000	188.600000
858.783386	193.100000
858.816833	187.000000
858.850281	196.300000
858.883728	198.200000
858.917114	194.000000
858.950562	204.500000
858.983948	204.700000
859.017395	199.200000
859.050781	195.400000
859.084167	192.200000
859.117615	188.600000
859.151062	198.300000
859.184448	191.900000
859.217834	194.200000
859.251282	193.400000
859.284668	189.900000
859.318054	185.800000
859.351440	192.500000
859.384888	203.700000
859.418274	185.500000
859.451721	185.700000
859.485046	197.300000
859.518494	197.400000
859.551819	191.100000
859.585266	198.200000
859.618652	197.600000
859.652039	189.600000
859.685425	189.600000
859.718811	188.500000
859.752197	183.800000
859.785583	203.000000
859.819031	201.600000
859.852356	196.900000
859.885742	191.400000
859.919067	195.200000
859.952454	192.800000
859.985901	200.400000
860.019287	193.300000
860.052612	0.000000
860.085999	0.000000
860.119324	0.000000
860.152710	0.000000
860.186096	0.000000
860.219421	0.000000
860.252808	0.000000
860.286133	0.000000
860.319519	0.000000
860.352905	0.000000
860.386292	0.000000
860.419617	0.000000
860.452942	0.000000
860.486267	0.000000
860.519653	0.000000
860.553040	0.000000
860.586365	0.000000
860.619690	0.000000
860.653076	0.000000
860.686340	0.000000
860.719727	0.000000
860.753113	0.000000
860.786377	0.000000
860.819763	0.000000
860.853027	0.000000
860.886414	0.000000
860.919739	0.000000
860.953125	0.000000
860.986389	0.000000
861.019714	0.000000
861.053040	0.000000
861.086365	0.000000
861.119690	0.000000
861.153076	0.000000
861.186340	0.000000
861.219666	0.000000
861.252930	0.000000
861.286316	0.000000
861.319641	0.000000
861.352905	0.000000
861.386230	0.000000
861.419495	0.000000
861.452820	0.000000
861.486145	0.000000
861.519470	0.000000
861.552734	0.000000
861.586060	0.000000
861.619324	0.000000
861.652649	0.000000
861.685974	0.000000
861.719238	0.000000
861.752563	0.000000
861.785828	0.000000
861.819092	0.000000
861.852417	0.000000
861.885742	0.000000
861.918945	0.000000
861.952271	0.000000
861.985535	0.000000
862.018799	0.000000
862.052124	0.000000
862.085449	0.000000
862.118652	0.000000
862.151978	0.000000
862.185181	0.000000
862.218506	0.000000
862.251770	0.000000
862.285034	0.000000
862.318298	0.000000
862.351562	0.000000
862.384827	0.000000
862.418091	0.000000
862.451355	0.000000
862.484619	0.000000
862.517883	0.000000
862.551086	0.000000
862.584351	0.000000
862.617676	0.000000
862.650940	0.000000
862.684143	0.000000
862.717407	0.000000
862.750610	0.000000
862.783875	0.000000
862.817139	0.000000
862.850342	0.000000
862.883606	0.000000
862.916870	0.000000
862.950073	0.000000
862.983337	0.000000
863.016602	0.000000
863.049805	0.000000
863.083069	0.000000
863.116211	0.000000
863.149475	0.000000
863.182739	0.000000
863.216003	0.000000
863.249146	0.000000
863.282410	0.000000
863.315613	0.000000
863.348816	0.000000
863.382080	0.000000
863.415222	0.000000
863.448486	0.000000
863.481689	0.000000
863.514893	0.000000
863.548157	0.000000
863.581360	0.000000
863.614502	0.000000
863.647766	0.000000
863.680908	0.000000
863.714172	0.000000
863.747375	0.000000
863.780579	0.000000
863.813721	0.000000
863.846985	0.000000
863.880127	0.000000
863.913330	0.000000
863.946533	0.000000
863.979675	0.000000
864.012939	0.000000
