Model Number: SPM-001-M   
Serial Number: 10090201
Firmware Version: 004.17.6
Exposure Time: 500000.000000us
Data Taken on: 10-03-2021 11:51:27.969
Wavelength	Amplitude
733.770752	0.000000
733.808716	0.000000
733.846619	0.000000
733.884583	0.000000
733.922546	0.000000
733.960449	0.000000
733.998413	0.000000
734.036377	0.000000
734.074219	0.000000
734.112183	0.000000
734.150085	0.000000
734.188049	0.000000
734.226013	0.000000
734.263916	0.000000
734.301819	0.000000
734.339783	0.000000
734.377686	0.000000
734.415588	0.000000
734.453552	0.000000
734.491455	0.000000
734.529419	0.000000
734.567322	0.000000
734.605225	0.000000
734.643127	0.000000
734.681091	0.000000
734.718994	0.000000
734.756897	0.000000
734.794800	0.000000
734.832703	0.000000
734.870667	0.000000
734.908508	0.000000
734.946472	0.000000
734.984375	0.000000
735.022278	0.000000
735.060181	0.000000
735.098083	0.000000
735.135986	0.000000
735.173889	0.000000
735.211792	0.000000
735.249695	0.000000
735.287598	0.000000
735.325439	0.000000
735.363403	0.000000
735.401306	0.000000
735.439148	0.000000
735.477051	0.000000
735.515015	0.000000
735.552856	0.000000
735.590759	0.000000
735.628662	0.000000
735.666504	0.000000
735.704407	0.000000
735.742310	0.000000
735.780212	0.000000
735.818115	0.000000
735.856018	0.000000
735.893860	0.000000
735.931763	0.000000
735.969604	0.000000
736.007507	0.000000
736.045410	0.000000
736.083252	0.000000
736.121094	0.000000
736.158997	0.000000
736.196838	0.000000
736.234741	0.000000
736.272644	0.000000
736.310486	0.000000
736.348389	0.000000
736.386230	0.000000
736.424072	0.000000
736.461975	0.000000
736.499878	0.000000
736.537720	0.000000
736.575562	0.000000
736.613403	0.000000
736.651306	0.000000
736.689148	0.000000
736.726990	0.000000
736.764893	0.000000
736.802734	0.000000
736.840576	0.000000
736.878418	0.000000
736.916321	0.000000
736.954102	0.000000
736.992004	0.000000
737.029846	0.000000
737.067688	0.000000
737.105530	0.000000
737.143372	0.000000
737.181213	0.000000
737.219116	0.000000
737.256897	0.000000
737.294739	0.000000
737.332642	0.000000
737.370422	0.000000
737.408325	0.000000
737.446167	0.000000
737.483948	0.000000
737.521790	0.000000
737.559692	0.000000
737.597473	0.000000
737.635315	0.000000
737.673157	0.000000
737.710999	0.000000
737.748840	0.000000
737.786621	0.000000
737.824463	0.000000
737.862305	0.000000
737.900085	0.000000
737.937927	0.000000
737.975769	0.000000
738.013550	0.000000
738.051392	0.000000
738.089233	0.000000
738.127014	0.000000
738.164856	0.000000
738.202698	0.000000
738.240479	0.000000
738.278320	0.000000
738.316162	0.000000
738.353943	0.000000
738.391785	0.000000
738.429565	0.000000
738.467407	0.000000
738.505188	0.000000
738.542969	0.000000
738.580811	0.000000
738.618652	0.000000
738.656372	0.000000
738.694214	0.000000
738.732056	0.000000
738.769836	0.000000
738.807617	0.000000
738.845459	0.000000
738.883240	0.000000
738.921021	0.000000
738.958862	0.000000
738.996582	0.000000
739.034424	0.000000
739.072205	0.000000
739.109985	0.000000
739.147827	0.000000
739.185547	0.000000
739.223389	0.000000
739.261169	0.000000
739.298889	0.000000
739.336731	0.000000
739.374512	0.000000
739.412292	0.000000
739.450073	0.000000
739.487854	0.000000
739.525635	0.000000
739.563416	0.000000
739.601135	0.000000
739.638977	0.000000
739.676758	0.000000
739.714478	0.000000
739.752258	0.000000
739.790100	0.000000
739.827820	0.000000
739.865601	0.000000
739.903381	0.000000
739.941101	0.000000
739.978882	197.300000
740.016724	191.800000
740.054443	199.100000
740.092224	189.200000
740.130005	189.700000
740.167725	191.700000
740.205505	189.400000
740.243225	199.500000
740.281006	195.900000
740.318787	186.900000
740.356506	198.600000
740.394287	197.700000
740.432068	189.000000
740.469727	188.100000
740.507507	197.700000
740.545288	193.900000
740.583008	197.000000
740.620789	194.900000
740.658569	184.900000
740.696228	194.500000
740.734009	199.400000
740.771790	183.200000
740.809509	197.000000
740.847229	189.100000
740.884949	190.900000
740.922729	188.100000
740.960449	191.600000
740.998169	188.600000
741.035950	189.500000
741.073669	195.600000
741.111389	193.300000
741.149170	204.200000
741.186890	204.800000
741.224609	197.900000
741.262329	195.200000
741.300110	204.400000
741.337769	187.800000
741.375549	187.300000
741.413208	195.600000
741.450989	189.100000
741.488708	190.800000
741.526367	189.900000
741.564148	196.800000
741.601868	198.000000
741.639526	192.800000
741.677307	194.400000
741.715027	195.700000
741.752686	189.300000
741.790466	201.400000
741.828186	197.200000
741.865845	189.200000
741.903564	184.800000
741.941345	194.700000
741.979004	189.600000
742.016724	197.100000
742.054382	193.300000
742.092102	200.200000
742.129822	186.400000
742.167480	191.800000
742.205200	191.900000
742.242920	195.100000
742.280640	198.900000
742.318359	190.500000
742.356079	190.600000
742.393738	197.900000
742.431396	193.700000
742.469116	198.500000
742.506775	183.600000
742.544495	196.900000
742.582214	196.800000
742.619873	193.200000
742.657593	201.100000
742.695251	199.200000
742.732971	194.100000
742.770630	194.700000
742.808289	193.200000
742.846008	192.600000
742.883728	197.000000
742.921326	194.800000
742.959045	190.500000
742.996765	193.100000
743.034424	192.800000
743.072083	190.400000
743.109802	192.200000
743.147400	187.100000
743.185120	196.200000
743.222839	192.600000
743.260437	199.200000
743.298157	194.400000
743.335754	185.500000
743.373474	191.400000
743.411133	186.300000
743.448792	194.500000
743.486450	192.700000
743.524170	185.100000
743.561768	193.500000
743.599487	200.600000
743.637146	205.600000
743.674744	192.600000
743.712463	190.100000
743.750122	194.800000
743.787720	197.100000
743.825439	190.200000
743.863037	192.100000
743.900696	194.200000
743.938416	219.200000
743.976013	193.700000
744.013672	202.800000
744.051331	199.300000
744.088928	204.000000
744.126587	199.500000
744.164307	196.700000
744.201904	191.200000
744.239563	196.900000
744.277222	196.500000
744.314819	194.200000
744.352478	200.900000
744.390137	195.800000
744.427734	196.600000
744.465393	191.800000
744.502991	188.800000
744.540649	199.100000
744.578308	194.800000
744.615906	187.100000
744.653564	182.200000
744.691223	196.700000
744.728821	184.800000
744.766418	192.300000
744.804077	195.400000
744.841675	191.200000
744.879333	187.000000
744.916992	192.200000
744.954529	190.500000
744.992187	198.600000
745.029785	190.900000
745.067444	189.800000
745.105042	194.800000
745.142639	196.400000
745.180298	202.100000
745.217896	191.100000
745.255493	191.500000
745.293152	197.600000
745.330750	197.000000
745.368347	202.400000
745.405945	197.400000
745.443604	194.000000
745.481140	199.100000
745.518799	191.700000
745.556396	197.500000
745.593994	198.400000
745.631592	192.900000
745.669189	188.300000
745.706787	195.600000
745.744385	190.200000
745.781982	198.100000
745.819580	190.700000
745.857178	192.600000
745.894775	193.400000
745.932373	195.400000
745.969971	193.800000
746.007568	185.700000
746.045166	203.600000
746.082764	200.200000
746.120300	196.100000
746.157898	196.400000
746.195557	195.200000
746.233093	188.500000
746.270691	195.900000
746.308228	196.900000
746.345825	200.200000
746.383423	196.600000
746.420959	187.600000
746.458557	190.400000
746.496155	190.100000
746.533691	193.000000
746.571289	189.000000
746.608887	192.300000
746.646423	194.500000
746.684021	193.900000
746.721619	190.700000
746.759155	193.700000
746.796753	187.100000
746.834351	186.700000
746.871826	189.100000
746.909424	199.400000
746.946960	195.800000
746.984558	191.700000
747.022156	191.700000
747.059631	202.000000
747.097229	196.000000
747.134827	191.800000
747.172363	202.300000
747.209900	194.100000
747.247498	188.400000
747.285034	200.800000
747.322571	202.100000
747.360168	193.600000
747.397644	187.300000
747.435242	198.900000
747.472778	200.800000
747.510315	189.800000
747.547913	192.200000
747.585388	201.600000
747.622925	192.700000
747.660522	185.500000
747.697998	189.800000
747.735596	192.700000
747.773132	190.900000
747.810669	193.200000
747.848206	198.500000
747.885742	187.300000
747.923279	189.200000
747.960815	196.000000
747.998352	194.700000
748.035889	198.700000
748.073425	198.400000
748.110901	189.600000
748.148437	190.200000
748.185974	194.700000
748.223511	205.400000
748.261047	194.600000
748.298584	195.300000
748.336060	194.600000
748.373596	197.100000
748.411133	212.500000
748.448608	189.900000
748.486145	198.800000
748.523682	201.700000
748.561218	198.800000
748.598755	194.700000
748.636292	197.400000
748.673706	192.900000
748.711243	200.500000
748.748718	196.500000
748.786255	193.000000
748.823792	193.600000
748.861267	189.300000
748.898804	195.500000
748.936340	195.700000
748.973816	192.800000
749.011292	198.700000
749.048828	197.400000
749.086304	198.900000
749.123840	206.400000
749.161316	190.200000
749.198792	204.300000
749.236328	200.200000
749.273743	193.300000
749.311279	192.100000
749.348816	196.900000
749.386230	195.100000
749.423767	181.800000
749.461304	196.600000
749.498718	195.600000
749.536255	200.500000
749.573730	207.000000
749.611206	200.700000
749.648682	193.400000
749.686218	193.300000
749.723633	197.400000
749.761169	191.900000
749.798645	189.400000
749.836060	191.900000
749.873596	190.400000
749.911011	194.800000
749.948547	200.500000
749.986023	193.500000
750.023437	192.500000
750.060913	186.900000
750.098450	187.100000
750.135864	193.900000
750.173340	194.900000
750.210815	198.200000
750.248291	187.600000
750.285767	194.300000
750.323242	199.800000
750.360657	195.400000
750.398132	187.300000
750.435608	197.200000
750.473022	188.900000
750.510498	188.900000
750.547974	189.800000
750.585449	190.800000
750.622925	183.700000
750.660339	202.900000
750.697815	194.100000
750.735291	194.400000
750.772644	195.600000
750.810120	194.600000
750.847595	196.800000
750.885010	189.800000
750.922485	204.200000
750.959961	192.100000
750.997375	202.300000
751.034851	199.200000
751.072266	200.800000
751.109680	187.200000
751.147156	201.000000
751.184570	197.700000
751.221985	197.300000
751.259460	185.400000
751.296875	194.300000
751.334290	195.200000
751.371765	200.000000
751.409180	196.700000
751.446594	200.300000
751.484070	197.100000
751.521423	195.700000
751.558899	195.500000
751.596375	203.000000
751.633728	202.000000
751.671204	208.000000
751.708618	188.300000
751.746033	194.600000
751.783447	187.400000
751.820801	190.000000
751.858276	195.800000
751.895691	192.800000
751.933105	191.200000
751.970520	187.500000
752.007935	192.300000
752.045349	198.100000
752.082764	193.900000
752.120178	192.600000
752.157532	189.100000
752.195007	189.700000
752.232422	196.000000
752.269775	199.300000
752.307190	196.200000
752.344543	188.800000
752.382019	192.700000
752.419434	193.200000
752.456787	196.700000
752.494202	197.700000
752.531616	195.900000
752.568970	199.200000
752.606384	195.100000
752.643799	196.700000
752.681152	204.600000
752.718567	198.500000
752.755981	188.100000
752.793335	197.400000
752.830750	186.800000
752.868164	201.300000
752.905518	189.700000
752.942932	198.400000
752.980225	190.100000
753.017639	198.600000
753.055054	193.100000
753.092407	197.700000
753.129822	202.100000
753.167175	204.400000
753.204529	194.000000
753.241943	192.000000
753.279358	189.000000
753.316650	198.700000
753.354065	197.600000
753.391479	198.200000
753.428772	204.000000
753.466187	199.100000
753.503479	188.400000
753.540894	193.600000
753.578308	188.900000
753.615601	188.100000
753.653015	195.400000
753.690369	192.400000
753.727722	189.500000
753.765076	187.800000
753.802490	188.600000
753.839783	185.700000
753.877136	190.700000
753.914551	210.800000
753.951843	189.000000
753.989258	197.500000
754.026611	195.400000
754.063904	195.400000
754.101257	190.200000
754.138611	187.400000
754.175964	193.600000
754.213318	206.200000
754.250610	186.200000
754.288025	190.500000
754.325378	188.800000
754.362671	200.100000
754.400024	192.600000
754.437378	204.200000
754.474670	204.600000
754.512085	191.900000
754.549438	195.700000
754.586731	192.100000
754.624084	193.500000
754.661438	190.200000
754.698730	201.800000
754.736084	194.100000
754.773376	193.800000
754.810730	198.300000
754.848083	192.000000
754.885315	199.300000
754.922668	185.900000
754.960022	189.800000
754.997314	200.400000
755.034668	196.200000
755.072021	195.700000
755.109253	193.000000
755.146606	201.900000
755.183960	193.800000
755.221252	205.300000
755.258545	201.200000
755.295898	201.600000
755.333191	203.700000
755.370544	198.200000
755.407776	195.700000
755.445129	196.700000
755.482422	200.500000
755.519714	193.800000
755.557068	188.000000
755.594360	188.400000
755.631653	201.000000
755.668945	206.000000
755.706299	198.000000
755.743530	208.100000
755.780884	206.700000
755.818176	204.700000
755.855408	204.200000
755.892761	198.400000
755.930054	199.300000
755.967346	200.600000
756.004639	203.600000
756.041870	199.200000
756.079224	203.800000
756.116516	195.400000
756.153748	204.400000
756.191040	208.300000
756.228394	202.400000
756.265625	197.000000
756.302917	202.000000
756.340210	196.800000
756.377441	205.300000
756.414795	208.000000
756.452087	200.700000
756.489319	194.500000
756.526611	203.200000
756.563843	202.600000
756.601135	211.300000
756.638428	210.100000
756.675659	200.400000
756.712952	204.800000
756.750244	204.300000
756.787476	203.500000
756.824768	209.100000
756.862061	200.500000
756.899292	248.800000
756.936584	207.100000
756.973816	214.400000
757.011047	215.700000
757.048340	203.500000
757.085632	203.300000
757.122864	218.900000
757.160156	200.900000
757.197327	206.500000
757.234619	207.500000
757.271912	201.800000
757.309082	209.200000
757.346375	202.200000
757.383667	212.300000
757.420837	205.200000
757.458130	205.200000
757.495422	203.700000
757.532593	206.500000
757.569885	197.700000
757.607117	202.000000
757.644348	206.900000
757.681580	219.600000
757.718811	195.600000
757.756042	205.700000
757.793335	204.600000
757.830505	215.200000
757.867798	203.200000
757.905029	203.700000
757.942200	209.600000
757.979492	204.100000
758.016724	206.700000
758.053894	205.700000
758.091187	226.200000
758.128418	208.600000
758.165588	206.800000
758.202820	221.100000
758.240112	210.400000
758.277283	219.800000
758.314514	209.800000
758.351685	206.500000
758.388916	220.200000
758.426147	217.600000
758.463379	220.900000
758.500610	212.100000
758.537842	210.100000
758.575012	217.500000
758.612244	206.200000
758.649475	224.600000
758.686646	203.900000
758.723877	218.000000
758.761108	219.400000
758.798279	209.800000
758.835510	214.100000
758.872742	217.800000
758.909851	214.000000
758.947083	215.700000
758.984253	214.700000
759.021484	217.900000
759.058716	218.000000
759.095886	217.400000
759.133057	212.700000
759.170288	216.300000
759.207458	211.000000
759.244690	226.100000
759.281860	224.800000
759.319031	215.000000
759.356262	213.500000
759.393433	214.200000
759.430603	214.200000
759.467773	214.000000
759.505005	223.600000
759.542175	221.700000
759.579346	215.100000
759.616516	217.500000
759.653687	219.500000
759.690918	213.600000
759.728027	218.200000
759.765259	217.600000
759.802429	220.500000
759.839539	221.200000
759.876770	223.400000
759.913940	228.400000
759.951111	220.400000
759.988281	218.600000
760.025452	215.600000
760.062561	214.300000
760.099792	228.100000
760.136963	223.100000
760.174072	218.000000
760.211243	213.400000
760.248413	214.200000
760.285583	215.000000
760.322754	232.300000
760.359863	226.800000
760.397034	227.600000
760.434204	220.800000
760.471375	220.600000
760.508545	219.200000
760.545715	219.000000
760.582825	216.400000
760.619995	226.000000
760.657166	214.300000
760.694275	226.500000
760.731445	224.300000
760.768555	222.600000
760.805664	224.900000
760.842834	225.100000
760.879944	228.200000
760.917114	224.700000
760.954285	222.500000
760.991394	215.900000
761.028564	230.500000
761.065674	228.700000
761.102783	222.200000
761.139954	230.500000
761.177124	229.800000
761.214172	232.800000
761.251343	226.600000
761.288452	228.100000
761.325562	231.700000
761.362732	226.000000
761.399841	228.800000
761.436951	231.200000
761.474121	225.900000
761.511169	231.200000
761.548340	236.200000
761.585449	233.900000
761.622559	235.200000
761.659668	234.500000
761.696838	239.300000
761.733887	237.200000
761.771057	232.700000
761.808167	236.100000
761.845276	239.300000
761.882385	249.700000
761.919434	238.600000
761.956604	257.100000
761.993713	233.200000
762.030762	243.200000
762.067871	237.000000
762.105042	236.700000
762.142090	244.900000
762.179199	241.500000
762.216309	244.200000
762.253418	255.600000
762.290527	249.700000
762.327637	247.400000
762.364685	236.000000
762.401794	245.400000
762.438904	245.600000
762.475952	239.600000
762.513062	237.700000
762.550110	238.700000
762.587219	255.100000
762.624329	253.500000
762.661377	247.500000
762.698486	246.500000
762.735596	246.000000
762.772644	240.200000
762.809753	238.900000
762.846863	246.900000
762.883911	252.300000
762.921021	252.300000
762.958069	249.300000
762.995117	257.000000
763.032227	258.300000
763.069336	250.500000
763.106323	246.200000
763.143433	245.100000
763.180481	253.800000
763.217590	252.700000
763.254639	251.800000
763.291687	253.200000
763.328735	262.100000
763.365845	254.600000
763.402893	253.200000
763.439941	255.600000
763.477051	259.700000
763.514038	258.400000
763.551147	253.100000
763.588196	257.300000
763.625244	254.600000
763.662292	264.600000
763.699402	269.200000
763.736389	263.900000
763.773499	271.700000
763.810486	265.600000
763.847534	262.700000
763.884644	265.900000
763.921631	260.200000
763.958679	275.400000
763.995728	263.400000
764.032776	273.200000
764.069824	259.400000
764.106873	268.200000
764.143860	275.300000
764.180969	266.600000
764.218018	276.600000
764.255005	266.100000
764.292053	269.200000
764.329102	280.900000
764.366089	278.100000
764.403137	277.500000
764.440125	266.700000
764.477173	271.100000
764.514221	274.400000
764.551208	271.900000
764.588257	267.000000
764.625305	279.300000
764.662292	283.500000
764.699341	287.700000
764.736389	280.200000
764.773376	296.500000
764.810425	282.100000
764.847473	291.400000
764.884399	284.100000
764.921448	294.100000
764.958435	292.800000
764.995483	281.000000
765.032532	297.100000
765.069458	283.800000
765.106506	283.900000
765.143555	284.300000
765.180481	287.700000
765.217529	297.600000
765.254578	279.600000
765.291504	290.800000
765.328552	287.200000
765.365540	284.100000
765.402527	299.800000
765.439575	286.700000
765.476501	280.400000
765.513550	282.500000
765.550537	288.300000
765.587463	296.400000
765.624512	288.000000
765.661499	280.700000
765.698486	298.300000
765.735474	286.200000
765.772461	289.100000
765.809448	298.600000
765.846436	296.300000
765.883423	299.500000
765.920410	295.300000
765.957397	289.900000
765.994385	293.900000
766.031311	303.700000
766.068359	298.900000
766.105286	297.500000
766.142273	305.600000
766.179260	301.000000
766.216187	294.200000
766.253174	293.600000
766.290161	303.300000
766.327148	305.000000
766.364136	304.500000
766.401123	320.500000
766.438049	299.200000
766.475037	313.200000
766.512024	310.000000
766.548950	325.400000
766.585937	319.600000
766.622864	316.100000
766.659790	313.300000
766.696777	304.800000
766.733704	321.800000
766.770691	312.400000
766.807678	327.300000
766.844604	320.800000
766.881531	323.600000
766.918518	331.200000
766.955444	331.600000
766.992432	324.100000
767.029358	328.700000
767.066284	329.900000
767.103271	329.100000
767.140198	356.400000
767.177124	344.800000
767.214050	336.300000
767.251038	337.500000
767.287964	333.300000
767.324890	332.700000
767.361816	337.900000
767.398743	345.100000
767.435730	338.400000
767.472595	341.400000
767.509583	347.800000
767.546509	337.500000
767.583374	344.600000
767.620361	336.500000
767.657288	346.000000
767.694214	344.500000
767.731140	345.300000
767.768066	345.100000
767.804993	352.600000
767.841919	340.800000
767.878845	349.200000
767.915710	359.500000
767.952698	351.300000
767.989563	356.100000
768.026489	355.900000
768.063416	351.200000
768.100281	351.200000
768.137207	367.100000
768.174133	363.300000
768.211060	365.700000
768.247986	362.200000
768.284912	361.500000
768.321777	365.200000
768.358704	362.400000
768.395630	368.500000
768.432495	359.800000
768.469421	369.400000
768.506348	374.400000
768.543152	381.400000
768.580078	376.200000
768.616943	379.800000
768.653870	383.700000
768.690796	382.900000
768.727661	377.300000
768.764587	383.500000
768.801453	376.800000
768.838318	389.100000
768.875244	387.500000
768.912109	394.200000
768.948975	385.700000
768.985901	389.000000
769.022766	388.000000
769.059631	395.300000
769.096558	391.300000
769.133362	388.600000
769.170288	391.400000
769.207214	392.300000
769.244019	400.600000
769.280945	397.000000
769.317810	403.800000
769.354675	399.900000
769.391541	412.400000
769.428406	405.300000
769.465271	418.400000
769.502136	408.600000
769.539062	411.400000
769.575867	408.000000
769.612732	410.200000
769.649597	417.700000
769.686462	423.400000
769.723328	418.100000
769.760193	414.800000
769.797058	417.800000
769.833923	428.600000
769.870728	423.800000
769.907593	426.800000
769.944519	427.400000
769.981323	431.200000
770.018188	431.400000
770.055054	430.400000
770.091858	426.200000
770.128723	439.900000
770.165588	444.700000
770.202393	430.800000
770.239258	443.700000
770.276062	439.000000
770.312927	439.000000
770.349792	447.900000
770.386597	445.800000
770.423462	453.400000
770.460327	460.100000
770.497131	443.200000
770.533997	437.200000
770.570862	454.300000
770.607605	455.000000
770.644470	449.400000
770.681335	452.700000
770.718140	451.300000
770.754944	443.000000
770.791809	446.600000
770.828613	447.700000
770.865479	448.100000
770.902222	460.400000
770.939087	452.600000
770.975952	442.300000
771.012695	449.400000
771.049561	464.700000
771.086365	453.200000
771.123169	450.000000
771.159973	454.700000
771.196838	456.100000
771.233582	458.700000
771.270447	460.800000
771.307251	459.900000
771.344055	457.900000
771.380859	461.600000
771.417664	454.500000
771.454468	467.400000
771.491272	465.400000
771.528076	466.200000
771.564880	464.200000
771.601685	471.600000
771.638428	463.400000
771.675293	473.900000
771.712097	462.800000
771.748840	481.800000
771.785645	472.500000
771.822449	474.500000
771.859253	479.100000
771.896057	476.800000
771.932861	490.900000
771.969604	478.300000
772.006409	473.500000
772.043213	488.900000
772.079956	488.500000
772.116760	479.100000
772.153503	483.900000
772.190308	495.400000
772.227112	485.600000
772.263855	484.000000
772.300659	490.700000
772.337463	501.400000
772.374207	489.200000
772.411011	484.800000
772.447754	488.400000
772.484497	511.100000
772.521301	506.100000
772.558105	503.200000
772.594849	503.800000
772.631592	510.800000
772.668396	513.000000
772.705139	516.700000
772.741882	516.700000
772.778625	528.300000
772.815430	533.600000
772.852173	527.500000
772.888916	535.600000
772.925720	541.100000
772.962463	548.700000
772.999207	543.300000
773.035950	547.700000
773.072754	544.800000
773.109436	538.900000
773.146240	542.500000
773.182922	544.400000
773.219727	557.700000
773.256470	554.400000
773.293152	538.400000
773.329956	547.600000
773.366699	553.700000
773.403381	544.700000
773.440186	558.800000
773.476929	561.400000
773.513611	552.300000
773.550354	555.000000
773.587158	553.700000
773.623840	550.400000
773.660583	565.100000
773.697327	579.400000
773.734009	567.100000
773.770813	566.000000
773.807495	567.300000
773.844238	570.300000
773.880981	589.700000
773.917664	587.100000
773.954407	590.700000
773.991150	582.400000
774.027832	586.500000
774.064575	582.500000
774.101318	590.000000
774.138000	598.500000
774.174744	593.400000
774.211487	599.600000
774.248108	584.900000
774.284851	587.800000
774.321594	599.900000
774.358276	604.600000
774.395020	614.200000
774.431702	610.000000
774.468384	603.200000
774.505127	601.700000
774.541809	617.500000
774.578491	629.400000
774.615234	630.300000
774.651917	622.500000
774.688599	626.700000
774.725342	632.600000
774.762024	630.300000
774.798706	637.600000
774.835449	641.000000
774.872070	646.700000
774.908813	639.600000
774.945496	637.800000
774.982178	641.600000
775.018860	647.500000
775.055542	651.100000
775.092224	650.100000
775.128967	659.200000
775.165588	653.000000
775.202271	644.900000
775.239014	662.100000
775.275635	664.700000
775.312317	662.600000
775.349060	665.600000
775.385681	664.500000
775.422363	656.800000
775.459045	669.400000
775.495667	669.200000
775.532410	676.000000
775.569092	675.500000
775.605713	674.400000
775.642395	672.400000
775.679016	676.500000
775.715698	680.600000
775.752380	687.700000
775.789001	675.700000
775.825684	676.800000
775.862366	682.100000
775.898987	693.000000
775.935669	680.300000
775.972351	705.300000
776.008972	703.500000
776.045654	701.900000
776.082336	694.000000
776.118958	692.400000
776.155640	698.000000
776.192322	709.000000
776.228882	711.500000
776.265564	710.700000
776.302185	704.200000
776.338867	709.000000
776.375488	695.700000
776.412109	712.700000
776.448792	718.800000
776.485413	729.000000
776.522034	711.700000
776.558716	701.000000
776.595337	703.500000
776.631958	715.500000
776.668579	715.900000
776.705261	719.000000
776.741882	716.700000
776.778503	709.300000
776.815186	705.100000
776.851746	717.900000
776.888367	720.700000
776.924988	729.700000
776.961609	719.100000
776.998291	717.300000
777.034851	706.600000
777.071472	724.800000
777.108154	721.100000
777.144714	729.700000
777.181335	734.100000
777.218018	724.800000
777.254578	734.700000
777.291199	727.700000
777.327759	738.900000
777.364380	746.900000
777.401062	753.300000
777.437622	764.000000
777.474243	750.500000
777.510864	756.500000
777.547424	754.200000
777.584045	759.900000
777.620667	765.100000
777.657227	772.800000
777.693848	770.700000
777.730469	781.600000
777.767029	771.200000
777.803650	777.300000
777.840271	768.100000
777.876831	770.500000
777.913452	783.000000
777.950012	762.000000
777.986633	762.600000
778.023193	762.900000
778.059753	764.700000
778.096375	769.500000
778.132996	776.700000
778.169556	768.600000
778.206116	763.400000
778.242737	766.800000
778.279297	779.700000
778.315857	772.200000
778.352478	782.000000
778.389038	795.600000
778.425598	791.700000
778.462219	802.800000
778.498718	798.800000
778.535339	808.700000
778.571838	809.100000
778.608459	817.700000
778.645020	811.000000
778.681580	830.300000
778.718140	830.900000
778.754761	827.200000
778.791260	827.000000
778.827881	842.600000
778.864441	831.800000
778.900940	841.000000
778.937561	843.000000
778.974121	839.800000
779.010620	831.300000
779.047241	836.000000
779.083801	841.700000
779.120300	848.300000
779.156860	851.300000
779.193359	852.700000
779.229980	849.900000
779.266541	858.700000
779.303040	862.100000
779.339600	852.800000
779.376160	848.600000
779.412659	857.000000
779.449219	853.800000
779.485779	862.500000
779.522278	863.200000
779.558838	870.200000
779.595398	876.100000
779.631897	874.100000
779.668457	865.800000
779.705017	877.600000
779.741516	868.600000
779.778076	859.200000
779.814575	873.700000
779.851074	885.300000
779.887634	878.100000
779.924133	889.400000
779.960693	873.700000
779.997253	885.800000
780.033691	887.100000
780.070251	889.700000
780.106812	903.500000
780.143250	899.000000
780.179810	896.200000
780.216370	901.700000
780.252808	913.300000
780.289368	930.300000
780.325867	932.000000
780.362366	927.200000
780.398865	943.400000
780.435364	932.200000
780.471863	941.000000
780.508423	940.700000
780.544861	954.500000
780.581421	956.400000
780.617920	941.900000
780.654419	942.300000
780.690918	957.500000
780.727417	964.700000
780.763916	960.000000
780.800415	970.700000
780.836914	949.600000
780.873352	958.800000
780.909912	946.400000
780.946411	959.000000
780.982849	963.600000
781.019348	984.700000
781.055786	976.200000
781.092346	971.100000
781.128845	979.000000
781.165283	994.000000
781.201782	1000.900000
781.238281	997.100000
781.274719	1006.400000
781.311218	990.300000
781.347717	1002.800000
781.384155	990.300000
781.420654	995.000000
781.457092	1012.800000
781.493591	1004.900000
781.530090	996.900000
781.566528	999.600000
781.602966	1003.500000
781.639465	1001.600000
781.675903	1003.000000
781.712402	1015.300000
781.748901	1016.900000
781.785278	1009.800000
781.821777	1013.900000
781.858276	1013.500000
781.894714	1029.500000
781.931152	1016.700000
781.967651	1020.500000
782.004089	1016.000000
782.040527	1028.100000
782.076965	1018.400000
782.113403	1024.100000
782.149902	1032.100000
782.186340	1024.700000
782.222778	1039.700000
782.259277	1019.800000
782.295654	1017.100000
782.332092	1025.000000
782.368591	1019.600000
782.404968	1015.800000
782.441467	1018.800000
782.477905	1022.500000
782.514282	1013.600000
782.550781	1043.300000
782.587219	1035.400000
782.623596	1036.600000
782.660095	1037.500000
782.696472	1045.600000
782.732910	1049.400000
782.769348	1057.600000
782.805786	1070.100000
782.842224	1065.900000
782.878662	1060.900000
782.915039	1061.900000
782.951477	1061.400000
782.987915	1058.000000
783.024292	1066.900000
783.060730	1060.900000
783.097168	1045.700000
783.133545	1046.700000
783.169983	1043.400000
783.206421	1039.300000
783.242798	1034.700000
783.279236	1023.400000
783.315613	1014.700000
783.352051	1016.400000
783.388489	1004.200000
783.424866	988.700000
783.461304	997.200000
783.497681	1000.200000
783.534058	991.100000
783.570496	992.200000
783.606934	981.100000
783.643250	991.600000
783.679687	998.200000
783.716125	995.200000
783.752441	1015.300000
783.788879	1026.500000
783.825317	1035.300000
783.861633	1037.700000
783.898071	1043.400000
783.934448	1067.600000
783.970825	1078.900000
784.007263	1073.800000
784.043579	1068.200000
784.080017	1068.500000
784.116394	1035.000000
784.152710	950.600000
784.189148	821.100000
784.225525	654.200000
784.261902	494.800000
784.298279	401.200000
784.334656	372.400000
784.371033	390.700000
784.407410	470.600000
784.443787	584.000000
784.480164	725.200000
784.516541	850.200000
784.552856	957.400000
784.589233	1001.600000
784.625610	1015.900000
784.661987	1052.100000
784.698364	1042.000000
784.734741	1038.900000
784.771057	1040.900000
784.807434	1042.800000
784.843811	1058.800000
784.880127	1066.000000
784.916504	1093.700000
784.952881	1094.600000
784.989197	1093.000000
785.025574	1089.500000
785.061951	1097.900000
785.098267	1129.200000
785.134644	1131.400000
785.170959	1134.900000
785.207275	1137.100000
785.243652	1132.400000
785.279968	1121.700000
785.316345	1138.900000
785.352722	1139.800000
785.388977	1142.300000
785.425354	1120.300000
785.461731	1098.200000
785.498047	1090.200000
785.534363	1085.300000
785.570679	1083.100000
785.606995	1087.700000
785.643372	1090.900000
785.679687	1082.700000
785.716003	1068.000000
785.752380	1061.600000
785.788635	1069.700000
785.825012	1095.500000
785.861328	1108.300000
785.897644	1090.500000
785.933960	1100.300000
785.970337	1112.800000
786.006592	1131.300000
786.042908	1143.900000
786.079285	1157.200000
786.115540	1168.700000
786.151855	1165.000000
786.188171	1160.000000
786.224487	1160.200000
786.260803	1164.200000
786.297119	1180.200000
786.333435	1184.300000
786.369751	1179.300000
786.406006	1176.500000
786.442322	1162.400000
786.478638	1150.600000
786.514954	1170.800000
786.551270	1170.500000
786.587585	1182.500000
786.623840	1172.100000
786.660156	1151.700000
786.696472	1130.800000
786.732727	1134.700000
786.769043	1142.600000
786.805298	1132.500000
786.841614	1136.800000
786.877930	1137.800000
786.914124	1123.900000
786.950439	1138.400000
786.986755	1146.800000
787.023010	1161.200000
787.059326	1174.100000
787.095642	1174.600000
787.131836	1180.000000
787.168152	1166.200000
787.204468	1175.800000
787.240723	1206.700000
787.276978	1219.200000
787.313293	1225.600000
787.349548	1220.400000
787.385803	1222.400000
787.422058	1218.900000
787.458313	1213.300000
787.494629	1215.800000
787.530823	1213.400000
787.567139	1197.700000
787.603455	1186.900000
787.639648	1178.800000
787.675903	1170.200000
787.712219	1178.300000
787.748413	1184.400000
787.784729	1189.600000
787.820984	1175.400000
787.857178	1160.800000
787.893494	1154.400000
787.929749	1145.900000
787.965942	1158.700000
788.002258	1174.600000
788.038452	1178.200000
788.074707	1165.100000
788.110962	1167.600000
788.147217	1165.200000
788.183472	1178.300000
788.219727	1192.900000
788.255920	1211.300000
788.292175	1215.400000
788.328430	1208.200000
788.364624	1184.900000
788.400879	1179.700000
788.437134	1187.600000
788.473328	1189.100000
788.509583	1185.600000
788.545837	1179.300000
788.582031	1182.300000
788.618286	1151.100000
788.654480	1153.400000
788.690735	1170.300000
788.726990	1195.600000
788.763184	1190.300000
788.799377	1196.900000
788.835632	1181.100000
788.871826	1203.500000
788.908081	1204.800000
788.944336	1202.100000
788.980469	1214.100000
789.016724	1207.900000
789.052979	1205.700000
789.089111	1185.800000
789.125366	1196.700000
789.161621	1175.800000
789.197754	1184.000000
789.234009	1179.100000
789.270142	1169.300000
789.306396	1162.800000
789.342590	1142.800000
789.378784	1114.700000
789.414978	1115.600000
789.451233	1135.100000
789.487366	1133.900000
789.523621	1142.100000
789.559814	1126.000000
789.595947	1124.400000
789.632202	1129.600000
789.668335	1139.900000
789.704529	1160.300000
789.740784	1182.800000
789.776917	1186.700000
789.813110	1170.700000
789.849304	1190.200000
789.885498	1192.500000
789.921692	1204.500000
789.957886	1214.600000
789.994019	1215.400000
790.030212	1205.800000
790.066406	1207.200000
790.102539	1197.300000
790.138733	1215.400000
790.174927	1203.100000
790.211060	1218.800000
790.247253	1205.700000
790.283386	1190.500000
790.319580	1180.300000
790.355774	1157.300000
790.391907	1163.500000
790.428101	1195.600000
790.464294	1195.600000
790.500427	1197.500000
790.536621	1181.400000
790.572754	1162.000000
790.608887	1162.700000
790.645081	1178.800000
790.681274	1195.000000
790.717346	1181.000000
790.753540	1142.900000
790.789734	1064.700000
790.825867	998.900000
790.862000	988.000000
790.898132	1018.700000
790.934265	1069.700000
790.970459	1126.100000
791.006592	1153.400000
791.042725	1160.700000
791.078918	1139.200000
791.114990	1145.500000
791.151184	1164.000000
791.187317	1189.900000
791.223389	1180.900000
791.259583	1169.200000
791.295715	1172.400000
791.331848	1177.900000
791.367981	1184.400000
791.404114	1197.300000
791.440247	1193.400000
791.476379	1194.500000
791.512451	1172.500000
791.548584	1169.600000
791.584778	1162.400000
791.620850	1180.100000
791.656982	1189.600000
791.693115	1190.800000
791.729187	1175.800000
791.765381	1172.100000
791.801514	1173.700000
791.837585	1168.400000
791.873718	1181.300000
791.909851	1197.800000
791.945923	1205.200000
791.982056	1168.300000
792.018188	1163.000000
792.054260	1173.400000
792.090393	1164.700000
792.126465	1164.900000
792.162598	1170.500000
792.198669	1155.800000
792.234741	1150.800000
792.270874	1142.700000
792.307007	1127.000000
792.343079	1139.600000
792.379150	1150.400000
792.415283	1135.800000
792.451355	1139.700000
792.487488	1121.200000
792.523560	1121.800000
792.559631	1121.700000
792.595764	1120.500000
792.631836	1123.600000
792.667908	1133.300000
792.703979	1115.000000
792.740051	1109.200000
792.776184	1123.600000
792.812256	1119.700000
792.848328	1131.300000
792.884399	1130.500000
792.920471	1132.900000
792.956543	1122.900000
792.992615	1118.200000
793.028748	1118.700000
793.064758	1125.100000
793.100830	1145.400000
793.136963	1160.600000
793.172974	1153.700000
793.209045	1141.700000
793.245178	1152.500000
793.281189	1136.600000
793.317261	1148.800000
793.353271	1144.000000
793.389404	1149.400000
793.425476	1149.000000
793.461487	1131.300000
793.497559	1123.000000
793.533630	1134.800000
793.569641	1133.100000
793.605713	1143.400000
793.641785	1143.600000
793.677795	1150.800000
793.713867	1135.900000
793.749878	1145.200000
793.785950	1152.800000
793.822021	1159.700000
793.858032	1143.400000
793.894104	1154.300000
793.930176	1140.400000
793.966187	1145.500000
794.002258	1133.500000
794.038269	1135.800000
794.074280	1134.000000
794.110352	1164.000000
794.146423	1133.800000
794.182373	1125.100000
794.218445	1114.800000
794.254517	1103.100000
794.290466	1089.900000
794.326538	1098.400000
794.362549	1103.200000
794.398560	1112.100000
794.434631	1111.900000
794.470581	1078.700000
794.506653	1071.000000
794.542664	1073.400000
794.578674	1079.800000
794.614685	1077.100000
794.650757	1072.600000
794.686707	1057.800000
794.722778	1048.800000
794.758789	1057.800000
794.794739	1069.500000
794.830811	1096.300000
794.866821	1112.600000
794.902771	1097.600000
794.938843	1085.100000
794.974792	1085.800000
795.010803	1089.400000
795.046814	1090.100000
795.082825	1077.900000
795.118835	1087.800000
795.154846	1066.900000
795.190796	1072.800000
795.226807	1049.100000
795.262817	1056.100000
795.298767	1056.900000
795.334778	1062.500000
795.370850	1048.500000
795.406799	1045.900000
795.442810	1027.600000
795.478821	1027.300000
795.514709	1029.400000
795.550720	1048.400000
795.586670	1028.900000
795.622681	1039.900000
795.658691	1026.200000
795.694641	1023.000000
795.730652	1010.100000
795.766663	1025.400000
795.802551	1028.900000
795.838562	1041.600000
795.874573	1023.300000
795.910522	1021.000000
795.946472	1011.800000
795.982483	1012.000000
796.018433	1014.600000
796.054382	1029.200000
796.090393	1019.800000
796.126282	1007.500000
796.162292	1001.700000
796.198242	991.900000
796.234192	995.100000
796.270203	997.600000
796.306091	999.200000
796.342041	1008.800000
796.378052	994.900000
796.413940	993.500000
796.449951	997.600000
796.485901	995.700000
796.521790	994.000000
796.557800	1008.700000
796.593689	1001.400000
796.629639	987.800000
796.665649	986.300000
796.701599	986.200000
796.737488	989.600000
796.773437	994.800000
796.809387	993.600000
796.845337	992.200000
796.881287	976.100000
796.917175	958.800000
796.953125	956.700000
796.989075	972.100000
797.024963	975.000000
797.060913	970.500000
797.096863	975.400000
797.132751	968.800000
797.168701	949.900000
797.204590	954.700000
797.240540	956.200000
797.276489	968.300000
797.312439	966.900000
797.348328	965.200000
797.384277	946.800000
797.420166	939.500000
797.456055	941.700000
797.492004	940.300000
797.527893	952.100000
797.563843	955.300000
797.599731	935.200000
797.635620	930.000000
797.671570	938.100000
797.707520	932.800000
797.743347	933.900000
797.779297	947.100000
797.815125	937.000000
797.851074	930.000000
797.887024	918.700000
797.922913	911.100000
797.958801	928.000000
797.994690	919.700000
798.030579	928.200000
798.066467	936.100000
798.102356	918.900000
798.138245	911.400000
798.174133	906.900000
798.210083	911.700000
798.245911	925.300000
798.281799	928.600000
798.317749	914.600000
798.353577	904.900000
798.389465	902.200000
798.425293	899.900000
798.461243	901.200000
798.497131	903.400000
798.532959	902.500000
798.568848	909.700000
798.604736	900.700000
798.640564	886.900000
798.676453	883.400000
798.712402	891.200000
798.748230	897.200000
798.784119	891.300000
798.820007	890.900000
798.855835	887.900000
798.891724	879.600000
798.927551	878.900000
798.963379	890.800000
798.999268	885.100000
799.035095	883.600000
799.070984	873.700000
799.106873	859.100000
799.142700	876.300000
799.178528	865.700000
799.214417	858.600000
799.250244	879.700000
799.286133	869.900000
799.321960	868.000000
799.357788	860.500000
799.393677	861.000000
799.429504	864.000000
799.465332	866.400000
799.501221	871.700000
799.537048	868.800000
799.572876	858.000000
799.608704	854.000000
799.644531	862.200000
799.680359	865.700000
799.716248	868.700000
799.752014	873.200000
799.787903	865.500000
799.823730	861.300000
799.859558	852.300000
799.895386	850.900000
799.931213	854.000000
799.967041	847.400000
800.002869	844.200000
800.038696	850.300000
800.074463	829.100000
800.110352	837.000000
800.146179	828.300000
800.181946	834.700000
800.217773	836.800000
800.253540	827.700000
800.289429	825.800000
800.325256	817.700000
800.361023	815.000000
800.396851	819.100000
800.432678	818.500000
800.468445	815.800000
800.504272	812.500000
800.540100	794.200000
800.575867	793.500000
800.611694	798.200000
800.647461	793.300000
800.683289	793.300000
800.719116	796.300000
800.754883	789.000000
800.790649	775.600000
800.826477	767.600000
800.862244	786.400000
800.898071	769.100000
800.933838	762.900000
800.969604	764.400000
801.005432	764.000000
801.041199	764.300000
801.076965	758.000000
801.112793	746.300000
801.148560	737.600000
801.184326	741.900000
801.220154	744.300000
801.255859	734.400000
801.291687	734.500000
801.327454	726.900000
801.363281	724.300000
801.398987	725.700000
801.434814	725.200000
801.470520	733.300000
801.506287	719.600000
801.542114	713.200000
801.577820	713.200000
801.613647	714.300000
801.649414	705.700000
801.685120	704.300000
801.720886	717.400000
801.756714	705.800000
801.792419	694.700000
801.828186	695.000000
801.863892	702.700000
801.899719	694.100000
801.935486	694.600000
801.971252	699.700000
802.006958	689.200000
802.042725	687.300000
802.078430	687.700000
802.114197	676.100000
802.149963	687.600000
802.185669	680.700000
802.221436	677.000000
802.257202	675.700000
802.292908	673.400000
802.328674	681.800000
802.364441	679.800000
802.400146	673.800000
802.435913	669.700000
802.471558	667.100000
802.507324	661.300000
802.543091	653.300000
802.578796	665.500000
802.614502	667.900000
802.650269	670.000000
802.685974	649.700000
802.721741	656.400000
802.757446	664.600000
802.793152	657.400000
802.828918	669.000000
802.864624	659.900000
802.900330	657.500000
802.936035	650.500000
802.971802	651.100000
803.007446	648.900000
803.043213	639.300000
803.078857	646.400000
803.114624	632.000000
803.150330	637.700000
803.185974	626.400000
803.221741	628.800000
803.257446	635.500000
803.293152	635.900000
803.328857	630.800000
803.364563	626.600000
803.400208	619.500000
803.435974	628.400000
803.471680	615.500000
803.507324	614.100000
803.543030	625.000000
803.578735	626.300000
803.614441	614.200000
803.650146	617.000000
803.685791	606.900000
803.721497	609.800000
803.757202	595.600000
803.792847	609.500000
803.828552	600.700000
803.864258	603.000000
803.899902	602.800000
803.935608	584.500000
803.971313	586.100000
804.006958	589.100000
804.042664	584.100000
804.078308	590.600000
804.113953	583.400000
804.149658	589.700000
804.185364	579.700000
804.221008	591.200000
804.256714	580.000000
804.292297	579.800000
804.328003	572.700000
804.363708	564.500000
804.399292	568.100000
804.434998	567.800000
804.470703	557.800000
804.506287	570.300000
804.541992	562.700000
804.577637	565.900000
804.613281	556.100000
804.648926	552.600000
804.684570	558.000000
804.720215	554.600000
804.755920	553.800000
804.791565	548.000000
804.827209	554.900000
804.862854	552.500000
804.898437	538.800000
804.934143	544.500000
804.969788	543.600000
805.005371	545.400000
805.041077	544.600000
805.076721	542.600000
805.112305	535.100000
805.147949	534.100000
805.183655	527.400000
805.219238	536.200000
805.254883	534.700000
805.290466	540.800000
805.326111	531.500000
805.361755	520.400000
805.397400	526.600000
805.432983	531.700000
805.468628	534.600000
805.504211	535.200000
805.539856	531.500000
805.575500	535.600000
805.611084	526.300000
805.646729	513.300000
805.682373	519.800000
805.717957	528.200000
805.753601	532.700000
805.789246	510.900000
805.824768	526.600000
805.860413	527.900000
805.895996	516.800000
805.931641	511.800000
805.967224	520.700000
806.002869	513.100000
806.038452	523.400000
806.074036	516.300000
806.109619	503.900000
806.145264	504.900000
806.180847	506.600000
806.216431	499.300000
806.252014	504.600000
806.287659	505.900000
806.323181	513.800000
806.358826	506.100000
806.394409	485.500000
806.429993	489.800000
806.465576	507.000000
806.501160	488.900000
806.536743	481.700000
806.572327	495.000000
806.607910	488.700000
806.643494	487.800000
806.679077	481.400000
806.714661	488.300000
806.750244	487.200000
806.785828	476.700000
806.821350	477.900000
806.856934	481.800000
806.892517	478.100000
806.928101	469.400000
806.963684	471.400000
806.999268	480.700000
807.034790	461.000000
807.070374	468.500000
807.105896	464.800000
807.141479	462.400000
807.177063	468.100000
807.212585	459.700000
807.248169	458.700000
807.283752	464.600000
807.319275	456.900000
807.354858	458.600000
807.390381	451.900000
807.425903	456.200000
807.461487	450.600000
807.497070	448.600000
807.532593	447.700000
807.568115	443.900000
807.603699	441.100000
807.639221	438.700000
807.674744	442.900000
807.710266	445.600000
807.745850	446.400000
807.781372	440.500000
807.816895	434.400000
807.852417	438.600000
807.888000	433.100000
807.923523	429.100000
807.959045	435.500000
807.994629	426.500000
808.030090	420.200000
808.065613	428.100000
808.101135	429.700000
808.136658	427.200000
808.172241	426.600000
808.207764	425.500000
808.243225	419.300000
808.278809	413.500000
808.314270	422.500000
808.349792	409.900000
808.385315	411.300000
808.420837	415.600000
808.456360	419.000000
808.491882	415.600000
808.527344	412.500000
808.562866	422.300000
808.598389	413.100000
808.633850	407.500000
808.669434	405.900000
808.704895	412.600000
808.740417	417.700000
808.775940	407.400000
808.811462	405.900000
808.846924	397.600000
808.882385	392.300000
808.917847	392.900000
808.953369	394.700000
808.988892	389.500000
809.024353	398.400000
809.059875	396.200000
809.095398	392.400000
809.130798	386.600000
809.166321	387.200000
809.201843	386.900000
809.237305	388.400000
809.272766	394.600000
809.308228	380.600000
809.343750	377.000000
809.379211	382.400000
809.414734	380.000000
809.450134	388.700000
809.485657	370.900000
809.521118	377.800000
809.556580	377.600000
809.592102	373.600000
809.627502	371.400000
809.663025	370.200000
809.698486	364.200000
809.733887	362.300000
809.769409	365.500000
809.804871	354.200000
809.840271	359.400000
809.875793	361.000000
809.911194	365.600000
809.946655	358.000000
809.982178	354.800000
810.017639	356.600000
810.053040	354.700000
810.088501	350.900000
810.123901	351.800000
810.159424	347.500000
810.194885	344.300000
810.230286	349.000000
810.265747	345.100000
810.301208	340.500000
810.336609	345.100000
810.372070	337.700000
810.407532	341.600000
810.442932	340.500000
810.478394	345.700000
810.513794	340.000000
810.549255	337.800000
810.584717	336.100000
810.620117	330.600000
810.655518	337.200000
810.690979	338.300000
810.726379	334.600000
810.761841	325.200000
810.797302	325.900000
810.832642	325.500000
810.868103	337.700000
810.903564	327.300000
810.938904	333.000000
810.974365	322.800000
811.009827	327.300000
811.045166	323.500000
811.080627	316.800000
811.115967	323.800000
811.151428	329.300000
811.186829	320.200000
811.222229	321.500000
811.257629	313.900000
811.293091	318.700000
811.328430	325.600000
811.363892	321.700000
811.399292	321.000000
811.434631	315.600000
811.470093	319.400000
811.505493	311.100000
811.540833	314.600000
811.576294	318.300000
811.611694	314.600000
811.647034	308.500000
811.682434	310.800000
811.717773	313.000000
811.753235	317.300000
811.788635	310.900000
811.823975	310.300000
811.859375	320.100000
811.894775	304.400000
811.930115	307.000000
811.965515	309.300000
812.000916	310.700000
812.036255	306.400000
812.071655	312.000000
812.106995	301.400000
812.142395	303.900000
812.177795	310.600000
812.213196	308.200000
812.248474	308.000000
812.283875	298.800000
812.319214	301.200000
812.354614	302.700000
812.390015	299.200000
812.425293	300.700000
812.460693	299.100000
812.496094	296.100000
812.531433	292.100000
812.566772	292.700000
812.602173	295.500000
812.637451	295.900000
812.672852	292.400000
812.708191	299.100000
812.743530	289.500000
812.778931	282.800000
812.814270	286.300000
812.849609	293.500000
812.884949	288.200000
812.920227	280.800000
812.955627	298.400000
812.990967	289.300000
813.026306	285.200000
813.061646	274.300000
813.096985	269.600000
813.132324	269.200000
813.167664	275.700000
813.203003	279.300000
813.238281	267.400000
813.273682	269.200000
813.308960	265.000000
813.344299	267.500000
813.379639	278.900000
813.414978	269.400000
813.450256	268.700000
813.485596	274.000000
813.520874	264.500000
813.556213	269.400000
813.591614	273.900000
813.626831	263.600000
813.662170	270.400000
813.697510	280.600000
813.732788	261.400000
813.768127	267.700000
813.803467	268.000000
813.838745	263.200000
813.874084	267.000000
813.909363	265.700000
813.944641	266.800000
813.979980	255.900000
814.015320	263.400000
814.050598	259.300000
814.085876	265.000000
814.121155	260.600000
814.156494	257.700000
814.191772	259.200000
814.227051	256.800000
814.262390	256.100000
814.297668	258.200000
814.332947	259.100000
814.368225	253.900000
814.403564	256.100000
814.438782	252.900000
814.474121	256.400000
814.509338	251.500000
814.544617	261.200000
814.579956	250.700000
814.615173	261.200000
814.650513	257.800000
814.685791	249.100000
814.721008	251.500000
814.756348	251.000000
814.791626	247.000000
814.826843	246.400000
814.862122	248.000000
814.897400	245.800000
814.932678	248.600000
814.967957	249.300000
815.003235	246.300000
815.038452	241.900000
815.073730	240.800000
815.108948	251.500000
815.144226	247.000000
815.179504	251.000000
815.214722	235.500000
815.250000	236.700000
815.285278	243.100000
815.320496	237.400000
815.355774	240.000000
815.391052	244.100000
815.426270	238.100000
815.461487	239.000000
815.496765	234.300000
815.531982	229.100000
815.567261	235.500000
815.602539	246.100000
815.637695	240.000000
815.672974	242.900000
815.708191	240.800000
815.743408	242.800000
815.778687	234.500000
815.813904	246.300000
815.849121	224.800000
815.884399	229.000000
815.919556	228.700000
815.954834	230.800000
815.990051	235.200000
816.025269	237.700000
816.060486	228.300000
816.095703	227.500000
816.130920	231.400000
816.166199	228.100000
816.201416	232.300000
816.236572	239.200000
816.271851	227.400000
816.307007	234.800000
816.342224	224.000000
816.377441	228.900000
816.412659	219.500000
816.447876	229.900000
816.483093	225.400000
816.518250	228.100000
816.553467	224.200000
816.588745	229.700000
816.623901	221.400000
816.659119	215.300000
816.694275	222.000000
816.729492	220.100000
816.764709	255.700000
816.799927	215.400000
816.835083	222.700000
816.870300	215.800000
816.905457	221.200000
816.940674	225.000000
816.975830	217.100000
817.010986	214.400000
817.046204	218.700000
817.081421	214.000000
817.116577	213.800000
817.151733	224.900000
817.186951	224.700000
817.222107	218.800000
817.257324	221.400000
817.292419	218.700000
817.327637	210.600000
817.362854	215.800000
817.398010	210.200000
817.433167	213.500000
817.468323	212.200000
817.503479	212.100000
817.538635	222.900000
817.573853	217.100000
817.608948	215.300000
817.644165	209.700000
817.679321	209.700000
817.714478	208.900000
817.749634	215.200000
817.784790	226.800000
817.819946	219.400000
817.855103	200.700000
817.890198	212.800000
817.925415	204.300000
817.960571	213.700000
817.995667	211.600000
818.030823	212.200000
818.066040	205.200000
818.101135	210.500000
818.136292	209.200000
818.171448	204.300000
818.206543	208.700000
818.241699	211.800000
818.276855	209.100000
818.311951	207.900000
818.347107	204.200000
818.382263	209.700000
818.417358	216.200000
818.452515	216.600000
818.487610	215.000000
818.522766	205.000000
818.557922	215.200000
818.593018	210.600000
818.628113	210.500000
818.663269	203.700000
818.698364	207.900000
818.733521	205.000000
818.768677	210.100000
818.803711	201.800000
818.838867	203.900000
818.874023	205.600000
818.909058	202.100000
818.944214	200.800000
818.979370	210.900000
819.014404	205.000000
819.049561	202.200000
819.084595	208.400000
819.119751	199.500000
819.154846	206.400000
819.189941	204.200000
819.225037	198.400000
819.260193	195.100000
819.295227	197.800000
819.330322	194.500000
819.365479	193.600000
819.400513	228.100000
819.435608	191.100000
819.470764	192.200000
819.505798	193.200000
819.540894	198.300000
819.575989	194.700000
819.611084	206.200000
819.646179	205.100000
819.681213	201.500000
819.716309	197.400000
819.751404	197.500000
819.786438	202.700000
819.821533	194.300000
819.856628	199.100000
819.891663	202.200000
819.926758	209.100000
819.961853	205.600000
819.996887	195.200000
820.031982	201.700000
820.067017	196.600000
820.102112	225.900000
820.137207	196.100000
820.172302	213.400000
820.207275	195.000000
820.242371	194.200000
820.277405	195.200000
820.312500	197.500000
820.347534	200.100000
820.382568	202.900000
820.417664	194.700000
820.452759	195.900000
820.487732	193.800000
820.522827	195.800000
820.557861	193.500000
820.592896	194.700000
820.627930	196.800000
820.662964	193.500000
820.698059	199.800000
820.733093	193.900000
820.768127	200.600000
820.803162	195.500000
820.838196	195.500000
820.873230	197.800000
820.908264	198.600000
820.943298	192.100000
820.978333	201.200000
821.013367	196.800000
821.048401	200.200000
821.083435	203.000000
821.118469	189.800000
821.153503	200.200000
821.188477	197.000000
821.223511	188.900000
821.258484	196.600000
821.293579	196.300000
821.328613	188.900000
821.363647	193.700000
821.398621	189.500000
821.433655	192.200000
821.468628	206.700000
821.503662	194.600000
821.538696	198.800000
821.573669	189.500000
821.608704	198.500000
821.643677	191.900000
821.678650	198.500000
821.713684	204.500000
821.748718	192.900000
821.783691	195.100000
821.818726	196.400000
821.853638	196.300000
821.888672	193.400000
821.923706	195.800000
821.958618	191.000000
821.993652	192.900000
822.028687	198.500000
822.063599	201.200000
822.098633	196.200000
822.133667	192.200000
822.168579	193.500000
822.203613	196.000000
822.238586	191.300000
822.273560	198.000000
822.308533	191.600000
822.343567	192.200000
822.378479	193.000000
822.413452	193.300000
822.448425	189.600000
822.483398	199.600000
822.518372	199.200000
822.553345	193.300000
822.588318	202.300000
822.623291	194.000000
822.658203	191.900000
822.693237	194.800000
822.728210	189.200000
822.763123	196.000000
822.798096	190.500000
822.833069	194.400000
822.867981	193.900000
822.902954	197.300000
822.937927	196.600000
822.972900	205.800000
823.007874	185.600000
823.042725	197.500000
823.077698	206.700000
823.112671	189.700000
823.147583	193.300000
823.182556	196.800000
823.217529	197.900000
823.252441	192.300000
823.287415	208.100000
823.322388	196.200000
823.357239	195.000000
823.392212	201.700000
823.427185	197.900000
823.462097	189.800000
823.497009	197.700000
823.531982	193.000000
823.566895	194.200000
823.601807	188.700000
823.636719	192.800000
823.671631	196.700000
823.706604	192.700000
823.741455	197.100000
823.776428	187.100000
823.811340	198.200000
823.846252	200.500000
823.881165	202.100000
823.916138	197.400000
823.950989	203.500000
823.985901	192.000000
824.020813	195.100000
824.055725	193.000000
824.090637	190.900000
824.125610	197.600000
824.160461	194.100000
824.195374	197.100000
824.230225	199.600000
824.265198	186.800000
824.300110	191.600000
824.334961	206.100000
824.369873	184.000000
824.404785	196.500000
824.439636	199.600000
824.474548	186.600000
824.509460	184.700000
824.544312	200.200000
824.579224	196.100000
824.614075	196.700000
824.648987	193.700000
824.683899	193.500000
824.718811	190.600000
824.753662	202.700000
824.788574	198.800000
824.823364	194.700000
824.858276	191.400000
824.893188	199.800000
824.928040	199.800000
824.962952	198.000000
824.997803	198.100000
825.032654	195.200000
825.067566	198.800000
825.102417	192.400000
825.137268	194.000000
825.172119	196.200000
825.206970	190.400000
825.241882	193.300000
825.276733	191.100000
825.311646	191.400000
825.346436	189.100000
825.381348	189.100000
825.416138	195.400000
825.450989	190.500000
825.485901	187.300000
825.520691	184.900000
825.555542	189.000000
825.590454	193.900000
825.625244	186.600000
825.660095	202.000000
825.695007	198.900000
825.729797	192.600000
825.764648	190.300000
825.799438	192.800000
825.834290	195.800000
825.869202	187.200000
825.903992	195.800000
825.938843	190.400000
825.973694	190.100000
826.008484	205.000000
826.043335	189.200000
826.078186	183.300000
826.112976	199.900000
826.147827	199.200000
826.182678	203.200000
826.217468	185.900000
826.252319	199.000000
826.287109	189.400000
826.321899	201.000000
826.356750	192.700000
826.391541	188.400000
826.426392	199.100000
826.461182	193.600000
826.495972	187.900000
826.530823	185.100000
826.565613	194.300000
826.600403	188.500000
826.635254	197.500000
826.670044	184.500000
826.704834	185.800000
826.739685	189.200000
826.774475	194.600000
826.809265	191.900000
826.844055	192.300000
826.878906	198.900000
826.913635	195.000000
826.948425	195.900000
826.983215	193.900000
827.018005	198.600000
827.052856	190.800000
827.087585	196.400000
827.122375	186.500000
827.157227	193.500000
827.191956	205.500000
827.226746	187.800000
827.261536	198.800000
827.296265	185.100000
827.331116	190.800000
827.365906	195.700000
827.400635	190.800000
827.435425	184.600000
827.470215	201.000000
827.504944	190.700000
827.539734	197.900000
827.574463	192.300000
827.609253	200.500000
827.644043	193.100000
827.678772	199.200000
827.713562	191.300000
827.748352	191.600000
827.783081	189.400000
827.817871	193.600000
827.852600	187.500000
827.887329	194.700000
827.922119	183.500000
827.956848	196.400000
827.991638	206.600000
828.026367	195.500000
828.061157	194.900000
828.095886	193.000000
828.130615	207.700000
828.165344	183.300000
828.200073	195.500000
828.234863	189.500000
828.269592	192.000000
828.304321	199.000000
828.339111	193.900000
828.373779	189.100000
828.408569	198.100000
828.443298	197.500000
828.477966	190.600000
828.512756	193.900000
828.547424	187.400000
828.582214	189.600000
828.616943	192.100000
828.651672	190.700000
828.686340	196.900000
828.721130	189.300000
828.755798	192.700000
828.790527	191.400000
828.825256	193.900000
828.859924	193.300000
828.894714	202.200000
828.929443	200.200000
828.964111	190.400000
828.998840	196.700000
829.033569	191.300000
829.068237	189.000000
829.102966	191.100000
829.137634	194.900000
829.172363	195.300000
829.207092	194.700000
829.241821	189.000000
829.276489	185.100000
829.311157	194.800000
829.345825	191.100000
829.380554	197.700000
829.415283	188.400000
829.449951	186.700000
829.484619	200.800000
829.519348	200.200000
829.554016	192.800000
829.588745	192.300000
829.623413	186.500000
829.658081	205.000000
829.692749	186.100000
829.727417	197.600000
829.762146	195.100000
829.796814	188.000000
829.831482	192.000000
829.866150	195.600000
829.900879	190.600000
829.935486	195.300000
829.970154	191.300000
830.004883	203.600000
830.039490	193.500000
830.074219	188.900000
830.108887	194.700000
830.143494	191.500000
830.178223	188.700000
830.212891	190.500000
830.247498	192.900000
830.282166	201.400000
830.316772	198.600000
830.351501	189.600000
830.386169	193.000000
830.420776	191.300000
830.455444	192.700000
830.490112	190.900000
830.524719	183.600000
830.559387	194.600000
830.594055	197.200000
830.628662	192.200000
830.663330	192.000000
830.697998	200.000000
830.732605	193.000000
830.767273	195.700000
830.801941	193.800000
830.836487	201.600000
830.871155	194.600000
830.905762	193.400000
830.940430	186.100000
830.975098	189.900000
831.009644	193.300000
831.044312	202.100000
831.078979	195.400000
831.113525	183.000000
831.148193	193.300000
831.182861	191.500000
831.217407	196.400000
831.252075	209.200000
831.286621	189.600000
831.321289	188.700000
831.355896	191.500000
831.390564	199.900000
831.425110	193.600000
831.459778	200.300000
831.494324	205.800000
831.528931	197.400000
831.563599	196.200000
831.598145	186.600000
831.632751	192.400000
831.667419	191.800000
831.701965	195.900000
831.736572	197.700000
831.771179	187.100000
831.805786	190.300000
831.840393	198.600000
831.874939	185.000000
831.909546	196.000000
831.944153	184.700000
831.978760	192.400000
832.013306	188.400000
832.047913	198.800000
832.082458	202.000000
832.117065	189.600000
832.151672	202.100000
832.186218	192.900000
832.220825	195.500000
832.255432	184.600000
832.289978	190.100000
832.324585	195.600000
832.359192	196.100000
832.393677	191.500000
832.428284	194.600000
832.462830	190.900000
832.497437	191.900000
832.531982	196.800000
832.566589	192.300000
832.601135	193.500000
832.635681	185.100000
832.670227	191.800000
832.704773	200.900000
832.739380	195.400000
832.773926	192.700000
832.808472	188.800000
832.843079	192.400000
832.877563	196.600000
832.912170	191.300000
832.946716	184.800000
832.981201	198.200000
833.015808	196.200000
833.050293	193.100000
833.084839	189.200000
833.119446	192.000000
833.153992	196.300000
833.188477	192.700000
833.223022	188.900000
833.257568	195.900000
833.292114	199.800000
833.326660	203.400000
833.361145	190.400000
833.395691	185.100000
833.430237	192.000000
833.464783	196.100000
833.499329	189.200000
833.533875	187.400000
833.568359	197.900000
833.602905	199.900000
833.637390	199.600000
833.671875	190.000000
833.706421	192.800000
833.740906	189.400000
833.775452	183.300000
833.809998	190.000000
833.844482	199.800000
833.879028	192.200000
833.913513	191.300000
833.947998	195.900000
833.982544	190.800000
834.017090	190.400000
834.051514	182.200000
834.086060	196.200000
834.120544	192.500000
834.155029	194.500000
834.189575	191.500000
834.223999	194.600000
834.258545	194.400000
834.293030	194.000000
834.327515	192.200000
834.362000	190.500000
834.396545	196.700000
834.430969	191.100000
834.465454	196.600000
834.500000	184.900000
834.534424	194.900000
834.568970	183.200000
834.603455	183.900000
834.637878	188.200000
834.672363	193.500000
834.706909	193.900000
834.741333	191.900000
834.775818	184.200000
834.810242	188.700000
834.844727	193.300000
834.879211	191.600000
834.913635	192.800000
834.948181	195.900000
834.982666	193.100000
835.017090	191.200000
835.051575	196.900000
835.086060	189.100000
835.120483	196.900000
835.154907	197.300000
835.189331	193.400000
835.223816	195.300000
835.258301	188.000000
835.292786	188.400000
835.327209	199.700000
835.361694	189.100000
835.396057	190.600000
835.430542	195.200000
835.465027	195.800000
835.499390	186.400000
835.533875	213.400000
835.568359	191.100000
835.602722	185.700000
835.637207	195.200000
835.671692	187.000000
835.706055	209.200000
835.740540	195.600000
835.774902	196.600000
835.809387	193.400000
835.843811	185.400000
835.878235	199.500000
835.912659	186.100000
835.947083	188.900000
835.981506	194.300000
836.015930	185.000000
836.050354	198.200000
836.084778	202.800000
836.119202	197.200000
836.153625	205.200000
836.187988	189.000000
836.222473	189.500000
836.256897	194.900000
836.291260	192.000000
836.325684	194.900000
836.360046	190.300000
836.394470	192.400000
836.428894	198.800000
836.463318	190.200000
836.497681	198.200000
836.532104	201.500000
836.566467	193.900000
836.600891	192.000000
836.635315	199.500000
836.669678	195.800000
836.704102	197.400000
836.738525	194.300000
836.772888	184.400000
836.807251	191.100000
836.841675	194.600000
836.876038	187.400000
836.910461	189.100000
836.944763	197.300000
836.979187	189.400000
837.013611	199.200000
837.047974	185.600000
837.082336	205.200000
837.116699	195.200000
837.151062	193.000000
837.185486	185.200000
837.219849	191.900000
837.254211	196.300000
837.288574	192.100000
837.322937	188.300000
837.357300	180.000000
837.391663	205.500000
837.426086	198.500000
837.460388	194.000000
837.494751	198.500000
837.529114	190.900000
837.563477	198.000000
837.597839	195.600000
837.632141	191.300000
837.666565	189.700000
837.700928	195.200000
837.735229	197.100000
837.769592	193.700000
837.803955	198.200000
837.838257	190.800000
837.872620	188.700000
837.906982	199.800000
837.941284	194.200000
837.975647	192.800000
838.010010	200.400000
838.044312	190.600000
838.078674	190.400000
838.112976	193.300000
838.147339	197.500000
838.181702	192.100000
838.216003	204.300000
838.250366	193.100000
838.284668	195.000000
838.318970	184.500000
838.353333	194.100000
838.387634	191.200000
838.421936	193.900000
838.456299	193.600000
838.490601	200.600000
838.524902	194.600000
838.559265	198.000000
838.593567	196.200000
838.627869	188.400000
838.662170	195.300000
838.696472	186.500000
838.730774	189.500000
838.765137	198.600000
838.799377	178.000000
838.833740	193.900000
838.868042	198.700000
838.902283	185.400000
838.936646	198.800000
838.970947	195.600000
839.005188	198.100000
839.039551	184.400000
839.073792	199.600000
839.108093	191.300000
839.142395	202.400000
839.176697	186.300000
839.210937	193.800000
839.245300	204.600000
839.279541	187.700000
839.313843	191.000000
839.348145	197.700000
839.382385	199.000000
839.416687	197.200000
839.450989	197.500000
839.485229	192.600000
839.519531	187.400000
839.553833	198.900000
839.588013	193.400000
839.622314	193.700000
839.656555	196.300000
839.690857	192.500000
839.725159	187.400000
839.759460	192.300000
839.793640	191.700000
839.827942	192.100000
839.862183	187.800000
839.896423	195.600000
839.930725	200.900000
839.964966	201.200000
839.999207	200.100000
840.033508	201.500000
840.067688	191.300000
840.101990	203.400000
840.136230	192.900000
840.170471	201.300000
840.204712	190.000000
840.238953	189.000000
840.273193	192.000000
840.307434	198.900000
840.341736	188.700000
840.375916	187.100000
840.410217	191.000000
840.444397	198.600000
840.478638	195.300000
840.512878	200.200000
840.547119	193.400000
840.581360	195.400000
840.615601	202.400000
840.649780	204.300000
840.684021	192.900000
840.718262	200.500000
840.752441	198.700000
840.786682	193.600000
840.820862	195.700000
840.855103	200.900000
840.889343	193.500000
840.923584	197.200000
840.957764	195.600000
840.992004	195.900000
841.026184	206.400000
841.060425	190.600000
841.094666	190.000000
841.128845	197.200000
841.163025	194.000000
841.197266	195.900000
841.231445	194.600000
841.265686	194.700000
841.299866	189.100000
841.334045	202.500000
841.368286	192.100000
841.402405	201.800000
841.436646	197.800000
841.470825	190.500000
841.505005	192.900000
841.539185	188.500000
841.573425	189.700000
841.607544	193.200000
841.641785	194.800000
841.675964	188.500000
841.710144	194.800000
841.744324	189.200000
841.778503	193.200000
841.812683	189.000000
841.846863	203.000000
841.881042	199.900000
841.915222	191.400000
841.949402	208.900000
841.983521	185.500000
842.017700	191.500000
842.051880	195.300000
842.086060	194.300000
842.120239	195.300000
842.154419	190.900000
842.188538	195.800000
842.222717	190.400000
842.256897	204.500000
842.291016	191.700000
842.325195	197.400000
842.359375	205.200000
842.393494	201.400000
842.427673	191.600000
842.461853	197.300000
842.495911	202.300000
842.530090	196.200000
842.564209	192.500000
842.598389	194.500000
842.632568	195.300000
842.666626	198.300000
842.700806	189.900000
842.734985	190.800000
842.769043	197.700000
842.803223	190.800000
842.837402	193.700000
842.871460	189.300000
842.905640	201.800000
842.939697	188.800000
842.973877	196.600000
843.007996	199.400000
843.042175	202.800000
843.076233	191.800000
843.110413	194.200000
843.144470	202.900000
843.178589	198.600000
843.212769	190.400000
843.246826	199.600000
843.280945	193.100000
843.315125	192.400000
843.349182	188.200000
843.383301	202.300000
843.417419	205.900000
843.451538	193.300000
843.485657	191.200000
843.519714	192.500000
843.553833	196.000000
843.587952	192.000000
843.622070	188.400000
843.656128	198.300000
843.690247	192.500000
843.724304	191.800000
843.758423	194.400000
843.792542	192.100000
843.826599	193.400000
843.860718	192.500000
843.894836	187.100000
843.928894	195.900000
843.963013	196.900000
843.997070	189.900000
844.031128	187.700000
844.065247	199.000000
844.099304	199.400000
844.133362	194.700000
844.167480	196.300000
844.201599	202.300000
844.235596	195.900000
844.269714	195.500000
844.303711	197.100000
844.337830	186.000000
844.371948	198.600000
844.405945	192.200000
844.440063	189.300000
844.474121	209.200000
844.508118	192.400000
844.542236	193.200000
844.576294	192.700000
844.610352	188.400000
844.644409	192.700000
844.678406	185.400000
844.712524	198.800000
844.746582	201.500000
844.780640	195.400000
844.814636	193.800000
844.848755	206.800000
844.882751	192.300000
844.916809	200.300000
844.950867	196.200000
844.984863	203.200000
845.018921	194.000000
845.052979	190.700000
845.086975	194.700000
845.121033	188.700000
845.155090	189.800000
845.189087	203.200000
845.223145	190.600000
845.257141	194.300000
845.291199	197.600000
845.325256	200.900000
845.359253	194.600000
845.393250	205.400000
845.427307	193.300000
845.461304	196.900000
845.495361	193.400000
845.529358	204.400000
845.563354	191.700000
845.597412	190.100000
845.631409	201.400000
845.665405	201.900000
845.699463	200.000000
845.733459	192.900000
845.767456	200.100000
845.801453	192.500000
845.835449	200.500000
845.869446	198.200000
845.903503	198.600000
845.937439	190.800000
845.971497	201.200000
846.005493	187.500000
846.039429	199.100000
846.073486	203.400000
846.107483	192.700000
846.141418	194.000000
846.175476	192.800000
846.209473	201.600000
846.243408	190.800000
846.277405	194.800000
846.311401	189.900000
846.345337	194.600000
846.379395	201.200000
846.413330	191.800000
846.447327	202.400000
846.481323	189.400000
846.515259	192.600000
846.549255	193.700000
846.583252	197.100000
846.617187	188.600000
846.651184	196.700000
846.685120	192.600000
846.719055	203.000000
846.753052	199.000000
846.786987	200.600000
846.820984	188.600000
846.854980	201.900000
846.888916	190.400000
846.922852	197.300000
846.956848	203.700000
846.990723	190.700000
847.024719	196.200000
847.058716	194.100000
847.092590	201.400000
847.126587	195.300000
847.160522	193.100000
847.194458	199.100000
847.228455	192.700000
847.262390	190.500000
847.296265	192.100000
847.330261	200.600000
847.364136	192.600000
847.398132	190.400000
847.432068	194.900000
847.466003	193.400000
847.499939	192.900000
847.533875	197.700000
847.567749	191.700000
847.601746	192.100000
847.635681	198.200000
847.669556	186.900000
847.703491	200.700000
847.737427	209.100000
847.771301	190.100000
847.805237	195.800000
847.839233	195.000000
847.873108	192.900000
847.907043	193.800000
847.940918	199.800000
847.974854	197.200000
848.008789	199.200000
848.042664	195.900000
848.076538	197.400000
848.110474	194.800000
848.144348	194.600000
848.178284	189.300000
848.212219	194.600000
848.246094	192.700000
848.279968	195.100000
848.313904	198.900000
848.347778	196.900000
848.381653	194.300000
848.415588	190.000000
848.449463	193.200000
848.483337	196.600000
848.517212	199.900000
848.551086	194.000000
848.585022	189.300000
848.618835	201.400000
848.652771	192.600000
848.686646	189.700000
848.720520	203.900000
848.754395	195.100000
848.788330	198.800000
848.822144	198.300000
848.856018	193.500000
848.889954	203.900000
848.923767	190.200000
848.957642	190.300000
848.991577	199.100000
849.025391	193.000000
849.059265	194.300000
849.093079	191.500000
849.126953	188.400000
849.160828	200.300000
849.194641	196.400000
849.228577	192.100000
849.262451	193.000000
849.296265	194.200000
849.330139	189.200000
849.364014	195.500000
849.397827	197.700000
849.431702	195.300000
849.465515	197.700000
849.499329	185.400000
849.533203	189.100000
849.567078	185.000000
849.600891	198.000000
849.634766	193.600000
849.668518	200.000000
849.702393	195.600000
849.736267	186.600000
849.770020	206.700000
849.803894	197.800000
849.837769	195.000000
849.871521	195.100000
849.905396	201.700000
849.939270	189.500000
849.973022	193.900000
850.006897	197.800000
850.040710	197.700000
850.074524	197.700000
850.108337	193.900000
850.142151	197.900000
850.175964	202.200000
850.209778	193.900000
850.243530	181.900000
850.277405	199.700000
850.311218	193.900000
850.344971	190.800000
850.378845	203.200000
850.412659	192.100000
850.446411	195.100000
850.480225	194.000000
850.514038	199.800000
850.547791	197.600000
850.581665	193.200000
850.615417	191.900000
850.649231	196.100000
850.683044	193.600000
850.716858	194.300000
850.750610	194.700000
850.784424	197.900000
850.818176	192.200000
850.851929	193.000000
850.885742	191.000000
850.919495	194.300000
850.953308	202.100000
850.987122	202.000000
851.020874	189.000000
851.054626	187.800000
851.088440	198.300000
851.122192	198.400000
851.156006	194.900000
851.189697	193.500000
851.223511	189.400000
851.257263	197.800000
851.291077	197.800000
851.324829	192.700000
851.358582	192.300000
851.392334	192.600000
851.426086	194.300000
851.459900	201.500000
851.493591	195.800000
851.527344	194.400000
851.561157	195.500000
851.594849	197.100000
851.628662	197.000000
851.662415	201.800000
851.696106	198.200000
851.729858	198.900000
851.763611	189.100000
851.797363	195.800000
851.831116	190.200000
851.864868	197.000000
851.898560	198.200000
851.932312	193.200000
851.966064	197.100000
851.999817	194.200000
852.033569	196.600000
852.067261	198.300000
852.101013	190.300000
852.134766	193.400000
852.168457	184.000000
852.202209	198.700000
852.235901	190.600000
852.269592	197.300000
852.303345	205.100000
852.337036	198.900000
852.370789	194.100000
852.404541	199.100000
852.438171	191.300000
852.471924	194.200000
852.505676	188.300000
852.539307	197.100000
852.573059	190.200000
852.606812	192.200000
852.640442	193.000000
852.674194	201.000000
852.707886	206.000000
852.741577	203.200000
852.775269	189.400000
852.809021	196.300000
852.842651	197.000000
852.876404	199.900000
852.910034	195.900000
852.943787	201.900000
852.977478	198.100000
853.011108	191.300000
853.044861	191.300000
853.078552	201.700000
853.112183	196.700000
853.145874	196.500000
853.179626	183.900000
853.213257	197.400000
853.246948	192.400000
853.280640	202.700000
853.314270	193.700000
853.347961	201.700000
853.381653	196.300000
853.415283	198.800000
853.448975	191.900000
853.482605	196.700000
853.516296	192.300000
853.549988	187.700000
853.583618	195.000000
853.617310	196.400000
853.651001	196.600000
853.684631	189.100000
853.718323	192.200000
853.751953	202.000000
853.785583	184.900000
853.819275	200.100000
853.852966	196.200000
853.886536	186.600000
853.920227	190.400000
853.953918	200.500000
853.987488	193.200000
854.021179	199.700000
854.054749	203.100000
854.088440	196.400000
854.122131	190.000000
854.155701	199.300000
854.189331	192.600000
854.223022	199.200000
854.256592	198.400000
854.290283	192.600000
854.323914	198.900000
854.357483	195.800000
854.391174	198.300000
854.424744	204.300000
854.458374	197.300000
854.492065	205.500000
854.525696	195.400000
854.559265	202.000000
854.592896	206.800000
854.626465	194.800000
854.660095	195.700000
854.693787	196.300000
854.727356	195.100000
854.760986	197.700000
854.794617	197.400000
854.828186	193.400000
854.861816	198.800000
854.895447	194.900000
854.929016	196.300000
854.962585	198.800000
854.996155	203.600000
855.029785	197.400000
855.063416	196.900000
855.097046	200.000000
855.130615	188.700000
855.164185	201.900000
855.197754	195.400000
855.231384	198.700000
855.264954	195.000000
855.298523	198.600000
855.332153	197.100000
855.365723	203.700000
855.399292	191.200000
855.432922	194.700000
855.466492	197.900000
855.500061	190.200000
855.533630	191.600000
855.567200	199.800000
855.600769	200.500000
855.634338	200.000000
855.667969	196.700000
855.701477	189.800000
855.735046	191.400000
855.768616	186.900000
855.802185	196.200000
855.835754	212.200000
855.869324	187.400000
855.902893	193.100000
855.936401	202.600000
855.969971	198.000000
856.003540	187.000000
856.037109	200.800000
856.070618	195.900000
856.104187	189.300000
856.137695	192.100000
856.171265	187.200000
856.204834	193.400000
856.238403	202.200000
856.271912	191.700000
856.305481	197.500000
856.338989	187.900000
856.372559	199.000000
856.406128	195.900000
856.439636	201.300000
856.473145	193.300000
856.506653	202.600000
856.540222	196.200000
856.573792	203.400000
856.607300	198.100000
856.640808	189.800000
856.674377	196.300000
856.707825	224.300000
856.741394	199.400000
856.774902	191.600000
856.808472	185.400000
856.841980	198.500000
856.875488	204.300000
856.908936	187.800000
856.942505	192.900000
856.976013	193.800000
857.009521	190.500000
857.043030	195.500000
857.076477	194.800000
857.110046	200.400000
857.143555	195.900000
857.177063	201.800000
857.210571	193.200000
857.244080	188.200000
857.277527	198.700000
857.311035	193.800000
857.344543	199.700000
857.378052	193.300000
857.411499	200.400000
857.445068	205.800000
857.478516	194.100000
857.512024	190.300000
857.545532	193.100000
857.578979	195.200000
857.612427	197.000000
857.645874	190.800000
857.679382	197.000000
857.712891	198.400000
857.746399	196.800000
857.779846	200.200000
857.813354	200.900000
857.846741	193.400000
857.880249	191.400000
857.913757	197.300000
857.947266	197.700000
857.980652	197.400000
858.014160	192.400000
858.047546	192.500000
858.081055	192.500000
858.114563	202.500000
858.147949	190.300000
858.181458	199.000000
858.214844	194.500000
858.248352	185.700000
858.281799	199.900000
858.315308	208.700000
858.348694	197.300000
858.382141	203.200000
858.415588	198.600000
858.449036	202.000000
858.482483	198.500000
858.515930	192.600000
858.549377	195.700000
858.582825	203.500000
858.616211	198.000000
858.649658	198.100000
858.683105	190.800000
858.716553	189.900000
858.750000	190.100000
858.783386	193.200000
858.816833	187.700000
858.850281	198.400000
858.883728	197.700000
858.917114	196.100000
858.950562	203.400000
858.983948	204.900000
859.017395	199.600000
859.050781	193.100000
859.084167	189.800000
859.117615	188.300000
859.151062	198.500000
859.184448	192.700000
859.217834	192.500000
859.251282	193.900000
859.284668	191.100000
859.318054	186.600000
859.351440	193.200000
859.384888	204.400000
859.418274	186.500000
859.451721	187.700000
859.485046	195.900000
859.518494	197.000000
859.551819	190.700000
859.585266	196.800000
859.618652	196.700000
859.652039	188.800000
859.685425	189.900000
859.718811	188.400000
859.752197	183.200000
859.785583	201.900000
859.819031	203.700000
859.852356	197.300000
859.885742	191.600000
859.919067	193.600000
859.952454	192.700000
859.985901	199.900000
860.019287	191.900000
860.052612	0.000000
860.085999	0.000000
860.119324	0.000000
860.152710	0.000000
860.186096	0.000000
860.219421	0.000000
860.252808	0.000000
860.286133	0.000000
860.319519	0.000000
860.352905	0.000000
860.386292	0.000000
860.419617	0.000000
860.452942	0.000000
860.486267	0.000000
860.519653	0.000000
860.553040	0.000000
860.586365	0.000000
860.619690	0.000000
860.653076	0.000000
860.686340	0.000000
860.719727	0.000000
860.753113	0.000000
860.786377	0.000000
860.819763	0.000000
860.853027	0.000000
860.886414	0.000000
860.919739	0.000000
860.953125	0.000000
860.986389	0.000000
861.019714	0.000000
861.053040	0.000000
861.086365	0.000000
861.119690	0.000000
861.153076	0.000000
861.186340	0.000000
861.219666	0.000000
861.252930	0.000000
861.286316	0.000000
861.319641	0.000000
861.352905	0.000000
861.386230	0.000000
861.419495	0.000000
861.452820	0.000000
861.486145	0.000000
861.519470	0.000000
861.552734	0.000000
861.586060	0.000000
861.619324	0.000000
861.652649	0.000000
861.685974	0.000000
861.719238	0.000000
861.752563	0.000000
861.785828	0.000000
861.819092	0.000000
861.852417	0.000000
861.885742	0.000000
861.918945	0.000000
861.952271	0.000000
861.985535	0.000000
862.018799	0.000000
862.052124	0.000000
862.085449	0.000000
862.118652	0.000000
862.151978	0.000000
862.185181	0.000000
862.218506	0.000000
862.251770	0.000000
862.285034	0.000000
862.318298	0.000000
862.351562	0.000000
862.384827	0.000000
862.418091	0.000000
862.451355	0.000000
862.484619	0.000000
862.517883	0.000000
862.551086	0.000000
862.584351	0.000000
862.617676	0.000000
862.650940	0.000000
862.684143	0.000000
862.717407	0.000000
862.750610	0.000000
862.783875	0.000000
862.817139	0.000000
862.850342	0.000000
862.883606	0.000000
862.916870	0.000000
862.950073	0.000000
862.983337	0.000000
863.016602	0.000000
863.049805	0.000000
863.083069	0.000000
863.116211	0.000000
863.149475	0.000000
863.182739	0.000000
863.216003	0.000000
863.249146	0.000000
863.282410	0.000000
863.315613	0.000000
863.348816	0.000000
863.382080	0.000000
863.415222	0.000000
863.448486	0.000000
863.481689	0.000000
863.514893	0.000000
863.548157	0.000000
863.581360	0.000000
863.614502	0.000000
863.647766	0.000000
863.680908	0.000000
863.714172	0.000000
863.747375	0.000000
863.780579	0.000000
863.813721	0.000000
863.846985	0.000000
863.880127	0.000000
863.913330	0.000000
863.946533	0.000000
863.979675	0.000000
864.012939	0.000000
