Model Number: SPM-001-M   
Serial Number: 10090201
Firmware Version: 004.17.6
Exposure Time: 500000.000000us
Data Taken on: 10-03-2021 11:48:57.471
Wavelength	Amplitude
733.770752	0.000000
733.808716	0.000000
733.846619	0.000000
733.884583	0.000000
733.922546	0.000000
733.960449	0.000000
733.998413	0.000000
734.036377	0.000000
734.074219	0.000000
734.112183	0.000000
734.150085	0.000000
734.188049	0.000000
734.226013	0.000000
734.263916	0.000000
734.301819	0.000000
734.339783	0.000000
734.377686	0.000000
734.415588	0.000000
734.453552	0.000000
734.491455	0.000000
734.529419	0.000000
734.567322	0.000000
734.605225	0.000000
734.643127	0.000000
734.681091	0.000000
734.718994	0.000000
734.756897	0.000000
734.794800	0.000000
734.832703	0.000000
734.870667	0.000000
734.908508	0.000000
734.946472	0.000000
734.984375	0.000000
735.022278	0.000000
735.060181	0.000000
735.098083	0.000000
735.135986	0.000000
735.173889	0.000000
735.211792	0.000000
735.249695	0.000000
735.287598	0.000000
735.325439	0.000000
735.363403	0.000000
735.401306	0.000000
735.439148	0.000000
735.477051	0.000000
735.515015	0.000000
735.552856	0.000000
735.590759	0.000000
735.628662	0.000000
735.666504	0.000000
735.704407	0.000000
735.742310	0.000000
735.780212	0.000000
735.818115	0.000000
735.856018	0.000000
735.893860	0.000000
735.931763	0.000000
735.969604	0.000000
736.007507	0.000000
736.045410	0.000000
736.083252	0.000000
736.121094	0.000000
736.158997	0.000000
736.196838	0.000000
736.234741	0.000000
736.272644	0.000000
736.310486	0.000000
736.348389	0.000000
736.386230	0.000000
736.424072	0.000000
736.461975	0.000000
736.499878	0.000000
736.537720	0.000000
736.575562	0.000000
736.613403	0.000000
736.651306	0.000000
736.689148	0.000000
736.726990	0.000000
736.764893	0.000000
736.802734	0.000000
736.840576	0.000000
736.878418	0.000000
736.916321	0.000000
736.954102	0.000000
736.992004	0.000000
737.029846	0.000000
737.067688	0.000000
737.105530	0.000000
737.143372	0.000000
737.181213	0.000000
737.219116	0.000000
737.256897	0.000000
737.294739	0.000000
737.332642	0.000000
737.370422	0.000000
737.408325	0.000000
737.446167	0.000000
737.483948	0.000000
737.521790	0.000000
737.559692	0.000000
737.597473	0.000000
737.635315	0.000000
737.673157	0.000000
737.710999	0.000000
737.748840	0.000000
737.786621	0.000000
737.824463	0.000000
737.862305	0.000000
737.900085	0.000000
737.937927	0.000000
737.975769	0.000000
738.013550	0.000000
738.051392	0.000000
738.089233	0.000000
738.127014	0.000000
738.164856	0.000000
738.202698	0.000000
738.240479	0.000000
738.278320	0.000000
738.316162	0.000000
738.353943	0.000000
738.391785	0.000000
738.429565	0.000000
738.467407	0.000000
738.505188	0.000000
738.542969	0.000000
738.580811	0.000000
738.618652	0.000000
738.656372	0.000000
738.694214	0.000000
738.732056	0.000000
738.769836	0.000000
738.807617	0.000000
738.845459	0.000000
738.883240	0.000000
738.921021	0.000000
738.958862	0.000000
738.996582	0.000000
739.034424	0.000000
739.072205	0.000000
739.109985	0.000000
739.147827	0.000000
739.185547	0.000000
739.223389	0.000000
739.261169	0.000000
739.298889	0.000000
739.336731	0.000000
739.374512	0.000000
739.412292	0.000000
739.450073	0.000000
739.487854	0.000000
739.525635	0.000000
739.563416	0.000000
739.601135	0.000000
739.638977	0.000000
739.676758	0.000000
739.714478	0.000000
739.752258	0.000000
739.790100	0.000000
739.827820	0.000000
739.865601	0.000000
739.903381	0.000000
739.941101	0.000000
739.978882	196.800000
740.016724	193.300000
740.054443	199.400000
740.092224	190.700000
740.130005	190.100000
740.167725	190.700000
740.205505	191.000000
740.243225	200.600000
740.281006	195.900000
740.318787	187.400000
740.356506	200.100000
740.394287	198.800000
740.432068	189.700000
740.469727	186.700000
740.507507	198.800000
740.545288	193.700000
740.583008	195.700000
740.620789	195.200000
740.658569	186.500000
740.696228	193.000000
740.734009	199.800000
740.771790	180.800000
740.809509	198.800000
740.847229	189.200000
740.884949	192.000000
740.922729	185.700000
740.960449	191.900000
740.998169	186.900000
741.035950	190.300000
741.073669	195.300000
741.111389	193.200000
741.149170	203.600000
741.186890	203.800000
741.224609	197.400000
741.262329	194.500000
741.300110	203.300000
741.337769	188.200000
741.375549	186.500000
741.413208	195.400000
741.450989	188.400000
741.488708	190.400000
741.526367	192.800000
741.564148	197.300000
741.601868	198.100000
741.639526	193.400000
741.677307	194.900000
741.715027	196.300000
741.752686	190.400000
741.790466	202.400000
741.828186	196.000000
741.865845	189.000000
741.903564	185.800000
741.941345	193.100000
741.979004	190.200000
742.016724	196.200000
742.054382	196.400000
742.092102	200.200000
742.129822	187.500000
742.167480	192.000000
742.205200	193.200000
742.242920	195.100000
742.280640	199.100000
742.318359	189.400000
742.356079	190.100000
742.393738	197.600000
742.431396	193.900000
742.469116	197.600000
742.506775	183.700000
742.544495	195.000000
742.582214	197.900000
742.619873	192.400000
742.657593	201.400000
742.695251	197.000000
742.732971	193.900000
742.770630	194.900000
742.808289	194.500000
742.846008	193.000000
742.883728	196.800000
742.921326	193.600000
742.959045	190.000000
742.996765	194.300000
743.034424	193.500000
743.072083	191.300000
743.109802	192.200000
743.147400	186.200000
743.185120	194.700000
743.222839	192.500000
743.260437	197.800000
743.298157	194.400000
743.335754	186.000000
743.373474	191.400000
743.411133	185.900000
743.448792	194.100000
743.486450	192.900000
743.524170	185.600000
743.561768	193.800000
743.599487	200.300000
743.637146	205.100000
743.674744	194.800000
743.712463	191.400000
743.750122	195.900000
743.787720	196.300000
743.825439	190.300000
743.863037	189.800000
743.900696	193.200000
743.938416	218.800000
743.976013	194.200000
744.013672	202.600000
744.051331	200.000000
744.088928	202.500000
744.126587	200.500000
744.164307	193.900000
744.201904	191.400000
744.239563	195.600000
744.277222	195.600000
744.314819	192.900000
744.352478	201.300000
744.390137	194.400000
744.427734	196.900000
744.465393	192.000000
744.502991	189.600000
744.540649	197.200000
744.578308	194.500000
744.615906	187.800000
744.653564	183.300000
744.691223	197.900000
744.728821	186.600000
744.766418	193.500000
744.804077	195.500000
744.841675	189.600000
744.879333	186.600000
744.916992	192.100000
744.954529	190.800000
744.992187	199.400000
745.029785	191.000000
745.067444	189.300000
745.105042	193.600000
745.142639	195.400000
745.180298	202.900000
745.217896	193.400000
745.255493	192.100000
745.293152	198.500000
745.330750	197.400000
745.368347	202.200000
745.405945	196.600000
745.443604	195.000000
745.481140	198.300000
745.518799	193.400000
745.556396	198.500000
745.593994	199.700000
745.631592	193.200000
745.669189	189.300000
745.706787	196.200000
745.744385	191.300000
745.781982	196.600000
745.819580	190.200000
745.857178	193.100000
745.894775	194.900000
745.932373	194.500000
745.969971	195.200000
746.007568	184.700000
746.045166	203.700000
746.082764	199.800000
746.120300	196.600000
746.157898	197.400000
746.195557	194.600000
746.233093	187.900000
746.270691	195.700000
746.308228	195.300000
746.345825	198.900000
746.383423	198.500000
746.420959	188.600000
746.458557	191.700000
746.496155	191.700000
746.533691	192.800000
746.571289	189.100000
746.608887	194.400000
746.646423	194.900000
746.684021	196.300000
746.721619	190.600000
746.759155	194.800000
746.796753	186.700000
746.834351	187.800000
746.871826	189.100000
746.909424	201.100000
746.946960	196.100000
746.984558	192.300000
747.022156	192.000000
747.059631	200.900000
747.097229	194.400000
747.134827	192.200000
747.172363	202.500000
747.209900	194.200000
747.247498	189.200000
747.285034	201.000000
747.322571	201.000000
747.360168	193.500000
747.397644	187.300000
747.435242	197.800000
747.472778	201.000000
747.510315	191.400000
747.547913	191.000000
747.585388	201.600000
747.622925	193.400000
747.660522	185.000000
747.697998	189.100000
747.735596	193.100000
747.773132	190.500000
747.810669	193.900000
747.848206	197.200000
747.885742	188.600000
747.923279	188.300000
747.960815	196.300000
747.998352	194.600000
748.035889	198.000000
748.073425	198.300000
748.110901	191.500000
748.148437	188.900000
748.185974	194.600000
748.223511	203.800000
748.261047	194.700000
748.298584	195.200000
748.336060	193.600000
748.373596	196.500000
748.411133	210.800000
748.448608	189.900000
748.486145	197.800000
748.523682	202.600000
748.561218	199.000000
748.598755	195.000000
748.636292	198.400000
748.673706	191.100000
748.711243	200.400000
748.748718	197.200000
748.786255	194.600000
748.823792	193.000000
748.861267	189.800000
748.898804	195.900000
748.936340	196.500000
748.973816	192.900000
749.011292	200.100000
749.048828	196.800000
749.086304	198.300000
749.123840	207.500000
749.161316	189.800000
749.198792	204.600000
749.236328	200.700000
749.273743	195.100000
749.311279	192.400000
749.348816	198.100000
749.386230	194.800000
749.423767	183.600000
749.461304	197.600000
749.498718	195.400000
749.536255	201.400000
749.573730	206.900000
749.611206	200.100000
749.648682	193.300000
749.686218	195.500000
749.723633	199.600000
749.761169	191.800000
749.798645	191.100000
749.836060	194.300000
749.873596	189.300000
749.911011	193.900000
749.948547	201.000000
749.986023	193.700000
750.023437	193.400000
750.060913	186.600000
750.098450	188.500000
750.135864	192.500000
750.173340	194.800000
750.210815	199.500000
750.248291	188.600000
750.285767	194.100000
750.323242	201.700000
750.360657	196.200000
750.398132	189.200000
750.435608	198.300000
750.473022	189.000000
750.510498	189.200000
750.547974	189.600000
750.585449	192.600000
750.622925	183.500000
750.660339	204.100000
750.697815	194.300000
750.735291	194.300000
750.772644	195.200000
750.810120	193.500000
750.847595	196.500000
750.885010	190.000000
750.922485	203.700000
750.959961	193.500000
750.997375	201.900000
751.034851	200.100000
751.072266	199.000000
751.109680	187.700000
751.147156	200.300000
751.184570	197.300000
751.221985	194.700000
751.259460	185.300000
751.296875	194.300000
751.334290	194.400000
751.371765	199.800000
751.409180	197.700000
751.446594	200.400000
751.484070	195.400000
751.521423	198.000000
751.558899	196.300000
751.596375	201.700000
751.633728	202.000000
751.671204	207.500000
751.708618	189.600000
751.746033	195.300000
751.783447	187.500000
751.820801	190.700000
751.858276	197.100000
751.895691	194.600000
751.933105	191.200000
751.970520	190.000000
752.007935	192.600000
752.045349	197.400000
752.082764	193.800000
752.120178	192.000000
752.157532	189.300000
752.195007	192.600000
752.232422	198.400000
752.269775	199.600000
752.307190	195.900000
752.344543	190.700000
752.382019	193.600000
752.419434	194.000000
752.456787	196.300000
752.494202	199.600000
752.531616	195.700000
752.568970	199.700000
752.606384	196.200000
752.643799	197.900000
752.681152	203.100000
752.718567	197.700000
752.755981	186.200000
752.793335	197.100000
752.830750	186.200000
752.868164	201.800000
752.905518	189.300000
752.942932	198.900000
752.980225	190.100000
753.017639	199.800000
753.055054	192.400000
753.092407	199.200000
753.129822	202.000000
753.167175	204.700000
753.204529	192.900000
753.241943	190.900000
753.279358	188.000000
753.316650	199.900000
753.354065	197.300000
753.391479	199.600000
753.428772	204.600000
753.466187	199.600000
753.503479	188.500000
753.540894	193.200000
753.578308	189.200000
753.615601	187.400000
753.653015	193.600000
753.690369	192.100000
753.727722	189.600000
753.765076	187.100000
753.802490	189.000000
753.839783	185.600000
753.877136	191.900000
753.914551	209.600000
753.951843	190.500000
753.989258	198.600000
754.026611	196.300000
754.063904	195.800000
754.101257	189.300000
754.138611	187.600000
754.175964	196.000000
754.213318	205.400000
754.250610	187.900000
754.288025	190.800000
754.325378	190.800000
754.362671	200.000000
754.400024	193.200000
754.437378	203.300000
754.474670	205.500000
754.512085	190.100000
754.549438	195.400000
754.586731	192.300000
754.624084	194.200000
754.661438	189.800000
754.698730	203.300000
754.736084	193.700000
754.773376	192.600000
754.810730	198.000000
754.848083	193.300000
754.885315	199.400000
754.922668	187.200000
754.960022	189.700000
754.997314	200.400000
755.034668	195.700000
755.072021	196.900000
755.109253	193.100000
755.146606	202.500000
755.183960	193.500000
755.221252	205.000000
755.258545	201.300000
755.295898	201.400000
755.333191	202.300000
755.370544	198.900000
755.407776	195.700000
755.445129	197.200000
755.482422	201.300000
755.519714	193.300000
755.557068	189.200000
755.594360	188.300000
755.631653	201.700000
755.668945	207.300000
755.706299	199.600000
755.743530	209.200000
755.780884	205.700000
755.818176	203.900000
755.855408	203.400000
755.892761	200.700000
755.930054	200.500000
755.967346	200.500000
756.004639	203.100000
756.041870	198.600000
756.079224	206.000000
756.116516	196.100000
756.153748	203.700000
756.191040	208.400000
756.228394	203.000000
756.265625	194.500000
756.302917	200.400000
756.340210	196.900000
756.377441	206.200000
756.414795	206.700000
756.452087	201.800000
756.489319	193.500000
756.526611	204.600000
756.563843	201.700000
756.601135	212.600000
756.638428	210.100000
756.675659	200.800000
756.712952	205.800000
756.750244	206.100000
756.787476	201.900000
756.824768	209.100000
756.862061	199.900000
756.899292	249.400000
756.936584	206.600000
756.973816	214.000000
757.011047	216.000000
757.048340	204.200000
757.085632	203.200000
757.122864	218.400000
757.160156	201.500000
757.197327	207.700000
757.234619	209.800000
757.271912	203.600000
757.309082	209.300000
757.346375	201.200000
757.383667	212.300000
757.420837	205.200000
757.458130	207.100000
757.495422	204.600000
757.532593	207.100000
757.569885	198.800000
757.607117	203.000000
757.644348	208.800000
757.681580	220.200000
757.718811	194.400000
757.756042	206.700000
757.793335	203.500000
757.830505	210.500000
757.867798	204.000000
757.905029	204.400000
757.942200	209.700000
757.979492	204.200000
758.016724	207.100000
758.053894	206.700000
758.091187	225.300000
758.128418	209.200000
758.165588	206.300000
758.202820	221.300000
758.240112	209.500000
758.277283	220.000000
758.314514	210.100000
758.351685	206.800000
758.388916	219.100000
758.426147	217.500000
758.463379	219.600000
758.500610	213.800000
758.537842	211.800000
758.575012	218.800000
758.612244	206.100000
758.649475	224.400000
758.686646	203.600000
758.723877	217.900000
758.761108	220.000000
758.798279	211.600000
758.835510	214.700000
758.872742	219.400000
758.909851	216.100000
758.947083	215.000000
758.984253	215.700000
759.021484	220.000000
759.058716	216.800000
759.095886	217.100000
759.133057	213.800000
759.170288	218.300000
759.207458	210.700000
759.244690	226.200000
759.281860	226.400000
759.319031	215.300000
759.356262	212.800000
759.393433	214.000000
759.430603	214.200000
759.467773	215.000000
759.505005	223.700000
759.542175	220.900000
759.579346	214.400000
759.616516	215.600000
759.653687	220.000000
759.690918	213.300000
759.728027	218.000000
759.765259	217.600000
759.802429	221.400000
759.839539	220.500000
759.876770	225.100000
759.913940	228.400000
759.951111	220.500000
759.988281	218.600000
760.025452	215.600000
760.062561	215.000000
760.099792	228.800000
760.136963	222.100000
760.174072	217.200000
760.211243	213.200000
760.248413	216.500000
760.285583	215.100000
760.322754	232.200000
760.359863	226.700000
760.397034	227.000000
760.434204	219.100000
760.471375	220.900000
760.508545	218.200000
760.545715	219.300000
760.582825	216.200000
760.619995	226.200000
760.657166	215.300000
760.694275	227.300000
760.731445	224.000000
760.768555	224.300000
760.805664	225.400000
760.842834	224.700000
760.879944	225.700000
760.917114	224.600000
760.954285	222.900000
760.991394	216.200000
761.028564	229.800000
761.065674	227.100000
761.102783	221.400000
761.139954	231.400000
761.177124	232.400000
761.214172	232.000000
761.251343	225.400000
761.288452	227.600000
761.325562	232.300000
761.362732	225.000000
761.399841	229.500000
761.436951	232.100000
761.474121	226.700000
761.511169	231.100000
761.548340	236.900000
761.585449	233.700000
761.622559	235.700000
761.659668	232.100000
761.696838	240.800000
761.733887	235.300000
761.771057	233.200000
761.808167	235.900000
761.845276	240.900000
761.882385	247.400000
761.919434	236.200000
761.956604	257.200000
761.993713	235.200000
762.030762	245.100000
762.067871	237.700000
762.105042	236.900000
762.142090	246.000000
762.179199	241.400000
762.216309	246.100000
762.253418	257.100000
762.290527	250.700000
762.327637	249.400000
762.364685	237.400000
762.401794	248.100000
762.438904	245.000000
762.475952	240.800000
762.513062	239.300000
762.550110	239.100000
762.587219	255.800000
762.624329	256.000000
762.661377	250.000000
762.698486	250.400000
762.735596	247.400000
762.772644	243.100000
762.809753	240.200000
762.846863	248.000000
762.883911	251.300000
762.921021	254.100000
762.958069	249.500000
762.995117	259.500000
763.032227	258.400000
763.069336	250.700000
763.106323	246.100000
763.143433	245.600000
763.180481	252.900000
763.217590	255.300000
763.254639	250.500000
763.291687	251.900000
763.328735	261.900000
763.365845	254.000000
763.402893	253.100000
763.439941	257.100000
763.477051	258.200000
763.514038	260.800000
763.551147	253.600000
763.588196	257.600000
763.625244	257.700000
763.662292	266.700000
763.699402	267.400000
763.736389	263.800000
763.773499	272.700000
763.810486	265.000000
763.847534	259.900000
763.884644	265.400000
763.921631	259.700000
763.958679	273.600000
763.995728	263.000000
764.032776	272.200000
764.069824	258.300000
764.106873	267.600000
764.143860	275.700000
764.180969	266.700000
764.218018	277.000000
764.255005	267.500000
764.292053	270.100000
764.329102	280.000000
764.366089	280.800000
764.403137	277.800000
764.440125	267.800000
764.477173	272.200000
764.514221	274.700000
764.551208	272.400000
764.588257	269.100000
764.625305	280.500000
764.662292	286.800000
764.699341	289.600000
764.736389	281.100000
764.773376	297.400000
764.810425	285.200000
764.847473	292.900000
764.884399	286.600000
764.921448	292.300000
764.958435	293.300000
764.995483	280.100000
765.032532	296.900000
765.069458	284.000000
765.106506	284.900000
765.143555	282.500000
765.180481	290.800000
765.217529	297.400000
765.254578	282.500000
765.291504	291.700000
765.328552	287.800000
765.365540	283.800000
765.402527	301.300000
765.439575	284.500000
765.476501	281.700000
765.513550	282.800000
765.550537	288.600000
765.587463	295.000000
765.624512	288.000000
765.661499	281.200000
765.698486	299.400000
765.735474	288.800000
765.772461	289.300000
765.809448	299.700000
765.846436	296.600000
765.883423	301.300000
765.920410	293.300000
765.957397	290.700000
765.994385	296.200000
766.031311	304.100000
766.068359	297.000000
766.105286	299.400000
766.142273	306.500000
766.179260	302.400000
766.216187	294.700000
766.253174	292.700000
766.290161	301.000000
766.327148	305.700000
766.364136	303.100000
766.401123	324.000000
766.438049	298.600000
766.475037	314.700000
766.512024	311.300000
766.548950	327.700000
766.585937	320.800000
766.622864	319.100000
766.659790	315.700000
766.696777	305.900000
766.733704	320.700000
766.770691	314.600000
766.807678	328.800000
766.844604	324.500000
766.881531	322.000000
766.918518	330.400000
766.955444	333.500000
766.992432	326.100000
767.029358	328.600000
767.066284	331.200000
767.103271	328.900000
767.140198	359.700000
767.177124	344.300000
767.214050	335.500000
767.251038	338.800000
767.287964	336.200000
767.324890	336.200000
767.361816	339.400000
767.398743	345.600000
767.435730	340.700000
767.472595	345.500000
767.509583	350.500000
767.546509	343.300000
767.583374	347.900000
767.620361	338.700000
767.657288	344.800000
767.694214	345.700000
767.731140	343.500000
767.768066	347.100000
767.804993	352.400000
767.841919	345.000000
767.878845	354.100000
767.915710	361.200000
767.952698	354.300000
767.989563	356.400000
768.026489	357.400000
768.063416	352.800000
768.100281	353.400000
768.137207	368.000000
768.174133	364.900000
768.211060	364.600000
768.247986	364.100000
768.284912	367.100000
768.321777	367.000000
768.358704	364.400000
768.395630	370.400000
768.432495	364.300000
768.469421	371.800000
768.506348	376.100000
768.543152	382.100000
768.580078	379.400000
768.616943	383.500000
768.653870	384.400000
768.690796	382.700000
768.727661	381.600000
768.764587	382.700000
768.801453	376.700000
768.838318	390.200000
768.875244	389.300000
768.912109	393.400000
768.948975	384.200000
768.985901	390.200000
769.022766	391.000000
769.059631	397.000000
769.096558	392.400000
769.133362	391.300000
769.170288	392.300000
769.207214	394.400000
769.244019	400.800000
769.280945	399.600000
769.317810	407.000000
769.354675	402.400000
769.391541	413.300000
769.428406	407.300000
769.465271	420.400000
769.502136	407.400000
769.539062	410.200000
769.575867	411.200000
769.612732	414.300000
769.649597	420.000000
769.686462	423.700000
769.723328	418.400000
769.760193	416.500000
769.797058	419.000000
769.833923	431.500000
769.870728	424.400000
769.907593	428.200000
769.944519	427.600000
769.981323	431.800000
770.018188	434.000000
770.055054	428.800000
770.091858	427.700000
770.128723	441.700000
770.165588	449.300000
770.202393	430.600000
770.239258	445.500000
770.276062	441.100000
770.312927	441.200000
770.349792	447.400000
770.386597	445.100000
770.423462	452.700000
770.460327	462.900000
770.497131	445.300000
770.533997	439.100000
770.570862	458.200000
770.607605	457.000000
770.644470	452.400000
770.681335	454.200000
770.718140	452.200000
770.754944	445.200000
770.791809	447.400000
770.828613	447.500000
770.865479	449.300000
770.902222	461.100000
770.939087	452.500000
770.975952	445.600000
771.012695	449.300000
771.049561	469.400000
771.086365	456.400000
771.123169	452.600000
771.159973	459.800000
771.196838	455.700000
771.233582	459.800000
771.270447	458.500000
771.307251	462.700000
771.344055	459.200000
771.380859	466.900000
771.417664	459.700000
771.454468	468.100000
771.491272	468.100000
771.528076	468.500000
771.564880	469.800000
771.601685	478.300000
771.638428	466.900000
771.675293	477.300000
771.712097	467.700000
771.748840	487.400000
771.785645	473.800000
771.822449	482.000000
771.859253	479.700000
771.896057	478.500000
771.932861	494.600000
771.969604	482.500000
772.006409	474.100000
772.043213	494.000000
772.079956	489.000000
772.116760	479.200000
772.153503	485.500000
772.190308	497.600000
772.227112	487.500000
772.263855	484.800000
772.300659	491.800000
772.337463	503.600000
772.374207	492.000000
772.411011	485.900000
772.447754	493.400000
772.484497	515.600000
772.521301	504.000000
772.558105	500.700000
772.594849	505.500000
772.631592	510.300000
772.668396	511.100000
772.705139	518.000000
772.741882	521.200000
772.778625	531.400000
772.815430	532.900000
772.852173	525.400000
772.888916	536.400000
772.925720	540.100000
772.962463	547.800000
772.999207	543.900000
773.035950	550.100000
773.072754	547.400000
773.109436	545.200000
773.146240	546.500000
773.182922	545.100000
773.219727	558.700000
773.256470	554.000000
773.293152	538.800000
773.329956	549.000000
773.366699	555.300000
773.403381	544.300000
773.440186	555.300000
773.476929	558.100000
773.513611	551.300000
773.550354	556.600000
773.587158	559.900000
773.623840	557.500000
773.660583	568.400000
773.697327	585.300000
773.734009	570.400000
773.770813	568.900000
773.807495	569.800000
773.844238	575.600000
773.880981	596.100000
773.917664	590.700000
773.954407	589.200000
773.991150	579.900000
774.027832	586.300000
774.064575	581.600000
774.101318	592.900000
774.138000	599.600000
774.174744	593.800000
774.211487	600.100000
774.248108	588.700000
774.284851	586.000000
774.321594	599.900000
774.358276	606.300000
774.395020	615.100000
774.431702	610.600000
774.468384	605.500000
774.505127	603.600000
774.541809	621.500000
774.578491	631.300000
774.615234	631.200000
774.651917	624.700000
774.688599	627.500000
774.725342	637.200000
774.762024	636.900000
774.798706	639.800000
774.835449	645.800000
774.872070	652.000000
774.908813	646.600000
774.945496	645.100000
774.982178	643.300000
775.018860	651.600000
775.055542	652.000000
775.092224	651.600000
775.128967	662.200000
775.165588	655.600000
775.202271	647.100000
775.239014	665.300000
775.275635	670.100000
775.312317	663.000000
775.349060	666.600000
775.385681	667.600000
775.422363	659.100000
775.459045	671.400000
775.495667	672.300000
775.532410	677.100000
775.569092	678.200000
775.605713	676.600000
775.642395	675.400000
775.679016	682.700000
775.715698	684.100000
775.752380	689.300000
775.789001	682.600000
775.825684	681.200000
775.862366	682.900000
775.898987	693.600000
775.935669	683.100000
775.972351	711.300000
776.008972	705.800000
776.045654	702.300000
776.082336	698.900000
776.118958	698.100000
776.155640	699.600000
776.192322	711.000000
776.228882	713.000000
776.265564	711.000000
776.302185	704.600000
776.338867	711.400000
776.375488	700.300000
776.412109	718.600000
776.448792	722.400000
776.485413	723.100000
776.522034	712.100000
776.558716	708.000000
776.595337	710.400000
776.631958	719.100000
776.668579	718.400000
776.705261	720.400000
776.741882	715.200000
776.778503	713.100000
776.815186	709.000000
776.851746	724.600000
776.888367	720.200000
776.924988	732.200000
776.961609	718.500000
776.998291	719.400000
777.034851	710.800000
777.071472	727.700000
777.108154	725.700000
777.144714	736.600000
777.181335	735.800000
777.218018	723.800000
777.254578	727.900000
777.291199	731.100000
777.327759	746.100000
777.364380	750.100000
777.401062	755.400000
777.437622	767.100000
777.474243	752.200000
777.510864	764.200000
777.547424	755.100000
777.584045	762.400000
777.620667	764.100000
777.657227	773.300000
777.693848	769.500000
777.730469	786.600000
777.767029	774.600000
777.803650	779.500000
777.840271	772.100000
777.876831	771.500000
777.913452	782.000000
777.950012	763.900000
777.986633	768.000000
778.023193	765.300000
778.059753	767.800000
778.096375	767.900000
778.132996	782.900000
778.169556	766.700000
778.206116	769.300000
778.242737	769.200000
778.279297	785.900000
778.315857	770.700000
778.352478	784.100000
778.389038	795.400000
778.425598	799.600000
778.462219	806.700000
778.498718	804.400000
778.535339	813.400000
778.571838	813.500000
778.608459	820.700000
778.645020	815.000000
778.681580	824.600000
778.718140	831.800000
778.754761	824.000000
778.791260	833.600000
778.827881	846.100000
778.864441	837.000000
778.900940	844.000000
778.937561	840.200000
778.974121	838.700000
779.010620	823.400000
779.047241	832.300000
779.083801	850.300000
779.120300	850.800000
779.156860	853.000000
779.193359	848.300000
779.229980	853.400000
779.266541	864.100000
779.303040	867.000000
779.339600	861.100000
779.376160	853.700000
779.412659	859.800000
779.449219	854.400000
779.485779	865.500000
779.522278	871.900000
779.558838	873.800000
779.595398	873.900000
779.631897	874.100000
779.668457	867.600000
779.705017	877.200000
779.741516	872.200000
779.778076	865.000000
779.814575	878.200000
779.851074	886.600000
779.887634	884.200000
779.924133	886.700000
779.960693	872.400000
779.997253	884.600000
780.033691	894.100000
780.070251	895.700000
780.106812	903.000000
780.143250	906.400000
780.179810	905.100000
780.216370	908.700000
780.252808	918.300000
780.289368	932.800000
780.325867	929.000000
780.362366	925.800000
780.398865	941.100000
780.435364	927.800000
780.471863	946.000000
780.508423	942.700000
780.544861	960.200000
780.581421	964.100000
780.617920	949.500000
780.654419	945.600000
780.690918	954.400000
780.727417	961.800000
780.763916	956.500000
780.800415	967.800000
780.836914	951.700000
780.873352	960.300000
780.909912	947.200000
780.946411	955.200000
780.982849	966.100000
781.019348	986.200000
781.055786	978.700000
781.092346	976.600000
781.128845	984.900000
781.165283	986.400000
781.201782	995.700000
781.238281	1001.000000
781.274719	1011.100000
781.311218	998.600000
781.347717	1008.100000
781.384155	994.300000
781.420654	995.700000
781.457092	1011.400000
781.493591	1010.400000
781.530090	997.800000
781.566528	1007.200000
781.602966	1007.900000
781.639465	1001.100000
781.675903	996.700000
781.712402	1014.600000
781.748901	1020.200000
781.785278	1011.700000
781.821777	1018.100000
781.858276	1012.300000
781.894714	1029.700000
781.931152	1019.900000
781.967651	1027.300000
782.004089	1015.000000
782.040527	1024.200000
782.076965	1026.600000
782.113403	1029.400000
782.149902	1035.300000
782.186340	1027.100000
782.222778	1043.800000
782.259277	1025.700000
782.295654	1022.900000
782.332092	1031.700000
782.368591	1024.300000
782.404968	1013.700000
782.441467	1022.800000
782.477905	1027.000000
782.514282	1020.000000
782.550781	1039.400000
782.587219	1040.000000
782.623596	1043.700000
782.660095	1045.600000
782.696472	1051.600000
782.732910	1055.700000
782.769348	1062.100000
782.805786	1080.300000
782.842224	1072.000000
782.878662	1062.800000
782.915039	1061.300000
782.951477	1055.700000
782.987915	1054.900000
783.024292	1069.700000
783.060730	1063.900000
783.097168	1048.200000
783.133545	1041.000000
783.169983	1037.200000
783.206421	1034.600000
783.242798	1035.100000
783.279236	1027.200000
783.315613	1019.500000
783.352051	1020.800000
783.388489	1003.500000
783.424866	990.700000
783.461304	999.400000
783.497681	1007.400000
783.534058	996.700000
783.570496	991.500000
783.606934	985.600000
783.643250	997.300000
783.679687	1006.000000
783.716125	1004.800000
783.752441	1014.800000
783.788879	1033.500000
783.825317	1036.900000
783.861633	1043.800000
783.898071	1046.900000
783.934448	1062.400000
783.970825	1080.800000
784.007263	1079.600000
784.043579	1087.800000
784.080017	1098.800000
784.116394	1084.300000
784.152710	1076.700000
784.189148	1068.400000
784.225525	1023.800000
784.261902	892.200000
784.298279	732.300000
784.334656	554.900000
784.371033	398.600000
784.407410	335.600000
784.443787	310.100000
784.480164	308.100000
784.516541	305.700000
784.552856	317.800000
784.589233	325.800000
784.625610	369.400000
784.661987	510.600000
784.698364	658.200000
784.734741	810.300000
784.771057	934.400000
784.807434	1004.900000
784.843811	1048.800000
784.880127	1057.800000
784.916504	1091.000000
784.952881	1090.600000
784.989197	1089.000000
785.025574	1091.800000
785.061951	1105.400000
785.098267	1138.700000
785.134644	1130.500000
785.170959	1129.700000
785.207275	1134.800000
785.243652	1131.600000
785.279968	1119.000000
785.316345	1125.900000
785.352722	1134.900000
785.388977	1135.300000
785.425354	1116.600000
785.461731	1094.900000
785.498047	1091.200000
785.534363	1083.700000
785.570679	1084.000000
785.606995	1088.500000
785.643372	1093.500000
785.679687	1083.300000
785.716003	1070.000000
785.752380	1066.600000
785.788635	1074.500000
785.825012	1099.300000
785.861328	1107.600000
785.897644	1096.700000
785.933960	1106.600000
785.970337	1113.600000
786.006592	1129.400000
786.042908	1147.400000
786.079285	1159.500000
786.115540	1170.500000
786.151855	1172.200000
786.188171	1160.200000
786.224487	1163.700000
786.260803	1165.000000
786.297119	1181.200000
786.333435	1184.500000
786.369751	1174.000000
786.406006	1174.100000
786.442322	1159.200000
786.478638	1145.900000
786.514954	1172.700000
786.551270	1172.100000
786.587585	1180.600000
786.623840	1166.400000
786.660156	1158.400000
786.696472	1135.200000
786.732727	1132.900000
786.769043	1141.300000
786.805298	1132.900000
786.841614	1140.100000
786.877930	1140.900000
786.914124	1129.100000
786.950439	1145.400000
786.986755	1146.000000
787.023010	1161.800000
787.059326	1172.000000
787.095642	1172.700000
787.131836	1192.500000
787.168152	1175.500000
787.204468	1184.200000
787.240723	1209.200000
787.276978	1222.900000
787.313293	1229.400000
787.349548	1222.300000
787.385803	1220.200000
787.422058	1215.600000
787.458313	1220.500000
787.494629	1223.100000
787.530823	1220.800000
787.567139	1210.800000
787.603455	1201.600000
787.639648	1182.100000
787.675903	1178.700000
787.712219	1183.100000
787.748413	1181.200000
787.784729	1193.700000
787.820984	1178.200000
787.857178	1161.700000
787.893494	1153.000000
787.929749	1149.100000
787.965942	1160.000000
788.002258	1169.800000
788.038452	1179.500000
788.074707	1172.200000
788.110962	1173.100000
788.147217	1164.800000
788.183472	1175.400000
788.219727	1192.700000
788.255920	1215.800000
788.292175	1221.500000
788.328430	1213.300000
788.364624	1185.300000
788.400879	1175.800000
788.437134	1189.600000
788.473328	1190.400000
788.509583	1188.100000
788.545837	1180.900000
788.582031	1175.000000
788.618286	1160.500000
788.654480	1153.900000
788.690735	1174.300000
788.726990	1197.700000
788.763184	1194.100000
788.799377	1205.100000
788.835632	1197.500000
788.871826	1209.800000
788.908081	1206.100000
788.944336	1198.800000
788.980469	1221.100000
789.016724	1213.900000
789.052979	1211.400000
789.089111	1184.900000
789.125366	1188.200000
789.161621	1176.800000
789.197754	1193.400000
789.234009	1184.500000
789.270142	1167.400000
789.306396	1160.400000
789.342590	1148.100000
789.378784	1122.700000
789.414978	1120.000000
789.451233	1138.500000
789.487366	1137.900000
789.523621	1143.100000
789.559814	1128.800000
789.595947	1121.300000
789.632202	1137.400000
789.668335	1144.900000
789.704529	1158.600000
789.740784	1187.100000
789.776917	1192.900000
789.813110	1173.000000
789.849304	1188.000000
789.885498	1186.500000
789.921692	1202.300000
789.957886	1215.000000
789.994019	1218.500000
790.030212	1207.600000
790.066406	1205.600000
790.102539	1207.200000
790.138733	1219.800000
790.174927	1214.600000
790.211060	1226.900000
790.247253	1211.800000
790.283386	1189.400000
790.319580	1170.600000
790.355774	1157.200000
790.391907	1175.600000
790.428101	1198.800000
790.464294	1199.600000
790.500427	1198.200000
790.536621	1182.800000
790.572754	1169.000000
790.608887	1171.600000
790.645081	1181.000000
790.681274	1186.100000
790.717346	1184.200000
790.753540	1140.900000
790.789734	1069.500000
790.825867	1013.800000
790.862000	1007.300000
790.898132	1063.700000
790.934265	1126.900000
790.970459	1187.900000
791.006592	1206.600000
791.042725	1206.300000
791.078918	1201.400000
791.114990	1201.500000
791.151184	1214.600000
791.187317	1243.400000
791.223389	1240.400000
791.259583	1222.500000
791.295715	1223.200000
791.331848	1232.100000
791.367981	1244.300000
791.404114	1253.300000
791.440247	1251.700000
791.476379	1247.500000
791.512451	1227.000000
791.548584	1228.300000
791.584778	1222.900000
791.620850	1243.300000
791.656982	1249.500000
791.693115	1245.100000
791.729187	1238.100000
791.765381	1224.500000
791.801514	1227.400000
791.837585	1232.200000
791.873718	1235.900000
791.909851	1249.300000
791.945923	1261.200000
791.982056	1221.300000
792.018188	1215.700000
792.054260	1219.200000
792.090393	1219.700000
792.126465	1220.600000
792.162598	1235.700000
792.198669	1216.200000
792.234741	1210.100000
792.270874	1199.700000
792.307007	1181.800000
792.343079	1189.100000
792.379150	1205.400000
792.415283	1192.600000
792.451355	1187.500000
792.487488	1168.900000
792.523560	1171.000000
792.559631	1169.600000
792.595764	1173.900000
792.631836	1178.700000
792.667908	1180.700000
792.703979	1164.400000
792.740051	1156.500000
792.776184	1169.100000
792.812256	1174.100000
792.848328	1179.900000
792.884399	1192.200000
792.920471	1179.100000
792.956543	1176.200000
792.992615	1171.700000
793.028748	1167.700000
793.064758	1175.700000
793.100830	1197.000000
793.136963	1209.400000
793.172974	1202.500000
793.209045	1192.600000
793.245178	1204.800000
793.281189	1196.100000
793.317261	1204.500000
793.353271	1204.600000
793.389404	1207.200000
793.425476	1197.800000
793.461487	1184.200000
793.497559	1177.200000
793.533630	1191.800000
793.569641	1190.600000
793.605713	1193.800000
793.641785	1197.900000
793.677795	1202.800000
793.713867	1189.000000
793.749878	1193.200000
793.785950	1206.800000
793.822021	1213.700000
793.858032	1190.100000
793.894104	1205.100000
793.930176	1190.500000
793.966187	1191.400000
794.002258	1180.700000
794.038269	1189.800000
794.074280	1184.800000
794.110352	1209.800000
794.146423	1183.700000
794.182373	1171.700000
794.218445	1167.600000
794.254517	1153.500000
794.290466	1144.600000
794.326538	1152.700000
794.362549	1142.700000
794.398560	1149.500000
794.434631	1159.800000
794.470581	1130.600000
794.506653	1120.900000
794.542664	1126.600000
794.578674	1122.600000
794.614685	1112.800000
794.650757	1112.300000
794.686707	1108.700000
794.722778	1097.600000
794.758789	1101.900000
794.794739	1111.000000
794.830811	1141.900000
794.866821	1159.800000
794.902771	1146.500000
794.938843	1129.700000
794.974792	1126.100000
795.010803	1124.400000
795.046814	1129.500000
795.082825	1119.900000
795.118835	1132.000000
795.154846	1116.100000
795.190796	1115.300000
795.226807	1088.700000
795.262817	1105.200000
795.298767	1102.100000
795.334778	1106.300000
795.370850	1089.500000
795.406799	1094.900000
795.442810	1067.500000
795.478821	1072.600000
795.514709	1073.600000
795.550720	1098.200000
795.586670	1075.000000
795.622681	1076.500000
795.658691	1075.200000
795.694641	1070.000000
795.730652	1058.200000
795.766663	1068.600000
795.802551	1068.400000
795.838562	1082.000000
795.874573	1064.700000
795.910522	1068.900000
795.946472	1055.600000
795.982483	1054.900000
796.018433	1064.100000
796.054382	1073.400000
796.090393	1064.500000
796.126282	1050.600000
796.162292	1041.400000
796.198242	1037.000000
796.234192	1038.400000
796.270203	1033.100000
796.306091	1039.900000
796.342041	1053.700000
796.378052	1036.300000
796.413940	1030.200000
796.449951	1038.600000
796.485901	1033.000000
796.521790	1032.200000
796.557800	1043.200000
796.593689	1043.500000
796.629639	1032.100000
796.665649	1025.200000
796.701599	1024.500000
796.737488	1027.900000
796.773437	1031.400000
796.809387	1032.000000
796.845337	1030.700000
796.881287	1014.600000
796.917175	998.900000
796.953125	1008.600000
796.989075	1017.000000
797.024963	1020.000000
797.060913	1017.700000
797.096863	1015.100000
797.132751	1006.100000
797.168701	984.900000
797.204590	992.600000
797.240540	1002.700000
797.276489	1006.300000
797.312439	1008.800000
797.348328	1003.500000
797.384277	989.100000
797.420166	982.200000
797.456055	988.400000
797.492004	979.600000
797.527893	995.600000
797.563843	992.500000
797.599731	976.100000
797.635620	966.900000
797.671570	975.800000
797.707520	973.100000
797.743347	973.900000
797.779297	980.300000
797.815125	982.200000
797.851074	968.600000
797.887024	957.500000
797.922913	949.900000
797.958801	964.800000
797.994690	963.900000
798.030579	967.700000
798.066467	970.900000
798.102356	956.100000
798.138245	945.700000
798.174133	944.900000
798.210083	954.800000
798.245911	958.500000
798.281799	957.700000
798.317749	950.600000
798.353577	944.500000
798.389465	938.600000
798.425293	938.300000
798.461243	930.900000
798.497131	939.700000
798.532959	941.600000
798.568848	945.200000
798.604736	928.100000
798.640564	914.700000
798.676453	916.600000
798.712402	923.400000
798.748230	931.300000
798.784119	924.000000
798.820007	926.200000
798.855835	923.700000
798.891724	913.500000
798.927551	907.900000
798.963379	920.600000
798.999268	916.600000
799.035095	913.700000
799.070984	909.000000
799.106873	897.600000
799.142700	906.200000
799.178528	899.000000
799.214417	897.900000
799.250244	913.100000
799.286133	902.500000
799.321960	895.800000
799.357788	891.900000
799.393677	893.100000
799.429504	896.700000
799.465332	895.700000
799.501221	906.800000
799.537048	896.300000
799.572876	888.600000
799.608704	891.200000
799.644531	895.600000
799.680359	900.000000
799.716248	902.600000
799.752014	912.300000
799.787903	896.500000
799.823730	893.200000
799.859558	882.800000
799.895386	881.600000
799.931213	883.300000
799.967041	875.000000
800.002869	869.600000
800.038696	884.900000
800.074463	860.700000
800.110352	861.200000
800.146179	853.200000
800.181946	859.000000
800.217773	862.200000
800.253540	862.100000
800.289429	855.300000
800.325256	853.700000
800.361023	845.100000
800.396851	851.800000
800.432678	846.100000
800.468445	846.500000
800.504272	839.700000
800.540100	822.400000
800.575867	817.000000
800.611694	823.700000
800.647461	812.400000
800.683289	823.000000
800.719116	823.400000
800.754883	814.800000
800.790649	801.300000
800.826477	793.000000
800.862244	816.500000
800.898071	797.600000
800.933838	794.200000
800.969604	793.000000
801.005432	792.400000
801.041199	794.400000
801.076965	782.300000
801.112793	773.300000
801.148560	764.600000
801.184326	768.800000
801.220154	767.600000
801.255859	756.500000
801.291687	757.800000
801.327454	753.800000
801.363281	747.200000
801.398987	746.500000
801.434814	750.300000
801.470520	762.100000
801.506287	747.500000
801.542114	740.400000
801.577820	742.200000
801.613647	740.300000
801.649414	731.400000
801.685120	733.200000
801.720886	741.200000
801.756714	734.400000
801.792419	721.000000
801.828186	713.900000
801.863892	721.900000
801.899719	713.100000
801.935486	710.800000
801.971252	719.500000
802.006958	712.500000
802.042725	705.500000
802.078430	708.500000
802.114197	698.600000
802.149963	712.500000
802.185669	703.600000
802.221436	701.700000
802.257202	705.100000
802.292908	702.400000
802.328674	706.000000
802.364441	704.700000
802.400146	699.500000
802.435913	693.900000
802.471558	687.400000
802.507324	684.500000
802.543091	677.800000
802.578796	689.700000
802.614502	688.100000
802.650269	696.000000
802.685974	672.700000
802.721741	676.400000
802.757446	681.700000
802.793152	676.700000
802.828918	691.900000
802.864624	682.100000
802.900330	676.100000
802.936035	673.900000
802.971802	668.900000
803.007446	672.700000
803.043213	661.400000
803.078857	666.900000
803.114624	650.500000
803.150330	657.700000
803.185974	651.800000
803.221741	652.200000
803.257446	657.700000
803.293152	658.100000
803.328857	648.700000
803.364563	648.900000
803.400208	635.300000
803.435974	648.200000
803.471680	637.900000
803.507324	633.400000
803.543030	645.800000
803.578735	641.500000
803.614441	629.900000
803.650146	637.500000
803.685791	625.900000
803.721497	627.600000
803.757202	619.100000
803.792847	626.700000
803.828552	618.300000
803.864258	618.100000
803.899902	617.700000
803.935608	597.600000
803.971313	608.100000
804.006958	608.700000
804.042664	603.900000
804.078308	608.700000
804.113953	600.900000
804.149658	610.100000
804.185364	596.700000
804.221008	606.900000
804.256714	596.500000
804.292297	598.500000
804.328003	591.400000
804.363708	584.100000
804.399292	584.000000
804.434998	583.300000
804.470703	576.900000
804.506287	588.500000
804.541992	580.900000
804.577637	583.900000
804.613281	574.800000
804.648926	572.800000
804.684570	575.400000
804.720215	568.700000
804.755920	572.200000
804.791565	563.800000
804.827209	567.400000
804.862854	563.200000
804.898437	556.700000
804.934143	557.000000
804.969788	556.600000
805.005371	560.000000
805.041077	558.100000
805.076721	555.800000
805.112305	548.700000
805.147949	553.900000
805.183655	545.100000
805.219238	550.900000
805.254883	547.600000
805.290466	553.600000
805.326111	548.100000
805.361755	536.200000
805.397400	538.400000
805.432983	543.900000
805.468628	543.400000
805.504211	550.900000
805.539856	544.300000
805.575500	551.800000
805.611084	539.700000
805.646729	526.600000
805.682373	531.500000
805.717957	542.800000
805.753601	545.500000
805.789246	528.500000
805.824768	537.400000
805.860413	541.300000
805.895996	525.700000
805.931641	527.600000
805.967224	534.900000
806.002869	526.500000
806.038452	536.600000
806.074036	532.200000
806.109619	518.200000
806.145264	517.700000
806.180847	518.400000
806.216431	516.100000
806.252014	519.300000
806.287659	519.700000
806.323181	529.100000
806.358826	522.100000
806.394409	500.200000
806.429993	504.500000
806.465576	516.100000
806.501160	500.800000
806.536743	495.400000
806.572327	504.400000
806.607910	502.200000
806.643494	500.900000
806.679077	495.900000
806.714661	498.900000
806.750244	495.900000
806.785828	486.700000
806.821350	487.500000
806.856934	494.300000
806.892517	489.000000
806.928101	482.500000
806.963684	485.400000
806.999268	494.300000
807.034790	476.100000
807.070374	481.000000
807.105896	476.600000
807.141479	472.000000
807.177063	480.700000
807.212585	468.500000
807.248169	471.100000
807.283752	475.400000
807.319275	470.600000
807.354858	470.700000
807.390381	466.200000
807.425903	468.500000
807.461487	464.200000
807.497070	456.900000
807.532593	459.600000
807.568115	453.500000
807.603699	452.200000
807.639221	448.800000
807.674744	452.000000
807.710266	456.600000
807.745850	455.600000
807.781372	448.900000
807.816895	446.600000
807.852417	449.700000
807.888000	445.500000
807.923523	441.000000
807.959045	446.000000
807.994629	435.400000
808.030090	432.900000
808.065613	438.200000
808.101135	440.900000
808.136658	436.300000
808.172241	436.600000
808.207764	432.900000
808.243225	426.500000
808.278809	425.700000
808.314270	434.400000
808.349792	418.200000
808.385315	417.700000
808.420837	421.500000
808.456360	430.500000
808.491882	426.900000
808.527344	422.900000
808.562866	432.100000
808.598389	423.200000
808.633850	416.700000
808.669434	412.300000
808.704895	421.100000
808.740417	427.900000
808.775940	417.600000
808.811462	410.800000
808.846924	403.500000
808.882385	402.700000
808.917847	401.900000
808.953369	402.900000
808.988892	397.600000
809.024353	406.600000
809.059875	404.300000
809.095398	400.100000
809.130798	394.500000
809.166321	394.400000
809.201843	394.000000
809.237305	394.400000
809.272766	402.400000
809.308228	388.800000
809.343750	387.000000
809.379211	388.100000
809.414734	388.300000
809.450134	396.800000
809.485657	379.900000
809.521118	385.400000
809.556580	383.300000
809.592102	381.000000
809.627502	377.400000
809.663025	376.700000
809.698486	373.300000
809.733887	368.800000
809.769409	373.700000
809.804871	362.200000
809.840271	365.900000
809.875793	368.100000
809.911194	369.700000
809.946655	363.400000
809.982178	361.800000
810.017639	362.600000
810.053040	361.500000
810.088501	360.100000
810.123901	359.600000
810.159424	356.100000
810.194885	350.800000
810.230286	356.400000
810.265747	350.800000
810.301208	349.200000
810.336609	351.700000
810.372070	344.200000
810.407532	345.800000
810.442932	347.000000
810.478394	352.400000
810.513794	348.100000
810.549255	345.900000
810.584717	341.700000
810.620117	337.800000
810.655518	347.500000
810.690979	342.000000
810.726379	341.500000
810.761841	330.900000
810.797302	333.300000
810.832642	331.300000
810.868103	343.900000
810.903564	331.700000
810.938904	337.300000
810.974365	326.800000
811.009827	332.300000
811.045166	327.600000
811.080627	320.600000
811.115967	324.900000
811.151428	332.500000
811.186829	325.600000
811.222229	326.800000
811.257629	318.200000
811.293091	322.500000
811.328430	331.300000
811.363892	325.600000
811.399292	328.200000
811.434631	320.600000
811.470093	321.200000
811.505493	316.100000
811.540833	318.900000
811.576294	322.700000
811.611694	318.700000
811.647034	314.500000
811.682434	315.200000
811.717773	316.800000
811.753235	321.800000
811.788635	312.600000
811.823975	314.000000
811.859375	323.200000
811.894775	309.500000
811.930115	311.300000
811.965515	313.000000
812.000916	314.800000
812.036255	309.200000
812.071655	313.700000
812.106995	306.000000
812.142395	307.800000
812.177795	314.100000
812.213196	310.900000
812.248474	310.600000
812.283875	301.400000
812.319214	305.900000
812.354614	305.500000
812.390015	301.900000
812.425293	304.500000
812.460693	304.600000
812.496094	300.300000
812.531433	297.000000
812.566772	296.900000
812.602173	299.300000
812.637451	299.100000
812.672852	295.500000
812.708191	302.500000
812.743530	293.400000
812.778931	285.900000
812.814270	289.800000
812.849609	297.700000
812.884949	291.000000
812.920227	284.100000
812.955627	303.500000
812.990967	293.100000
813.026306	285.800000
813.061646	279.400000
813.096985	274.600000
813.132324	273.500000
813.167664	278.400000
813.203003	282.900000
813.238281	270.800000
813.273682	271.400000
813.308960	267.200000
813.344299	269.400000
813.379639	281.200000
813.414978	271.100000
813.450256	271.500000
813.485596	277.600000
813.520874	267.300000
813.556213	271.600000
813.591614	275.500000
813.626831	267.400000
813.662170	270.100000
813.697510	282.000000
813.732788	263.400000
813.768127	270.800000
813.803467	269.900000
813.838745	266.200000
813.874084	270.600000
813.909363	269.800000
813.944641	270.100000
813.979980	259.100000
814.015320	265.300000
814.050598	262.000000
814.085876	266.000000
814.121155	262.800000
814.156494	259.700000
814.191772	262.800000
814.227051	257.100000
814.262390	262.200000
814.297668	260.900000
814.332947	261.600000
814.368225	253.600000
814.403564	259.000000
814.438782	252.800000
814.474121	258.900000
814.509338	252.400000
814.544617	262.400000
814.579956	250.400000
814.615173	263.500000
814.650513	258.600000
814.685791	250.700000
814.721008	255.700000
814.756348	253.600000
814.791626	249.600000
814.826843	250.700000
814.862122	251.300000
814.897400	247.600000
814.932678	252.200000
814.967957	250.000000
815.003235	248.000000
815.038452	242.600000
815.073730	241.600000
815.108948	251.900000
815.144226	248.500000
815.179504	252.600000
815.214722	238.400000
815.250000	236.100000
815.285278	243.900000
815.320496	237.600000
815.355774	242.200000
815.391052	244.100000
815.426270	239.600000
815.461487	240.100000
815.496765	236.600000
815.531982	231.800000
815.567261	239.300000
815.602539	244.400000
815.637695	241.700000
815.672974	244.700000
815.708191	244.600000
815.743408	244.100000
815.778687	237.600000
815.813904	245.200000
815.849121	229.500000
815.884399	231.100000
815.919556	230.600000
815.954834	232.400000
815.990051	236.300000
816.025269	238.400000
816.060486	230.700000
816.095703	228.000000
816.130920	233.100000
816.166199	229.000000
816.201416	233.200000
816.236572	239.100000
816.271851	230.400000
816.307007	235.600000
816.342224	224.900000
816.377441	228.600000
816.412659	220.400000
816.447876	231.900000
816.483093	226.900000
816.518250	228.500000
816.553467	226.200000
816.588745	230.500000
816.623901	221.400000
816.659119	217.200000
816.694275	222.200000
816.729492	221.300000
816.764709	256.000000
816.799927	218.300000
816.835083	221.800000
816.870300	218.200000
816.905457	220.200000
816.940674	225.400000
816.975830	217.100000
817.010986	216.500000
817.046204	217.900000
817.081421	215.300000
817.116577	213.100000
817.151733	225.200000
817.186951	223.000000
817.222107	220.900000
817.257324	223.100000
817.292419	218.500000
817.327637	211.000000
817.362854	217.900000
817.398010	211.100000
817.433167	214.600000
817.468323	213.700000
817.503479	214.300000
817.538635	223.100000
817.573853	219.100000
817.608948	214.800000
817.644165	211.500000
817.679321	211.600000
817.714478	210.900000
817.749634	214.200000
817.784790	227.200000
817.819946	219.500000
817.855103	201.300000
817.890198	211.400000
817.925415	204.600000
817.960571	215.100000
817.995667	211.700000
818.030823	213.100000
818.066040	208.600000
818.101135	210.300000
818.136292	209.000000
818.171448	204.000000
818.206543	208.100000
818.241699	213.800000
818.276855	209.600000
818.311951	209.700000
818.347107	204.800000
818.382263	212.100000
818.417358	216.800000
818.452515	217.800000
818.487610	217.000000
818.522766	206.500000
818.557922	217.300000
818.593018	212.300000
818.628113	208.800000
818.663269	205.400000
818.698364	209.400000
818.733521	206.400000
818.768677	209.600000
818.803711	202.100000
818.838867	204.100000
818.874023	206.600000
818.909058	203.700000
818.944214	203.500000
818.979370	208.700000
819.014404	207.000000
819.049561	202.400000
819.084595	208.000000
819.119751	197.900000
819.154846	207.800000
819.189941	204.100000
819.225037	199.700000
819.260193	194.500000
819.295227	198.500000
819.330322	194.000000
819.365479	194.200000
819.400513	226.100000
819.435608	192.900000
819.470764	190.600000
819.505798	194.700000
819.540894	198.600000
819.575989	194.900000
819.611084	206.200000
819.646179	205.100000
819.681213	201.700000
819.716309	197.700000
819.751404	197.300000
819.786438	203.200000
819.821533	194.100000
819.856628	200.800000
819.891663	204.000000
819.926758	210.200000
819.961853	205.500000
819.996887	195.300000
820.031982	202.600000
820.067017	197.000000
820.102112	226.300000
820.137207	195.400000
820.172302	214.500000
820.207275	194.600000
820.242371	196.100000
820.277405	194.300000
820.312500	198.200000
820.347534	200.300000
820.382568	203.100000
820.417664	196.200000
820.452759	197.000000
820.487732	194.400000
820.522827	197.200000
820.557861	192.600000
820.592896	195.600000
820.627930	195.400000
820.662964	193.800000
820.698059	198.600000
820.733093	196.600000
820.768127	200.900000
820.803162	196.000000
820.838196	194.100000
820.873230	197.800000
820.908264	197.100000
820.943298	193.400000
820.978333	201.500000
821.013367	197.300000
821.048401	201.300000
821.083435	202.900000
821.118469	188.400000
821.153503	201.500000
821.188477	197.900000
821.223511	189.200000
821.258484	196.000000
821.293579	197.500000
821.328613	188.400000
821.363647	194.000000
821.398621	190.100000
821.433655	191.000000
821.468628	208.300000
821.503662	194.100000
821.538696	198.100000
821.573669	190.100000
821.608704	198.300000
821.643677	193.500000
821.678650	199.700000
821.713684	204.400000
821.748718	193.900000
821.783691	193.400000
821.818726	197.500000
821.853638	196.200000
821.888672	194.800000
821.923706	194.900000
821.958618	192.300000
821.993652	192.700000
822.028687	201.800000
822.063599	200.900000
822.098633	198.100000
822.133667	190.000000
822.168579	195.600000
822.203613	196.400000
822.238586	191.800000
822.273560	197.500000
822.308533	192.900000
822.343567	192.300000
822.378479	194.400000
822.413452	192.800000
822.448425	191.300000
822.483398	200.500000
822.518372	200.800000
822.553345	191.700000
822.588318	202.500000
822.623291	193.100000
822.658203	192.000000
822.693237	195.400000
822.728210	190.100000
822.763123	194.700000
822.798096	190.700000
822.833069	194.000000
822.867981	192.700000
822.902954	196.200000
822.937927	198.400000
822.972900	205.500000
823.007874	185.100000
823.042725	197.200000
823.077698	205.900000
823.112671	189.700000
823.147583	193.700000
823.182556	197.800000
823.217529	198.000000
823.252441	192.700000
823.287415	206.900000
823.322388	196.600000
823.357239	195.200000
823.392212	203.900000
823.427185	198.000000
823.462097	191.100000
823.497009	198.800000
823.531982	191.700000
823.566895	194.200000
823.601807	189.800000
823.636719	192.300000
823.671631	199.200000
823.706604	192.100000
823.741455	198.600000
823.776428	187.700000
823.811340	199.000000
823.846252	199.400000
823.881165	202.100000
823.916138	196.500000
823.950989	204.900000
823.985901	191.900000
824.020813	196.200000
824.055725	192.300000
824.090637	193.300000
824.125610	196.300000
824.160461	196.100000
824.195374	198.000000
824.230225	201.000000
824.265198	187.300000
824.300110	191.600000
824.334961	204.400000
824.369873	183.900000
824.404785	197.600000
824.439636	201.800000
824.474548	185.400000
824.509460	184.400000
824.544312	200.600000
824.579224	196.300000
824.614075	198.600000
824.648987	192.800000
824.683899	192.300000
824.718811	190.600000
824.753662	201.200000
824.788574	198.500000
824.823364	195.400000
824.858276	191.100000
824.893188	200.100000
824.928040	200.300000
824.962952	197.200000
824.997803	198.700000
825.032654	194.900000
825.067566	197.800000
825.102417	192.900000
825.137268	194.100000
825.172119	194.200000
825.206970	191.700000
825.241882	192.300000
825.276733	190.900000
825.311646	191.400000
825.346436	188.400000
825.381348	189.200000
825.416138	194.700000
825.450989	190.500000
825.485901	184.800000
825.520691	186.800000
825.555542	186.700000
825.590454	193.800000
825.625244	185.500000
825.660095	201.800000
825.695007	197.600000
825.729797	193.000000
825.764648	189.800000
825.799438	193.400000
825.834290	194.800000
825.869202	187.600000
825.903992	194.900000
825.938843	191.300000
825.973694	190.400000
826.008484	206.200000
826.043335	189.200000
826.078186	186.400000
826.112976	200.600000
826.147827	199.200000
826.182678	203.900000
826.217468	186.000000
826.252319	199.000000
826.287109	190.300000
826.321899	202.100000
826.356750	191.800000
826.391541	187.600000
826.426392	199.400000
826.461182	194.400000
826.495972	187.600000
826.530823	184.600000
826.565613	193.300000
826.600403	187.600000
826.635254	195.600000
826.670044	184.800000
826.704834	184.600000
826.739685	189.600000
826.774475	194.600000
826.809265	192.800000
826.844055	191.200000
826.878906	198.900000
826.913635	195.700000
826.948425	196.900000
826.983215	194.000000
827.018005	199.000000
827.052856	192.300000
827.087585	196.400000
827.122375	185.700000
827.157227	193.600000
827.191956	205.400000
827.226746	189.800000
827.261536	198.100000
827.296265	188.100000
827.331116	191.300000
827.365906	196.800000
827.400635	190.200000
827.435425	184.500000
827.470215	201.200000
827.504944	192.100000
827.539734	197.900000
827.574463	192.400000
827.609253	200.600000
827.644043	193.100000
827.678772	198.600000
827.713562	192.500000
827.748352	193.000000
827.783081	189.100000
827.817871	194.100000
827.852600	188.700000
827.887329	193.500000
827.922119	183.500000
827.956848	196.400000
827.991638	206.000000
828.026367	194.500000
828.061157	193.900000
828.095886	192.700000
828.130615	206.500000
828.165344	184.200000
828.200073	193.800000
828.234863	190.800000
828.269592	192.500000
828.304321	198.200000
828.339111	194.100000
828.373779	189.600000
828.408569	198.200000
828.443298	197.600000
828.477966	190.100000
828.512756	194.500000
828.547424	187.200000
828.582214	191.400000
828.616943	192.000000
828.651672	192.200000
828.686340	197.400000
828.721130	190.100000
828.755798	192.200000
828.790527	195.100000
828.825256	195.800000
828.859924	193.200000
828.894714	200.600000
828.929443	200.900000
828.964111	188.700000
828.998840	197.000000
829.033569	190.400000
829.068237	191.000000
829.102966	191.100000
829.137634	194.900000
829.172363	193.500000
829.207092	194.100000
829.241821	189.400000
829.276489	186.700000
829.311157	193.600000
829.345825	191.000000
829.380554	197.400000
829.415283	189.100000
829.449951	185.900000
829.484619	201.700000
829.519348	199.500000
829.554016	192.600000
829.588745	192.100000
829.623413	186.600000
829.658081	205.100000
829.692749	186.800000
829.727417	197.000000
829.762146	194.900000
829.796814	188.000000
829.831482	191.100000
829.866150	195.300000
829.900879	189.400000
829.935486	195.900000
829.970154	190.200000
830.004883	203.600000
830.039490	193.000000
830.074219	190.600000
830.108887	193.000000
830.143494	191.900000
830.178223	186.900000
830.212891	190.700000
830.247498	193.000000
830.282166	201.800000
830.316772	198.500000
830.351501	190.100000
830.386169	192.000000
830.420776	191.100000
830.455444	192.000000
830.490112	188.800000
830.524719	183.600000
830.559387	197.400000
830.594055	195.200000
830.628662	192.600000
830.663330	192.200000
830.697998	201.000000
830.732605	191.200000
830.767273	196.000000
830.801941	193.700000
830.836487	202.000000
830.871155	195.100000
830.905762	193.500000
830.940430	186.100000
830.975098	189.600000
831.009644	194.300000
831.044312	202.400000
831.078979	196.100000
831.113525	184.700000
831.148193	191.900000
831.182861	190.200000
831.217407	197.100000
831.252075	210.400000
831.286621	189.800000
831.321289	188.000000
831.355896	192.500000
831.390564	199.700000
831.425110	193.000000
831.459778	199.800000
831.494324	206.600000
831.528931	195.700000
831.563599	195.600000
831.598145	186.100000
831.632751	193.500000
831.667419	191.400000
831.701965	196.100000
831.736572	196.400000
831.771179	186.400000
831.805786	189.500000
831.840393	198.900000
831.874939	183.800000
831.909546	197.700000
831.944153	184.600000
831.978760	193.200000
832.013306	187.300000
832.047913	201.100000
832.082458	201.000000
832.117065	190.500000
832.151672	200.900000
832.186218	195.100000
832.220825	196.300000
832.255432	186.000000
832.289978	189.200000
832.324585	195.300000
832.359192	195.600000
832.393677	191.300000
832.428284	193.500000
832.462830	190.600000
832.497437	191.500000
832.531982	196.900000
832.566589	191.500000
832.601135	192.900000
832.635681	185.100000
832.670227	190.800000
832.704773	201.500000
832.739380	195.400000
832.773926	192.800000
832.808472	188.500000
832.843079	191.500000
832.877563	196.600000
832.912170	190.800000
832.946716	185.700000
832.981201	200.000000
833.015808	195.100000
833.050293	193.600000
833.084839	189.300000
833.119446	190.800000
833.153992	196.200000
833.188477	193.100000
833.223022	188.700000
833.257568	194.500000
833.292114	201.600000
833.326660	204.400000
833.361145	190.500000
833.395691	186.300000
833.430237	192.000000
833.464783	196.100000
833.499329	188.500000
833.533875	187.400000
833.568359	195.600000
833.602905	200.300000
833.637390	197.700000
833.671875	191.300000
833.706421	194.100000
833.740906	189.400000
833.775452	183.300000
833.809998	190.900000
833.844482	200.200000
833.879028	192.100000
833.913513	190.400000
833.947998	195.500000
833.982544	187.100000
834.017090	189.600000
834.051514	180.800000
834.086060	196.200000
834.120544	192.500000
834.155029	194.700000
834.189575	191.200000
834.223999	195.300000
834.258545	194.000000
834.293030	194.700000
834.327515	191.800000
834.362000	189.100000
834.396545	196.600000
834.430969	191.600000
834.465454	197.500000
834.500000	184.200000
834.534424	195.700000
834.568970	182.300000
834.603455	183.800000
834.637878	187.600000
834.672363	194.100000
834.706909	193.200000
834.741333	192.400000
834.775818	183.800000
834.810242	188.900000
834.844727	192.400000
834.879211	190.100000
834.913635	193.100000
834.948181	195.700000
834.982666	193.600000
835.017090	192.100000
835.051575	196.400000
835.086060	190.400000
835.120483	196.400000
835.154907	197.800000
835.189331	192.000000
835.223816	196.300000
835.258301	187.600000
835.292786	188.500000
835.327209	198.700000
835.361694	188.100000
835.396057	190.300000
835.430542	194.500000
835.465027	193.300000
835.499390	188.000000
835.533875	210.600000
835.568359	189.900000
835.602722	185.600000
835.637207	194.800000
835.671692	185.600000
835.706055	209.500000
835.740540	193.100000
835.774902	195.000000
835.809387	194.800000
835.843811	185.700000
835.878235	201.700000
835.912659	186.700000
835.947083	190.000000
835.981506	193.300000
836.015930	185.300000
836.050354	197.400000
836.084778	201.700000
836.119202	197.400000
836.153625	203.800000
836.187988	187.700000
836.222473	189.000000
836.256897	193.700000
836.291260	192.000000
836.325684	194.100000
836.360046	189.400000
836.394470	190.700000
836.428894	199.700000
836.463318	190.600000
836.497681	198.200000
836.532104	198.900000
836.566467	193.400000
836.600891	191.200000
836.635315	198.900000
836.669678	194.800000
836.704102	198.100000
836.738525	193.200000
836.772888	185.000000
836.807251	189.500000
836.841675	195.900000
836.876038	188.100000
836.910461	190.300000
836.944763	196.600000
836.979187	189.100000
837.013611	200.100000
837.047974	186.900000
837.082336	205.000000
837.116699	197.600000
837.151062	192.800000
837.185486	186.400000
837.219849	191.100000
837.254211	196.900000
837.288574	191.700000
837.322937	187.800000
837.357300	179.600000
837.391663	204.700000
837.426086	198.200000
837.460388	193.100000
837.494751	197.900000
837.529114	191.800000
837.563477	197.600000
837.597839	194.800000
837.632141	192.400000
837.666565	191.000000
837.700928	196.200000
837.735229	196.800000
837.769592	195.800000
837.803955	198.800000
837.838257	191.800000
837.872620	188.300000
837.906982	201.400000
837.941284	194.000000
837.975647	193.900000
838.010010	199.600000
838.044312	192.700000
838.078674	191.200000
838.112976	195.000000
838.147339	196.500000
838.181702	193.000000
838.216003	203.000000
838.250366	196.200000
838.284668	195.300000
838.318970	186.400000
838.353333	192.600000
838.387634	192.300000
838.421936	192.500000
838.456299	194.400000
838.490601	200.700000
838.524902	197.500000
838.559265	197.800000
838.593567	198.300000
838.627869	186.900000
838.662170	197.300000
838.696472	186.500000
838.730774	190.200000
838.765137	197.700000
838.799377	178.700000
838.833740	193.300000
838.868042	199.800000
838.902283	185.300000
838.936646	199.600000
838.970947	193.300000
839.005188	198.100000
839.039551	185.800000
839.073792	200.100000
839.108093	189.700000
839.142395	202.400000
839.176697	186.600000
839.210937	193.300000
839.245300	205.000000
839.279541	185.800000
839.313843	191.600000
839.348145	196.500000
839.382385	199.000000
839.416687	198.800000
839.450989	197.300000
839.485229	191.900000
839.519531	188.200000
839.553833	197.100000
839.588013	192.600000
839.622314	194.100000
839.656555	195.400000
839.690857	193.000000
839.725159	187.000000
839.759460	191.900000
839.793640	191.900000
839.827942	190.800000
839.862183	189.200000
839.896423	194.500000
839.930725	203.600000
839.964966	200.100000
839.999207	202.900000
840.033508	200.500000
840.067688	190.600000
840.101990	202.000000
840.136230	193.100000
840.170471	201.800000
840.204712	189.200000
840.238953	189.600000
840.273193	195.100000
840.307434	196.600000
840.341736	189.400000
840.375916	187.100000
840.410217	190.900000
840.444397	196.800000
840.478638	196.300000
840.512878	200.100000
840.547119	195.000000
840.581360	194.400000
840.615601	203.300000
840.649780	202.500000
840.684021	193.300000
840.718262	202.100000
840.752441	198.200000
840.786682	194.700000
840.820862	195.800000
840.855103	200.000000
840.889343	194.300000
840.923584	199.000000
840.957764	196.300000
840.992004	194.900000
841.026184	207.600000
841.060425	191.200000
841.094666	190.500000
841.128845	196.900000
841.163025	195.300000
841.197266	196.500000
841.231445	194.100000
841.265686	193.300000
841.299866	188.700000
841.334045	202.300000
841.368286	192.400000
841.402405	203.500000
841.436646	197.900000
841.470825	191.000000
841.505005	193.700000
841.539185	191.100000
841.573425	190.000000
841.607544	195.000000
841.641785	194.600000
841.675964	188.400000
841.710144	194.400000
841.744324	192.500000
841.778503	192.400000
841.812683	190.100000
841.846863	202.500000
841.881042	201.600000
841.915222	192.300000
841.949402	210.600000
841.983521	185.300000
842.017700	194.200000
842.051880	194.600000
842.086060	195.600000
842.120239	194.500000
842.154419	190.400000
842.188538	195.300000
842.222717	191.200000
842.256897	204.500000
842.291016	192.400000
842.325195	195.700000
842.359375	204.500000
842.393494	201.000000
842.427673	194.100000
842.461853	197.000000
842.495911	202.600000
842.530090	196.500000
842.564209	192.600000
842.598389	195.600000
842.632568	195.400000
842.666626	198.800000
842.700806	190.100000
842.734985	191.700000
842.769043	197.100000
842.803223	192.500000
842.837402	192.800000
842.871460	191.800000
842.905640	202.600000
842.939697	190.400000
842.973877	197.900000
843.007996	200.300000
843.042175	202.400000
843.076233	191.900000
843.110413	193.900000
843.144470	204.100000
843.178589	199.300000
843.212769	191.900000
843.246826	198.700000
843.280945	192.700000
843.315125	192.300000
843.349182	191.600000
843.383301	201.500000
843.417419	206.700000
843.451538	194.400000
843.485657	194.000000
843.519714	193.100000
843.553833	198.000000
843.587952	190.700000
843.622070	191.100000
843.656128	197.400000
843.690247	191.300000
843.724304	191.800000
843.758423	195.400000
843.792542	191.600000
843.826599	194.100000
843.860718	192.100000
843.894836	187.100000
843.928894	194.000000
843.963013	197.000000
843.997070	190.300000
844.031128	187.500000
844.065247	198.700000
844.099304	199.800000
844.133362	194.800000
844.167480	196.200000
844.201599	203.100000
844.235596	195.800000
844.269714	195.000000
844.303711	197.200000
844.337830	186.300000
844.371948	197.400000
844.405945	194.500000
844.440063	190.700000
844.474121	209.700000
844.508118	192.500000
844.542236	192.500000
844.576294	194.100000
844.610352	189.700000
844.644409	194.600000
844.678406	186.600000
844.712524	200.400000
844.746582	200.500000
844.780640	194.300000
844.814636	196.000000
844.848755	205.900000
844.882751	194.200000
844.916809	200.900000
844.950867	196.000000
844.984863	202.900000
845.018921	194.800000
845.052979	190.900000
845.086975	196.200000
845.121033	187.800000
845.155090	189.200000
845.189087	201.300000
845.223145	191.900000
845.257141	194.400000
845.291199	197.700000
845.325256	203.000000
845.359253	195.600000
845.393250	204.100000
845.427307	193.400000
845.461304	197.400000
845.495361	196.000000
845.529358	206.200000
845.563354	192.200000
845.597412	188.900000
845.631409	202.200000
845.665405	200.500000
845.699463	200.800000
845.733459	193.500000
845.767456	201.500000
845.801453	194.300000
845.835449	202.100000
845.869446	198.300000
845.903503	199.300000
845.937439	189.900000
845.971497	202.000000
846.005493	188.800000
846.039429	198.000000
846.073486	203.700000
846.107483	192.300000
846.141418	195.600000
846.175476	194.300000
846.209473	201.700000
846.243408	190.300000
846.277405	195.500000
846.311401	189.900000
846.345337	196.000000
846.379395	201.100000
846.413330	193.600000
846.447327	202.500000
846.481323	189.200000
846.515259	191.700000
846.549255	195.500000
846.583252	197.000000
846.617187	191.700000
846.651184	197.100000
846.685120	194.000000
846.719055	203.100000
846.753052	199.600000
846.786987	199.500000
846.820984	189.800000
846.854980	201.700000
846.888916	189.800000
846.922852	196.800000
846.956848	203.800000
846.990723	189.500000
847.024719	194.700000
847.058716	192.800000
847.092590	202.000000
847.126587	196.900000
847.160522	193.200000
847.194458	199.000000
847.228455	190.400000
847.262390	188.800000
847.296265	193.000000
847.330261	201.500000
847.364136	193.200000
847.398132	190.700000
847.432068	193.900000
847.466003	193.000000
847.499939	192.400000
847.533875	197.600000
847.567749	193.100000
847.601746	193.800000
847.635681	198.300000
847.669556	185.500000
847.703491	200.500000
847.737427	212.100000
847.771301	190.100000
847.805237	197.700000
847.839233	195.400000
847.873108	194.400000
847.907043	192.900000
847.940918	202.100000
847.974854	196.900000
848.008789	199.400000
848.042664	194.400000
848.076538	199.800000
848.110474	194.700000
848.144348	197.700000
848.178284	188.300000
848.212219	196.100000
848.246094	193.400000
848.279968	196.700000
848.313904	197.500000
848.347778	196.200000
848.381653	194.200000
848.415588	190.800000
848.449463	192.300000
848.483337	197.800000
848.517212	200.100000
848.551086	194.900000
848.585022	190.300000
848.618835	202.700000
848.652771	191.700000
848.686646	189.500000
848.720520	204.500000
848.754395	193.600000
848.788330	198.700000
848.822144	199.400000
848.856018	193.700000
848.889954	204.600000
848.923767	189.900000
848.957642	190.700000
848.991577	199.500000
849.025391	192.100000
849.059265	193.900000
849.093079	192.100000
849.126953	189.400000
849.160828	199.400000
849.194641	197.200000
849.228577	192.700000
849.262451	193.000000
849.296265	192.300000
849.330139	190.500000
849.364014	196.600000
849.397827	198.100000
849.431702	194.300000
849.465515	199.000000
849.499329	186.100000
849.533203	189.600000
849.567078	186.100000
849.600891	199.500000
849.634766	194.200000
849.668518	200.200000
849.702393	194.800000
849.736267	188.800000
849.770020	207.000000
849.803894	200.000000
849.837769	195.300000
849.871521	196.000000
849.905396	200.100000
849.939270	190.800000
849.973022	195.000000
850.006897	198.600000
850.040710	198.200000
850.074524	197.400000
850.108337	193.800000
850.142151	199.200000
850.175964	201.800000
850.209778	195.200000
850.243530	181.200000
850.277405	200.700000
850.311218	194.500000
850.344971	190.900000
850.378845	203.500000
850.412659	191.000000
850.446411	194.800000
850.480225	195.000000
850.514038	200.500000
850.547791	196.900000
850.581665	195.100000
850.615417	191.200000
850.649231	195.200000
850.683044	192.800000
850.716858	194.100000
850.750610	195.400000
850.784424	198.600000
850.818176	191.300000
850.851929	192.400000
850.885742	191.100000
850.919495	195.400000
850.953308	201.000000
850.987122	202.200000
851.020874	189.200000
851.054626	187.900000
851.088440	198.500000
851.122192	200.900000
851.156006	195.800000
851.189697	195.000000
851.223511	189.700000
851.257263	200.000000
851.291077	198.500000
851.324829	194.600000
851.358582	191.800000
851.392334	193.800000
851.426086	193.500000
851.459900	202.900000
851.493591	194.700000
851.527344	195.100000
851.561157	194.400000
851.594849	197.300000
851.628662	196.200000
851.662415	203.200000
851.696106	197.500000
851.729858	199.000000
851.763611	189.900000
851.797363	196.200000
851.831116	191.500000
851.864868	198.000000
851.898560	198.300000
851.932312	192.600000
851.966064	197.300000
851.999817	194.500000
852.033569	194.900000
852.067261	199.600000
852.101013	189.900000
852.134766	196.000000
852.168457	182.800000
852.202209	199.000000
852.235901	191.500000
852.269592	197.000000
852.303345	204.500000
852.337036	197.400000
852.370789	194.100000
852.404541	198.500000
852.438171	191.900000
852.471924	193.400000
852.505676	188.300000
852.539307	197.200000
852.573059	191.100000
852.606812	193.000000
852.640442	195.500000
852.674194	200.400000
852.707886	205.800000
852.741577	202.800000
852.775269	190.600000
852.809021	195.700000
852.842651	198.100000
852.876404	201.200000
852.910034	197.300000
852.943787	201.500000
852.977478	197.600000
853.011108	191.200000
853.044861	191.200000
853.078552	201.600000
853.112183	197.800000
853.145874	195.900000
853.179626	185.300000
853.213257	197.200000
853.246948	191.500000
853.280640	203.200000
853.314270	194.800000
853.347961	201.500000
853.381653	197.900000
853.415283	199.500000
853.448975	191.100000
853.482605	197.700000
853.516296	194.400000
853.549988	189.200000
853.583618	195.200000
853.617310	196.100000
853.651001	196.200000
853.684631	190.000000
853.718323	192.800000
853.751953	202.800000
853.785583	185.600000
853.819275	198.900000
853.852966	197.900000
853.886536	186.300000
853.920227	188.700000
853.953918	200.700000
853.987488	192.000000
854.021179	199.200000
854.054749	202.100000
854.088440	198.000000
854.122131	191.100000
854.155701	199.100000
854.189331	191.000000
854.223022	198.100000
854.256592	199.500000
854.290283	192.400000
854.323914	198.700000
854.357483	197.100000
854.391174	196.700000
854.424744	206.600000
854.458374	196.400000
854.492065	206.700000
854.525696	194.400000
854.559265	201.000000
854.592896	206.600000
854.626465	196.600000
854.660095	196.400000
854.693787	196.700000
854.727356	194.000000
854.760986	198.600000
854.794617	196.000000
854.828186	193.100000
854.861816	198.600000
854.895447	197.600000
854.929016	195.400000
854.962585	198.100000
854.996155	204.100000
855.029785	197.300000
855.063416	196.300000
855.097046	199.100000
855.130615	189.000000
855.164185	200.300000
855.197754	195.000000
855.231384	197.800000
855.264954	192.800000
855.298523	199.100000
855.332153	196.300000
855.365723	203.400000
855.399292	191.100000
855.432922	192.900000
855.466492	196.900000
855.500061	190.300000
855.533630	191.700000
855.567200	198.900000
855.600769	199.600000
855.634338	199.600000
855.667969	197.700000
855.701477	190.700000
855.735046	191.100000
855.768616	187.200000
855.802185	198.900000
855.835754	209.300000
855.869324	187.700000
855.902893	192.800000
855.936401	202.100000
855.969971	197.300000
856.003540	187.800000
856.037109	200.100000
856.070618	196.300000
856.104187	188.600000
856.137695	193.400000
856.171265	184.300000
856.204834	195.000000
856.238403	199.500000
856.271912	193.100000
856.305481	196.700000
856.338989	187.800000
856.372559	197.700000
856.406128	196.900000
856.439636	200.400000
856.473145	192.500000
856.506653	202.200000
856.540222	195.000000
856.573792	202.500000
856.607300	198.700000
856.640808	189.700000
856.674377	194.700000
856.707825	222.000000
856.741394	198.000000
856.774902	190.600000
856.808472	186.000000
856.841980	198.900000
856.875488	204.300000
856.908936	187.400000
856.942505	194.600000
856.976013	194.000000
857.009521	189.200000
857.043030	197.200000
857.076477	194.100000
857.110046	200.800000
857.143555	196.200000
857.177063	201.200000
857.210571	192.600000
857.244080	188.000000
857.277527	198.300000
857.311035	194.100000
857.344543	198.500000
857.378052	195.500000
857.411499	199.400000
857.445068	205.900000
857.478516	194.500000
857.512024	189.300000
857.545532	193.000000
857.578979	197.600000
857.612427	196.400000
857.645874	193.200000
857.679382	196.100000
857.712891	199.900000
857.746399	195.300000
857.779846	200.000000
857.813354	201.300000
857.846741	194.500000
857.880249	192.400000
857.913757	197.600000
857.947266	196.900000
857.980652	198.500000
858.014160	192.100000
858.047546	192.500000
858.081055	194.000000
858.114563	203.800000
858.147949	189.300000
858.181458	199.000000
858.214844	193.200000
858.248352	187.000000
858.281799	202.300000
858.315308	208.100000
858.348694	199.900000
858.382141	203.400000
858.415588	198.000000
858.449036	200.100000
858.482483	197.600000
858.515930	192.200000
858.549377	194.800000
858.582825	202.700000
858.616211	198.200000
858.649658	196.100000
858.683105	190.500000
858.716553	191.500000
858.750000	189.000000
858.783386	193.100000
858.816833	187.200000
858.850281	196.300000
858.883728	198.900000
858.917114	193.500000
858.950562	204.000000
858.983948	204.800000
859.017395	199.900000
859.050781	192.800000
859.084167	192.700000
859.117615	188.300000
859.151062	198.700000
859.184448	191.200000
859.217834	193.700000
859.251282	194.200000
859.284668	190.800000
859.318054	184.700000
859.351440	192.400000
859.384888	203.900000
859.418274	187.300000
859.451721	186.900000
859.485046	198.000000
859.518494	196.100000
859.551819	192.000000
859.585266	197.100000
859.618652	197.800000
859.652039	189.700000
859.685425	190.500000
859.718811	188.800000
859.752197	182.400000
859.785583	201.400000
859.819031	203.000000
859.852356	198.400000
859.885742	190.400000
859.919067	195.300000
859.952454	193.100000
859.985901	199.900000
860.019287	192.400000
860.052612	0.000000
860.085999	0.000000
860.119324	0.000000
860.152710	0.000000
860.186096	0.000000
860.219421	0.000000
860.252808	0.000000
860.286133	0.000000
860.319519	0.000000
860.352905	0.000000
860.386292	0.000000
860.419617	0.000000
860.452942	0.000000
860.486267	0.000000
860.519653	0.000000
860.553040	0.000000
860.586365	0.000000
860.619690	0.000000
860.653076	0.000000
860.686340	0.000000
860.719727	0.000000
860.753113	0.000000
860.786377	0.000000
860.819763	0.000000
860.853027	0.000000
860.886414	0.000000
860.919739	0.000000
860.953125	0.000000
860.986389	0.000000
861.019714	0.000000
861.053040	0.000000
861.086365	0.000000
861.119690	0.000000
861.153076	0.000000
861.186340	0.000000
861.219666	0.000000
861.252930	0.000000
861.286316	0.000000
861.319641	0.000000
861.352905	0.000000
861.386230	0.000000
861.419495	0.000000
861.452820	0.000000
861.486145	0.000000
861.519470	0.000000
861.552734	0.000000
861.586060	0.000000
861.619324	0.000000
861.652649	0.000000
861.685974	0.000000
861.719238	0.000000
861.752563	0.000000
861.785828	0.000000
861.819092	0.000000
861.852417	0.000000
861.885742	0.000000
861.918945	0.000000
861.952271	0.000000
861.985535	0.000000
862.018799	0.000000
862.052124	0.000000
862.085449	0.000000
862.118652	0.000000
862.151978	0.000000
862.185181	0.000000
862.218506	0.000000
862.251770	0.000000
862.285034	0.000000
862.318298	0.000000
862.351562	0.000000
862.384827	0.000000
862.418091	0.000000
862.451355	0.000000
862.484619	0.000000
862.517883	0.000000
862.551086	0.000000
862.584351	0.000000
862.617676	0.000000
862.650940	0.000000
862.684143	0.000000
862.717407	0.000000
862.750610	0.000000
862.783875	0.000000
862.817139	0.000000
862.850342	0.000000
862.883606	0.000000
862.916870	0.000000
862.950073	0.000000
862.983337	0.000000
863.016602	0.000000
863.049805	0.000000
863.083069	0.000000
863.116211	0.000000
863.149475	0.000000
863.182739	0.000000
863.216003	0.000000
863.249146	0.000000
863.282410	0.000000
863.315613	0.000000
863.348816	0.000000
863.382080	0.000000
863.415222	0.000000
863.448486	0.000000
863.481689	0.000000
863.514893	0.000000
863.548157	0.000000
863.581360	0.000000
863.614502	0.000000
863.647766	0.000000
863.680908	0.000000
863.714172	0.000000
863.747375	0.000000
863.780579	0.000000
863.813721	0.000000
863.846985	0.000000
863.880127	0.000000
863.913330	0.000000
863.946533	0.000000
863.979675	0.000000
864.012939	0.000000
