Model Number: SPM-001-M   
Serial Number: 10090201
Firmware Version: 004.17.6
Exposure Time: 500000.000000us
Data Taken on: 10-03-2021 11:47:59.471
Wavelength	Amplitude
733.770752	0.000000
733.808716	0.000000
733.846619	0.000000
733.884583	0.000000
733.922546	0.000000
733.960449	0.000000
733.998413	0.000000
734.036377	0.000000
734.074219	0.000000
734.112183	0.000000
734.150085	0.000000
734.188049	0.000000
734.226013	0.000000
734.263916	0.000000
734.301819	0.000000
734.339783	0.000000
734.377686	0.000000
734.415588	0.000000
734.453552	0.000000
734.491455	0.000000
734.529419	0.000000
734.567322	0.000000
734.605225	0.000000
734.643127	0.000000
734.681091	0.000000
734.718994	0.000000
734.756897	0.000000
734.794800	0.000000
734.832703	0.000000
734.870667	0.000000
734.908508	0.000000
734.946472	0.000000
734.984375	0.000000
735.022278	0.000000
735.060181	0.000000
735.098083	0.000000
735.135986	0.000000
735.173889	0.000000
735.211792	0.000000
735.249695	0.000000
735.287598	0.000000
735.325439	0.000000
735.363403	0.000000
735.401306	0.000000
735.439148	0.000000
735.477051	0.000000
735.515015	0.000000
735.552856	0.000000
735.590759	0.000000
735.628662	0.000000
735.666504	0.000000
735.704407	0.000000
735.742310	0.000000
735.780212	0.000000
735.818115	0.000000
735.856018	0.000000
735.893860	0.000000
735.931763	0.000000
735.969604	0.000000
736.007507	0.000000
736.045410	0.000000
736.083252	0.000000
736.121094	0.000000
736.158997	0.000000
736.196838	0.000000
736.234741	0.000000
736.272644	0.000000
736.310486	0.000000
736.348389	0.000000
736.386230	0.000000
736.424072	0.000000
736.461975	0.000000
736.499878	0.000000
736.537720	0.000000
736.575562	0.000000
736.613403	0.000000
736.651306	0.000000
736.689148	0.000000
736.726990	0.000000
736.764893	0.000000
736.802734	0.000000
736.840576	0.000000
736.878418	0.000000
736.916321	0.000000
736.954102	0.000000
736.992004	0.000000
737.029846	0.000000
737.067688	0.000000
737.105530	0.000000
737.143372	0.000000
737.181213	0.000000
737.219116	0.000000
737.256897	0.000000
737.294739	0.000000
737.332642	0.000000
737.370422	0.000000
737.408325	0.000000
737.446167	0.000000
737.483948	0.000000
737.521790	0.000000
737.559692	0.000000
737.597473	0.000000
737.635315	0.000000
737.673157	0.000000
737.710999	0.000000
737.748840	0.000000
737.786621	0.000000
737.824463	0.000000
737.862305	0.000000
737.900085	0.000000
737.937927	0.000000
737.975769	0.000000
738.013550	0.000000
738.051392	0.000000
738.089233	0.000000
738.127014	0.000000
738.164856	0.000000
738.202698	0.000000
738.240479	0.000000
738.278320	0.000000
738.316162	0.000000
738.353943	0.000000
738.391785	0.000000
738.429565	0.000000
738.467407	0.000000
738.505188	0.000000
738.542969	0.000000
738.580811	0.000000
738.618652	0.000000
738.656372	0.000000
738.694214	0.000000
738.732056	0.000000
738.769836	0.000000
738.807617	0.000000
738.845459	0.000000
738.883240	0.000000
738.921021	0.000000
738.958862	0.000000
738.996582	0.000000
739.034424	0.000000
739.072205	0.000000
739.109985	0.000000
739.147827	0.000000
739.185547	0.000000
739.223389	0.000000
739.261169	0.000000
739.298889	0.000000
739.336731	0.000000
739.374512	0.000000
739.412292	0.000000
739.450073	0.000000
739.487854	0.000000
739.525635	0.000000
739.563416	0.000000
739.601135	0.000000
739.638977	0.000000
739.676758	0.000000
739.714478	0.000000
739.752258	0.000000
739.790100	0.000000
739.827820	0.000000
739.865601	0.000000
739.903381	0.000000
739.941101	0.000000
739.978882	199.200000
740.016724	193.900000
740.054443	200.700000
740.092224	191.700000
740.130005	189.800000
740.167725	191.400000
740.205505	191.300000
740.243225	199.800000
740.281006	196.800000
740.318787	187.600000
740.356506	199.800000
740.394287	198.500000
740.432068	190.100000
740.469727	187.900000
740.507507	199.200000
740.545288	193.300000
740.583008	197.200000
740.620789	194.000000
740.658569	186.000000
740.696228	193.700000
740.734009	201.800000
740.771790	182.000000
740.809509	199.900000
740.847229	189.200000
740.884949	192.000000
740.922729	186.600000
740.960449	192.700000
740.998169	188.800000
741.035950	190.400000
741.073669	195.900000
741.111389	195.700000
741.149170	203.900000
741.186890	206.200000
741.224609	198.500000
741.262329	196.700000
741.300110	204.800000
741.337769	189.600000
741.375549	188.000000
741.413208	196.600000
741.450989	190.000000
741.488708	192.600000
741.526367	192.100000
741.564148	199.100000
741.601868	198.100000
741.639526	193.700000
741.677307	196.900000
741.715027	197.100000
741.752686	190.700000
741.790466	199.900000
741.828186	197.100000
741.865845	189.800000
741.903564	186.000000
741.941345	195.000000
741.979004	190.300000
742.016724	196.300000
742.054382	195.500000
742.092102	200.200000
742.129822	187.600000
742.167480	192.100000
742.205200	194.800000
742.242920	195.000000
742.280640	199.500000
742.318359	189.700000
742.356079	191.400000
742.393738	196.000000
742.431396	193.800000
742.469116	197.200000
742.506775	184.100000
742.544495	196.900000
742.582214	199.200000
742.619873	193.800000
742.657593	202.400000
742.695251	197.800000
742.732971	193.600000
742.770630	196.100000
742.808289	196.100000
742.846008	194.200000
742.883728	198.400000
742.921326	194.200000
742.959045	191.900000
742.996765	194.800000
743.034424	194.900000
743.072083	190.700000
743.109802	194.400000
743.147400	188.100000
743.185120	196.000000
743.222839	193.400000
743.260437	200.900000
743.298157	196.400000
743.335754	187.600000
743.373474	192.700000
743.411133	187.900000
743.448792	196.100000
743.486450	194.400000
743.524170	186.800000
743.561768	193.000000
743.599487	200.200000
743.637146	206.000000
743.674744	192.400000
743.712463	192.600000
743.750122	195.000000
743.787720	197.400000
743.825439	189.200000
743.863037	191.500000
743.900696	194.500000
743.938416	219.100000
743.976013	193.000000
744.013672	203.700000
744.051331	200.000000
744.088928	202.400000
744.126587	202.000000
744.164307	194.900000
744.201904	192.600000
744.239563	198.000000
744.277222	197.200000
744.314819	192.800000
744.352478	202.000000
744.390137	197.000000
744.427734	197.200000
744.465393	191.600000
744.502991	190.700000
744.540649	198.200000
744.578308	197.100000
744.615906	188.000000
744.653564	184.800000
744.691223	199.200000
744.728821	187.700000
744.766418	193.500000
744.804077	197.400000
744.841675	191.900000
744.879333	188.400000
744.916992	194.100000
744.954529	192.600000
744.992187	200.500000
745.029785	192.900000
745.067444	190.700000
745.105042	195.200000
745.142639	196.100000
745.180298	204.300000
745.217896	194.100000
745.255493	192.200000
745.293152	198.700000
745.330750	198.100000
745.368347	201.700000
745.405945	198.100000
745.443604	195.500000
745.481140	196.900000
745.518799	193.500000
745.556396	198.000000
745.593994	198.500000
745.631592	193.400000
745.669189	189.900000
745.706787	196.600000
745.744385	191.000000
745.781982	195.900000
745.819580	191.000000
745.857178	192.100000
745.894775	194.500000
745.932373	195.200000
745.969971	194.900000
746.007568	185.500000
746.045166	204.100000
746.082764	199.700000
746.120300	198.900000
746.157898	196.600000
746.195557	194.100000
746.233093	189.000000
746.270691	199.300000
746.308228	195.400000
746.345825	200.700000
746.383423	197.900000
746.420959	191.000000
746.458557	193.000000
746.496155	192.900000
746.533691	193.900000
746.571289	190.800000
746.608887	194.600000
746.646423	197.300000
746.684021	194.800000
746.721619	192.300000
746.759155	195.600000
746.796753	187.700000
746.834351	187.800000
746.871826	190.400000
746.909424	201.500000
746.946960	195.400000
746.984558	193.300000
747.022156	192.700000
747.059631	202.800000
747.097229	196.700000
747.134827	193.200000
747.172363	201.900000
747.209900	195.600000
747.247498	188.800000
747.285034	202.500000
747.322571	201.200000
747.360168	193.800000
747.397644	185.400000
747.435242	199.000000
747.472778	201.400000
747.510315	191.700000
747.547913	191.300000
747.585388	201.800000
747.622925	192.700000
747.660522	186.400000
747.697998	189.000000
747.735596	195.100000
747.773132	190.500000
747.810669	194.000000
747.848206	197.700000
747.885742	189.600000
747.923279	188.800000
747.960815	198.000000
747.998352	194.200000
748.035889	200.200000
748.073425	200.100000
748.110901	192.600000
748.148437	190.100000
748.185974	195.700000
748.223511	204.300000
748.261047	197.500000
748.298584	196.400000
748.336060	195.000000
748.373596	197.300000
748.411133	213.100000
748.448608	191.100000
748.486145	200.900000
748.523682	203.700000
748.561218	202.100000
748.598755	195.000000
748.636292	197.200000
748.673706	192.400000
748.711243	200.800000
748.748718	196.600000
748.786255	195.300000
748.823792	194.400000
748.861267	189.800000
748.898804	196.600000
748.936340	196.400000
748.973816	193.400000
749.011292	200.000000
749.048828	195.500000
749.086304	196.800000
749.123840	207.100000
749.161316	189.000000
749.198792	204.400000
749.236328	201.100000
749.273743	195.000000
749.311279	192.500000
749.348816	197.900000
749.386230	196.100000
749.423767	184.100000
749.461304	196.700000
749.498718	195.300000
749.536255	201.800000
749.573730	208.800000
749.611206	199.200000
749.648682	194.100000
749.686218	194.100000
749.723633	201.500000
749.761169	193.000000
749.798645	191.000000
749.836060	193.300000
749.873596	191.500000
749.911011	193.100000
749.948547	202.900000
749.986023	194.600000
750.023437	194.800000
750.060913	188.500000
750.098450	189.600000
750.135864	194.200000
750.173340	196.500000
750.210815	200.600000
750.248291	190.200000
750.285767	194.300000
750.323242	201.800000
750.360657	197.600000
750.398132	188.900000
750.435608	199.100000
750.473022	190.700000
750.510498	190.900000
750.547974	190.700000
750.585449	193.400000
750.622925	184.000000
750.660339	203.100000
750.697815	196.000000
750.735291	194.000000
750.772644	195.700000
750.810120	193.900000
750.847595	196.800000
750.885010	190.600000
750.922485	202.100000
750.959961	194.200000
750.997375	202.600000
751.034851	199.300000
751.072266	200.000000
751.109680	188.100000
751.147156	200.300000
751.184570	198.500000
751.221985	196.600000
751.259460	185.400000
751.296875	194.300000
751.334290	197.200000
751.371765	199.600000
751.409180	199.200000
751.446594	201.300000
751.484070	198.600000
751.521423	197.300000
751.558899	197.000000
751.596375	202.600000
751.633728	203.000000
751.671204	209.200000
751.708618	192.200000
751.746033	196.700000
751.783447	189.900000
751.820801	191.400000
751.858276	198.200000
751.895691	195.800000
751.933105	193.600000
751.970520	191.000000
752.007935	193.000000
752.045349	200.100000
752.082764	196.500000
752.120178	194.100000
752.157532	191.100000
752.195007	191.700000
752.232422	197.700000
752.269775	201.300000
752.307190	197.700000
752.344543	190.700000
752.382019	194.500000
752.419434	193.900000
752.456787	196.000000
752.494202	200.100000
752.531616	197.700000
752.568970	199.200000
752.606384	195.700000
752.643799	197.400000
752.681152	203.200000
752.718567	200.200000
752.755981	185.300000
752.793335	198.700000
752.830750	185.500000
752.868164	202.300000
752.905518	190.800000
752.942932	200.400000
752.980225	189.700000
753.017639	200.800000
753.055054	193.100000
753.092407	199.000000
753.129822	201.400000
753.167175	205.700000
753.204529	195.300000
753.241943	194.500000
753.279358	188.200000
753.316650	199.800000
753.354065	197.800000
753.391479	200.900000
753.428772	204.300000
753.466187	199.400000
753.503479	189.500000
753.540894	195.200000
753.578308	190.800000
753.615601	190.800000
753.653015	195.400000
753.690369	193.500000
753.727722	191.400000
753.765076	188.400000
753.802490	190.800000
753.839783	187.100000
753.877136	193.500000
753.914551	211.200000
753.951843	188.700000
753.989258	198.600000
754.026611	196.000000
754.063904	196.200000
754.101257	189.900000
754.138611	186.000000
754.175964	196.500000
754.213318	206.400000
754.250610	187.300000
754.288025	191.700000
754.325378	190.100000
754.362671	200.700000
754.400024	193.300000
754.437378	204.400000
754.474670	205.800000
754.512085	191.300000
754.549438	196.300000
754.586731	193.400000
754.624084	194.400000
754.661438	190.600000
754.698730	204.500000
754.736084	192.800000
754.773376	195.500000
754.810730	198.000000
754.848083	194.300000
754.885315	200.400000
754.922668	188.800000
754.960022	191.000000
754.997314	201.100000
755.034668	196.700000
755.072021	197.000000
755.109253	193.700000
755.146606	204.800000
755.183960	194.900000
755.221252	206.200000
755.258545	204.400000
755.295898	203.100000
755.333191	204.900000
755.370544	201.100000
755.407776	197.700000
755.445129	198.700000
755.482422	201.900000
755.519714	194.000000
755.557068	190.500000
755.594360	187.900000
755.631653	203.200000
755.668945	207.800000
755.706299	201.200000
755.743530	208.900000
755.780884	206.700000
755.818176	205.800000
755.855408	204.100000
755.892761	200.800000
755.930054	200.500000
755.967346	202.300000
756.004639	205.100000
756.041870	199.300000
756.079224	206.100000
756.116516	196.200000
756.153748	205.400000
756.191040	207.600000
756.228394	204.500000
756.265625	195.800000
756.302917	201.600000
756.340210	196.400000
756.377441	207.700000
756.414795	207.500000
756.452087	201.500000
756.489319	195.300000
756.526611	204.700000
756.563843	201.500000
756.601135	214.000000
756.638428	209.900000
756.675659	202.800000
756.712952	207.200000
756.750244	207.700000
756.787476	203.200000
756.824768	211.600000
756.862061	200.500000
756.899292	250.100000
756.936584	208.400000
756.973816	214.200000
757.011047	217.500000
757.048340	205.700000
757.085632	204.500000
757.122864	220.500000
757.160156	204.600000
757.197327	207.500000
757.234619	208.700000
757.271912	204.000000
757.309082	212.100000
757.346375	202.400000
757.383667	212.900000
757.420837	208.300000
757.458130	208.600000
757.495422	207.000000
757.532593	208.200000
757.569885	199.500000
757.607117	201.400000
757.644348	208.700000
757.681580	221.100000
757.718811	194.600000
757.756042	207.200000
757.793335	205.300000
757.830505	211.900000
757.867798	204.200000
757.905029	204.600000
757.942200	208.400000
757.979492	204.500000
758.016724	206.500000
758.053894	207.400000
758.091187	226.200000
758.128418	209.400000
758.165588	207.200000
758.202820	221.300000
758.240112	210.600000
758.277283	222.200000
758.314514	211.200000
758.351685	207.500000
758.388916	219.400000
758.426147	218.800000
758.463379	220.600000
758.500610	214.500000
758.537842	211.100000
758.575012	219.100000
758.612244	207.100000
758.649475	226.600000
758.686646	205.200000
758.723877	220.600000
758.761108	220.000000
758.798279	213.300000
758.835510	214.900000
758.872742	221.200000
758.909851	216.600000
758.947083	217.700000
758.984253	216.400000
759.021484	221.000000
759.058716	219.200000
759.095886	219.000000
759.133057	213.800000
759.170288	219.000000
759.207458	210.600000
759.244690	225.600000
759.281860	226.100000
759.319031	215.700000
759.356262	215.800000
759.393433	213.600000
759.430603	215.900000
759.467773	214.500000
759.505005	224.300000
759.542175	221.500000
759.579346	216.400000
759.616516	215.700000
759.653687	219.500000
759.690918	213.800000
759.728027	218.800000
759.765259	219.000000
759.802429	221.500000
759.839539	218.400000
759.876770	224.300000
759.913940	228.300000
759.951111	221.200000
759.988281	218.800000
760.025452	217.200000
760.062561	214.300000
760.099792	229.600000
760.136963	223.000000
760.174072	220.100000
760.211243	213.300000
760.248413	217.000000
760.285583	216.500000
760.322754	232.200000
760.359863	226.900000
760.397034	229.000000
760.434204	220.700000
760.471375	221.300000
760.508545	220.700000
760.545715	221.200000
760.582825	218.100000
760.619995	227.500000
760.657166	216.000000
760.694275	228.600000
760.731445	225.300000
760.768555	226.500000
760.805664	227.000000
760.842834	226.600000
760.879944	227.300000
760.917114	226.000000
760.954285	225.200000
760.991394	220.200000
761.028564	231.300000
761.065674	228.500000
761.102783	222.400000
761.139954	232.100000
761.177124	231.800000
761.214172	234.600000
761.251343	226.200000
761.288452	227.800000
761.325562	233.200000
761.362732	225.100000
761.399841	229.800000
761.436951	231.200000
761.474121	227.400000
761.511169	230.700000
761.548340	235.900000
761.585449	234.000000
761.622559	237.700000
761.659668	233.400000
761.696838	240.700000
761.733887	236.200000
761.771057	235.400000
761.808167	235.000000
761.845276	241.200000
761.882385	249.800000
761.919434	239.600000
761.956604	257.100000
761.993713	235.100000
762.030762	244.900000
762.067871	240.900000
762.105042	237.700000
762.142090	250.500000
762.179199	242.700000
762.216309	248.900000
762.253418	257.900000
762.290527	252.000000
762.327637	249.200000
762.364685	239.200000
762.401794	247.800000
762.438904	246.400000
762.475952	241.600000
762.513062	240.600000
762.550110	241.100000
762.587219	258.100000
762.624329	256.300000
762.661377	250.700000
762.698486	247.100000
762.735596	248.900000
762.772644	242.900000
762.809753	240.200000
762.846863	249.500000
762.883911	252.800000
762.921021	253.200000
762.958069	250.000000
762.995117	259.800000
763.032227	259.200000
763.069336	250.900000
763.106323	247.200000
763.143433	246.600000
763.180481	253.900000
763.217590	255.200000
763.254639	251.100000
763.291687	254.700000
763.328735	261.400000
763.365845	254.700000
763.402893	253.500000
763.439941	258.500000
763.477051	260.300000
763.514038	263.400000
763.551147	253.600000
763.588196	259.500000
763.625244	257.300000
763.662292	267.800000
763.699402	268.400000
763.736389	264.400000
763.773499	274.200000
763.810486	270.000000
763.847534	262.800000
763.884644	268.800000
763.921631	263.200000
763.958679	275.700000
763.995728	263.600000
764.032776	274.300000
764.069824	260.500000
764.106873	269.100000
764.143860	277.000000
764.180969	266.600000
764.218018	275.200000
764.255005	269.000000
764.292053	269.900000
764.329102	282.500000
764.366089	282.900000
764.403137	279.800000
764.440125	270.500000
764.477173	273.600000
764.514221	275.300000
764.551208	272.800000
764.588257	269.500000
764.625305	280.800000
764.662292	285.900000
764.699341	292.200000
764.736389	280.900000
764.773376	297.100000
764.810425	284.600000
764.847473	290.400000
764.884399	286.900000
764.921448	293.800000
764.958435	293.200000
764.995483	280.300000
765.032532	300.100000
765.069458	285.200000
765.106506	286.600000
765.143555	282.500000
765.180481	289.600000
765.217529	298.800000
765.254578	283.200000
765.291504	292.200000
765.328552	289.100000
765.365540	287.100000
765.402527	301.300000
765.439575	286.900000
765.476501	284.100000
765.513550	284.600000
765.550537	289.300000
765.587463	298.200000
765.624512	289.200000
765.661499	281.600000
765.698486	301.200000
765.735474	288.700000
765.772461	293.000000
765.809448	300.300000
765.846436	296.400000
765.883423	302.100000
765.920410	295.400000
765.957397	292.000000
765.994385	298.400000
766.031311	307.000000
766.068359	298.800000
766.105286	300.800000
766.142273	307.500000
766.179260	301.800000
766.216187	295.000000
766.253174	292.500000
766.290161	302.500000
766.327148	306.500000
766.364136	306.600000
766.401123	323.200000
766.438049	298.000000
766.475037	315.500000
766.512024	310.700000
766.548950	326.700000
766.585937	320.000000
766.622864	318.800000
766.659790	316.300000
766.696777	306.700000
766.733704	321.800000
766.770691	314.200000
766.807678	329.200000
766.844604	325.600000
766.881531	322.400000
766.918518	330.600000
766.955444	333.300000
766.992432	327.600000
767.029358	328.700000
767.066284	335.200000
767.103271	332.400000
767.140198	362.500000
767.177124	348.200000
767.214050	339.900000
767.251038	338.600000
767.287964	338.100000
767.324890	331.200000
767.361816	340.400000
767.398743	346.800000
767.435730	341.400000
767.472595	345.700000
767.509583	350.300000
767.546509	337.400000
767.583374	347.400000
767.620361	340.400000
767.657288	346.800000
767.694214	348.800000
767.731140	347.500000
767.768066	348.000000
767.804993	355.100000
767.841919	344.600000
767.878845	354.100000
767.915710	362.300000
767.952698	356.100000
767.989563	359.300000
768.026489	360.400000
768.063416	354.700000
768.100281	353.900000
768.137207	370.400000
768.174133	366.200000
768.211060	364.900000
768.247986	363.600000
768.284912	365.400000
768.321777	367.300000
768.358704	367.900000
768.395630	371.800000
768.432495	367.000000
768.469421	373.300000
768.506348	381.700000
768.543152	384.400000
768.580078	380.300000
768.616943	381.800000
768.653870	386.000000
768.690796	384.600000
768.727661	382.100000
768.764587	385.600000
768.801453	382.300000
768.838318	393.600000
768.875244	389.700000
768.912109	396.300000
768.948975	386.600000
768.985901	390.300000
769.022766	391.800000
769.059631	398.100000
769.096558	392.400000
769.133362	393.500000
769.170288	397.300000
769.207214	396.400000
769.244019	403.700000
769.280945	402.200000
769.317810	410.400000
769.354675	402.300000
769.391541	412.400000
769.428406	408.800000
769.465271	421.100000
769.502136	408.500000
769.539062	414.000000
769.575867	413.300000
769.612732	412.600000
769.649597	422.200000
769.686462	426.300000
769.723328	422.800000
769.760193	417.600000
769.797058	422.100000
769.833923	429.200000
769.870728	423.400000
769.907593	430.400000
769.944519	428.800000
769.981323	431.600000
770.018188	432.400000
770.055054	430.800000
770.091858	428.100000
770.128723	443.300000
770.165588	451.800000
770.202393	431.600000
770.239258	444.400000
770.276062	441.900000
770.312927	443.700000
770.349792	450.800000
770.386597	448.500000
770.423462	455.100000
770.460327	465.700000
770.497131	446.200000
770.533997	443.700000
770.570862	459.000000
770.607605	462.600000
770.644470	449.200000
770.681335	453.500000
770.718140	453.000000
770.754944	448.200000
770.791809	447.500000
770.828613	450.100000
770.865479	453.000000
770.902222	467.200000
770.939087	454.500000
770.975952	447.600000
771.012695	452.800000
771.049561	469.600000
771.086365	454.300000
771.123169	455.000000
771.159973	457.800000
771.196838	456.700000
771.233582	460.100000
771.270447	462.800000
771.307251	465.100000
771.344055	462.500000
771.380859	465.400000
771.417664	459.500000
771.454468	472.000000
771.491272	469.200000
771.528076	470.800000
771.564880	472.700000
771.601685	484.400000
771.638428	469.700000
771.675293	477.000000
771.712097	468.000000
771.748840	486.300000
771.785645	476.700000
771.822449	484.800000
771.859253	484.600000
771.896057	481.800000
771.932861	495.200000
771.969604	487.200000
772.006409	478.100000
772.043213	494.600000
772.079956	489.800000
772.116760	483.500000
772.153503	487.200000
772.190308	499.200000
772.227112	491.300000
772.263855	488.300000
772.300659	495.300000
772.337463	501.600000
772.374207	491.900000
772.411011	491.500000
772.447754	493.300000
772.484497	516.100000
772.521301	508.000000
772.558105	506.900000
772.594849	508.500000
772.631592	518.400000
772.668396	514.600000
772.705139	521.000000
772.741882	521.000000
772.778625	535.500000
772.815430	536.400000
772.852173	529.200000
772.888916	541.100000
772.925720	545.900000
772.962463	549.100000
772.999207	546.000000
773.035950	550.500000
773.072754	552.400000
773.109436	545.300000
773.146240	545.300000
773.182922	550.800000
773.219727	562.200000
773.256470	556.000000
773.293152	544.100000
773.329956	549.900000
773.366699	553.200000
773.403381	545.300000
773.440186	557.000000
773.476929	559.700000
773.513611	555.500000
773.550354	560.900000
773.587158	560.300000
773.623840	552.700000
773.660583	569.400000
773.697327	586.100000
773.734009	569.100000
773.770813	570.400000
773.807495	568.000000
773.844238	576.800000
773.880981	594.400000
773.917664	590.900000
773.954407	595.200000
773.991150	585.800000
774.027832	589.300000
774.064575	585.500000
774.101318	595.400000
774.138000	603.300000
774.174744	596.600000
774.211487	605.700000
774.248108	590.700000
774.284851	592.100000
774.321594	606.700000
774.358276	609.300000
774.395020	619.500000
774.431702	621.900000
774.468384	610.400000
774.505127	606.400000
774.541809	620.700000
774.578491	634.700000
774.615234	637.000000
774.651917	626.400000
774.688599	635.200000
774.725342	642.400000
774.762024	641.800000
774.798706	648.200000
774.835449	648.600000
774.872070	651.600000
774.908813	644.000000
774.945496	641.700000
774.982178	644.200000
775.018860	651.100000
775.055542	657.800000
775.092224	653.800000
775.128967	666.600000
775.165588	661.200000
775.202271	649.200000
775.239014	661.500000
775.275635	664.700000
775.312317	663.900000
775.349060	673.700000
775.385681	669.000000
775.422363	662.700000
775.459045	675.200000
775.495667	676.500000
775.532410	680.100000
775.569092	679.400000
775.605713	683.900000
775.642395	680.100000
775.679016	684.100000
775.715698	688.700000
775.752380	690.500000
775.789001	687.000000
775.825684	687.600000
775.862366	687.700000
775.898987	697.700000
775.935669	690.000000
775.972351	715.700000
776.008972	704.500000
776.045654	705.100000
776.082336	698.000000
776.118958	699.300000
776.155640	705.400000
776.192322	716.200000
776.228882	721.200000
776.265564	715.200000
776.302185	709.800000
776.338867	715.800000
776.375488	702.700000
776.412109	721.100000
776.448792	727.100000
776.485413	730.200000
776.522034	715.700000
776.558716	716.200000
776.595337	715.900000
776.631958	724.300000
776.668579	723.800000
776.705261	725.700000
776.741882	717.100000
776.778503	717.900000
776.815186	710.900000
776.851746	728.200000
776.888367	727.700000
776.924988	735.400000
776.961609	722.100000
776.998291	720.900000
777.034851	710.600000
777.071472	726.600000
777.108154	725.400000
777.144714	737.400000
777.181335	739.900000
777.218018	730.600000
777.254578	732.500000
777.291199	733.000000
777.327759	743.800000
777.364380	750.100000
777.401062	757.500000
777.437622	770.300000
777.474243	750.800000
777.510864	766.300000
777.547424	757.600000
777.584045	766.100000
777.620667	766.800000
777.657227	772.700000
777.693848	776.000000
777.730469	795.800000
777.767029	784.400000
777.803650	788.600000
777.840271	779.100000
777.876831	783.900000
777.913452	786.800000
777.950012	771.600000
777.986633	768.300000
778.023193	766.900000
778.059753	771.400000
778.096375	773.500000
778.132996	789.100000
778.169556	776.500000
778.206116	773.200000
778.242737	773.600000
778.279297	784.700000
778.315857	774.500000
778.352478	786.600000
778.389038	796.800000
778.425598	800.700000
778.462219	806.600000
778.498718	806.500000
778.535339	818.200000
778.571838	817.900000
778.608459	828.300000
778.645020	820.100000
778.681580	831.500000
778.718140	837.100000
778.754761	833.000000
778.791260	837.700000
778.827881	848.600000
778.864441	845.400000
778.900940	845.600000
778.937561	847.500000
778.974121	842.300000
779.010620	830.900000
779.047241	838.000000
779.083801	854.900000
779.120300	855.400000
779.156860	856.100000
779.193359	855.500000
779.229980	861.000000
779.266541	866.200000
779.303040	868.400000
779.339600	855.400000
779.376160	858.000000
779.412659	868.600000
779.449219	856.900000
779.485779	867.500000
779.522278	867.700000
779.558838	876.500000
779.595398	884.100000
779.631897	884.600000
779.668457	873.300000
779.705017	880.900000
779.741516	865.300000
779.778076	868.500000
779.814575	882.100000
779.851074	889.600000
779.887634	885.600000
779.924133	893.000000
779.960693	877.600000
779.997253	896.400000
780.033691	897.500000
780.070251	893.600000
780.106812	908.800000
780.143250	906.300000
780.179810	897.400000
780.216370	907.200000
780.252808	919.100000
780.289368	934.600000
780.325867	935.600000
780.362366	931.300000
780.398865	940.300000
780.435364	934.900000
780.471863	948.100000
780.508423	952.000000
780.544861	962.500000
780.581421	969.000000
780.617920	956.200000
780.654419	951.400000
780.690918	956.600000
780.727417	966.100000
780.763916	965.700000
780.800415	967.500000
780.836914	953.300000
780.873352	960.800000
780.909912	947.000000
780.946411	956.000000
780.982849	970.600000
781.019348	992.100000
781.055786	985.200000
781.092346	979.900000
781.128845	986.200000
781.165283	1000.500000
781.201782	1002.200000
781.238281	1007.500000
781.274719	1018.100000
781.311218	1008.400000
781.347717	1016.500000
781.384155	998.800000
781.420654	1001.400000
781.457092	1016.700000
781.493591	1010.100000
781.530090	1004.700000
781.566528	1010.800000
781.602966	1012.900000
781.639465	1006.300000
781.675903	1013.300000
781.712402	1027.200000
781.748901	1023.600000
781.785278	1015.600000
781.821777	1021.900000
781.858276	1010.700000
781.894714	1028.100000
781.931152	1016.900000
781.967651	1032.900000
782.004089	1024.900000
782.040527	1036.400000
782.076965	1032.200000
782.113403	1026.900000
782.149902	1039.400000
782.186340	1034.700000
782.222778	1050.100000
782.259277	1029.200000
782.295654	1028.200000
782.332092	1031.200000
782.368591	1028.000000
782.404968	1021.300000
782.441467	1034.000000
782.477905	1039.600000
782.514282	1028.300000
782.550781	1049.100000
782.587219	1045.700000
782.623596	1043.800000
782.660095	1048.800000
782.696472	1055.200000
782.732910	1055.100000
782.769348	1066.400000
782.805786	1084.900000
782.842224	1079.200000
782.878662	1073.100000
782.915039	1075.900000
782.951477	1070.200000
782.987915	1056.600000
783.024292	1068.200000
783.060730	1063.100000
783.097168	1057.800000
783.133545	1059.500000
783.169983	1051.700000
783.206421	1043.700000
783.242798	1038.100000
783.279236	1032.100000
783.315613	1026.700000
783.352051	1023.200000
783.388489	1014.000000
783.424866	997.700000
783.461304	1004.000000
783.497681	1017.000000
783.534058	1008.900000
783.570496	1007.800000
783.606934	992.700000
783.643250	995.400000
783.679687	1009.100000
783.716125	1013.200000
783.752441	1023.600000
783.788879	1038.500000
783.825317	1043.500000
783.861633	1046.100000
783.898071	1051.900000
783.934448	1072.400000
783.970825	1084.200000
784.007263	1085.500000
784.043579	1096.800000
784.080017	1099.200000
784.116394	1091.400000
784.152710	1096.200000
784.189148	1091.200000
784.225525	1062.800000
784.261902	977.000000
784.298279	841.700000
784.334656	669.100000
784.371033	491.900000
784.407410	390.300000
784.443787	363.900000
784.480164	389.300000
784.516541	402.600000
784.552856	409.300000
784.589233	383.500000
784.625610	368.000000
784.661987	455.500000
784.698364	585.200000
784.734741	742.700000
784.771057	889.200000
784.807434	984.200000
784.843811	1043.800000
784.880127	1059.200000
784.916504	1097.600000
784.952881	1107.600000
784.989197	1101.800000
785.025574	1104.300000
785.061951	1119.200000
785.098267	1139.600000
785.134644	1138.300000
785.170959	1138.400000
785.207275	1142.100000
785.243652	1143.300000
785.279968	1132.500000
785.316345	1135.800000
785.352722	1144.000000
785.388977	1142.700000
785.425354	1128.900000
785.461731	1098.500000
785.498047	1096.100000
785.534363	1095.300000
785.570679	1096.300000
785.606995	1098.800000
785.643372	1105.600000
785.679687	1097.000000
785.716003	1080.700000
785.752380	1073.800000
785.788635	1075.600000
785.825012	1103.800000
785.861328	1118.700000
785.897644	1102.700000
785.933960	1119.100000
785.970337	1123.500000
786.006592	1142.400000
786.042908	1147.700000
786.079285	1163.100000
786.115540	1176.800000
786.151855	1174.900000
786.188171	1173.300000
786.224487	1175.900000
786.260803	1174.300000
786.297119	1185.900000
786.333435	1185.700000
786.369751	1185.500000
786.406006	1180.500000
786.442322	1172.800000
786.478638	1157.300000
786.514954	1172.600000
786.551270	1171.900000
786.587585	1187.700000
786.623840	1169.700000
786.660156	1163.100000
786.696472	1154.800000
786.732727	1138.900000
786.769043	1149.600000
786.805298	1146.400000
786.841614	1150.600000
786.877930	1150.400000
786.914124	1130.400000
786.950439	1141.300000
786.986755	1150.900000
787.023010	1166.100000
787.059326	1178.900000
787.095642	1178.600000
787.131836	1196.100000
787.168152	1183.400000
787.204468	1191.600000
787.240723	1213.900000
787.276978	1235.900000
787.313293	1233.200000
787.349548	1233.100000
787.385803	1232.800000
787.422058	1223.500000
787.458313	1230.500000
787.494629	1241.400000
787.530823	1232.900000
787.567139	1218.500000
787.603455	1194.300000
787.639648	1180.400000
787.675903	1188.300000
787.712219	1198.500000
787.748413	1202.000000
787.784729	1199.600000
787.820984	1179.300000
787.857178	1177.800000
787.893494	1167.000000
787.929749	1154.000000
787.965942	1157.800000
788.002258	1183.600000
788.038452	1194.900000
788.074707	1180.100000
788.110962	1177.600000
788.147217	1173.800000
788.183472	1183.200000
788.219727	1194.900000
788.255920	1214.900000
788.292175	1224.100000
788.328430	1219.300000
788.364624	1199.600000
788.400879	1184.000000
788.437134	1195.700000
788.473328	1199.000000
788.509583	1194.600000
788.545837	1189.200000
788.582031	1189.600000
788.618286	1176.800000
788.654480	1163.700000
788.690735	1177.400000
788.726990	1192.400000
788.763184	1193.700000
788.799377	1207.300000
788.835632	1195.300000
788.871826	1211.700000
788.908081	1214.800000
788.944336	1209.300000
788.980469	1231.400000
789.016724	1226.700000
789.052979	1215.400000
789.089111	1198.400000
789.125366	1206.300000
789.161621	1190.200000
789.197754	1197.900000
789.234009	1190.100000
789.270142	1171.000000
789.306396	1162.500000
789.342590	1149.100000
789.378784	1125.400000
789.414978	1118.200000
789.451233	1145.200000
789.487366	1148.000000
789.523621	1154.100000
789.559814	1142.200000
789.595947	1130.400000
789.632202	1139.900000
789.668335	1154.100000
789.704529	1176.700000
789.740784	1201.200000
789.776917	1197.200000
789.813110	1179.800000
789.849304	1197.700000
789.885498	1208.600000
789.921692	1216.100000
789.957886	1224.900000
789.994019	1229.600000
790.030212	1219.900000
790.066406	1220.000000
790.102539	1204.100000
790.138733	1219.200000
790.174927	1220.800000
790.211060	1226.800000
790.247253	1214.200000
790.283386	1203.600000
790.319580	1185.200000
790.355774	1171.000000
790.391907	1189.100000
790.428101	1202.700000
790.464294	1205.300000
790.500427	1206.200000
790.536621	1182.700000
790.572754	1163.700000
790.608887	1169.500000
790.645081	1185.800000
790.681274	1195.900000
790.717346	1198.500000
790.753540	1164.000000
790.789734	1084.700000
790.825867	1021.400000
790.862000	1019.700000
790.898132	1059.700000
790.934265	1119.900000
790.970459	1184.000000
791.006592	1202.700000
791.042725	1205.900000
791.078918	1201.400000
791.114990	1204.300000
791.151184	1217.700000
791.187317	1246.500000
791.223389	1238.000000
791.259583	1232.200000
791.295715	1229.300000
791.331848	1243.500000
791.367981	1263.000000
791.404114	1264.700000
791.440247	1253.800000
791.476379	1255.500000
791.512451	1235.000000
791.548584	1239.600000
791.584778	1231.300000
791.620850	1254.500000
791.656982	1261.500000
791.693115	1249.300000
791.729187	1246.400000
791.765381	1236.300000
791.801514	1229.700000
791.837585	1229.600000
791.873718	1247.600000
791.909851	1267.100000
791.945923	1269.700000
791.982056	1232.100000
792.018188	1230.600000
792.054260	1229.000000
792.090393	1222.600000
792.126465	1220.700000
792.162598	1246.900000
792.198669	1221.800000
792.234741	1219.600000
792.270874	1206.300000
792.307007	1186.800000
792.343079	1198.600000
792.379150	1213.600000
792.415283	1195.200000
792.451355	1205.200000
792.487488	1175.000000
792.523560	1177.300000
792.559631	1180.500000
792.595764	1185.400000
792.631836	1190.500000
792.667908	1196.600000
792.703979	1175.000000
792.740051	1169.300000
792.776184	1173.000000
792.812256	1175.200000
792.848328	1181.100000
792.884399	1185.200000
792.920471	1187.100000
792.956543	1184.400000
792.992615	1187.200000
793.028748	1184.200000
793.064758	1186.000000
793.100830	1203.100000
793.136963	1213.400000
793.172974	1214.400000
793.209045	1204.500000
793.245178	1212.700000
793.281189	1201.300000
793.317261	1209.600000
793.353271	1208.600000
793.389404	1214.000000
793.425476	1208.700000
793.461487	1187.400000
793.497559	1182.900000
793.533630	1194.700000
793.569641	1193.500000
793.605713	1202.700000
793.641785	1201.900000
793.677795	1212.400000
793.713867	1188.600000
793.749878	1191.000000
793.785950	1215.600000
793.822021	1213.300000
793.858032	1203.500000
793.894104	1216.700000
793.930176	1195.900000
793.966187	1202.800000
794.002258	1195.400000
794.038269	1203.400000
794.074280	1190.900000
794.110352	1215.700000
794.146423	1187.100000
794.182373	1180.600000
794.218445	1179.000000
794.254517	1166.400000
794.290466	1154.000000
794.326538	1159.100000
794.362549	1162.400000
794.398560	1168.100000
794.434631	1167.200000
794.470581	1130.200000
794.506653	1127.600000
794.542664	1131.300000
794.578674	1126.400000
794.614685	1121.000000
794.650757	1121.200000
794.686707	1113.200000
794.722778	1104.100000
794.758789	1115.700000
794.794739	1120.500000
794.830811	1147.000000
794.866821	1168.700000
794.902771	1164.300000
794.938843	1148.800000
794.974792	1144.700000
795.010803	1147.000000
795.046814	1154.100000
795.082825	1135.800000
795.118835	1146.800000
795.154846	1116.600000
795.190796	1131.000000
795.226807	1109.100000
795.262817	1115.800000
795.298767	1112.200000
795.334778	1113.100000
795.370850	1100.300000
795.406799	1107.800000
795.442810	1085.000000
795.478821	1084.900000
795.514709	1081.600000
795.550720	1095.600000
795.586670	1078.700000
795.622681	1091.600000
795.658691	1083.400000
795.694641	1077.500000
795.730652	1064.500000
795.766663	1074.400000
795.802551	1076.400000
795.838562	1088.700000
795.874573	1071.500000
795.910522	1076.600000
795.946472	1064.500000
795.982483	1074.500000
796.018433	1077.700000
796.054382	1083.400000
796.090393	1071.300000
796.126282	1060.100000
796.162292	1045.000000
796.198242	1042.500000
796.234192	1044.000000
796.270203	1041.200000
796.306091	1048.600000
796.342041	1073.300000
796.378052	1057.800000
796.413940	1044.900000
796.449951	1044.800000
796.485901	1043.400000
796.521790	1044.600000
796.557800	1059.800000
796.593689	1051.600000
796.629639	1038.800000
796.665649	1039.800000
796.701599	1038.500000
796.737488	1035.800000
796.773437	1039.300000
796.809387	1042.000000
796.845337	1033.600000
796.881287	1022.900000
796.917175	1002.900000
796.953125	1005.800000
796.989075	1020.200000
797.024963	1030.100000
797.060913	1026.000000
797.096863	1026.900000
797.132751	1027.000000
797.168701	1000.800000
797.204590	1008.100000
797.240540	1010.400000
797.276489	1015.700000
797.312439	1020.500000
797.348328	1009.900000
797.384277	1006.300000
797.420166	988.300000
797.456055	991.000000
797.492004	987.000000
797.527893	999.800000
797.563843	1000.400000
797.599731	993.200000
797.635620	977.300000
797.671570	981.700000
797.707520	980.200000
797.743347	987.000000
797.779297	990.400000
797.815125	985.200000
797.851074	972.900000
797.887024	967.500000
797.922913	960.700000
797.958801	980.300000
797.994690	975.500000
798.030579	981.400000
798.066467	989.900000
798.102356	968.400000
798.138245	958.100000
798.174133	956.600000
798.210083	962.700000
798.245911	970.900000
798.281799	976.700000
798.317749	968.100000
798.353577	952.200000
798.389465	950.100000
798.425293	943.600000
798.461243	949.700000
798.497131	948.800000
798.532959	953.700000
798.568848	953.600000
798.604736	941.700000
798.640564	929.300000
798.676453	924.400000
798.712402	932.600000
798.748230	945.300000
798.784119	941.600000
798.820007	939.200000
798.855835	931.400000
798.891724	925.900000
798.927551	920.500000
798.963379	928.600000
798.999268	930.800000
799.035095	925.800000
799.070984	915.400000
799.106873	905.300000
799.142700	919.200000
799.178528	909.500000
799.214417	905.100000
799.250244	921.600000
799.286133	914.000000
799.321960	911.100000
799.357788	904.900000
799.393677	909.200000
799.429504	904.300000
799.465332	905.000000
799.501221	914.100000
799.537048	905.900000
799.572876	899.200000
799.608704	899.500000
799.644531	906.000000
799.680359	903.600000
799.716248	908.200000
799.752014	912.200000
799.787903	901.700000
799.823730	897.300000
799.859558	889.800000
799.895386	893.600000
799.931213	893.700000
799.967041	884.500000
800.002869	879.200000
800.038696	893.300000
800.074463	870.500000
800.110352	871.300000
800.146179	860.800000
800.181946	873.000000
800.217773	875.400000
800.253540	874.100000
800.289429	869.300000
800.325256	860.000000
800.361023	852.000000
800.396851	861.200000
800.432678	860.400000
800.468445	857.200000
800.504272	843.600000
800.540100	828.600000
800.575867	831.200000
800.611694	832.900000
800.647461	825.700000
800.683289	832.500000
800.719116	834.900000
800.754883	827.700000
800.790649	809.900000
800.826477	801.600000
800.862244	826.600000
800.898071	807.800000
800.933838	802.400000
800.969604	803.600000
801.005432	802.700000
801.041199	802.400000
801.076965	790.100000
801.112793	779.800000
801.148560	771.200000
801.184326	774.800000
801.220154	771.200000
801.255859	764.700000
801.291687	766.100000
801.327454	757.700000
801.363281	757.900000
801.398987	753.300000
801.434814	758.900000
801.470520	771.200000
801.506287	749.500000
801.542114	750.400000
801.577820	753.500000
801.613647	748.300000
801.649414	736.600000
801.685120	740.900000
801.720886	752.800000
801.756714	737.300000
801.792419	724.500000
801.828186	724.500000
801.863892	732.900000
801.899719	720.500000
801.935486	717.600000
801.971252	727.700000
802.006958	720.600000
802.042725	709.300000
802.078430	711.300000
802.114197	706.600000
802.149963	726.600000
802.185669	714.900000
802.221436	710.600000
802.257202	709.300000
802.292908	701.800000
802.328674	713.800000
802.364441	714.700000
802.400146	704.500000
802.435913	700.200000
802.471558	696.000000
802.507324	687.800000
802.543091	680.800000
802.578796	697.900000
802.614502	694.800000
802.650269	700.300000
802.685974	682.600000
802.721741	687.700000
802.757446	691.900000
802.793152	686.000000
802.828918	690.200000
802.864624	686.400000
802.900330	685.400000
802.936035	684.800000
802.971802	676.500000
803.007446	669.300000
803.043213	662.700000
803.078857	671.300000
803.114624	655.400000
803.150330	669.600000
803.185974	657.500000
803.221741	656.400000
803.257446	665.400000
803.293152	662.700000
803.328857	658.000000
803.364563	651.600000
803.400208	645.200000
803.435974	652.500000
803.471680	646.700000
803.507324	645.400000
803.543030	653.000000
803.578735	648.200000
803.614441	640.900000
803.650146	643.500000
803.685791	630.600000
803.721497	635.000000
803.757202	623.600000
803.792847	635.200000
803.828552	625.700000
803.864258	625.300000
803.899902	624.500000
803.935608	602.300000
803.971313	613.000000
804.006958	615.800000
804.042664	609.200000
804.078308	613.700000
804.113953	603.700000
804.149658	612.400000
804.185364	603.900000
804.221008	616.400000
804.256714	605.200000
804.292297	601.800000
804.328003	597.500000
804.363708	588.700000
804.399292	591.300000
804.434998	591.000000
804.470703	585.700000
804.506287	598.900000
804.541992	588.700000
804.577637	591.300000
804.613281	578.300000
804.648926	575.900000
804.684570	582.400000
804.720215	575.300000
804.755920	575.400000
804.791565	569.300000
804.827209	579.900000
804.862854	569.700000
804.898437	562.000000
804.934143	565.800000
804.969788	566.700000
805.005371	567.400000
805.041077	571.000000
805.076721	570.700000
805.112305	558.500000
805.147949	558.800000
805.183655	552.600000
805.219238	554.900000
805.254883	555.100000
805.290466	559.900000
805.326111	550.100000
805.361755	543.600000
805.397400	549.900000
805.432983	550.200000
805.468628	551.000000
805.504211	557.600000
805.539856	551.700000
805.575500	556.500000
805.611084	547.900000
805.646729	533.400000
805.682373	537.200000
805.717957	547.000000
805.753601	546.000000
805.789246	531.900000
805.824768	544.500000
805.860413	546.600000
805.895996	532.600000
805.931641	531.800000
805.967224	538.700000
806.002869	532.400000
806.038452	544.600000
806.074036	540.900000
806.109619	525.400000
806.145264	525.300000
806.180847	525.100000
806.216431	515.400000
806.252014	525.500000
806.287659	526.100000
806.323181	533.700000
806.358826	523.500000
806.394409	507.100000
806.429993	510.000000
806.465576	525.500000
806.501160	509.400000
806.536743	498.600000
806.572327	507.500000
806.607910	505.000000
806.643494	504.800000
806.679077	504.200000
806.714661	505.200000
806.750244	507.200000
806.785828	495.400000
806.821350	495.600000
806.856934	498.300000
806.892517	494.300000
806.928101	489.200000
806.963684	488.100000
806.999268	497.300000
807.034790	480.100000
807.070374	487.300000
807.105896	479.700000
807.141479	476.900000
807.177063	488.100000
807.212585	477.500000
807.248169	478.200000
807.283752	481.700000
807.319275	475.500000
807.354858	473.000000
807.390381	470.600000
807.425903	473.200000
807.461487	466.600000
807.497070	460.500000
807.532593	465.800000
807.568115	460.500000
807.603699	456.800000
807.639221	452.400000
807.674744	455.500000
807.710266	460.700000
807.745850	461.400000
807.781372	453.300000
807.816895	451.500000
807.852417	453.200000
807.888000	447.600000
807.923523	447.700000
807.959045	452.900000
807.994629	438.100000
808.030090	436.500000
808.065613	445.100000
808.101135	445.800000
808.136658	441.400000
808.172241	438.300000
808.207764	440.100000
808.243225	433.700000
808.278809	426.600000
808.314270	438.800000
808.349792	424.900000
808.385315	426.200000
808.420837	429.100000
808.456360	431.700000
808.491882	430.800000
808.527344	426.500000
808.562866	434.200000
808.598389	427.400000
808.633850	420.000000
808.669434	417.700000
808.704895	427.800000
808.740417	433.600000
808.775940	420.000000
808.811462	416.600000
808.846924	409.700000
808.882385	405.300000
808.917847	403.200000
808.953369	406.600000
808.988892	401.700000
809.024353	410.500000
809.059875	407.400000
809.095398	403.100000
809.130798	400.300000
809.166321	398.700000
809.201843	398.000000
809.237305	400.100000
809.272766	405.900000
809.308228	390.800000
809.343750	391.800000
809.379211	390.300000
809.414734	393.200000
809.450134	401.800000
809.485657	382.100000
809.521118	392.200000
809.556580	387.500000
809.592102	385.700000
809.627502	381.400000
809.663025	382.200000
809.698486	377.900000
809.733887	375.000000
809.769409	377.500000
809.804871	366.100000
809.840271	369.500000
809.875793	373.300000
809.911194	377.300000
809.946655	368.300000
809.982178	364.300000
810.017639	366.300000
810.053040	365.600000
810.088501	362.300000
810.123901	362.800000
810.159424	357.200000
810.194885	354.500000
810.230286	359.300000
810.265747	354.200000
810.301208	351.700000
810.336609	352.800000
810.372070	347.300000
810.407532	350.200000
810.442932	350.700000
810.478394	352.100000
810.513794	352.700000
810.549255	347.500000
810.584717	344.600000
810.620117	338.700000
810.655518	348.000000
810.690979	345.300000
810.726379	347.600000
810.761841	333.800000
810.797302	335.500000
810.832642	334.600000
810.868103	346.600000
810.903564	331.800000
810.938904	339.800000
810.974365	328.200000
811.009827	335.600000
811.045166	328.100000
811.080627	320.900000
811.115967	328.700000
811.151428	338.200000
811.186829	326.000000
811.222229	329.700000
811.257629	319.700000
811.293091	328.600000
811.328430	335.700000
811.363892	331.000000
811.399292	329.800000
811.434631	323.900000
811.470093	328.400000
811.505493	320.500000
811.540833	322.000000
811.576294	326.300000
811.611694	321.400000
811.647034	317.200000
811.682434	319.300000
811.717773	318.500000
811.753235	322.900000
811.788635	316.200000
811.823975	318.000000
811.859375	325.900000
811.894775	312.100000
811.930115	313.200000
811.965515	315.900000
812.000916	317.400000
812.036255	314.000000
812.071655	317.100000
812.106995	307.700000
812.142395	308.700000
812.177795	317.700000
812.213196	315.100000
812.248474	314.400000
812.283875	306.200000
812.319214	311.800000
812.354614	308.100000
812.390015	306.900000
812.425293	305.400000
812.460693	307.300000
812.496094	302.200000
812.531433	299.600000
812.566772	299.200000
812.602173	302.300000
812.637451	302.400000
812.672852	300.000000
812.708191	303.100000
812.743530	297.500000
812.778931	289.800000
812.814270	294.100000
812.849609	298.800000
812.884949	292.800000
812.920227	287.800000
812.955627	304.400000
812.990967	294.600000
813.026306	289.400000
813.061646	278.600000
813.096985	278.900000
813.132324	274.700000
813.167664	280.400000
813.203003	284.700000
813.238281	272.400000
813.273682	273.800000
813.308960	272.000000
813.344299	273.900000
813.379639	282.400000
813.414978	274.400000
813.450256	273.400000
813.485596	278.900000
813.520874	269.700000
813.556213	276.000000
813.591614	277.800000
813.626831	269.000000
813.662170	272.100000
813.697510	283.900000
813.732788	266.700000
813.768127	272.300000
813.803467	271.700000
813.838745	268.200000
813.874084	271.200000
813.909363	270.200000
813.944641	270.500000
813.979980	260.500000
814.015320	265.100000
814.050598	262.500000
814.085876	269.400000
814.121155	264.800000
814.156494	262.500000
814.191772	264.900000
814.227051	261.400000
814.262390	263.000000
814.297668	262.000000
814.332947	266.900000
814.368225	256.000000
814.403564	259.800000
814.438782	256.300000
814.474121	258.400000
814.509338	254.700000
814.544617	264.000000
814.579956	252.700000
814.615173	265.800000
814.650513	260.600000
814.685791	252.700000
814.721008	254.500000
814.756348	256.000000
814.791626	250.700000
814.826843	253.300000
814.862122	254.800000
814.897400	249.800000
814.932678	253.000000
814.967957	252.900000
815.003235	251.000000
815.038452	245.100000
815.073730	244.400000
815.108948	255.300000
815.144226	251.000000
815.179504	255.600000
815.214722	240.100000
815.250000	239.300000
815.285278	246.400000
815.320496	241.200000
815.355774	244.800000
815.391052	246.100000
815.426270	244.200000
815.461487	240.200000
815.496765	238.400000
815.531982	233.800000
815.567261	240.100000
815.602539	247.600000
815.637695	242.400000
815.672974	244.300000
815.708191	244.700000
815.743408	243.700000
815.778687	237.500000
815.813904	247.900000
815.849121	229.900000
815.884399	232.600000
815.919556	233.500000
815.954834	233.700000
815.990051	238.400000
816.025269	240.700000
816.060486	232.200000
816.095703	230.700000
816.130920	235.200000
816.166199	231.100000
816.201416	234.900000
816.236572	241.400000
816.271851	230.100000
816.307007	237.500000
816.342224	226.400000
816.377441	230.800000
816.412659	222.600000
816.447876	234.700000
816.483093	228.000000
816.518250	230.200000
816.553467	227.000000
816.588745	232.200000
816.623901	224.500000
816.659119	220.200000
816.694275	225.700000
816.729492	220.800000
816.764709	257.200000
816.799927	218.900000
816.835083	223.000000
816.870300	218.900000
816.905457	222.100000
816.940674	225.200000
816.975830	219.000000
817.010986	216.600000
817.046204	219.100000
817.081421	215.600000
817.116577	214.800000
817.151733	226.200000
817.186951	224.400000
817.222107	221.800000
817.257324	222.200000
817.292419	222.000000
817.327637	211.000000
817.362854	218.200000
817.398010	213.800000
817.433167	216.800000
817.468323	214.100000
817.503479	216.000000
817.538635	223.900000
817.573853	218.700000
817.608948	216.700000
817.644165	213.100000
817.679321	211.700000
817.714478	211.600000
817.749634	215.700000
817.784790	228.600000
817.819946	223.600000
817.855103	204.600000
817.890198	214.300000
817.925415	205.200000
817.960571	213.400000
817.995667	213.600000
818.030823	216.000000
818.066040	208.200000
818.101135	212.500000
818.136292	210.300000
818.171448	205.900000
818.206543	211.300000
818.241699	214.200000
818.276855	212.000000
818.311951	211.100000
818.347107	205.300000
818.382263	213.700000
818.417358	216.600000
818.452515	217.800000
818.487610	217.700000
818.522766	207.100000
818.557922	217.900000
818.593018	213.600000
818.628113	209.900000
818.663269	207.700000
818.698364	208.600000
818.733521	206.900000
818.768677	210.900000
818.803711	203.600000
818.838867	204.300000
818.874023	209.000000
818.909058	203.600000
818.944214	203.500000
818.979370	210.000000
819.014404	207.800000
819.049561	202.900000
819.084595	210.600000
819.119751	198.900000
819.154846	210.300000
819.189941	205.100000
819.225037	201.000000
819.260193	196.000000
819.295227	200.700000
819.330322	194.500000
819.365479	195.500000
819.400513	228.100000
819.435608	194.400000
819.470764	192.900000
819.505798	196.500000
819.540894	199.300000
819.575989	197.400000
819.611084	206.200000
819.646179	206.100000
819.681213	201.700000
819.716309	199.500000
819.751404	198.500000
819.786438	204.000000
819.821533	196.500000
819.856628	201.300000
819.891663	204.400000
819.926758	210.500000
819.961853	205.900000
819.996887	195.000000
820.031982	203.500000
820.067017	198.600000
820.102112	227.400000
820.137207	197.100000
820.172302	215.000000
820.207275	193.900000
820.242371	195.600000
820.277405	194.900000
820.312500	200.200000
820.347534	200.000000
820.382568	205.500000
820.417664	194.800000
820.452759	197.400000
820.487732	193.500000
820.522827	197.900000
820.557861	193.400000
820.592896	197.500000
820.627930	196.500000
820.662964	194.400000
820.698059	199.200000
820.733093	196.300000
820.768127	200.700000
820.803162	196.400000
820.838196	194.700000
820.873230	199.300000
820.908264	197.200000
820.943298	194.800000
820.978333	201.800000
821.013367	198.400000
821.048401	202.000000
821.083435	202.800000
821.118469	188.100000
821.153503	203.500000
821.188477	199.600000
821.223511	190.800000
821.258484	196.900000
821.293579	197.200000
821.328613	190.000000
821.363647	195.600000
821.398621	191.600000
821.433655	193.400000
821.468628	209.400000
821.503662	194.500000
821.538696	198.700000
821.573669	189.800000
821.608704	199.500000
821.643677	192.900000
821.678650	199.300000
821.713684	205.300000
821.748718	193.400000
821.783691	194.000000
821.818726	197.700000
821.853638	196.400000
821.888672	195.400000
821.923706	195.400000
821.958618	192.900000
821.993652	192.400000
822.028687	200.600000
822.063599	202.400000
822.098633	197.400000
822.133667	190.500000
822.168579	193.700000
822.203613	196.500000
822.238586	192.800000
822.273560	197.400000
822.308533	192.200000
822.343567	193.000000
822.378479	194.500000
822.413452	194.400000
822.448425	192.200000
822.483398	199.700000
822.518372	200.900000
822.553345	192.100000
822.588318	202.800000
822.623291	193.300000
822.658203	192.700000
822.693237	195.000000
822.728210	191.100000
822.763123	196.300000
822.798096	191.000000
822.833069	195.200000
822.867981	195.100000
822.902954	196.400000
822.937927	198.900000
822.972900	205.700000
823.007874	187.500000
823.042725	197.700000
823.077698	207.800000
823.112671	191.200000
823.147583	192.300000
823.182556	197.500000
823.217529	200.300000
823.252441	194.500000
823.287415	208.800000
823.322388	198.600000
823.357239	195.800000
823.392212	203.200000
823.427185	197.200000
823.462097	192.500000
823.497009	198.800000
823.531982	193.700000
823.566895	195.500000
823.601807	191.700000
823.636719	193.300000
823.671631	198.300000
823.706604	193.100000
823.741455	198.800000
823.776428	187.600000
823.811340	201.500000
823.846252	201.000000
823.881165	204.500000
823.916138	197.200000
823.950989	205.000000
823.985901	190.600000
824.020813	196.900000
824.055725	193.000000
824.090637	192.300000
824.125610	197.600000
824.160461	197.300000
824.195374	198.200000
824.230225	201.800000
824.265198	188.800000
824.300110	193.300000
824.334961	206.700000
824.369873	186.300000
824.404785	197.300000
824.439636	204.100000
824.474548	187.200000
824.509460	185.300000
824.544312	200.800000
824.579224	198.300000
824.614075	198.900000
824.648987	194.100000
824.683899	193.800000
824.718811	192.900000
824.753662	202.900000
824.788574	199.900000
824.823364	195.700000
824.858276	191.500000
824.893188	201.100000
824.928040	200.700000
824.962952	198.100000
824.997803	199.300000
825.032654	196.800000
825.067566	199.300000
825.102417	192.700000
825.137268	193.700000
825.172119	196.800000
825.206970	192.100000
825.241882	193.200000
825.276733	190.500000
825.311646	191.800000
825.346436	188.100000
825.381348	190.100000
825.416138	195.100000
825.450989	192.400000
825.485901	186.100000
825.520691	187.600000
825.555542	187.700000
825.590454	196.000000
825.625244	186.600000
825.660095	203.200000
825.695007	199.300000
825.729797	193.600000
825.764648	190.600000
825.799438	194.900000
825.834290	194.700000
825.869202	188.600000
825.903992	196.900000
825.938843	193.100000
825.973694	189.400000
826.008484	207.700000
826.043335	190.600000
826.078186	185.100000
826.112976	201.900000
826.147827	200.700000
826.182678	204.300000
826.217468	187.200000
826.252319	198.300000
826.287109	191.300000
826.321899	202.000000
826.356750	193.900000
826.391541	189.700000
826.426392	200.000000
826.461182	193.900000
826.495972	188.000000
826.530823	185.700000
826.565613	194.600000
826.600403	190.300000
826.635254	196.400000
826.670044	187.200000
826.704834	185.300000
826.739685	189.700000
826.774475	195.200000
826.809265	193.900000
826.844055	191.700000
826.878906	199.600000
826.913635	195.700000
826.948425	198.500000
826.983215	194.600000
827.018005	199.800000
827.052856	193.300000
827.087585	198.500000
827.122375	186.300000
827.157227	194.900000
827.191956	205.600000
827.226746	189.100000
827.261536	198.600000
827.296265	188.300000
827.331116	191.700000
827.365906	198.100000
827.400635	190.700000
827.435425	186.800000
827.470215	199.800000
827.504944	192.500000
827.539734	198.400000
827.574463	195.300000
827.609253	201.900000
827.644043	194.800000
827.678772	199.500000
827.713562	191.500000
827.748352	193.000000
827.783081	191.300000
827.817871	194.300000
827.852600	189.800000
827.887329	194.900000
827.922119	183.100000
827.956848	197.200000
827.991638	207.600000
828.026367	194.700000
828.061157	194.600000
828.095886	194.000000
828.130615	208.400000
828.165344	183.600000
828.200073	195.400000
828.234863	191.900000
828.269592	191.500000
828.304321	199.100000
828.339111	194.700000
828.373779	190.500000
828.408569	198.900000
828.443298	198.700000
828.477966	191.200000
828.512756	194.500000
828.547424	187.800000
828.582214	192.400000
828.616943	191.600000
828.651672	193.900000
828.686340	197.100000
828.721130	190.400000
828.755798	193.200000
828.790527	194.200000
828.825256	193.900000
828.859924	194.500000
828.894714	200.400000
828.929443	200.900000
828.964111	188.500000
828.998840	196.600000
829.033569	191.700000
829.068237	192.300000
829.102966	191.600000
829.137634	197.300000
829.172363	194.900000
829.207092	195.200000
829.241821	191.600000
829.276489	185.500000
829.311157	194.600000
829.345825	192.400000
829.380554	197.800000
829.415283	189.500000
829.449951	187.700000
829.484619	202.200000
829.519348	201.300000
829.554016	193.000000
829.588745	193.200000
829.623413	187.300000
829.658081	205.200000
829.692749	187.000000
829.727417	198.500000
829.762146	194.900000
829.796814	190.400000
829.831482	192.800000
829.866150	196.500000
829.900879	189.500000
829.935486	197.700000
829.970154	191.800000
830.004883	205.100000
830.039490	195.200000
830.074219	190.600000
830.108887	195.600000
830.143494	194.400000
830.178223	187.300000
830.212891	194.000000
830.247498	193.000000
830.282166	202.300000
830.316772	197.800000
830.351501	192.200000
830.386169	193.200000
830.420776	193.200000
830.455444	194.100000
830.490112	192.500000
830.524719	184.800000
830.559387	198.300000
830.594055	195.000000
830.628662	193.600000
830.663330	192.500000
830.697998	203.100000
830.732605	193.100000
830.767273	196.900000
830.801941	194.200000
830.836487	204.200000
830.871155	195.000000
830.905762	196.200000
830.940430	186.500000
830.975098	191.100000
831.009644	194.500000
831.044312	202.000000
831.078979	196.700000
831.113525	185.100000
831.148193	193.700000
831.182861	192.400000
831.217407	197.300000
831.252075	210.600000
831.286621	191.100000
831.321289	189.000000
831.355896	192.200000
831.390564	201.300000
831.425110	195.300000
831.459778	201.200000
831.494324	207.600000
831.528931	196.000000
831.563599	197.000000
831.598145	187.400000
831.632751	193.700000
831.667419	191.700000
831.701965	196.400000
831.736572	196.500000
831.771179	186.600000
831.805786	190.600000
831.840393	201.200000
831.874939	185.700000
831.909546	198.800000
831.944153	184.800000
831.978760	193.900000
832.013306	187.800000
832.047913	201.600000
832.082458	201.500000
832.117065	191.100000
832.151672	202.800000
832.186218	195.200000
832.220825	195.800000
832.255432	186.500000
832.289978	189.600000
832.324585	195.700000
832.359192	195.800000
832.393677	192.900000
832.428284	194.100000
832.462830	192.400000
832.497437	191.400000
832.531982	197.900000
832.566589	192.800000
832.601135	195.200000
832.635681	185.100000
832.670227	194.200000
832.704773	201.600000
832.739380	196.500000
832.773926	193.700000
832.808472	190.600000
832.843079	194.100000
832.877563	196.200000
832.912170	189.400000
832.946716	186.100000
832.981201	200.800000
833.015808	195.500000
833.050293	194.100000
833.084839	189.600000
833.119446	193.300000
833.153992	196.900000
833.188477	193.900000
833.223022	188.900000
833.257568	195.000000
833.292114	199.500000
833.326660	205.600000
833.361145	189.700000
833.395691	185.500000
833.430237	192.100000
833.464783	197.000000
833.499329	190.400000
833.533875	188.200000
833.568359	197.000000
833.602905	200.000000
833.637390	198.600000
833.671875	191.100000
833.706421	192.700000
833.740906	191.300000
833.775452	182.000000
833.809998	191.800000
833.844482	200.500000
833.879028	192.900000
833.913513	191.500000
833.947998	195.700000
833.982544	190.100000
834.017090	191.400000
834.051514	182.100000
834.086060	197.400000
834.120544	192.800000
834.155029	197.500000
834.189575	192.600000
834.223999	196.500000
834.258545	194.600000
834.293030	194.900000
834.327515	193.700000
834.362000	191.100000
834.396545	198.300000
834.430969	192.500000
834.465454	197.800000
834.500000	185.300000
834.534424	196.700000
834.568970	184.300000
834.603455	184.500000
834.637878	189.500000
834.672363	194.300000
834.706909	193.300000
834.741333	194.200000
834.775818	185.900000
834.810242	189.800000
834.844727	194.400000
834.879211	191.900000
834.913635	195.000000
834.948181	195.500000
834.982666	192.400000
835.017090	191.800000
835.051575	195.800000
835.086060	190.200000
835.120483	197.400000
835.154907	198.700000
835.189331	191.400000
835.223816	196.700000
835.258301	188.200000
835.292786	188.600000
835.327209	199.500000
835.361694	191.800000
835.396057	190.800000
835.430542	197.200000
835.465027	194.000000
835.499390	189.000000
835.533875	211.500000
835.568359	192.500000
835.602722	185.900000
835.637207	195.700000
835.671692	187.600000
835.706055	210.000000
835.740540	194.600000
835.774902	197.000000
835.809387	193.800000
835.843811	188.300000
835.878235	202.800000
835.912659	187.600000
835.947083	189.600000
835.981506	194.400000
836.015930	186.100000
836.050354	197.600000
836.084778	202.300000
836.119202	198.900000
836.153625	207.100000
836.187988	188.400000
836.222473	190.100000
836.256897	193.800000
836.291260	194.300000
836.325684	194.600000
836.360046	191.900000
836.394470	191.600000
836.428894	199.300000
836.463318	190.200000
836.497681	199.000000
836.532104	200.000000
836.566467	195.300000
836.600891	192.000000
836.635315	198.900000
836.669678	196.800000
836.704102	199.200000
836.738525	194.600000
836.772888	186.000000
836.807251	191.300000
836.841675	196.600000
836.876038	188.300000
836.910461	190.000000
836.944763	197.400000
836.979187	190.200000
837.013611	197.800000
837.047974	187.800000
837.082336	205.000000
837.116699	199.600000
837.151062	192.300000
837.185486	188.600000
837.219849	192.100000
837.254211	199.700000
837.288574	193.100000
837.322937	189.300000
837.357300	181.500000
837.391663	207.500000
837.426086	199.000000
837.460388	195.800000
837.494751	198.100000
837.529114	192.300000
837.563477	198.300000
837.597839	196.500000
837.632141	193.500000
837.666565	191.700000
837.700928	196.100000
837.735229	196.300000
837.769592	196.300000
837.803955	198.500000
837.838257	191.900000
837.872620	191.100000
837.906982	202.000000
837.941284	195.300000
837.975647	195.100000
838.010010	201.100000
838.044312	193.800000
838.078674	190.000000
838.112976	194.300000
838.147339	196.900000
838.181702	193.900000
838.216003	202.600000
838.250366	195.800000
838.284668	194.700000
838.318970	185.400000
838.353333	193.700000
838.387634	192.400000
838.421936	192.900000
838.456299	195.200000
838.490601	200.900000
838.524902	197.000000
838.559265	197.700000
838.593567	198.800000
838.627869	187.300000
838.662170	196.800000
838.696472	186.400000
838.730774	191.400000
838.765137	198.300000
838.799377	180.400000
838.833740	195.600000
838.868042	201.000000
838.902283	186.300000
838.936646	201.200000
838.970947	195.500000
839.005188	199.400000
839.039551	186.700000
839.073792	201.200000
839.108093	191.000000
839.142395	204.200000
839.176697	187.700000
839.210937	195.400000
839.245300	205.600000
839.279541	186.800000
839.313843	192.200000
839.348145	196.300000
839.382385	199.800000
839.416687	198.800000
839.450989	197.600000
839.485229	193.000000
839.519531	189.000000
839.553833	199.400000
839.588013	195.100000
839.622314	194.000000
839.656555	197.400000
839.690857	194.500000
839.725159	187.400000
839.759460	192.000000
839.793640	191.300000
839.827942	192.300000
839.862183	189.500000
839.896423	195.600000
839.930725	203.800000
839.964966	201.200000
839.999207	202.800000
840.033508	201.400000
840.067688	192.000000
840.101990	202.600000
840.136230	193.100000
840.170471	202.200000
840.204712	190.400000
840.238953	189.200000
840.273193	196.300000
840.307434	197.400000
840.341736	190.300000
840.375916	187.600000
840.410217	192.000000
840.444397	198.200000
840.478638	198.400000
840.512878	200.700000
840.547119	196.200000
840.581360	195.900000
840.615601	203.900000
840.649780	202.900000
840.684021	195.200000
840.718262	203.300000
840.752441	200.100000
840.786682	195.000000
840.820862	198.000000
840.855103	202.200000
840.889343	195.000000
840.923584	200.200000
840.957764	197.500000
840.992004	196.700000
841.026184	208.800000
841.060425	192.500000
841.094666	190.200000
841.128845	197.700000
841.163025	194.500000
841.197266	198.000000
841.231445	194.100000
841.265686	195.700000
841.299866	189.900000
841.334045	202.200000
841.368286	192.700000
841.402405	202.800000
841.436646	197.900000
841.470825	193.100000
841.505005	193.600000
841.539185	190.400000
841.573425	190.300000
841.607544	194.300000
841.641785	194.300000
841.675964	189.000000
841.710144	195.000000
841.744324	191.700000
841.778503	193.400000
841.812683	191.200000
841.846863	203.400000
841.881042	201.100000
841.915222	191.700000
841.949402	211.900000
841.983521	186.000000
842.017700	194.700000
842.051880	195.200000
842.086060	196.800000
842.120239	195.500000
842.154419	193.900000
842.188538	196.100000
842.222717	192.300000
842.256897	203.300000
842.291016	193.600000
842.325195	196.600000
842.359375	206.100000
842.393494	203.300000
842.427673	196.200000
842.461853	198.200000
842.495911	204.800000
842.530090	198.000000
842.564209	193.400000
842.598389	195.700000
842.632568	195.900000
842.666626	199.900000
842.700806	190.000000
842.734985	192.200000
842.769043	196.400000
842.803223	193.000000
842.837402	192.100000
842.871460	191.900000
842.905640	203.500000
842.939697	191.900000
842.973877	197.600000
843.007996	201.200000
843.042175	202.900000
843.076233	192.300000
843.110413	196.600000
843.144470	203.700000
843.178589	197.600000
843.212769	192.300000
843.246826	198.600000
843.280945	195.400000
843.315125	192.400000
843.349182	190.300000
843.383301	203.000000
843.417419	208.700000
843.451538	194.800000
843.485657	194.800000
843.519714	193.600000
843.553833	197.500000
843.587952	193.900000
843.622070	190.300000
843.656128	198.300000
843.690247	194.800000
843.724304	192.600000
843.758423	196.400000
843.792542	194.000000
843.826599	195.900000
843.860718	193.500000
843.894836	187.600000
843.928894	195.700000
843.963013	198.300000
843.997070	191.700000
844.031128	188.100000
844.065247	200.800000
844.099304	198.800000
844.133362	196.100000
844.167480	197.800000
844.201599	202.200000
844.235596	196.100000
844.269714	197.600000
844.303711	196.900000
844.337830	187.100000
844.371948	197.600000
844.405945	195.600000
844.440063	188.900000
844.474121	209.400000
844.508118	192.800000
844.542236	194.600000
844.576294	192.800000
844.610352	190.700000
844.644409	193.300000
844.678406	186.900000
844.712524	199.400000
844.746582	202.000000
844.780640	193.100000
844.814636	194.800000
844.848755	205.900000
844.882751	193.500000
844.916809	199.100000
844.950867	197.300000
844.984863	203.900000
845.018921	195.100000
845.052979	190.800000
845.086975	197.500000
845.121033	189.000000
845.155090	191.400000
845.189087	202.500000
845.223145	192.300000
845.257141	195.400000
845.291199	199.300000
845.325256	203.700000
845.359253	196.700000
845.393250	207.200000
845.427307	194.600000
845.461304	197.100000
845.495361	196.100000
845.529358	207.300000
845.563354	193.600000
845.597412	192.200000
845.631409	202.500000
845.665405	202.200000
845.699463	199.200000
845.733459	192.900000
845.767456	201.700000
845.801453	194.800000
845.835449	202.400000
845.869446	199.700000
845.903503	198.200000
845.937439	192.500000
845.971497	203.100000
846.005493	189.400000
846.039429	198.300000
846.073486	205.100000
846.107483	192.800000
846.141418	196.900000
846.175476	194.400000
846.209473	202.400000
846.243408	192.400000
846.277405	195.900000
846.311401	189.300000
846.345337	195.200000
846.379395	201.900000
846.413330	192.400000
846.447327	203.100000
846.481323	190.000000
846.515259	192.800000
846.549255	196.900000
846.583252	198.000000
846.617187	190.700000
846.651184	197.700000
846.685120	193.800000
846.719055	204.100000
846.753052	200.600000
846.786987	200.000000
846.820984	189.100000
846.854980	202.400000
846.888916	191.000000
846.922852	197.100000
846.956848	204.700000
846.990723	190.600000
847.024719	196.500000
847.058716	194.300000
847.092590	202.800000
847.126587	197.200000
847.160522	193.500000
847.194458	199.400000
847.228455	190.800000
847.262390	191.000000
847.296265	194.800000
847.330261	202.000000
847.364136	193.600000
847.398132	192.400000
847.432068	195.400000
847.466003	193.500000
847.499939	193.400000
847.533875	197.300000
847.567749	193.000000
847.601746	193.700000
847.635681	199.000000
847.669556	188.700000
847.703491	201.000000
847.737427	211.300000
847.771301	190.100000
847.805237	197.500000
847.839233	195.700000
847.873108	195.200000
847.907043	193.300000
847.940918	202.600000
847.974854	196.100000
848.008789	200.800000
848.042664	194.800000
848.076538	199.400000
848.110474	194.900000
848.144348	198.400000
848.178284	189.800000
848.212219	197.100000
848.246094	192.900000
848.279968	197.800000
848.313904	198.200000
848.347778	197.200000
848.381653	194.300000
848.415588	192.000000
848.449463	192.800000
848.483337	198.900000
848.517212	200.300000
848.551086	195.600000
848.585022	190.800000
848.618835	204.400000
848.652771	193.400000
848.686646	190.900000
848.720520	203.900000
848.754395	193.500000
848.788330	199.600000
848.822144	200.100000
848.856018	194.800000
848.889954	202.700000
848.923767	190.700000
848.957642	191.900000
848.991577	199.500000
849.025391	193.500000
849.059265	194.500000
849.093079	192.200000
849.126953	189.300000
849.160828	200.500000
849.194641	198.100000
849.228577	193.500000
849.262451	194.000000
849.296265	192.500000
849.330139	190.200000
849.364014	196.900000
849.397827	199.900000
849.431702	194.500000
849.465515	200.500000
849.499329	185.700000
849.533203	192.400000
849.567078	183.900000
849.600891	199.800000
849.634766	193.800000
849.668518	201.700000
849.702393	195.400000
849.736267	188.900000
849.770020	206.800000
849.803894	199.000000
849.837769	197.300000
849.871521	197.500000
849.905396	201.700000
849.939270	191.200000
849.973022	192.900000
850.006897	200.000000
850.040710	197.800000
850.074524	199.300000
850.108337	193.400000
850.142151	200.500000
850.175964	202.000000
850.209778	196.200000
850.243530	182.600000
850.277405	200.300000
850.311218	196.100000
850.344971	192.900000
850.378845	203.300000
850.412659	192.400000
850.446411	197.400000
850.480225	195.000000
850.514038	202.100000
850.547791	196.700000
850.581665	194.800000
850.615417	191.800000
850.649231	195.800000
850.683044	193.800000
850.716858	195.800000
850.750610	195.000000
850.784424	199.200000
850.818176	192.600000
850.851929	193.300000
850.885742	192.300000
850.919495	195.100000
850.953308	201.600000
850.987122	204.500000
851.020874	189.200000
851.054626	188.000000
851.088440	198.400000
851.122192	200.500000
851.156006	196.400000
851.189697	195.000000
851.223511	189.600000
851.257263	200.000000
851.291077	197.100000
851.324829	194.600000
851.358582	192.100000
851.392334	194.200000
851.426086	193.200000
851.459900	203.600000
851.493591	195.500000
851.527344	196.800000
851.561157	195.000000
851.594849	198.400000
851.628662	198.500000
851.662415	203.600000
851.696106	199.200000
851.729858	199.000000
851.763611	190.300000
851.797363	197.000000
851.831116	191.200000
851.864868	198.400000
851.898560	200.700000
851.932312	193.700000
851.966064	198.800000
851.999817	196.000000
852.033569	194.400000
852.067261	198.600000
852.101013	191.100000
852.134766	194.700000
852.168457	185.100000
852.202209	198.500000
852.235901	192.200000
852.269592	198.100000
852.303345	204.700000
852.337036	198.200000
852.370789	195.300000
852.404541	198.100000
852.438171	192.100000
852.471924	194.600000
852.505676	189.100000
852.539307	196.900000
852.573059	192.500000
852.606812	193.300000
852.640442	194.800000
852.674194	200.300000
852.707886	207.000000
852.741577	202.300000
852.775269	190.900000
852.809021	195.300000
852.842651	199.800000
852.876404	200.100000
852.910034	197.800000
852.943787	200.500000
852.977478	199.100000
853.011108	191.300000
853.044861	193.700000
853.078552	204.100000
853.112183	199.200000
853.145874	198.600000
853.179626	186.200000
853.213257	197.000000
853.246948	193.500000
853.280640	203.700000
853.314270	196.100000
853.347961	202.800000
853.381653	199.000000
853.415283	200.300000
853.448975	192.200000
853.482605	196.100000
853.516296	193.600000
853.549988	189.200000
853.583618	196.900000
853.617310	197.400000
853.651001	197.700000
853.684631	191.500000
853.718323	193.300000
853.751953	203.900000
853.785583	185.400000
853.819275	200.700000
853.852966	195.700000
853.886536	186.700000
853.920227	190.000000
853.953918	200.400000
853.987488	193.600000
854.021179	199.700000
854.054749	202.500000
854.088440	198.400000
854.122131	191.300000
854.155701	201.200000
854.189331	190.400000
854.223022	199.700000
854.256592	195.600000
854.290283	191.800000
854.323914	198.300000
854.357483	198.300000
854.391174	199.600000
854.424744	207.000000
854.458374	196.600000
854.492065	207.600000
854.525696	198.700000
854.559265	203.300000
854.592896	206.800000
854.626465	197.400000
854.660095	196.900000
854.693787	199.000000
854.727356	193.600000
854.760986	200.800000
854.794617	197.800000
854.828186	195.500000
854.861816	198.900000
854.895447	196.700000
854.929016	197.500000
854.962585	198.500000
854.996155	202.600000
855.029785	198.200000
855.063416	198.800000
855.097046	200.800000
855.130615	190.400000
855.164185	201.700000
855.197754	197.200000
855.231384	199.000000
855.264954	194.200000
855.298523	200.500000
855.332153	196.400000
855.365723	204.000000
855.399292	192.600000
855.432922	193.400000
855.466492	198.900000
855.500061	191.200000
855.533630	192.100000
855.567200	199.200000
855.600769	201.200000
855.634338	200.600000
855.667969	198.700000
855.701477	190.700000
855.735046	191.300000
855.768616	187.400000
855.802185	197.000000
855.835754	210.400000
855.869324	188.700000
855.902893	194.300000
855.936401	203.200000
855.969971	197.300000
856.003540	188.400000
856.037109	199.000000
856.070618	195.800000
856.104187	190.300000
856.137695	193.300000
856.171265	187.000000
856.204834	195.400000
856.238403	201.300000
856.271912	194.900000
856.305481	198.200000
856.338989	190.200000
856.372559	199.200000
856.406128	196.400000
856.439636	201.500000
856.473145	194.700000
856.506653	202.600000
856.540222	196.600000
856.573792	203.100000
856.607300	200.700000
856.640808	190.800000
856.674377	196.000000
856.707825	225.200000
856.741394	200.500000
856.774902	191.500000
856.808472	186.800000
856.841980	200.000000
856.875488	203.100000
856.908936	188.400000
856.942505	192.900000
856.976013	195.400000
857.009521	190.900000
857.043030	196.900000
857.076477	194.600000
857.110046	200.700000
857.143555	196.800000
857.177063	202.600000
857.210571	192.700000
857.244080	190.000000
857.277527	198.700000
857.311035	194.600000
857.344543	198.300000
857.378052	195.600000
857.411499	200.500000
857.445068	206.200000
857.478516	194.600000
857.512024	190.600000
857.545532	193.700000
857.578979	198.700000
857.612427	196.100000
857.645874	192.400000
857.679382	196.000000
857.712891	200.300000
857.746399	196.300000
857.779846	201.700000
857.813354	200.800000
857.846741	196.100000
857.880249	191.300000
857.913757	197.200000
857.947266	197.900000
857.980652	200.800000
858.014160	192.300000
858.047546	194.500000
858.081055	194.100000
858.114563	203.300000
858.147949	190.000000
858.181458	199.800000
858.214844	194.700000
858.248352	186.900000
858.281799	202.100000
858.315308	209.300000
858.348694	199.800000
858.382141	203.000000
858.415588	199.800000
858.449036	201.300000
858.482483	199.400000
858.515930	192.200000
858.549377	196.600000
858.582825	203.800000
858.616211	199.300000
858.649658	197.400000
858.683105	191.000000
858.716553	191.800000
858.750000	191.000000
858.783386	193.800000
858.816833	188.500000
858.850281	197.500000
858.883728	199.500000
858.917114	194.300000
858.950562	204.700000
858.983948	205.400000
859.017395	200.300000
859.050781	193.300000
859.084167	193.000000
859.117615	187.900000
859.151062	199.900000
859.184448	191.600000
859.217834	194.400000
859.251282	194.000000
859.284668	193.200000
859.318054	185.700000
859.351440	193.100000
859.384888	203.000000
859.418274	188.000000
859.451721	186.700000
859.485046	199.000000
859.518494	197.300000
859.551819	190.800000
859.585266	197.600000
859.618652	199.100000
859.652039	189.900000
859.685425	191.500000
859.718811	188.600000
859.752197	184.100000
859.785583	203.000000
859.819031	204.300000
859.852356	199.500000
859.885742	191.900000
859.919067	195.300000
859.952454	193.100000
859.985901	201.500000
860.019287	193.800000
860.052612	0.000000
860.085999	0.000000
860.119324	0.000000
860.152710	0.000000
860.186096	0.000000
860.219421	0.000000
860.252808	0.000000
860.286133	0.000000
860.319519	0.000000
860.352905	0.000000
860.386292	0.000000
860.419617	0.000000
860.452942	0.000000
860.486267	0.000000
860.519653	0.000000
860.553040	0.000000
860.586365	0.000000
860.619690	0.000000
860.653076	0.000000
860.686340	0.000000
860.719727	0.000000
860.753113	0.000000
860.786377	0.000000
860.819763	0.000000
860.853027	0.000000
860.886414	0.000000
860.919739	0.000000
860.953125	0.000000
860.986389	0.000000
861.019714	0.000000
861.053040	0.000000
861.086365	0.000000
861.119690	0.000000
861.153076	0.000000
861.186340	0.000000
861.219666	0.000000
861.252930	0.000000
861.286316	0.000000
861.319641	0.000000
861.352905	0.000000
861.386230	0.000000
861.419495	0.000000
861.452820	0.000000
861.486145	0.000000
861.519470	0.000000
861.552734	0.000000
861.586060	0.000000
861.619324	0.000000
861.652649	0.000000
861.685974	0.000000
861.719238	0.000000
861.752563	0.000000
861.785828	0.000000
861.819092	0.000000
861.852417	0.000000
861.885742	0.000000
861.918945	0.000000
861.952271	0.000000
861.985535	0.000000
862.018799	0.000000
862.052124	0.000000
862.085449	0.000000
862.118652	0.000000
862.151978	0.000000
862.185181	0.000000
862.218506	0.000000
862.251770	0.000000
862.285034	0.000000
862.318298	0.000000
862.351562	0.000000
862.384827	0.000000
862.418091	0.000000
862.451355	0.000000
862.484619	0.000000
862.517883	0.000000
862.551086	0.000000
862.584351	0.000000
862.617676	0.000000
862.650940	0.000000
862.684143	0.000000
862.717407	0.000000
862.750610	0.000000
862.783875	0.000000
862.817139	0.000000
862.850342	0.000000
862.883606	0.000000
862.916870	0.000000
862.950073	0.000000
862.983337	0.000000
863.016602	0.000000
863.049805	0.000000
863.083069	0.000000
863.116211	0.000000
863.149475	0.000000
863.182739	0.000000
863.216003	0.000000
863.249146	0.000000
863.282410	0.000000
863.315613	0.000000
863.348816	0.000000
863.382080	0.000000
863.415222	0.000000
863.448486	0.000000
863.481689	0.000000
863.514893	0.000000
863.548157	0.000000
863.581360	0.000000
863.614502	0.000000
863.647766	0.000000
863.680908	0.000000
863.714172	0.000000
863.747375	0.000000
863.780579	0.000000
863.813721	0.000000
863.846985	0.000000
863.880127	0.000000
863.913330	0.000000
863.946533	0.000000
863.979675	0.000000
864.012939	0.000000
