Model Number: SPM-001-M   
Serial Number: 10090201
Firmware Version: 004.17.6
Exposure Time: 500000.000000us
Data Taken on: 10-03-2021 11:50:25.970
Wavelength	Amplitude
733.770752	0.000000
733.808716	0.000000
733.846619	0.000000
733.884583	0.000000
733.922546	0.000000
733.960449	0.000000
733.998413	0.000000
734.036377	0.000000
734.074219	0.000000
734.112183	0.000000
734.150085	0.000000
734.188049	0.000000
734.226013	0.000000
734.263916	0.000000
734.301819	0.000000
734.339783	0.000000
734.377686	0.000000
734.415588	0.000000
734.453552	0.000000
734.491455	0.000000
734.529419	0.000000
734.567322	0.000000
734.605225	0.000000
734.643127	0.000000
734.681091	0.000000
734.718994	0.000000
734.756897	0.000000
734.794800	0.000000
734.832703	0.000000
734.870667	0.000000
734.908508	0.000000
734.946472	0.000000
734.984375	0.000000
735.022278	0.000000
735.060181	0.000000
735.098083	0.000000
735.135986	0.000000
735.173889	0.000000
735.211792	0.000000
735.249695	0.000000
735.287598	0.000000
735.325439	0.000000
735.363403	0.000000
735.401306	0.000000
735.439148	0.000000
735.477051	0.000000
735.515015	0.000000
735.552856	0.000000
735.590759	0.000000
735.628662	0.000000
735.666504	0.000000
735.704407	0.000000
735.742310	0.000000
735.780212	0.000000
735.818115	0.000000
735.856018	0.000000
735.893860	0.000000
735.931763	0.000000
735.969604	0.000000
736.007507	0.000000
736.045410	0.000000
736.083252	0.000000
736.121094	0.000000
736.158997	0.000000
736.196838	0.000000
736.234741	0.000000
736.272644	0.000000
736.310486	0.000000
736.348389	0.000000
736.386230	0.000000
736.424072	0.000000
736.461975	0.000000
736.499878	0.000000
736.537720	0.000000
736.575562	0.000000
736.613403	0.000000
736.651306	0.000000
736.689148	0.000000
736.726990	0.000000
736.764893	0.000000
736.802734	0.000000
736.840576	0.000000
736.878418	0.000000
736.916321	0.000000
736.954102	0.000000
736.992004	0.000000
737.029846	0.000000
737.067688	0.000000
737.105530	0.000000
737.143372	0.000000
737.181213	0.000000
737.219116	0.000000
737.256897	0.000000
737.294739	0.000000
737.332642	0.000000
737.370422	0.000000
737.408325	0.000000
737.446167	0.000000
737.483948	0.000000
737.521790	0.000000
737.559692	0.000000
737.597473	0.000000
737.635315	0.000000
737.673157	0.000000
737.710999	0.000000
737.748840	0.000000
737.786621	0.000000
737.824463	0.000000
737.862305	0.000000
737.900085	0.000000
737.937927	0.000000
737.975769	0.000000
738.013550	0.000000
738.051392	0.000000
738.089233	0.000000
738.127014	0.000000
738.164856	0.000000
738.202698	0.000000
738.240479	0.000000
738.278320	0.000000
738.316162	0.000000
738.353943	0.000000
738.391785	0.000000
738.429565	0.000000
738.467407	0.000000
738.505188	0.000000
738.542969	0.000000
738.580811	0.000000
738.618652	0.000000
738.656372	0.000000
738.694214	0.000000
738.732056	0.000000
738.769836	0.000000
738.807617	0.000000
738.845459	0.000000
738.883240	0.000000
738.921021	0.000000
738.958862	0.000000
738.996582	0.000000
739.034424	0.000000
739.072205	0.000000
739.109985	0.000000
739.147827	0.000000
739.185547	0.000000
739.223389	0.000000
739.261169	0.000000
739.298889	0.000000
739.336731	0.000000
739.374512	0.000000
739.412292	0.000000
739.450073	0.000000
739.487854	0.000000
739.525635	0.000000
739.563416	0.000000
739.601135	0.000000
739.638977	0.000000
739.676758	0.000000
739.714478	0.000000
739.752258	0.000000
739.790100	0.000000
739.827820	0.000000
739.865601	0.000000
739.903381	0.000000
739.941101	0.000000
739.978882	196.600000
740.016724	192.300000
740.054443	199.200000
740.092224	189.700000
740.130005	190.900000
740.167725	191.200000
740.205505	188.900000
740.243225	200.200000
740.281006	194.500000
740.318787	186.900000
740.356506	199.100000
740.394287	198.700000
740.432068	188.600000
740.469727	187.700000
740.507507	199.000000
740.545288	192.700000
740.583008	196.900000
740.620789	194.800000
740.658569	184.500000
740.696228	193.200000
740.734009	199.900000
740.771790	180.600000
740.809509	197.900000
740.847229	187.900000
740.884949	191.000000
740.922729	187.200000
740.960449	190.300000
740.998169	188.200000
741.035950	189.400000
741.073669	194.300000
741.111389	194.000000
741.149170	202.800000
741.186890	203.200000
741.224609	196.100000
741.262329	195.900000
741.300110	203.800000
741.337769	189.000000
741.375549	187.500000
741.413208	195.300000
741.450989	188.500000
741.488708	190.600000
741.526367	192.000000
741.564148	197.600000
741.601868	199.500000
741.639526	194.300000
741.677307	194.200000
741.715027	195.200000
741.752686	189.700000
741.790466	200.300000
741.828186	196.900000
741.865845	188.800000
741.903564	184.800000
741.941345	193.400000
741.979004	188.300000
742.016724	195.800000
742.054382	195.100000
742.092102	199.300000
742.129822	186.400000
742.167480	191.800000
742.205200	192.100000
742.242920	195.200000
742.280640	198.600000
742.318359	188.400000
742.356079	191.300000
742.393738	196.900000
742.431396	192.800000
742.469116	196.500000
742.506775	182.400000
742.544495	195.900000
742.582214	199.100000
742.619873	192.800000
742.657593	201.500000
742.695251	197.300000
742.732971	193.200000
742.770630	195.600000
742.808289	193.300000
742.846008	193.900000
742.883728	197.000000
742.921326	193.200000
742.959045	190.700000
742.996765	193.300000
743.034424	193.300000
743.072083	190.900000
743.109802	195.200000
743.147400	187.100000
743.185120	195.000000
743.222839	191.800000
743.260437	200.400000
743.298157	194.700000
743.335754	186.900000
743.373474	192.600000
743.411133	184.700000
743.448792	193.400000
743.486450	192.800000
743.524170	185.200000
743.561768	193.300000
743.599487	199.600000
743.637146	205.200000
743.674744	191.200000
743.712463	190.300000
743.750122	195.000000
743.787720	197.000000
743.825439	189.500000
743.863037	192.000000
743.900696	193.300000
743.938416	218.100000
743.976013	192.900000
744.013672	201.800000
744.051331	199.000000
744.088928	203.300000
744.126587	200.200000
744.164307	194.600000
744.201904	191.700000
744.239563	196.600000
744.277222	195.700000
744.314819	192.900000
744.352478	201.200000
744.390137	194.900000
744.427734	196.600000
744.465393	191.400000
744.502991	189.700000
744.540649	196.600000
744.578308	195.300000
744.615906	187.900000
744.653564	183.200000
744.691223	196.800000
744.728821	186.400000
744.766418	193.800000
744.804077	195.800000
744.841675	190.200000
744.879333	187.000000
744.916992	193.300000
744.954529	190.900000
744.992187	200.500000
745.029785	192.200000
745.067444	190.400000
745.105042	194.400000
745.142639	196.300000
745.180298	201.700000
745.217896	192.200000
745.255493	192.300000
745.293152	198.600000
745.330750	197.500000
745.368347	202.800000
745.405945	197.200000
745.443604	195.100000
745.481140	199.400000
745.518799	192.500000
745.556396	198.100000
745.593994	197.900000
745.631592	191.700000
745.669189	188.300000
745.706787	196.100000
745.744385	189.900000
745.781982	196.100000
745.819580	191.100000
745.857178	192.300000
745.894775	194.700000
745.932373	195.400000
745.969971	193.700000
746.007568	185.000000
746.045166	202.700000
746.082764	199.700000
746.120300	196.200000
746.157898	196.700000
746.195557	193.700000
746.233093	188.600000
746.270691	198.400000
746.308228	196.300000
746.345825	200.100000
746.383423	197.900000
746.420959	189.800000
746.458557	190.200000
746.496155	192.500000
746.533691	191.700000
746.571289	188.600000
746.608887	195.200000
746.646423	194.800000
746.684021	195.400000
746.721619	191.800000
746.759155	194.900000
746.796753	186.900000
746.834351	187.000000
746.871826	191.700000
746.909424	201.400000
746.946960	196.400000
746.984558	192.800000
747.022156	191.600000
747.059631	201.800000
747.097229	196.200000
747.134827	192.800000
747.172363	201.800000
747.209900	196.000000
747.247498	188.700000
747.285034	201.800000
747.322571	201.100000
747.360168	192.300000
747.397644	186.000000
747.435242	196.900000
747.472778	201.900000
747.510315	191.200000
747.547913	191.600000
747.585388	200.900000
747.622925	192.500000
747.660522	184.100000
747.697998	190.400000
747.735596	192.700000
747.773132	191.200000
747.810669	194.500000
747.848206	197.000000
747.885742	189.300000
747.923279	187.800000
747.960815	197.300000
747.998352	194.500000
748.035889	200.100000
748.073425	200.400000
748.110901	191.000000
748.148437	188.600000
748.185974	195.000000
748.223511	204.600000
748.261047	196.000000
748.298584	194.800000
748.336060	193.900000
748.373596	197.200000
748.411133	212.700000
748.448608	189.900000
748.486145	198.600000
748.523682	202.900000
748.561218	200.400000
748.598755	195.400000
748.636292	197.300000
748.673706	190.800000
748.711243	199.900000
748.748718	197.200000
748.786255	195.300000
748.823792	195.300000
748.861267	189.800000
748.898804	196.100000
748.936340	196.200000
748.973816	193.400000
749.011292	199.800000
749.048828	196.400000
749.086304	197.800000
749.123840	205.800000
749.161316	189.400000
749.198792	205.800000
749.236328	201.200000
749.273743	193.900000
749.311279	193.600000
749.348816	197.100000
749.386230	194.700000
749.423767	182.300000
749.461304	196.400000
749.498718	194.100000
749.536255	201.200000
749.573730	207.500000
749.611206	199.700000
749.648682	193.900000
749.686218	194.000000
749.723633	198.200000
749.761169	190.900000
749.798645	190.200000
749.836060	193.200000
749.873596	190.800000
749.911011	192.900000
749.948547	200.800000
749.986023	194.700000
750.023437	192.900000
750.060913	187.500000
750.098450	187.600000
750.135864	192.600000
750.173340	193.800000
750.210815	198.900000
750.248291	190.000000
750.285767	193.900000
750.323242	201.400000
750.360657	195.700000
750.398132	189.400000
750.435608	198.600000
750.473022	190.800000
750.510498	189.500000
750.547974	189.300000
750.585449	191.100000
750.622925	183.000000
750.660339	205.100000
750.697815	193.500000
750.735291	193.100000
750.772644	194.800000
750.810120	192.900000
750.847595	196.100000
750.885010	189.600000
750.922485	203.100000
750.959961	192.000000
750.997375	201.200000
751.034851	198.700000
751.072266	198.600000
751.109680	187.000000
751.147156	200.200000
751.184570	196.100000
751.221985	194.200000
751.259460	186.200000
751.296875	194.600000
751.334290	194.800000
751.371765	198.500000
751.409180	197.300000
751.446594	200.000000
751.484070	196.200000
751.521423	196.100000
751.558899	196.500000
751.596375	201.400000
751.633728	202.100000
751.671204	208.300000
751.708618	190.200000
751.746033	195.000000
751.783447	189.800000
751.820801	190.000000
751.858276	197.000000
751.895691	193.900000
751.933105	191.900000
751.970520	187.800000
752.007935	192.600000
752.045349	198.000000
752.082764	195.000000
752.120178	193.000000
752.157532	190.700000
752.195007	191.900000
752.232422	198.800000
752.269775	200.900000
752.307190	197.200000
752.344543	190.400000
752.382019	192.400000
752.419434	193.700000
752.456787	195.200000
752.494202	199.700000
752.531616	197.100000
752.568970	199.700000
752.606384	195.700000
752.643799	195.800000
752.681152	203.600000
752.718567	197.100000
752.755981	186.700000
752.793335	197.400000
752.830750	186.300000
752.868164	202.000000
752.905518	188.700000
752.942932	198.600000
752.980225	189.700000
753.017639	199.900000
753.055054	192.400000
753.092407	197.100000
753.129822	200.500000
753.167175	204.400000
753.204529	193.700000
753.241943	191.700000
753.279358	189.100000
753.316650	198.400000
753.354065	197.000000
753.391479	198.600000
753.428772	204.200000
753.466187	199.000000
753.503479	188.500000
753.540894	193.700000
753.578308	188.200000
753.615601	189.100000
753.653015	195.900000
753.690369	191.900000
753.727722	190.700000
753.765076	187.500000
753.802490	189.200000
753.839783	185.800000
753.877136	192.200000
753.914551	209.000000
753.951843	188.500000
753.989258	197.500000
754.026611	195.300000
754.063904	196.100000
754.101257	190.300000
754.138611	186.500000
754.175964	195.100000
754.213318	206.600000
754.250610	186.600000
754.288025	190.500000
754.325378	188.700000
754.362671	200.700000
754.400024	193.000000
754.437378	203.100000
754.474670	205.700000
754.512085	191.000000
754.549438	195.600000
754.586731	192.700000
754.624084	194.100000
754.661438	189.400000
754.698730	202.400000
754.736084	193.300000
754.773376	193.700000
754.810730	197.100000
754.848083	193.700000
754.885315	199.600000
754.922668	187.900000
754.960022	188.800000
754.997314	199.200000
755.034668	195.800000
755.072021	196.600000
755.109253	192.300000
755.146606	202.800000
755.183960	193.700000
755.221252	206.200000
755.258545	201.900000
755.295898	202.300000
755.333191	203.200000
755.370544	200.700000
755.407776	196.900000
755.445129	197.300000
755.482422	201.200000
755.519714	192.800000
755.557068	189.300000
755.594360	187.900000
755.631653	201.800000
755.668945	207.100000
755.706299	199.400000
755.743530	208.600000
755.780884	206.200000
755.818176	203.800000
755.855408	203.800000
755.892761	200.800000
755.930054	200.400000
755.967346	201.400000
756.004639	201.400000
756.041870	197.900000
756.079224	202.900000
756.116516	195.100000
756.153748	203.400000
756.191040	207.700000
756.228394	203.500000
756.265625	195.100000
756.302917	200.000000
756.340210	197.100000
756.377441	206.400000
756.414795	207.400000
756.452087	200.500000
756.489319	193.100000
756.526611	203.700000
756.563843	202.700000
756.601135	212.600000
756.638428	209.800000
756.675659	202.100000
756.712952	207.600000
756.750244	205.100000
756.787476	202.700000
756.824768	210.800000
756.862061	199.800000
756.899292	248.800000
756.936584	207.600000
756.973816	215.200000
757.011047	215.200000
757.048340	205.200000
757.085632	202.300000
757.122864	219.600000
757.160156	202.200000
757.197327	204.600000
757.234619	210.700000
757.271912	204.100000
757.309082	209.600000
757.346375	201.600000
757.383667	211.600000
757.420837	205.900000
757.458130	205.200000
757.495422	203.400000
757.532593	208.200000
757.569885	199.200000
757.607117	202.500000
757.644348	207.300000
757.681580	218.500000
757.718811	194.200000
757.756042	206.500000
757.793335	204.300000
757.830505	214.600000
757.867798	204.700000
757.905029	204.300000
757.942200	209.700000
757.979492	203.800000
758.016724	206.100000
758.053894	205.200000
758.091187	227.200000
758.128418	208.300000
758.165588	206.000000
758.202820	220.500000
758.240112	209.200000
758.277283	219.900000
758.314514	210.100000
758.351685	207.600000
758.388916	217.800000
758.426147	218.400000
758.463379	218.800000
758.500610	214.000000
758.537842	212.600000
758.575012	216.900000
758.612244	206.200000
758.649475	224.000000
758.686646	204.300000
758.723877	217.700000
758.761108	219.600000
758.798279	211.300000
758.835510	213.600000
758.872742	218.300000
758.909851	215.800000
758.947083	215.400000
758.984253	214.700000
759.021484	219.500000
759.058716	218.000000
759.095886	217.500000
759.133057	215.000000
759.170288	218.200000
759.207458	211.700000
759.244690	225.900000
759.281860	225.000000
759.319031	214.700000
759.356262	212.800000
759.393433	214.900000
759.430603	213.000000
759.467773	215.700000
759.505005	224.100000
759.542175	222.200000
759.579346	214.800000
759.616516	217.100000
759.653687	219.700000
759.690918	211.800000
759.728027	217.500000
759.765259	218.100000
759.802429	221.900000
759.839539	220.600000
759.876770	223.100000
759.913940	227.600000
759.951111	220.100000
759.988281	218.400000
760.025452	215.500000
760.062561	214.000000
760.099792	228.000000
760.136963	221.400000
760.174072	218.800000
760.211243	214.100000
760.248413	214.600000
760.285583	214.800000
760.322754	231.800000
760.359863	226.500000
760.397034	227.900000
760.434204	219.000000
760.471375	221.300000
760.508545	219.300000
760.545715	221.100000
760.582825	216.200000
760.619995	227.600000
760.657166	215.300000
760.694275	229.900000
760.731445	225.000000
760.768555	224.700000
760.805664	225.500000
760.842834	225.300000
760.879944	227.500000
760.917114	225.400000
760.954285	223.500000
760.991394	218.200000
761.028564	232.100000
761.065674	228.800000
761.102783	223.200000
761.139954	231.500000
761.177124	230.800000
761.214172	233.200000
761.251343	223.900000
761.288452	227.600000
761.325562	231.900000
761.362732	225.400000
761.399841	229.600000
761.436951	232.000000
761.474121	226.600000
761.511169	230.300000
761.548340	234.100000
761.585449	234.000000
761.622559	236.600000
761.659668	232.200000
761.696838	238.900000
761.733887	234.900000
761.771057	232.000000
761.808167	234.000000
761.845276	240.700000
761.882385	246.700000
761.919434	237.200000
761.956604	257.000000
761.993713	233.900000
762.030762	244.800000
762.067871	237.800000
762.105042	237.600000
762.142090	248.300000
762.179199	242.200000
762.216309	244.600000
762.253418	256.700000
762.290527	251.900000
762.327637	248.200000
762.364685	236.200000
762.401794	248.000000
762.438904	246.200000
762.475952	238.800000
762.513062	239.100000
762.550110	239.000000
762.587219	254.000000
762.624329	255.500000
762.661377	249.900000
762.698486	248.700000
762.735596	248.700000
762.772644	242.100000
762.809753	240.500000
762.846863	249.100000
762.883911	252.500000
762.921021	254.500000
762.958069	248.900000
762.995117	257.700000
763.032227	259.300000
763.069336	249.900000
763.106323	246.300000
763.143433	246.300000
763.180481	253.700000
763.217590	254.100000
763.254639	249.400000
763.291687	252.000000
763.328735	261.000000
763.365845	254.900000
763.402893	252.900000
763.439941	258.000000
763.477051	260.400000
763.514038	260.900000
763.551147	253.300000
763.588196	257.400000
763.625244	256.100000
763.662292	264.000000
763.699402	267.400000
763.736389	263.400000
763.773499	272.800000
763.810486	266.300000
763.847534	263.100000
763.884644	267.400000
763.921631	260.700000
763.958679	273.500000
763.995728	263.400000
764.032776	273.200000
764.069824	259.300000
764.106873	269.400000
764.143860	275.200000
764.180969	267.400000
764.218018	276.400000
764.255005	268.300000
764.292053	271.100000
764.329102	281.800000
764.366089	280.800000
764.403137	276.400000
764.440125	266.600000
764.477173	272.000000
764.514221	274.700000
764.551208	270.700000
764.588257	267.600000
764.625305	280.800000
764.662292	285.200000
764.699341	287.700000
764.736389	280.400000
764.773376	297.100000
764.810425	284.300000
764.847473	292.000000
764.884399	286.700000
764.921448	296.300000
764.958435	291.000000
764.995483	282.400000
765.032532	298.900000
765.069458	283.500000
765.106506	286.500000
765.143555	284.000000
765.180481	289.100000
765.217529	295.500000
765.254578	280.200000
765.291504	290.200000
765.328552	288.000000
765.365540	285.800000
765.402527	301.500000
765.439575	285.300000
765.476501	283.100000
765.513550	282.600000
765.550537	289.600000
765.587463	295.800000
765.624512	289.200000
765.661499	281.400000
765.698486	300.000000
765.735474	288.100000
765.772461	291.200000
765.809448	300.100000
765.846436	297.200000
765.883423	301.200000
765.920410	296.600000
765.957397	290.100000
765.994385	296.200000
766.031311	305.100000
766.068359	297.200000
766.105286	300.500000
766.142273	306.200000
766.179260	302.200000
766.216187	294.200000
766.253174	292.200000
766.290161	302.000000
766.327148	305.800000
766.364136	306.300000
766.401123	322.200000
766.438049	300.000000
766.475037	313.800000
766.512024	310.800000
766.548950	325.900000
766.585937	317.600000
766.622864	315.400000
766.659790	313.700000
766.696777	304.800000
766.733704	320.700000
766.770691	312.300000
766.807678	328.100000
766.844604	324.600000
766.881531	322.400000
766.918518	329.500000
766.955444	331.400000
766.992432	325.900000
767.029358	329.300000
767.066284	332.800000
767.103271	332.100000
767.140198	358.700000
767.177124	345.500000
767.214050	338.300000
767.251038	338.200000
767.287964	336.000000
767.324890	331.500000
767.361816	337.900000
767.398743	346.000000
767.435730	340.600000
767.472595	344.200000
767.509583	350.700000
767.546509	339.100000
767.583374	347.000000
767.620361	342.300000
767.657288	346.300000
767.694214	346.600000
767.731140	347.200000
767.768066	348.500000
767.804993	354.100000
767.841919	344.100000
767.878845	350.800000
767.915710	360.000000
767.952698	355.400000
767.989563	355.500000
768.026489	358.900000
768.063416	353.400000
768.100281	353.600000
768.137207	366.100000
768.174133	366.700000
768.211060	364.800000
768.247986	364.600000
768.284912	364.100000
768.321777	368.300000
768.358704	364.400000
768.395630	370.300000
768.432495	362.000000
768.469421	371.400000
768.506348	377.100000
768.543152	385.600000
768.580078	377.700000
768.616943	381.600000
768.653870	383.900000
768.690796	382.000000
768.727661	382.300000
768.764587	383.600000
768.801453	377.200000
768.838318	388.800000
768.875244	387.800000
768.912109	393.400000
768.948975	385.500000
768.985901	389.300000
769.022766	389.700000
769.059631	395.300000
769.096558	390.200000
769.133362	391.800000
769.170288	393.900000
769.207214	392.300000
769.244019	403.000000
769.280945	401.300000
769.317810	409.200000
769.354675	401.200000
769.391541	412.100000
769.428406	408.200000
769.465271	421.200000
769.502136	407.600000
769.539062	411.600000
769.575867	410.000000
769.612732	413.200000
769.649597	419.700000
769.686462	424.500000
769.723328	417.500000
769.760193	416.500000
769.797058	417.800000
769.833923	428.500000
769.870728	423.800000
769.907593	428.400000
769.944519	427.200000
769.981323	427.400000
770.018188	432.500000
770.055054	427.900000
770.091858	427.900000
770.128723	442.400000
770.165588	449.000000
770.202393	430.600000
770.239258	444.000000
770.276062	441.200000
770.312927	441.900000
770.349792	447.700000
770.386597	446.900000
770.423462	452.900000
770.460327	463.200000
770.497131	445.700000
770.533997	439.900000
770.570862	457.000000
770.607605	461.700000
770.644470	451.700000
770.681335	453.400000
770.718140	452.500000
770.754944	444.400000
770.791809	444.900000
770.828613	448.200000
770.865479	449.400000
770.902222	459.700000
770.939087	454.500000
770.975952	444.500000
771.012695	452.600000
771.049561	469.000000
771.086365	453.200000
771.123169	449.900000
771.159973	458.600000
771.196838	457.900000
771.233582	461.400000
771.270447	460.600000
771.307251	463.200000
771.344055	460.800000
771.380859	464.900000
771.417664	456.600000
771.454468	469.700000
771.491272	468.100000
771.528076	467.500000
771.564880	469.800000
771.601685	478.600000
771.638428	466.500000
771.675293	473.400000
771.712097	461.400000
771.748840	485.900000
771.785645	476.400000
771.822449	480.300000
771.859253	482.100000
771.896057	479.800000
771.932861	491.000000
771.969604	481.500000
772.006409	474.900000
772.043213	489.900000
772.079956	489.700000
772.116760	478.800000
772.153503	486.100000
772.190308	498.000000
772.227112	489.300000
772.263855	487.200000
772.300659	493.100000
772.337463	499.300000
772.374207	489.600000
772.411011	487.200000
772.447754	493.800000
772.484497	515.200000
772.521301	509.000000
772.558105	506.100000
772.594849	507.200000
772.631592	513.200000
772.668396	511.000000
772.705139	519.200000
772.741882	521.000000
772.778625	534.200000
772.815430	534.200000
772.852173	528.100000
772.888916	537.100000
772.925720	540.200000
772.962463	551.600000
772.999207	543.800000
773.035950	547.100000
773.072754	549.000000
773.109436	544.500000
773.146240	548.600000
773.182922	546.800000
773.219727	558.900000
773.256470	553.800000
773.293152	540.600000
773.329956	548.400000
773.366699	554.400000
773.403381	550.700000
773.440186	558.200000
773.476929	563.200000
773.513611	553.300000
773.550354	555.900000
773.587158	553.100000
773.623840	554.700000
773.660583	567.100000
773.697327	583.500000
773.734009	570.300000
773.770813	570.400000
773.807495	568.000000
773.844238	574.800000
773.880981	592.400000
773.917664	589.400000
773.954407	594.600000
773.991150	582.200000
774.027832	594.000000
774.064575	580.200000
774.101318	591.000000
774.138000	600.400000
774.174744	596.400000
774.211487	600.600000
774.248108	589.400000
774.284851	588.400000
774.321594	601.500000
774.358276	604.700000
774.395020	615.400000
774.431702	611.100000
774.468384	604.400000
774.505127	602.000000
774.541809	616.500000
774.578491	629.400000
774.615234	636.000000
774.651917	626.000000
774.688599	626.900000
774.725342	638.100000
774.762024	636.100000
774.798706	646.800000
774.835449	642.000000
774.872070	651.000000
774.908813	646.300000
774.945496	637.400000
774.982178	641.200000
775.018860	649.800000
775.055542	653.700000
775.092224	653.700000
775.128967	657.100000
775.165588	657.700000
775.202271	649.800000
775.239014	664.400000
775.275635	669.000000
775.312317	665.900000
775.349060	670.800000
775.385681	669.100000
775.422363	661.200000
775.459045	672.700000
775.495667	672.900000
775.532410	677.000000
775.569092	677.400000
775.605713	676.000000
775.642395	676.300000
775.679016	678.300000
775.715698	684.400000
775.752380	689.800000
775.789001	683.500000
775.825684	679.100000
775.862366	679.200000
775.898987	696.100000
775.935669	682.800000
775.972351	709.200000
776.008972	700.300000
776.045654	700.900000
776.082336	692.700000
776.118958	697.500000
776.155640	704.000000
776.192322	715.100000
776.228882	717.300000
776.265564	708.200000
776.302185	705.200000
776.338867	713.300000
776.375488	697.700000
776.412109	713.700000
776.448792	721.700000
776.485413	729.700000
776.522034	715.600000
776.558716	708.700000
776.595337	705.900000
776.631958	717.700000
776.668579	718.200000
776.705261	723.300000
776.741882	716.400000
776.778503	715.200000
776.815186	709.600000
776.851746	720.800000
776.888367	723.000000
776.924988	729.700000
776.961609	720.800000
776.998291	722.400000
777.034851	706.300000
777.071472	726.100000
777.108154	724.400000
777.144714	738.900000
777.181335	736.600000
777.218018	724.900000
777.254578	730.600000
777.291199	729.500000
777.327759	740.000000
777.364380	748.300000
777.401062	754.500000
777.437622	761.900000
777.474243	750.400000
777.510864	761.400000
777.547424	757.500000
777.584045	759.000000
777.620667	761.100000
777.657227	772.700000
777.693848	772.100000
777.730469	785.600000
777.767029	779.100000
777.803650	782.900000
777.840271	770.400000
777.876831	772.300000
777.913452	783.500000
777.950012	760.600000
777.986633	763.300000
778.023193	766.100000
778.059753	769.700000
778.096375	767.400000
778.132996	778.900000
778.169556	765.900000
778.206116	770.000000
778.242737	768.500000
778.279297	781.400000
778.315857	770.200000
778.352478	781.000000
778.389038	789.900000
778.425598	791.500000
778.462219	805.300000
778.498718	805.700000
778.535339	812.300000
778.571838	813.500000
778.608459	824.500000
778.645020	819.000000
778.681580	831.100000
778.718140	832.900000
778.754761	827.500000
778.791260	831.500000
778.827881	846.800000
778.864441	838.900000
778.900940	844.200000
778.937561	843.600000
778.974121	843.900000
779.010620	832.000000
779.047241	837.100000
779.083801	848.100000
779.120300	847.500000
779.156860	849.800000
779.193359	851.300000
779.229980	854.200000
779.266541	861.100000
779.303040	869.300000
779.339600	860.000000
779.376160	851.400000
779.412659	863.600000
779.449219	858.400000
779.485779	868.500000
779.522278	870.300000
779.558838	872.600000
779.595398	869.900000
779.631897	873.300000
779.668457	868.800000
779.705017	881.900000
779.741516	870.100000
779.778076	864.100000
779.814575	878.400000
779.851074	885.100000
779.887634	880.800000
779.924133	890.100000
779.960693	876.000000
779.997253	887.100000
780.033691	894.600000
780.070251	899.700000
780.106812	906.900000
780.143250	904.400000
780.179810	901.300000
780.216370	907.900000
780.252808	914.900000
780.289368	929.500000
780.325867	928.700000
780.362366	924.300000
780.398865	935.800000
780.435364	931.500000
780.471863	948.100000
780.508423	945.200000
780.544861	957.600000
780.581421	961.600000
780.617920	948.000000
780.654419	944.500000
780.690918	957.900000
780.727417	965.800000
780.763916	965.500000
780.800415	967.400000
780.836914	947.500000
780.873352	959.600000
780.909912	949.000000
780.946411	960.100000
780.982849	970.900000
781.019348	986.500000
781.055786	975.300000
781.092346	970.300000
781.128845	984.100000
781.165283	989.500000
781.201782	997.600000
781.238281	999.700000
781.274719	1003.700000
781.311218	1000.000000
781.347717	1010.300000
781.384155	999.900000
781.420654	1000.600000
781.457092	1011.300000
781.493591	1000.400000
781.530090	993.300000
781.566528	1001.100000
781.602966	1008.000000
781.639465	1009.200000
781.675903	1004.600000
781.712402	1012.400000
781.748901	1019.800000
781.785278	1007.700000
781.821777	1014.900000
781.858276	1007.400000
781.894714	1026.500000
781.931152	1019.400000
781.967651	1026.100000
782.004089	1014.200000
782.040527	1028.900000
782.076965	1026.900000
782.113403	1027.600000
782.149902	1029.600000
782.186340	1026.500000
782.222778	1039.100000
782.259277	1024.400000
782.295654	1019.100000
782.332092	1026.700000
782.368591	1021.700000
782.404968	1017.200000
782.441467	1022.400000
782.477905	1022.900000
782.514282	1016.900000
782.550781	1040.900000
782.587219	1038.400000
782.623596	1044.700000
782.660095	1048.500000
782.696472	1051.400000
782.732910	1049.200000
782.769348	1052.900000
782.805786	1076.600000
782.842224	1061.400000
782.878662	1060.900000
782.915039	1064.100000
782.951477	1064.200000
782.987915	1056.400000
783.024292	1068.700000
783.060730	1067.400000
783.097168	1053.900000
783.133545	1049.800000
783.169983	1046.800000
783.206421	1034.100000
783.242798	1033.000000
783.279236	1019.300000
783.315613	1015.900000
783.352051	1019.600000
783.388489	1000.300000
783.424866	991.600000
783.461304	995.300000
783.497681	1000.800000
783.534058	995.700000
783.570496	989.200000
783.606934	984.100000
783.643250	990.900000
783.679687	1005.100000
783.716125	999.000000
783.752441	1013.300000
783.788879	1030.500000
783.825317	1028.800000
783.861633	1036.000000
783.898071	1041.700000
783.934448	1062.700000
783.970825	1072.100000
784.007263	1065.500000
784.043579	1060.800000
784.080017	1043.500000
784.116394	967.400000
784.152710	841.400000
784.189148	682.300000
784.225525	515.900000
784.261902	383.200000
784.298279	325.600000
784.334656	312.100000
784.371033	313.400000
784.407410	350.900000
784.443787	427.100000
784.480164	559.500000
784.516541	707.300000
784.552856	861.100000
784.589233	950.500000
784.625610	989.400000
784.661987	1045.200000
784.698364	1044.300000
784.734741	1034.000000
784.771057	1030.400000
784.807434	1037.600000
784.843811	1061.000000
784.880127	1066.700000
784.916504	1102.400000
784.952881	1102.600000
784.989197	1093.500000
785.025574	1092.300000
785.061951	1102.800000
785.098267	1134.200000
785.134644	1126.000000
785.170959	1128.400000
785.207275	1131.800000
785.243652	1136.900000
785.279968	1128.000000
785.316345	1138.700000
785.352722	1138.100000
785.388977	1137.200000
785.425354	1124.300000
785.461731	1106.000000
785.498047	1093.500000
785.534363	1089.600000
785.570679	1092.200000
785.606995	1091.500000
785.643372	1092.300000
785.679687	1080.000000
785.716003	1067.700000
785.752380	1065.800000
785.788635	1071.000000
785.825012	1094.700000
785.861328	1100.500000
785.897644	1087.400000
785.933960	1107.100000
785.970337	1115.400000
786.006592	1134.900000
786.042908	1146.300000
786.079285	1162.100000
786.115540	1178.100000
786.151855	1169.700000
786.188171	1160.100000
786.224487	1160.900000
786.260803	1167.400000
786.297119	1181.700000
786.333435	1180.700000
786.369751	1180.900000
786.406006	1175.800000
786.442322	1159.800000
786.478638	1148.500000
786.514954	1169.500000
786.551270	1167.700000
786.587585	1181.600000
786.623840	1166.800000
786.660156	1161.300000
786.696472	1140.500000
786.732727	1141.700000
786.769043	1144.600000
786.805298	1133.400000
786.841614	1135.300000
786.877930	1136.700000
786.914124	1122.500000
786.950439	1141.500000
786.986755	1149.200000
787.023010	1162.600000
787.059326	1174.600000
787.095642	1170.400000
787.131836	1186.000000
787.168152	1178.300000
787.204468	1183.800000
787.240723	1199.600000
787.276978	1216.100000
787.313293	1228.300000
787.349548	1223.100000
787.385803	1218.000000
787.422058	1215.000000
787.458313	1218.400000
787.494629	1221.200000
787.530823	1215.500000
787.567139	1207.400000
787.603455	1198.000000
787.639648	1179.900000
787.675903	1177.600000
787.712219	1179.900000
787.748413	1184.800000
787.784729	1191.200000
787.820984	1173.600000
787.857178	1164.100000
787.893494	1151.000000
787.929749	1150.100000
787.965942	1160.100000
788.002258	1177.500000
788.038452	1180.800000
788.074707	1165.500000
788.110962	1168.500000
788.147217	1164.500000
788.183472	1178.900000
788.219727	1191.200000
788.255920	1213.100000
788.292175	1218.000000
788.328430	1211.300000
788.364624	1189.200000
788.400879	1183.300000
788.437134	1192.300000
788.473328	1193.200000
788.509583	1185.300000
788.545837	1184.600000
788.582031	1176.100000
788.618286	1158.600000
788.654480	1154.600000
788.690735	1169.800000
788.726990	1183.600000
788.763184	1189.000000
788.799377	1200.400000
788.835632	1185.300000
788.871826	1206.200000
788.908081	1203.600000
788.944336	1195.600000
788.980469	1221.700000
789.016724	1215.000000
789.052979	1204.700000
789.089111	1186.300000
789.125366	1195.900000
789.161621	1177.300000
789.197754	1186.400000
789.234009	1175.400000
789.270142	1161.700000
789.306396	1151.900000
789.342590	1142.800000
789.378784	1124.700000
789.414978	1120.300000
789.451233	1140.800000
789.487366	1136.300000
789.523621	1145.800000
789.559814	1139.000000
789.595947	1123.500000
789.632202	1136.900000
789.668335	1149.400000
789.704529	1169.900000
789.740784	1190.700000
789.776917	1187.600000
789.813110	1173.800000
789.849304	1182.700000
789.885498	1188.600000
789.921692	1212.600000
789.957886	1222.200000
789.994019	1225.000000
790.030212	1204.300000
790.066406	1205.400000
790.102539	1201.800000
790.138733	1215.800000
790.174927	1210.000000
790.211060	1227.800000
790.247253	1206.700000
790.283386	1188.500000
790.319580	1175.800000
790.355774	1161.600000
790.391907	1168.400000
790.428101	1190.500000
790.464294	1187.000000
790.500427	1196.100000
790.536621	1182.300000
790.572754	1163.500000
790.608887	1160.800000
790.645081	1173.700000
790.681274	1189.400000
790.717346	1186.900000
790.753540	1146.400000
790.789734	1070.400000
790.825867	1015.000000
790.862000	1003.900000
790.898132	1056.400000
790.934265	1118.800000
790.970459	1174.700000
791.006592	1195.600000
791.042725	1199.500000
791.078918	1194.700000
791.114990	1194.200000
791.151184	1205.200000
791.187317	1226.300000
791.223389	1226.500000
791.259583	1209.400000
791.295715	1214.500000
791.331848	1223.000000
791.367981	1234.600000
791.404114	1244.400000
791.440247	1232.000000
791.476379	1236.800000
791.512451	1218.100000
791.548584	1217.400000
791.584778	1209.900000
791.620850	1233.800000
791.656982	1242.400000
791.693115	1234.900000
791.729187	1228.800000
791.765381	1219.100000
791.801514	1219.600000
791.837585	1218.000000
791.873718	1232.400000
791.909851	1247.900000
791.945923	1255.200000
791.982056	1215.100000
792.018188	1209.100000
792.054260	1208.600000
792.090393	1215.500000
792.126465	1210.500000
792.162598	1219.100000
792.198669	1202.300000
792.234741	1192.700000
792.270874	1184.800000
792.307007	1176.800000
792.343079	1177.700000
792.379150	1199.200000
792.415283	1187.800000
792.451355	1185.000000
792.487488	1160.900000
792.523560	1157.000000
792.559631	1163.100000
792.595764	1164.100000
792.631836	1169.800000
792.667908	1175.400000
792.703979	1157.600000
792.740051	1151.300000
792.776184	1156.800000
792.812256	1160.100000
792.848328	1172.700000
792.884399	1180.800000
792.920471	1170.900000
792.956543	1165.600000
792.992615	1165.300000
793.028748	1159.900000
793.064758	1165.800000
793.100830	1193.100000
793.136963	1203.500000
793.172974	1188.100000
793.209045	1179.900000
793.245178	1192.600000
793.281189	1180.000000
793.317261	1196.500000
793.353271	1190.900000
793.389404	1200.100000
793.425476	1191.100000
793.461487	1174.800000
793.497559	1167.600000
793.533630	1175.600000
793.569641	1179.200000
793.605713	1181.600000
793.641785	1186.500000
793.677795	1191.500000
793.713867	1173.800000
793.749878	1183.000000
793.785950	1196.500000
793.822021	1200.200000
793.858032	1186.200000
793.894104	1197.400000
793.930176	1183.000000
793.966187	1190.700000
794.002258	1179.100000
794.038269	1183.300000
794.074280	1177.000000
794.110352	1195.900000
794.146423	1166.300000
794.182373	1162.500000
794.218445	1154.800000
794.254517	1146.000000
794.290466	1124.100000
794.326538	1137.000000
794.362549	1144.900000
794.398560	1151.300000
794.434631	1148.300000
794.470581	1117.200000
794.506653	1109.600000
794.542664	1118.600000
794.578674	1116.500000
794.614685	1112.100000
794.650757	1105.700000
794.686707	1101.700000
794.722778	1091.500000
794.758789	1101.400000
794.794739	1107.000000
794.830811	1127.400000
794.866821	1148.100000
794.902771	1140.100000
794.938843	1130.700000
794.974792	1117.000000
795.010803	1122.800000
795.046814	1123.000000
795.082825	1112.400000
795.118835	1132.400000
795.154846	1109.100000
795.190796	1109.200000
795.226807	1083.000000
795.262817	1093.500000
795.298767	1089.400000
795.334778	1098.600000
795.370850	1083.500000
795.406799	1091.900000
795.442810	1066.900000
795.478821	1061.600000
795.514709	1065.700000
795.550720	1086.300000
795.586670	1064.300000
795.622681	1069.400000
795.658691	1062.600000
795.694641	1060.800000
795.730652	1047.300000
795.766663	1053.800000
795.802551	1058.200000
795.838562	1078.100000
795.874573	1059.100000
795.910522	1057.900000
795.946472	1043.900000
795.982483	1048.600000
796.018433	1050.000000
796.054382	1061.900000
796.090393	1052.900000
796.126282	1042.900000
796.162292	1028.400000
796.198242	1022.500000
796.234192	1022.800000
796.270203	1027.200000
796.306091	1037.200000
796.342041	1047.000000
796.378052	1026.300000
796.413940	1025.800000
796.449951	1029.000000
796.485901	1022.700000
796.521790	1029.500000
796.557800	1037.800000
796.593689	1037.400000
796.629639	1027.000000
796.665649	1027.300000
796.701599	1021.100000
796.737488	1019.100000
796.773437	1026.900000
796.809387	1026.700000
796.845337	1023.900000
796.881287	1007.700000
796.917175	995.300000
796.953125	993.900000
796.989075	1004.800000
797.024963	1016.000000
797.060913	1010.600000
797.096863	1005.300000
797.132751	995.900000
797.168701	977.900000
797.204590	990.600000
797.240540	987.400000
797.276489	992.200000
797.312439	1000.700000
797.348328	996.300000
797.384277	982.900000
797.420166	977.900000
797.456055	982.900000
797.492004	972.200000
797.527893	982.800000
797.563843	988.000000
797.599731	977.400000
797.635620	959.700000
797.671570	968.000000
797.707520	966.000000
797.743347	969.100000
797.779297	980.300000
797.815125	967.800000
797.851074	956.800000
797.887024	951.100000
797.922913	941.400000
797.958801	952.900000
797.994690	955.100000
798.030579	962.200000
798.066467	963.800000
798.102356	947.700000
798.138245	941.400000
798.174133	938.900000
798.210083	946.300000
798.245911	958.400000
798.281799	958.700000
798.317749	948.800000
798.353577	941.500000
798.389465	939.200000
798.425293	936.300000
798.461243	926.000000
798.497131	930.000000
798.532959	933.000000
798.568848	940.200000
798.604736	925.100000
798.640564	914.500000
798.676453	911.300000
798.712402	915.900000
798.748230	921.600000
798.784119	916.600000
798.820007	921.200000
798.855835	921.500000
798.891724	909.700000
798.927551	908.200000
798.963379	914.300000
798.999268	912.600000
799.035095	909.300000
799.070984	904.200000
799.106873	893.500000
799.142700	903.700000
799.178528	892.900000
799.214417	888.700000
799.250244	909.700000
799.286133	898.800000
799.321960	893.900000
799.357788	889.200000
799.393677	890.700000
799.429504	888.400000
799.465332	888.500000
799.501221	899.800000
799.537048	891.900000
799.572876	884.300000
799.608704	881.200000
799.644531	888.200000
799.680359	889.800000
799.716248	894.000000
799.752014	896.300000
799.787903	890.700000
799.823730	885.300000
799.859558	872.500000
799.895386	876.700000
799.931213	882.000000
799.967041	873.300000
800.002869	867.600000
800.038696	882.900000
800.074463	855.700000
800.110352	856.600000
800.146179	849.900000
800.181946	859.600000
800.217773	863.600000
800.253540	859.300000
800.289429	851.400000
800.325256	842.400000
800.361023	841.700000
800.396851	843.400000
800.432678	842.500000
800.468445	841.100000
800.504272	833.400000
800.540100	817.100000
800.575867	816.700000
800.611694	818.300000
800.647461	811.900000
800.683289	817.000000
800.719116	820.800000
800.754883	815.500000
800.790649	797.500000
800.826477	792.500000
800.862244	810.300000
800.898071	794.800000
800.933838	787.800000
800.969604	786.800000
801.005432	787.300000
801.041199	787.200000
801.076965	779.500000
801.112793	772.500000
801.148560	760.900000
801.184326	762.700000
801.220154	763.500000
801.255859	755.600000
801.291687	754.900000
801.327454	747.000000
801.363281	745.300000
801.398987	746.400000
801.434814	748.600000
801.470520	757.600000
801.506287	740.000000
801.542114	733.700000
801.577820	738.800000
801.613647	738.700000
801.649414	729.900000
801.685120	731.300000
801.720886	738.200000
801.756714	724.400000
801.792419	714.700000
801.828186	710.800000
801.863892	718.800000
801.899719	710.900000
801.935486	709.200000
801.971252	718.600000
802.006958	712.300000
802.042725	703.400000
802.078430	701.700000
802.114197	696.000000
802.149963	715.400000
802.185669	705.600000
802.221436	697.300000
802.257202	696.900000
802.292908	692.500000
802.328674	701.000000
802.364441	701.100000
802.400146	694.900000
802.435913	689.200000
802.471558	682.900000
802.507324	680.800000
802.543091	673.000000
802.578796	683.400000
802.614502	681.200000
802.650269	690.100000
802.685974	672.300000
802.721741	673.000000
802.757446	680.800000
802.793152	673.400000
802.828918	684.400000
802.864624	678.500000
802.900330	676.400000
802.936035	669.600000
802.971802	665.900000
803.007446	665.800000
803.043213	659.900000
803.078857	663.600000
803.114624	648.100000
803.150330	657.100000
803.185974	646.800000
803.221741	646.000000
803.257446	651.200000
803.293152	652.500000
803.328857	649.200000
803.364563	642.600000
803.400208	635.900000
803.435974	642.000000
803.471680	633.900000
803.507324	628.100000
803.543030	637.500000
803.578735	642.300000
803.614441	628.700000
803.650146	633.100000
803.685791	622.100000
803.721497	626.200000
803.757202	613.300000
803.792847	625.900000
803.828552	615.900000
803.864258	615.500000
803.899902	614.300000
803.935608	597.500000
803.971313	608.300000
804.006958	607.800000
804.042664	601.500000
804.078308	606.500000
804.113953	597.700000
804.149658	606.000000
804.185364	592.900000
804.221008	600.900000
804.256714	592.200000
804.292297	591.700000
804.328003	585.400000
804.363708	578.400000
804.399292	577.900000
804.434998	582.000000
804.470703	574.300000
804.506287	584.100000
804.541992	578.400000
804.577637	582.400000
804.613281	566.700000
804.648926	568.600000
804.684570	571.400000
804.720215	569.100000
804.755920	566.200000
804.791565	560.800000
804.827209	568.100000
804.862854	562.100000
804.898437	552.300000
804.934143	557.800000
804.969788	556.100000
805.005371	558.800000
805.041077	558.500000
805.076721	555.800000
805.112305	545.600000
805.147949	550.500000
805.183655	545.700000
805.219238	547.800000
805.254883	546.900000
805.290466	551.500000
805.326111	541.700000
805.361755	531.300000
805.397400	538.300000
805.432983	545.500000
805.468628	542.200000
805.504211	548.800000
805.539856	546.500000
805.575500	546.800000
805.611084	539.000000
805.646729	526.300000
805.682373	532.900000
805.717957	542.500000
805.753601	542.200000
805.789246	527.900000
805.824768	537.500000
805.860413	537.300000
805.895996	527.100000
805.931641	524.600000
805.967224	531.900000
806.002869	523.400000
806.038452	533.700000
806.074036	528.900000
806.109619	518.600000
806.145264	515.700000
806.180847	513.000000
806.216431	512.700000
806.252014	517.700000
806.287659	515.100000
806.323181	525.000000
806.358826	518.000000
806.394409	497.000000
806.429993	501.900000
806.465576	517.000000
806.501160	498.700000
806.536743	490.300000
806.572327	503.100000
806.607910	498.500000
806.643494	497.400000
806.679077	493.200000
806.714661	496.600000
806.750244	496.300000
806.785828	489.600000
806.821350	488.400000
806.856934	495.400000
806.892517	489.300000
806.928101	480.600000
806.963684	483.000000
806.999268	494.000000
807.034790	470.400000
807.070374	477.500000
807.105896	472.800000
807.141479	469.900000
807.177063	477.700000
807.212585	467.700000
807.248169	468.400000
807.283752	475.200000
807.319275	467.400000
807.354858	468.600000
807.390381	465.200000
807.425903	465.300000
807.461487	461.900000
807.497070	455.500000
807.532593	457.900000
807.568115	454.000000
807.603699	451.000000
807.639221	444.200000
807.674744	447.300000
807.710266	455.300000
807.745850	453.100000
807.781372	444.800000
807.816895	443.300000
807.852417	447.800000
807.888000	443.100000
807.923523	441.600000
807.959045	445.300000
807.994629	433.700000
808.030090	430.300000
808.065613	438.300000
808.101135	440.400000
808.136658	435.800000
808.172241	433.800000
808.207764	429.500000
808.243225	427.300000
808.278809	423.700000
808.314270	432.100000
808.349792	417.500000
808.385315	416.600000
808.420837	425.200000
808.456360	429.900000
808.491882	426.500000
808.527344	420.600000
808.562866	430.400000
808.598389	424.700000
808.633850	416.100000
808.669434	412.600000
808.704895	422.600000
808.740417	426.500000
808.775940	415.300000
808.811462	410.100000
808.846924	403.800000
808.882385	399.800000
808.917847	401.500000
808.953369	401.700000
808.988892	396.000000
809.024353	406.500000
809.059875	403.500000
809.095398	399.200000
809.130798	392.200000
809.166321	392.800000
809.201843	392.300000
809.237305	393.600000
809.272766	398.100000
809.308228	385.600000
809.343750	384.800000
809.379211	388.300000
809.414734	388.400000
809.450134	394.700000
809.485657	378.300000
809.521118	383.300000
809.556580	380.900000
809.592102	380.800000
809.627502	377.200000
809.663025	376.700000
809.698486	372.400000
809.733887	368.500000
809.769409	371.900000
809.804871	358.100000
809.840271	363.100000
809.875793	366.400000
809.911194	370.000000
809.946655	363.100000
809.982178	356.600000
810.017639	362.500000
810.053040	359.800000
810.088501	357.200000
810.123901	357.800000
810.159424	355.700000
810.194885	349.000000
810.230286	353.700000
810.265747	347.700000
810.301208	346.500000
810.336609	349.800000
810.372070	343.700000
810.407532	346.900000
810.442932	347.100000
810.478394	349.200000
810.513794	344.800000
810.549255	343.900000
810.584717	344.000000
810.620117	337.100000
810.655518	344.000000
810.690979	341.400000
810.726379	340.300000
810.761841	330.500000
810.797302	333.200000
810.832642	332.300000
810.868103	344.500000
810.903564	329.700000
810.938904	338.600000
810.974365	325.700000
811.009827	332.200000
811.045166	324.900000
811.080627	317.700000
811.115967	325.900000
811.151428	332.100000
811.186829	324.100000
811.222229	325.200000
811.257629	318.700000
811.293091	326.200000
811.328430	332.600000
811.363892	325.900000
811.399292	326.200000
811.434631	319.900000
811.470093	326.000000
811.505493	314.500000
811.540833	317.400000
811.576294	322.200000
811.611694	316.500000
811.647034	313.200000
811.682434	314.400000
811.717773	316.400000
811.753235	321.200000
811.788635	313.800000
811.823975	315.600000
811.859375	322.100000
811.894775	307.600000
811.930115	309.700000
811.965515	309.800000
812.000916	314.900000
812.036255	309.600000
812.071655	313.700000
812.106995	305.700000
812.142395	306.600000
812.177795	314.800000
812.213196	310.800000
812.248474	312.900000
812.283875	302.900000
812.319214	307.700000
812.354614	305.700000
812.390015	303.400000
812.425293	301.900000
812.460693	301.700000
812.496094	300.600000
812.531433	294.500000
812.566772	294.900000
812.602173	298.300000
812.637451	300.100000
812.672852	297.200000
812.708191	298.800000
812.743530	293.100000
812.778931	285.600000
812.814270	289.500000
812.849609	295.600000
812.884949	290.600000
812.920227	282.600000
812.955627	299.700000
812.990967	289.800000
813.026306	287.000000
813.061646	276.200000
813.096985	274.300000
813.132324	273.000000
813.167664	277.900000
813.203003	284.200000
813.238281	269.300000
813.273682	271.600000
813.308960	266.900000
813.344299	270.100000
813.379639	279.700000
813.414978	273.200000
813.450256	271.500000
813.485596	276.800000
813.520874	268.000000
813.556213	269.900000
813.591614	276.100000
813.626831	267.600000
813.662170	271.000000
813.697510	282.300000
813.732788	263.800000
813.768127	270.800000
813.803467	271.500000
813.838745	265.100000
813.874084	268.900000
813.909363	268.100000
813.944641	268.800000
813.979980	259.200000
814.015320	262.900000
814.050598	260.200000
814.085876	266.700000
814.121155	263.500000
814.156494	260.300000
814.191772	262.900000
814.227051	258.300000
814.262390	260.600000
814.297668	259.000000
814.332947	263.600000
814.368225	254.900000
814.403564	259.200000
814.438782	254.500000
814.474121	257.300000
814.509338	252.100000
814.544617	262.900000
814.579956	251.900000
814.615173	263.100000
814.650513	258.800000
814.685791	250.600000
814.721008	252.700000
814.756348	254.000000
814.791626	247.500000
814.826843	251.300000
814.862122	250.700000
814.897400	247.800000
814.932678	250.800000
814.967957	251.200000
815.003235	247.900000
815.038452	242.600000
815.073730	242.400000
815.108948	251.800000
815.144226	248.200000
815.179504	252.300000
815.214722	237.000000
815.250000	235.700000
815.285278	244.700000
815.320496	238.700000
815.355774	242.600000
815.391052	246.300000
815.426270	239.500000
815.461487	238.700000
815.496765	236.300000
815.531982	232.000000
815.567261	237.500000
815.602539	246.400000
815.637695	241.000000
815.672974	242.000000
815.708191	242.100000
815.743408	243.400000
815.778687	236.700000
815.813904	246.400000
815.849121	228.600000
815.884399	230.400000
815.919556	230.700000
815.954834	231.600000
815.990051	235.800000
816.025269	238.700000
816.060486	230.700000
816.095703	229.800000
816.130920	234.000000
816.166199	229.000000
816.201416	234.300000
816.236572	239.100000
816.271851	228.400000
816.307007	235.900000
816.342224	225.600000
816.377441	228.000000
816.412659	219.900000
816.447876	231.700000
816.483093	228.100000
816.518250	228.800000
816.553467	226.500000
816.588745	229.400000
816.623901	223.200000
816.659119	218.500000
816.694275	222.700000
816.729492	218.500000
816.764709	255.500000
816.799927	217.200000
816.835083	221.900000
816.870300	218.400000
816.905457	221.100000
816.940674	223.900000
816.975830	217.900000
817.010986	214.900000
817.046204	218.000000
817.081421	215.400000
817.116577	214.700000
817.151733	223.900000
817.186951	224.100000
817.222107	219.700000
817.257324	221.800000
817.292419	219.400000
817.327637	211.800000
817.362854	215.700000
817.398010	211.800000
817.433167	214.800000
817.468323	213.800000
817.503479	214.500000
817.538635	223.900000
817.573853	217.300000
817.608948	214.700000
817.644165	212.400000
817.679321	209.200000
817.714478	210.300000
817.749634	214.900000
817.784790	226.600000
817.819946	221.300000
817.855103	202.200000
817.890198	211.700000
817.925415	203.600000
817.960571	213.400000
817.995667	212.000000
818.030823	213.200000
818.066040	206.800000
818.101135	211.300000
818.136292	210.600000
818.171448	204.400000
818.206543	207.600000
818.241699	213.400000
818.276855	210.200000
818.311951	209.000000
818.347107	206.300000
818.382263	211.400000
818.417358	217.000000
818.452515	217.700000
818.487610	216.900000
818.522766	204.700000
818.557922	216.700000
818.593018	211.700000
818.628113	209.200000
818.663269	203.700000
818.698364	209.200000
818.733521	206.100000
818.768677	210.700000
818.803711	201.800000
818.838867	202.700000
818.874023	207.100000
818.909058	202.200000
818.944214	202.200000
818.979370	208.400000
819.014404	207.900000
819.049561	201.800000
819.084595	208.300000
819.119751	199.800000
819.154846	208.100000
819.189941	205.100000
819.225037	199.200000
819.260193	195.800000
819.295227	198.700000
819.330322	192.900000
819.365479	192.800000
819.400513	227.300000
819.435608	192.700000
819.470764	190.600000
819.505798	194.300000
819.540894	198.000000
819.575989	195.500000
819.611084	204.900000
819.646179	206.100000
819.681213	202.100000
819.716309	198.700000
819.751404	197.800000
819.786438	203.500000
819.821533	194.900000
819.856628	199.100000
819.891663	201.800000
819.926758	209.300000
819.961853	205.000000
819.996887	194.900000
820.031982	202.600000
820.067017	199.400000
820.102112	226.600000
820.137207	196.000000
820.172302	213.900000
820.207275	194.100000
820.242371	195.400000
820.277405	195.100000
820.312500	198.500000
820.347534	200.400000
820.382568	204.500000
820.417664	195.300000
820.452759	195.400000
820.487732	193.000000
820.522827	196.400000
820.557861	193.500000
820.592896	195.600000
820.627930	195.900000
820.662964	193.600000
820.698059	200.000000
820.733093	194.600000
820.768127	200.800000
820.803162	195.800000
820.838196	194.000000
820.873230	198.400000
820.908264	196.800000
820.943298	195.000000
820.978333	199.600000
821.013367	196.500000
821.048401	200.000000
821.083435	203.300000
821.118469	188.200000
821.153503	201.200000
821.188477	197.000000
821.223511	189.100000
821.258484	195.500000
821.293579	197.300000
821.328613	186.400000
821.363647	193.900000
821.398621	189.500000
821.433655	191.600000
821.468628	207.900000
821.503662	194.300000
821.538696	200.200000
821.573669	190.900000
821.608704	198.300000
821.643677	191.100000
821.678650	198.900000
821.713684	204.700000
821.748718	192.500000
821.783691	193.000000
821.818726	196.600000
821.853638	196.000000
821.888672	193.600000
821.923706	194.100000
821.958618	193.000000
821.993652	193.200000
822.028687	199.300000
822.063599	200.700000
822.098633	197.500000
822.133667	189.500000
822.168579	193.400000
822.203613	195.800000
822.238586	191.000000
822.273560	197.400000
822.308533	190.800000
822.343567	191.100000
822.378479	193.100000
822.413452	192.400000
822.448425	191.500000
822.483398	200.700000
822.518372	200.500000
822.553345	191.200000
822.588318	202.100000
822.623291	193.000000
822.658203	192.900000
822.693237	195.100000
822.728210	189.600000
822.763123	196.100000
822.798096	189.700000
822.833069	193.500000
822.867981	194.200000
822.902954	195.400000
822.937927	198.600000
822.972900	204.600000
823.007874	186.100000
823.042725	197.900000
823.077698	205.200000
823.112671	190.100000
823.147583	194.300000
823.182556	197.900000
823.217529	197.000000
823.252441	191.000000
823.287415	209.100000
823.322388	197.000000
823.357239	195.200000
823.392212	201.500000
823.427185	196.900000
823.462097	190.200000
823.497009	198.300000
823.531982	193.500000
823.566895	194.700000
823.601807	190.000000
823.636719	191.500000
823.671631	198.300000
823.706604	192.900000
823.741455	197.000000
823.776428	187.700000
823.811340	197.800000
823.846252	200.300000
823.881165	202.000000
823.916138	195.100000
823.950989	202.200000
823.985901	191.200000
824.020813	195.000000
824.055725	192.300000
824.090637	190.000000
824.125610	197.300000
824.160461	196.300000
824.195374	196.300000
824.230225	200.200000
824.265198	187.600000
824.300110	190.800000
824.334961	204.900000
824.369873	184.900000
824.404785	195.300000
824.439636	201.700000
824.474548	185.500000
824.509460	183.400000
824.544312	200.000000
824.579224	196.800000
824.614075	197.200000
824.648987	194.100000
824.683899	193.700000
824.718811	191.500000
824.753662	201.200000
824.788574	198.500000
824.823364	194.700000
824.858276	192.100000
824.893188	198.400000
824.928040	200.900000
824.962952	196.700000
824.997803	198.800000
825.032654	195.600000
825.067566	199.500000
825.102417	192.700000
825.137268	192.900000
825.172119	196.100000
825.206970	192.400000
825.241882	192.700000
825.276733	190.400000
825.311646	192.200000
825.346436	190.100000
825.381348	189.400000
825.416138	194.800000
825.450989	189.800000
825.485901	185.200000
825.520691	186.700000
825.555542	188.900000
825.590454	194.400000
825.625244	187.000000
825.660095	201.000000
825.695007	198.600000
825.729797	193.100000
825.764648	191.800000
825.799438	194.700000
825.834290	193.900000
825.869202	188.600000
825.903992	195.300000
825.938843	190.000000
825.973694	189.100000
826.008484	205.800000
826.043335	188.400000
826.078186	184.600000
826.112976	199.500000
826.147827	199.900000
826.182678	202.600000
826.217468	186.800000
826.252319	198.100000
826.287109	190.000000
826.321899	201.700000
826.356750	193.100000
826.391541	189.000000
826.426392	197.800000
826.461182	193.400000
826.495972	188.000000
826.530823	184.200000
826.565613	194.700000
826.600403	188.900000
826.635254	195.900000
826.670044	185.900000
826.704834	186.800000
826.739685	188.800000
826.774475	195.400000
826.809265	192.900000
826.844055	190.100000
826.878906	198.600000
826.913635	196.200000
826.948425	197.000000
826.983215	195.200000
827.018005	197.800000
827.052856	191.600000
827.087585	196.400000
827.122375	184.500000
827.157227	192.700000
827.191956	205.200000
827.226746	188.700000
827.261536	197.500000
827.296265	187.800000
827.331116	191.100000
827.365906	197.000000
827.400635	190.200000
827.435425	184.000000
827.470215	199.900000
827.504944	190.500000
827.539734	197.700000
827.574463	193.100000
827.609253	199.200000
827.644043	192.100000
827.678772	198.000000
827.713562	190.000000
827.748352	191.600000
827.783081	189.600000
827.817871	192.600000
827.852600	187.500000
827.887329	193.900000
827.922119	183.200000
827.956848	195.100000
827.991638	207.700000
828.026367	194.300000
828.061157	193.800000
828.095886	191.900000
828.130615	207.400000
828.165344	182.900000
828.200073	193.700000
828.234863	189.400000
828.269592	193.400000
828.304321	197.400000
828.339111	193.700000
828.373779	190.000000
828.408569	199.000000
828.443298	197.500000
828.477966	190.800000
828.512756	196.100000
828.547424	188.200000
828.582214	190.900000
828.616943	190.400000
828.651672	191.100000
828.686340	197.200000
828.721130	189.900000
828.755798	191.500000
828.790527	194.400000
828.825256	195.600000
828.859924	193.900000
828.894714	199.400000
828.929443	201.700000
828.964111	189.500000
828.998840	195.700000
829.033569	190.200000
829.068237	190.200000
829.102966	190.000000
829.137634	195.100000
829.172363	194.800000
829.207092	194.200000
829.241821	188.800000
829.276489	185.900000
829.311157	192.600000
829.345825	191.400000
829.380554	197.200000
829.415283	189.300000
829.449951	186.200000
829.484619	201.400000
829.519348	200.500000
829.554016	193.200000
829.588745	193.000000
829.623413	186.400000
829.658081	204.300000
829.692749	186.200000
829.727417	198.400000
829.762146	195.200000
829.796814	188.100000
829.831482	191.200000
829.866150	194.200000
829.900879	188.700000
829.935486	195.700000
829.970154	191.100000
830.004883	204.100000
830.039490	193.600000
830.074219	189.800000
830.108887	194.200000
830.143494	193.500000
830.178223	186.800000
830.212891	191.400000
830.247498	193.700000
830.282166	201.300000
830.316772	199.000000
830.351501	190.900000
830.386169	191.900000
830.420776	190.700000
830.455444	193.000000
830.490112	190.300000
830.524719	184.100000
830.559387	195.400000
830.594055	196.300000
830.628662	192.800000
830.663330	191.900000
830.697998	201.200000
830.732605	193.000000
830.767273	196.300000
830.801941	192.300000
830.836487	203.200000
830.871155	195.500000
830.905762	195.200000
830.940430	185.900000
830.975098	189.100000
831.009644	193.700000
831.044312	200.500000
831.078979	194.700000
831.113525	184.800000
831.148193	193.000000
831.182861	191.500000
831.217407	195.500000
831.252075	209.700000
831.286621	190.700000
831.321289	187.800000
831.355896	191.800000
831.390564	201.500000
831.425110	193.100000
831.459778	198.900000
831.494324	207.200000
831.528931	196.500000
831.563599	197.100000
831.598145	185.300000
831.632751	193.300000
831.667419	191.500000
831.701965	194.900000
831.736572	197.400000
831.771179	185.800000
831.805786	191.200000
831.840393	200.300000
831.874939	184.500000
831.909546	198.200000
831.944153	185.800000
831.978760	192.500000
832.013306	187.600000
832.047913	199.600000
832.082458	200.400000
832.117065	190.100000
832.151672	202.300000
832.186218	195.200000
832.220825	195.100000
832.255432	186.000000
832.289978	188.600000
832.324585	195.400000
832.359192	196.000000
832.393677	191.600000
832.428284	194.300000
832.462830	192.100000
832.497437	190.200000
832.531982	198.200000
832.566589	190.900000
832.601135	194.800000
832.635681	183.700000
832.670227	192.100000
832.704773	200.600000
832.739380	195.800000
832.773926	194.400000
832.808472	189.700000
832.843079	192.800000
832.877563	197.100000
832.912170	190.700000
832.946716	185.400000
832.981201	198.700000
833.015808	196.200000
833.050293	191.800000
833.084839	189.800000
833.119446	191.100000
833.153992	197.000000
833.188477	193.400000
833.223022	189.000000
833.257568	195.000000
833.292114	199.700000
833.326660	203.600000
833.361145	190.900000
833.395691	184.700000
833.430237	191.600000
833.464783	197.300000
833.499329	188.600000
833.533875	188.300000
833.568359	197.400000
833.602905	198.400000
833.637390	199.000000
833.671875	189.500000
833.706421	192.800000
833.740906	189.100000
833.775452	182.500000
833.809998	190.700000
833.844482	200.700000
833.879028	192.800000
833.913513	190.500000
833.947998	195.000000
833.982544	189.200000
834.017090	189.700000
834.051514	181.000000
834.086060	196.100000
834.120544	192.600000
834.155029	194.000000
834.189575	190.100000
834.223999	196.500000
834.258545	194.200000
834.293030	194.500000
834.327515	192.200000
834.362000	188.800000
834.396545	197.100000
834.430969	191.700000
834.465454	196.000000
834.500000	185.000000
834.534424	195.100000
834.568970	183.400000
834.603455	183.400000
834.637878	188.500000
834.672363	193.500000
834.706909	193.300000
834.741333	194.100000
834.775818	185.400000
834.810242	188.300000
834.844727	195.000000
834.879211	190.500000
834.913635	194.200000
834.948181	194.600000
834.982666	193.300000
835.017090	191.800000
835.051575	195.900000
835.086060	189.400000
835.120483	195.800000
835.154907	197.400000
835.189331	192.600000
835.223816	195.700000
835.258301	187.900000
835.292786	188.200000
835.327209	198.300000
835.361694	189.800000
835.396057	190.000000
835.430542	195.600000
835.465027	194.900000
835.499390	187.700000
835.533875	213.000000
835.568359	191.500000
835.602722	185.800000
835.637207	195.200000
835.671692	186.800000
835.706055	208.800000
835.740540	193.100000
835.774902	195.800000
835.809387	194.300000
835.843811	186.600000
835.878235	199.800000
835.912659	187.400000
835.947083	187.300000
835.981506	192.000000
836.015930	185.000000
836.050354	197.100000
836.084778	201.900000
836.119202	196.900000
836.153625	205.500000
836.187988	188.200000
836.222473	188.200000
836.256897	193.700000
836.291260	191.700000
836.325684	194.800000
836.360046	190.600000
836.394470	192.400000
836.428894	199.900000
836.463318	189.100000
836.497681	196.800000
836.532104	199.600000
836.566467	194.200000
836.600891	192.000000
836.635315	198.000000
836.669678	196.900000
836.704102	198.000000
836.738525	193.300000
836.772888	185.900000
836.807251	191.300000
836.841675	194.400000
836.876038	187.900000
836.910461	189.700000
836.944763	197.500000
836.979187	188.300000
837.013611	198.200000
837.047974	186.000000
837.082336	205.500000
837.116699	197.100000
837.151062	193.100000
837.185486	187.700000
837.219849	191.800000
837.254211	196.200000
837.288574	192.200000
837.322937	187.900000
837.357300	179.600000
837.391663	205.100000
837.426086	198.300000
837.460388	194.600000
837.494751	198.100000
837.529114	191.000000
837.563477	197.800000
837.597839	194.900000
837.632141	192.500000
837.666565	189.100000
837.700928	194.700000
837.735229	195.700000
837.769592	194.600000
837.803955	198.500000
837.838257	191.300000
837.872620	188.200000
837.906982	200.500000
837.941284	194.000000
837.975647	192.700000
838.010010	199.500000
838.044312	191.700000
838.078674	191.100000
838.112976	193.600000
838.147339	196.900000
838.181702	192.800000
838.216003	203.500000
838.250366	193.600000
838.284668	196.000000
838.318970	184.100000
838.353333	193.200000
838.387634	192.700000
838.421936	193.500000
838.456299	194.400000
838.490601	201.200000
838.524902	196.500000
838.559265	199.300000
838.593567	196.300000
838.627869	187.600000
838.662170	196.500000
838.696472	186.400000
838.730774	189.900000
838.765137	197.300000
838.799377	179.000000
838.833740	194.800000
838.868042	200.000000
838.902283	184.500000
838.936646	198.900000
838.970947	195.400000
839.005188	197.400000
839.039551	185.000000
839.073792	200.100000
839.108093	191.500000
839.142395	202.700000
839.176697	185.300000
839.210937	195.100000
839.245300	205.100000
839.279541	187.300000
839.313843	191.600000
839.348145	197.700000
839.382385	197.800000
839.416687	197.500000
839.450989	196.100000
839.485229	192.800000
839.519531	189.000000
839.553833	198.600000
839.588013	192.800000
839.622314	194.000000
839.656555	195.500000
839.690857	193.200000
839.725159	187.000000
839.759460	192.000000
839.793640	191.000000
839.827942	192.000000
839.862183	188.100000
839.896423	194.300000
839.930725	202.600000
839.964966	200.800000
839.999207	200.800000
840.033508	200.900000
840.067688	189.600000
840.101990	201.400000
840.136230	192.400000
840.170471	200.300000
840.204712	188.300000
840.238953	189.000000
840.273193	194.600000
840.307434	197.300000
840.341736	188.900000
840.375916	186.900000
840.410217	189.700000
840.444397	197.600000
840.478638	194.600000
840.512878	199.100000
840.547119	195.800000
840.581360	195.500000
840.615601	203.500000
840.649780	202.100000
840.684021	194.100000
840.718262	201.700000
840.752441	200.000000
840.786682	194.900000
840.820862	195.500000
840.855103	200.100000
840.889343	193.600000
840.923584	198.300000
840.957764	195.200000
840.992004	195.100000
841.026184	208.100000
841.060425	190.800000
841.094666	190.400000
841.128845	197.000000
841.163025	195.100000
841.197266	196.300000
841.231445	194.500000
841.265686	194.800000
841.299866	189.300000
841.334045	201.400000
841.368286	192.300000
841.402405	201.600000
841.436646	197.700000
841.470825	191.100000
841.505005	192.300000
841.539185	189.600000
841.573425	189.800000
841.607544	194.000000
841.641785	194.600000
841.675964	188.100000
841.710144	194.600000
841.744324	191.500000
841.778503	192.700000
841.812683	189.900000
841.846863	203.400000
841.881042	199.700000
841.915222	191.800000
841.949402	209.500000
841.983521	184.400000
842.017700	193.100000
842.051880	194.300000
842.086060	195.100000
842.120239	194.400000
842.154419	190.200000
842.188538	194.400000
842.222717	189.300000
842.256897	204.900000
842.291016	193.200000
842.325195	196.200000
842.359375	204.500000
842.393494	201.900000
842.427673	193.500000
842.461853	198.200000
842.495911	202.200000
842.530090	196.700000
842.564209	193.000000
842.598389	195.100000
842.632568	194.200000
842.666626	198.800000
842.700806	190.700000
842.734985	191.800000
842.769043	197.500000
842.803223	192.100000
842.837402	192.800000
842.871460	191.600000
842.905640	202.300000
842.939697	191.300000
842.973877	197.800000
843.007996	199.700000
843.042175	204.000000
843.076233	190.900000
843.110413	196.100000
843.144470	204.600000
843.178589	198.500000
843.212769	190.900000
843.246826	199.700000
843.280945	193.900000
843.315125	192.400000
843.349182	190.700000
843.383301	200.400000
843.417419	206.900000
843.451538	195.500000
843.485657	192.800000
843.519714	192.800000
843.553833	195.000000
843.587952	191.100000
843.622070	189.800000
843.656128	197.800000
843.690247	192.600000
843.724304	191.700000
843.758423	194.900000
843.792542	192.500000
843.826599	194.200000
843.860718	192.100000
843.894836	187.400000
843.928894	193.800000
843.963013	197.200000
843.997070	190.300000
844.031128	189.400000
844.065247	198.200000
844.099304	200.600000
844.133362	194.700000
844.167480	196.500000
844.201599	200.700000
844.235596	196.300000
844.269714	196.800000
844.303711	198.000000
844.337830	186.100000
844.371948	196.900000
844.405945	193.800000
844.440063	189.700000
844.474121	207.000000
844.508118	194.100000
844.542236	192.800000
844.576294	192.900000
844.610352	189.000000
844.644409	194.700000
844.678406	186.300000
844.712524	199.100000
844.746582	201.200000
844.780640	194.400000
844.814636	194.900000
844.848755	205.700000
844.882751	192.900000
844.916809	198.600000
844.950867	195.600000
844.984863	203.100000
845.018921	193.300000
845.052979	191.500000
845.086975	194.500000
845.121033	188.600000
845.155090	189.100000
845.189087	202.200000
845.223145	192.400000
845.257141	193.500000
845.291199	197.100000
845.325256	202.100000
845.359253	195.200000
845.393250	204.300000
845.427307	192.900000
845.461304	196.900000
845.495361	194.100000
845.529358	204.100000
845.563354	192.000000
845.597412	190.600000
845.631409	202.800000
845.665405	201.700000
845.699463	200.300000
845.733459	192.000000
845.767456	200.600000
845.801453	192.300000
845.835449	201.200000
845.869446	198.500000
845.903503	197.600000
845.937439	190.800000
845.971497	201.700000
846.005493	188.400000
846.039429	198.900000
846.073486	204.700000
846.107483	193.600000
846.141418	194.700000
846.175476	193.400000
846.209473	201.200000
846.243408	191.100000
846.277405	195.500000
846.311401	189.900000
846.345337	195.000000
846.379395	200.000000
846.413330	192.200000
846.447327	203.200000
846.481323	189.300000
846.515259	192.800000
846.549255	194.800000
846.583252	197.100000
846.617187	188.900000
846.651184	197.400000
846.685120	193.400000
846.719055	203.100000
846.753052	201.000000
846.786987	199.700000
846.820984	187.400000
846.854980	201.100000
846.888916	189.400000
846.922852	198.400000
846.956848	203.300000
846.990723	190.600000
847.024719	195.900000
847.058716	192.700000
847.092590	202.200000
847.126587	195.400000
847.160522	192.600000
847.194458	198.200000
847.228455	191.400000
847.262390	188.200000
847.296265	192.400000
847.330261	201.800000
847.364136	193.500000
847.398132	190.900000
847.432068	194.700000
847.466003	192.000000
847.499939	192.600000
847.533875	197.000000
847.567749	192.900000
847.601746	191.700000
847.635681	198.400000
847.669556	186.200000
847.703491	201.000000
847.737427	210.000000
847.771301	189.200000
847.805237	196.200000
847.839233	195.400000
847.873108	195.300000
847.907043	192.800000
847.940918	201.300000
847.974854	197.500000
848.008789	199.800000
848.042664	195.600000
848.076538	197.900000
848.110474	194.300000
848.144348	196.700000
848.178284	188.600000
848.212219	194.900000
848.246094	193.400000
848.279968	195.100000
848.313904	199.300000
848.347778	195.700000
848.381653	194.300000
848.415588	190.200000
848.449463	192.300000
848.483337	196.700000
848.517212	200.000000
848.551086	194.900000
848.585022	191.400000
848.618835	202.200000
848.652771	192.100000
848.686646	190.600000
848.720520	204.100000
848.754395	193.600000
848.788330	199.000000
848.822144	198.700000
848.856018	193.600000
848.889954	203.000000
848.923767	189.700000
848.957642	190.800000
848.991577	198.300000
849.025391	193.200000
849.059265	194.700000
849.093079	192.000000
849.126953	188.000000
849.160828	200.200000
849.194641	195.500000
849.228577	190.900000
849.262451	193.400000
849.296265	192.900000
849.330139	190.600000
849.364014	196.600000
849.397827	197.000000
849.431702	194.100000
849.465515	199.600000
849.499329	185.700000
849.533203	190.000000
849.567078	184.600000
849.600891	198.500000
849.634766	194.200000
849.668518	200.300000
849.702393	194.400000
849.736267	187.900000
849.770020	207.100000
849.803894	198.000000
849.837769	193.700000
849.871521	193.900000
849.905396	200.100000
849.939270	190.600000
849.973022	193.800000
850.006897	199.000000
850.040710	197.100000
850.074524	197.200000
850.108337	192.000000
850.142151	198.600000
850.175964	200.500000
850.209778	195.200000
850.243530	181.400000
850.277405	200.500000
850.311218	195.600000
850.344971	191.800000
850.378845	203.100000
850.412659	191.600000
850.446411	194.800000
850.480225	194.200000
850.514038	200.200000
850.547791	196.300000
850.581665	195.700000
850.615417	193.500000
850.649231	195.000000
850.683044	194.600000
850.716858	193.400000
850.750610	195.200000
850.784424	199.800000
850.818176	191.600000
850.851929	192.500000
850.885742	192.500000
850.919495	194.500000
850.953308	202.700000
850.987122	203.400000
851.020874	189.900000
851.054626	186.100000
851.088440	198.700000
851.122192	198.900000
851.156006	195.100000
851.189697	193.600000
851.223511	188.900000
851.257263	198.000000
851.291077	198.400000
851.324829	193.600000
851.358582	191.800000
851.392334	192.700000
851.426086	192.800000
851.459900	202.100000
851.493591	194.900000
851.527344	195.600000
851.561157	195.100000
851.594849	198.500000
851.628662	197.300000
851.662415	202.200000
851.696106	197.400000
851.729858	199.600000
851.763611	188.300000
851.797363	195.600000
851.831116	190.000000
851.864868	197.200000
851.898560	198.500000
851.932312	192.600000
851.966064	195.900000
851.999817	194.800000
852.033569	193.800000
852.067261	200.100000
852.101013	190.400000
852.134766	194.300000
852.168457	184.500000
852.202209	199.300000
852.235901	191.200000
852.269592	197.000000
852.303345	204.100000
852.337036	199.800000
852.370789	193.800000
852.404541	199.700000
852.438171	190.000000
852.471924	193.400000
852.505676	188.300000
852.539307	197.500000
852.573059	191.400000
852.606812	193.400000
852.640442	193.600000
852.674194	200.700000
852.707886	204.900000
852.741577	203.600000
852.775269	189.200000
852.809021	197.000000
852.842651	198.300000
852.876404	200.400000
852.910034	195.900000
852.943787	200.700000
852.977478	196.800000
853.011108	190.500000
853.044861	191.600000
853.078552	201.600000
853.112183	197.400000
853.145874	197.500000
853.179626	184.800000
853.213257	196.100000
853.246948	192.200000
853.280640	204.700000
853.314270	194.800000
853.347961	201.500000
853.381653	198.100000
853.415283	198.800000
853.448975	192.700000
853.482605	196.400000
853.516296	195.100000
853.549988	189.200000
853.583618	196.300000
853.617310	196.400000
853.651001	197.500000
853.684631	189.800000
853.718323	191.300000
853.751953	203.800000
853.785583	185.800000
853.819275	200.400000
853.852966	195.700000
853.886536	185.500000
853.920227	190.900000
853.953918	201.100000
853.987488	192.600000
854.021179	199.100000
854.054749	202.200000
854.088440	197.200000
854.122131	191.800000
854.155701	199.800000
854.189331	190.700000
854.223022	198.400000
854.256592	197.700000
854.290283	190.600000
854.323914	198.300000
854.357483	195.800000
854.391174	197.400000
854.424744	204.800000
854.458374	197.500000
854.492065	205.700000
854.525696	194.800000
854.559265	203.000000
854.592896	205.100000
854.626465	196.500000
854.660095	196.000000
854.693787	197.800000
854.727356	193.700000
854.760986	198.500000
854.794617	196.300000
854.828186	193.500000
854.861816	199.400000
854.895447	195.500000
854.929016	197.100000
854.962585	198.400000
854.996155	203.200000
855.029785	196.100000
855.063416	197.200000
855.097046	199.300000
855.130615	189.400000
855.164185	200.100000
855.197754	195.400000
855.231384	198.100000
855.264954	193.500000
855.298523	199.400000
855.332153	195.600000
855.365723	202.600000
855.399292	191.800000
855.432922	194.800000
855.466492	197.700000
855.500061	189.200000
855.533630	192.200000
855.567200	197.900000
855.600769	200.200000
855.634338	200.400000
855.667969	196.900000
855.701477	190.000000
855.735046	190.300000
855.768616	186.200000
855.802185	196.600000
855.835754	210.600000
855.869324	185.900000
855.902893	193.600000
855.936401	203.300000
855.969971	196.700000
856.003540	189.100000
856.037109	199.100000
856.070618	195.300000
856.104187	189.100000
856.137695	193.000000
856.171265	186.200000
856.204834	196.300000
856.238403	201.000000
856.271912	192.800000
856.305481	196.400000
856.338989	188.100000
856.372559	197.900000
856.406128	196.000000
856.439636	199.600000
856.473145	193.100000
856.506653	202.000000
856.540222	196.800000
856.573792	203.000000
856.607300	198.300000
856.640808	189.600000
856.674377	195.700000
856.707825	224.300000
856.741394	198.900000
856.774902	192.400000
856.808472	187.500000
856.841980	197.900000
856.875488	204.600000
856.908936	188.000000
856.942505	193.700000
856.976013	195.300000
857.009521	190.400000
857.043030	195.400000
857.076477	195.300000
857.110046	201.800000
857.143555	197.200000
857.177063	200.700000
857.210571	192.300000
857.244080	188.900000
857.277527	198.400000
857.311035	194.400000
857.344543	200.800000
857.378052	194.100000
857.411499	200.500000
857.445068	206.200000
857.478516	195.000000
857.512024	189.000000
857.545532	194.000000
857.578979	197.200000
857.612427	195.800000
857.645874	192.200000
857.679382	196.100000
857.712891	200.300000
857.746399	194.000000
857.779846	202.000000
857.813354	200.500000
857.846741	195.800000
857.880249	190.900000
857.913757	196.300000
857.947266	197.000000
857.980652	198.500000
858.014160	192.200000
858.047546	195.300000
858.081055	193.800000
858.114563	203.300000
858.147949	189.700000
858.181458	199.300000
858.214844	194.200000
858.248352	185.900000
858.281799	200.200000
858.315308	209.300000
858.348694	198.600000
858.382141	203.800000
858.415588	198.500000
858.449036	201.100000
858.482483	198.800000
858.515930	191.000000
858.549377	195.000000
858.582825	203.800000
858.616211	197.300000
858.649658	198.400000
858.683105	190.300000
858.716553	192.100000
858.750000	190.000000
858.783386	192.600000
858.816833	185.600000
858.850281	196.600000
858.883728	197.800000
858.917114	194.000000
858.950562	203.900000
858.983948	202.400000
859.017395	200.800000
859.050781	194.600000
859.084167	191.900000
859.117615	189.500000
859.151062	199.500000
859.184448	192.000000
859.217834	193.300000
859.251282	193.100000
859.284668	192.100000
859.318054	186.200000
859.351440	192.600000
859.384888	203.100000
859.418274	186.900000
859.451721	186.400000
859.485046	198.000000
859.518494	195.400000
859.551819	192.900000
859.585266	198.100000
859.618652	197.600000
859.652039	188.900000
859.685425	190.200000
859.718811	188.300000
859.752197	183.600000
859.785583	202.400000
859.819031	203.800000
859.852356	198.300000
859.885742	192.300000
859.919067	193.900000
859.952454	192.400000
859.985901	199.800000
860.019287	192.600000
860.052612	0.000000
860.085999	0.000000
860.119324	0.000000
860.152710	0.000000
860.186096	0.000000
860.219421	0.000000
860.252808	0.000000
860.286133	0.000000
860.319519	0.000000
860.352905	0.000000
860.386292	0.000000
860.419617	0.000000
860.452942	0.000000
860.486267	0.000000
860.519653	0.000000
860.553040	0.000000
860.586365	0.000000
860.619690	0.000000
860.653076	0.000000
860.686340	0.000000
860.719727	0.000000
860.753113	0.000000
860.786377	0.000000
860.819763	0.000000
860.853027	0.000000
860.886414	0.000000
860.919739	0.000000
860.953125	0.000000
860.986389	0.000000
861.019714	0.000000
861.053040	0.000000
861.086365	0.000000
861.119690	0.000000
861.153076	0.000000
861.186340	0.000000
861.219666	0.000000
861.252930	0.000000
861.286316	0.000000
861.319641	0.000000
861.352905	0.000000
861.386230	0.000000
861.419495	0.000000
861.452820	0.000000
861.486145	0.000000
861.519470	0.000000
861.552734	0.000000
861.586060	0.000000
861.619324	0.000000
861.652649	0.000000
861.685974	0.000000
861.719238	0.000000
861.752563	0.000000
861.785828	0.000000
861.819092	0.000000
861.852417	0.000000
861.885742	0.000000
861.918945	0.000000
861.952271	0.000000
861.985535	0.000000
862.018799	0.000000
862.052124	0.000000
862.085449	0.000000
862.118652	0.000000
862.151978	0.000000
862.185181	0.000000
862.218506	0.000000
862.251770	0.000000
862.285034	0.000000
862.318298	0.000000
862.351562	0.000000
862.384827	0.000000
862.418091	0.000000
862.451355	0.000000
862.484619	0.000000
862.517883	0.000000
862.551086	0.000000
862.584351	0.000000
862.617676	0.000000
862.650940	0.000000
862.684143	0.000000
862.717407	0.000000
862.750610	0.000000
862.783875	0.000000
862.817139	0.000000
862.850342	0.000000
862.883606	0.000000
862.916870	0.000000
862.950073	0.000000
862.983337	0.000000
863.016602	0.000000
863.049805	0.000000
863.083069	0.000000
863.116211	0.000000
863.149475	0.000000
863.182739	0.000000
863.216003	0.000000
863.249146	0.000000
863.282410	0.000000
863.315613	0.000000
863.348816	0.000000
863.382080	0.000000
863.415222	0.000000
863.448486	0.000000
863.481689	0.000000
863.514893	0.000000
863.548157	0.000000
863.581360	0.000000
863.614502	0.000000
863.647766	0.000000
863.680908	0.000000
863.714172	0.000000
863.747375	0.000000
863.780579	0.000000
863.813721	0.000000
863.846985	0.000000
863.880127	0.000000
863.913330	0.000000
863.946533	0.000000
863.979675	0.000000
864.012939	0.000000
